time,seconds_elapsed,rotationRateX,rotationRateY,rotationRateZ,gravityX,gravityY,gravityZ,accelerationX,accelerationY,accelerationZ,quaternionW,quaternionX,quaternionY,quaternionZ
1681248744941309400,0.100309326171875,-0.01998680643737316,-0.024214057251811028,0.02266692742705345,-0.08748197555541992,-0.21783295273780823,-0.9720574617385864,0.0008730962872505188,-0.01632840931415558,-0.0022162199020385742,0.9929898118797124,0.10968539399808774,-0.0440497867597824,8.726993690450857e-18
1681248744956342500,0.115342529296875,0.012935617007315159,-0.02519623003900051,0.029887553304433823,-0.08790209144353867,-0.21781012415885925,-0.97202467918396,-0.006839729845523834,0.0024781078100204468,-0.006399393081665039,0.9929815683237204,0.10968171629293134,-0.0442445699147869,0.00015502630987572057
1681248744971374600,0.13037451171875,0.034476328641176224,-0.03278890252113342,0.04707906022667885,-0.08834763616323471,-0.21812795102596283,-0.9719130396842957,0.0060875192284584045,0.017749562859535217,-0.005793869495391846,0.9929534033742687,0.10985741853353229,-0.0444392009098799,0.0004347561682729329
1681248744986407400,0.145407470703125,0.016172688454389572,-0.033996909856796265,0.0572989396750927,-0.08892791718244553,-0.21839983761310577,-0.9717990159988403,0.007079742848873138,0.006073713302612305,-0.007815182209014893,0.9929246825814289,0.10997804508397953,-0.04478079516320182,2.7114788573586135e-17
1681248745001440500,0.1604404296875,-0.012504815123975277,-0.041937924921512604,0.049577634781599045,-0.08955728262662888,-0.21812427043914795,-0.9718031287193298,0.006839357316493988,-0.01449604332447052,0.009904325008392334,0.9929257249505177,0.10985648461200377,-0.04505545023282201,0.00038164262534158127
1681248745016473600,0.1754736328125,-0.008609995245933533,-0.028168318793177605,0.04033433645963669,-0.09008896350860596,-0.21798472106456757,-0.971785306930542,0.005677312612533569,-0.013445422053337097,0.011580228805541992,0.9929210222556598,0.10980034259314744,-0.04529065582480561,0.000677941421242538
1681248745031506400,0.19050634765625,0.015739712864160538,-0.015840545296669006,0.03581788390874863,-0.09048242121934891,-0.21809785068035126,-0.9717233180999756,0.0021950379014015198,0.014164045453071594,0.0010202527046203613,0.9929052127051846,0.10987058381969868,-0.04546188144691379,0.0009271931010200789
1681248745046539500,0.20553955078125,0.027228057384490967,-0.0015391036868095398,0.035491909831762314,-0.09075086563825607,-0.21819669008255005,-0.9716761112213135,0.005957745015621185,0.013240545988082886,-0.001376807689666748,0.9928930106071546,0.10993485443756865,-0.0455660781472373,0.0012115527268445614
1681248745061572400,0.220572265625,0.0397445373237133,0.007630958687514067,0.03318055346608162,-0.09067405760288239,-0.21838581562042236,-0.9716408252716064,-0.0032896026968955994,-0.0019359290599822998,-0.0001914501190185547,0.9928838475804282,0.11004268906380121,-0.045499487586463966,0.0014659895059685748
1681248745076604000,0.23560400390625,0.027191411703824997,0.007862919941544533,0.034541960805654526,-0.09060885012149811,-0.21891692280769348,-0.9715273380279541,-0.00384308397769928,-0.002060934901237488,0.001388847827911377,0.9928548480613301,0.11032538390368879,-0.04543816238532261,0.0017305598671679648
1681248745091637000,0.250636962890625,0.018041908740997314,0.005481787957251072,0.030746158212423325,-0.09051128476858139,-0.2195335030555725,-0.971397340297699,-0.0011025145649909973,0.0021261870861053467,0.010139405727386475,0.9928216397775691,0.11065044877202208,-0.04536318150240052,0.0019710186934108072
1681248745106669800,0.265669921875,0.01118560042232275,0.004767527803778648,0.03366684541106224,-0.09052984416484833,-0.2196759432554245,-0.971363365650177,-0.00351010262966156,-0.0021411478519439697,0.013721823692321777,0.9928125578745927,0.11073469709772152,-0.04534461552390333,0.002223511090343967
1681248745121703000,0.280702880859375,0.00811162032186985,0.005746772512793541,0.02193828485906124,-0.0904984325170517,-0.21949346363544464,-0.9714075922966003,-0.007890269160270691,0.002223476767539978,0.006197631359100342,0.9928231456950548,0.11065147254737331,-0.04530419382191953,0.0024415761932244746
1681248745136736000,0.295736083984375,-0.0019892705604434013,0.005854097660630941,0.004831736907362938,-0.0904359519481659,-0.2194932997226715,-0.9714134335517883,-0.009203970432281494,0.0028794407844543457,0.00244981050491333,0.9928243696128681,0.11065558723636262,-0.04526180993863397,0.002538936897679353
1681248745151768800,0.310768798828125,-0.021658580750226974,0.003543538972735405,-0.0036176745779812336,-0.09041672199964523,-0.21931180357933044,-0.9714561700820923,-0.010184511542320251,-0.009722694754600525,0.0045067667961120605,0.9928351105568898,0.11056333219594987,-0.04525097540681719,0.0025469750982533923
1681248745166802000,0.325802001953125,-0.03590356186032295,0.006623484659940004,-0.01315365545451641,-0.09031352400779724,-0.2188744843006134,-0.9715644121170044,-0.009494245052337646,-0.00648266077041626,0.00606459379196167,0.9928625803154771,0.11033660305290022,-0.04520644051102358,0.002474056819957177
1681248745181835000,0.3408349609375,-0.0372917614877224,0.0023906566202640533,-0.01862485334277153,-0.0902424082159996,-0.21841560304164886,-0.9716743230819702,-0.0064067840576171875,-0.0006091296672821045,0.0019019842147827148,0.9928905954981601,0.11009630620671168,-0.04518468825520513,0.0023411624872886217
1681248745196867800,0.355867919921875,-0.03475281223654747,0.0005011437460780144,-0.021924244239926338,-0.09020067751407623,-0.21792419254779816,-0.9717885255813599,-0.004373326897621155,-0.003984466195106506,-0.0010508298873901367,0.9929197044193521,0.10983786093997348,-0.04518181004274078,0.002170754462366199
1681248745211900000,0.37089990234375,0.009228602983057499,-0.002787327393889427,-0.0209756251424551,-0.09032896906137466,-0.21779534220695496,-0.9718054533004761,0.0017058923840522766,-0.00040543079376220703,-0.0028648972511291504,0.9929243400570291,0.10976529799478464,-0.04526417132709661,0.002009634259585204
1681248745226933000,0.38593310546875,0.021830948069691658,-0.0014392351731657982,-0.017825106158852577,-0.09034831076860428,-0.21815615892410278,-0.9717227220535278,0.003617323935031891,0.00769159197807312,-0.004076778888702393,0.9929037992139969,0.1099424955706638,-0.04529105873962857,0.0018599852518615342
1681248745241966000,0.400966064453125,0.01395076047629118,0.010169217362999916,-0.015718812122941017,-0.09038881957530975,-0.2186414748430252,-0.971609890460968,0.005031131207942963,0.010130047798156738,0.006949305534362793,0.992875545160284,0.11018560857972169,-0.045323166260912734,0.0017619864819543411
1681248745256999000,0.4159990234375,-0.011486848816275597,0.015360517427325249,-0.017026690766215324,-0.09020084887742996,-0.21869120001792908,-0.9716161489486694,0.0007080212235450745,-0.004636526107788086,0.005765378475189209,0.9928772955667602,0.11020538175137393,-0.045240395406728216,0.0016538599404467408
1681248745272032000,0.431031982421875,-0.016320912167429924,0.019055387005209923,-0.014361664652824402,-0.08997704088687897,-0.2185414731502533,-0.9716705679893494,0.00471089780330658,-0.012003645300865173,0.006491184234619141,0.9928910887050529,0.11012368441038213,-0.045138416650802794,0.0015527003757297353
1681248745287065000,0.446065185546875,-0.02292661741375923,0.016784776002168655,-0.003796372562646866,-0.08967195451259613,-0.2183181792497635,-0.9717490077018738,0.004909344017505646,-0.0067032575607299805,0.0030447840690612793,0.9929110283503875,0.11000564181354804,-0.04499177426473155,0.001483074767875059
1681248745302098000,0.461097900390625,-0.030215956270694733,0.0021416512317955494,0.006517517380416393,-0.08949647843837738,-0.2178245186805725,-0.9718759655952454,0.005618877708911896,-0.0035195499658584595,0.005033314228057861,0.9929429437594195,0.10975416858563573,-0.04490043275993288,0.0015003685079368774
1681248745317131000,0.476131103515625,-0.008375797420740128,-0.000012313947081565857,0.015482516959309578,-0.08949270099401474,-0.2173626571893692,-0.9719796776771545,0.004272334277629852,-0.010725796222686768,0.0038858652114868164,0.9929688442461779,0.10952265162978461,-0.044888117998714075,0.0015873352911407463
1681248745332163800,0.491163818359375,0.008584490977227688,-0.0019425731152296066,0.016469217836856842,-0.0895296186208725,-0.21732811629772186,-0.9719840288162231,0.002096734941005707,0.016827568411827087,0.00108259916305542,0.9929697921776665,0.10950984334034235,-0.044895279882914585,0.0016907415496029696
1681248745347197000,0.506197021484375,0.01238961610943079,0.0022987774573266506,0.012174604460597038,-0.08959805220365524,-0.21762248873710632,-0.9719118475914001,0.0015548095107078552,0.020723000168800354,0.00009489059448242188,0.9929514814461644,0.1096648283071452,-0.044918827276360145,0.0017946361095604823
1681248745362229000,0.52122900390625,-0.0003426913172006607,0.004043680615723133,0.0028820366133004427,-0.08951935917139053,-0.21791455149650574,-0.9718536734580994,-0.0024606510996818542,0.0031927824020385742,0.005377233028411865,0.9929367796616659,0.10981570979189788,-0.04487405346009694,0.0018447449889245834
1681248745377261800,0.53626171875,-0.00897735171020031,0.005580324679613113,-0.0007955227047204971,-0.08943416178226471,-0.2178884744644165,-0.9718673229217529,-0.0032477527856826782,-0.00011393427848815918,0.006611645221710205,0.9929401517867782,0.10980212036650734,-0.044831032478789355,0.001844677385153377
1681248745392295000,0.551294921875,0.010427025146782398,0.005420268513262272,-0.011778931133449078,-0.08928201347589493,-0.21802879869937897,-0.9718498587608337,0.0012387633323669434,0.006068885326385498,0.008837223052978516,0.992935873510704,0.10987120878710653,-0.044759183288241224,0.0018021743058388245
1681248745407328000,0.566327880859375,0.03557845205068588,0.008393954485654831,-0.01312009897083044,-0.08914662152528763,-0.21841950714588165,-0.9717745780944824,-0.0006513893604278564,0.010014891624450684,0.004947185516357422,0.9929171043994638,0.11006639170230668,-0.044700200080221957,0.0017236615515170627
1681248745422360800,0.58136083984375,0.04297516867518425,0.011434218846261501,-0.012883876450359821,-0.08896639943122864,-0.21867595613002777,-0.9717333912849426,0.00028228759765625,0.010225549340248108,0.0018695592880249023,0.9929068671305565,0.11019342558521046,-0.044617337930603865,0.0016547210126682263
1681248745437394000,0.596393798828125,0.047307759523391724,0.013949042186141014,-0.010784240439534187,-0.08875606209039688,-0.21922193467617035,-0.9716296195983887,0.0020555928349494934,0.00216558575630188,0.002376079559326172,0.9928808407026488,0.11046849722839192,-0.044518571256434984,0.0015967863801665235
1681248745452427000,0.611427001953125,0.05967707559466362,0.019019966945052147,-0.011395435780286789,-0.08854423463344574,-0.2199704647064209,-0.9714797735214233,-0.0006739422678947449,-0.011307090520858765,-0.00024569034576416016,0.9928431158615311,0.1108477256001236,-0.0444173821622446,0.0015573096026461064
1681248745467459800,0.6264599609375,0.10750025510787964,0.01710861548781395,-0.016442926600575447,-0.08824741840362549,-0.2211383730173111,-0.9712415933609009,0.0005093514919281006,-0.004920661449432373,-0.003962874412536621,0.9927832294181355,0.11143995253127657,-0.04427579048826032,0.0015025886658435216
1681248745482493000,0.641492919921875,0.16064326465129852,0.019915321841835976,-0.02529953420162201,-0.0879148319363594,-0.2229456901550293,-0.9708585143089294,0.00020728260278701782,0.0025934427976608276,-0.011044561862945557,0.9926869449468789,0.1123565925633973,-0.04412200363365529,0.0014069388876878455
1681248745497526000,0.656526123046875,0.18224015831947327,0.03679417073726654,-0.03498438373208046,-0.08740193396806717,-0.22539588809013367,-0.9703388810157776,0.0003199949860572815,0.010201096534729004,-0.012983202934265137,0.9925561533303894,0.11359864001409843,-0.043885050710716945,0.0012552133483035367
1681248745512558000,0.67155810546875,0.17458847165107727,0.04388989508152008,-0.034056540578603745,-0.08670724928379059,-0.22786888480186462,-0.9698234796524048,-0.0015801414847373962,0.001321554183959961,-0.0024817585945129395,0.9924265938699165,0.11485127031990557,-0.04355955463774396,0.001079341997750451
1681248745527591000,0.6865908203125,0.1392824351787567,0.05813727527856827,-0.026819933205842972,-0.08584020286798477,-0.23020398616790771,-0.9693490266799927,-0.0012570023536682129,-0.010396674275398254,-0.0012472271919250488,0.9923071866228785,0.11603516870923959,-0.04314296108708166,0.000939633683077546
1681248745542624000,0.7016240234375,0.11311820149421692,0.059866465628147125,-0.02601459249854088,-0.08490768074989319,-0.23203258216381073,-0.9689951539039612,-0.006141543388366699,-0.013160988688468933,0.0017862915992736816,0.9922181215167056,0.11696158474049317,-0.04268983903584088,0.0008225637187078764
1681248745557657000,0.716656982421875,0.08607257157564163,0.05274756997823715,-0.021356724202632904,-0.0840316042304039,-0.23339837789535522,-0.9687434434890747,-0.0045914724469184875,-0.0052033960819244385,0.0034572482109069824,0.992154771966996,0.11765350686706232,-0.0422602057047793,0.000740617810256409
1681248745572690000,0.73168994140625,0.07265529781579971,0.04384329169988632,-0.030947033315896988,-0.08329221606254578,-0.23418910801410675,-0.9686164855957031,-0.0009058043360710144,0.006878852844238281,0.0139046311378479,0.9921229475996857,0.11805107637028592,-0.04190114696999382,0.0006354811723818703
1681248745587723000,0.746722900390625,0.06169932335615158,0.04229146987199783,-0.0426926389336586,-0.08258086442947388,-0.23505480587482452,-0.968467652797699,-0.0027310550212860107,0.005211591720581055,0.01328277587890625,0.992085538388989,0.11848264910648633,-0.04156950412865663,0.00042140947450247483
1681248745602756000,0.761756103515625,0.03275613859295845,0.0391492024064064,-0.045307062566280365,-0.08189382404088974,-0.23575827479362488,-0.9683550000190735,-0.0025178268551826477,0.014322638511657715,0.013124346733093262,0.9920571908998679,0.11882885203154953,-0.041257674059701425,0.0001425479719983723
1681248745617789000,0.776788818359375,-0.005170895718038082,0.029531730338931084,-0.034660011529922485,-0.08131252974271774,-0.23608273267745972,-0.9683249592781067,-0.0011002197861671448,0.0073228925466537476,0.01324683427810669,0.9920495634023836,0.11898325042061493,-0.0409940497114287,-0.00009969863119745179
1681248745632822000,0.791822021484375,-0.056505560874938965,0.02554338052868843,-0.015426662750542164,-0.08093176037073135,-0.23578962683677673,-0.9684282541275024,0.000212743878364563,-0.003773435950279236,0.015059173107147217,0.992075552822797,0.11882541390798916,-0.040821457568355334,-0.0002700504267280843
1681248745647855000,0.806855224609375,-0.10704490542411804,0.021054355427622795,-0.0008376006735488772,-0.0805833488702774,-0.23455636203289032,-0.9687567353248596,0.00305340439081192,0.0021496713161468506,0.021414875984191895,0.9921583096848414,0.11819130153006188,-0.04065026336809902,-0.0003369382418073798
1681248745662887000,0.821886962890625,-0.12153798341751099,0.018820762634277344,0.007444564253091812,-0.08037801831960678,-0.23278310894966125,-0.9692014455795288,0.004114553332328796,-0.005605041980743408,0.02422463893890381,0.9922703825701769,0.11728554270561017,-0.040538756497658354,-0.000310347257072821
1681248745677919700,0.836919677734375,-0.11780545860528946,0.02667415887117386,0.00896656047552824,-0.0801369920372963,-0.23097294569015503,-0.9696543216705322,0.0039956048130989075,-0.00379885733127594,0.017795860767364502,0.9923844610460842,0.11636198250575043,-0.04040688977090733,-0.0002635956410797225
1681248745692952800,0.851952880859375,-0.14070779085159302,0.03016849234700203,0.012589791789650917,-0.07982295006513596,-0.22908292710781097,-0.9701284766197205,0.0014232546091079712,0.012606397271156311,0.009587764739990234,0.9925039300449392,0.11539844427828656,-0.040236191882556345,-0.00020021112616391284
1681248745707986000,0.86698583984375,-0.23294290900230408,0.04077399522066116,0.03907386213541031,-0.07940034568309784,-0.22649680078029633,-0.9707701802253723,0.0009548813104629517,-0.00026413798332214355,0.01065671443939209,0.9926656048563282,0.11408315658184119,-0.03999917887526264,-0.00004941341419133305
1681248745723019000,0.88201904296875,-0.4396398067474365,0.07517565041780472,0.14054402709007263,-0.0788080021739006,-0.221803218126297,-0.971901535987854,-0.00026308000087738037,-0.040495455265045166,0.01868504285812378,0.9929503940076843,0.1117097603432918,-0.03962515783533506,0.0005208537821980943
1681248745738051800,0.8970517578125,-0.7925807237625122,0.08846376091241837,0.2387171983718872,-0.07830755412578583,-0.2128630131483078,-0.973939061164856,0.00738467276096344,-0.07259850203990936,0.025757908821105957,0.9934616991129311,0.1072040768258757,-0.0392143248682033,0.0018268665794097234
1681248745753085000,0.9120849609375,-1.2635775804519653,0.1731211245059967,0.3360733091831207,-0.07735580205917358,-0.19788001477718353,-0.9771691560745239,-0.0038667693734169006,-0.10149751603603363,0.0665552020072937,0.9942687209481481,0.099657493114897,-0.03852010882691455,0.003798635459562652
1681248745768118000,0.927117919921875,-1.633895993232727,0.20565642416477203,0.294924259185791,-0.07535425573587418,-0.1759519875049591,-0.9815104007720947,-0.02456033229827881,-0.11736778914928436,0.07426857948303223,0.9953488740661118,0.08861162724048874,-0.03732006486640846,0.005988407234224987
1681248745783150800,0.94215087890625,-1.778120994567871,0.25196558237075806,0.15757440030574799,-0.07252649962902069,-0.1500488817691803,-0.9860148429870605,-0.0443253368139267,-0.10634464025497437,0.06194257736206055,0.9964704842084402,0.0755545758827841,-0.035834234574083995,0.007352220357192878
1681248745798183000,0.957182861328125,-1.5834461450576782,0.21042481064796448,-0.04348066821694374,-0.06914284825325012,-0.12472284585237503,-0.989779531955719,-0.038507938385009766,-0.05963393300771713,0.0683470368385315,0.9974136070171759,0.06277886916553085,-0.03419151532088826,0.0074602032134191846
1681248745813216000,0.972216064453125,-0.9820759296417236,0.1467161476612091,-0.18363378942012787,-0.06628190726041794,-0.10540018230676651,-0.9922184944152832,-0.01150742918252945,0.08441925793886185,0.006439685821533203,0.9980325679753589,0.053012739559568124,-0.03286959104548488,0.006338708451230431
1681248745828249000,0.9872490234375,-0.39360493421554565,0.10949793457984924,-0.2566142678260803,-0.06412111967802048,-0.09548956900835037,-0.993363082408905,0.0036505162715911865,0.1381225436925888,-0.0628349781036377,0.9983291918636785,0.04796847354653119,-0.03189799746998345,0.004500004770157203
1681248745843282000,1.002281982421875,0.009734070859849453,0.0834045484662056,-0.24504202604293823,-0.062324315309524536,-0.09318630397319794,-0.9936961531639099,0.00025152787566185,0.19468767940998077,-0.06682020425796509,0.9984194252221319,0.0467466405572787,-0.03109161848776182,0.0025602352768580687
1681248745858315000,1.01731494140625,0.09291912615299225,0.06216131150722504,-0.13339830935001373,-0.06093991920351982,-0.0944305881857872,-0.9936645030975342,0.003368474543094635,0.10405879467725754,-0.07632750272750854,0.998414201659531,0.04732591039291028,-0.030463012758849328,0.001167537782828354
1681248745873348000,1.03234814453125,0.040252991020679474,0.04583826661109924,-0.025807132944464684,-0.06005816161632538,-0.0954711064696312,-0.9936187863349915,0.03330947086215019,-0.05607927590608597,-0.027789294719696045,0.9984031761296871,0.047830802825347456,-0.030047020252087654,0.0006280496132602354
1681248745888381000,1.047380859375,0.026858888566493988,0.03262472525238991,0.03336004912853241,-0.059468481689691544,-0.09589925408363342,-0.9936130046844482,0.034657660871744156,-0.07943957298994064,-0.011696994304656982,0.9984017147386887,0.04804742336594922,-0.02974786116022092,0.0007060819415136556
1681248745903414000,1.0624140625,0.047298066318035126,0.01905112713575363,0.0520772784948349,-0.05916537716984749,-0.09635209292173386,-0.99358731508255,0.0369638055562973,-0.04138908535242081,0.0015524029731750488,0.9983949298780364,0.04828526341180131,-0.02957838958704018,0.0010722562618525997
1681248745918447000,1.077447021484375,0.1304001361131668,0.019243938848376274,0.048984818160533905,-0.05889849737286568,-0.09750377386808395,-0.9934908151626587,0.03010512888431549,-0.019897446036338806,0.0015474557876586914,0.9983702041777874,0.04887570627027913,-0.029423844414913625,0.0015009204431198349
1681248745933480000,1.09247998046875,0.2011813074350357,0.03346947953104973,0.0428939014673233,-0.05860248580574989,-0.10004317760467529,-0.9932557940483093,0.006859898567199707,0.01071813702583313,-0.0218503475189209,0.9983107432454845,0.05016145380686877,-0.029256141724308446,0.0018843618817510881
1681248745948513000,1.107512939453125,0.22024580836296082,0.051916398108005524,0.02260434255003929,-0.058032236993312836,-0.10320736467838287,-0.9929655194282532,-0.0009430162608623505,0.02549426257610321,-0.012283504009246826,0.9982373851772472,0.051758341718285444,-0.028953767694454173,0.0021906741930749693
1681248745963544800,1.122544921875,0.19304238259792328,0.05417369306087494,0.020416822284460068,-0.057260289788246155,-0.10632163286209106,-0.9926816821098328,-0.006338376551866531,0.015440195798873901,-0.004037618637084961,0.9981658049330445,0.05332779296547656,-0.028553345038020875,0.0024222307278367722
1681248745978578000,1.137577880859375,0.11618700623512268,0.061789266765117645,0.004619749262928963,-0.05642937123775482,-0.10865999013185501,-0.9924760460853577,-0.004773661494255066,0.0004293173551559448,0.0026232004165649414,0.9981138552586439,0.05450513609686811,-0.02812756722207297,0.0025716874431329184
1681248745993610800,1.15261083984375,0.13068531453609467,0.05509860813617706,-0.025214046239852905,-0.05550800636410713,-0.11044126749038696,-0.9923313856124878,-0.006244346499443054,-0.0089283287525177,0.006995081901550293,0.9980777837326559,0.05539746765179931,-0.027666324736233983,0.002542683583195828
1681248746008643800,1.167643798828125,0.17784243822097778,0.05064154416322708,-0.03329594060778618,-0.05462269484996796,-0.11270535737276077,-0.992125928401947,-0.008441910147666931,-0.0066794827580451965,-0.004745960235595703,0.9980267098995018,0.056529144025517696,-0.027230318374710245,0.00238394773467506
1681248746023677000,1.182677001953125,0.22374260425567627,0.05040238797664642,-0.04688312113285065,-0.053803034126758575,-0.11550181359052658,-0.9918490648269653,-0.01167246326804161,0.020805679261684418,-0.009081721305847168,0.9979578444695023,0.057926432319620996,-0.026832767934202875,0.002132816870710452
1681248746038709800,1.197709716796875,0.2394411414861679,0.05347195267677307,-0.05110077187418938,-0.05296073108911514,-0.11883463710546494,-0.9915006160736084,-0.010424312204122543,0.017928190529346466,-0.003219783306121826,0.9978711587917504,0.0595939729461991,-0.02642433479693649,0.0018841345828792438
1681248746053742800,1.212742919921875,0.2028120756149292,0.04582974314689636,-0.04303352162241936,-0.052247315645217896,-0.12173396348953247,-0.9911866784095764,-0.005308866500854492,0.0031425803899765015,0.005056977272033691,0.9977929314130681,0.0610438916980608,-0.026082505253011954,0.0016171826598418292
1681248746068776000,1.22777587890625,0.15607120096683502,0.03812415152788162,-0.035800378769636154,-0.05163155868649483,-0.12448205798864365,-0.9908775687217712,-0.003559514880180359,-0.006636805832386017,0.009813785552978516,0.9977158600747373,0.062419061908605834,-0.02578886245522923,0.001374943944757734
1681248746083809000,1.24280908203125,0.09875880926847458,0.02313055470585823,-0.02910066395998001,-0.051288630813360214,-0.12632744014263153,-0.9906617999076843,-0.004085548222064972,-0.022125408053398132,0.014724969863891602,0.997662064637221,0.06334184046277756,-0.02563001659485523,0.0011717363014558532
1681248746098841900,1.257841796875,0.09710503369569778,0.021730531007051468,-0.03756712004542351,-0.051130253821611404,-0.1275031417608261,-0.9905194044113159,-0.0014363080263137817,-0.018401488661766052,0.013193964958190918,0.9976265626880867,0.06392860085526338,-0.025562528534389478,0.0009896849428700876
1681248746113875000,1.272875,0.0753556415438652,0.018058300018310547,-0.047846123576164246,-0.050868261605501175,-0.12805522978305817,-0.9904616475105286,-0.01808623969554901,-0.000057637691497802734,-0.00027620792388916016,0.9976123667892036,0.06419828653529336,-0.025451041513588263,0.0006831420482501319
1681248746128907000,1.287906982421875,0.1014183983206749,0.02059416100382805,-0.036646731197834015,-0.05062073841691017,-0.12924298644065857,-0.9903200268745422,-0.0015643537044525146,0.012131690979003906,0.02079188823699951,0.9975770447004778,0.06478826093070257,-0.025346761280977115,0.0003862002109384051
1681248746143940000,1.302940185546875,0.09379403293132782,0.020333971828222275,-0.030021585524082184,-0.050338055938482285,-0.13072913885116577,-0.990139365196228,-0.002472642809152603,0.009253844618797302,0.005138814449310303,0.9975317624802458,0.06553075854009172,-0.02521972774862777,0.00017623822963579693
1681248746158973000,1.317972900390625,0.035038627684116364,0.015298198908567429,-0.024667831137776375,-0.050102852284908295,-0.13186109066009521,-0.9900012016296387,-0.0020212046802043915,0.004282251000404358,0.004329204559326172,0.9974972201494893,0.06609576580350031,-0.025114806091357942,-0.000007923670485317286
1681248746174006000,1.333006103515625,-0.02227845788002014,0.0077172452583909035,-0.026703817769885063,-0.04986772686243057,-0.1321728378534317,-0.9899715185165405,-0.0038890205323696136,-0.02874644100666046,0.017254233360290527,0.9974897390360667,0.06624789795038773,-0.02500940411725416,-0.00019263021789521468
1681248746189039000,1.3480390625,-0.029568858444690704,-0.0005420166999101639,-0.014184564352035522,-0.049856651574373245,-0.13188780844211578,-0.9900100827217102,-0.002069041132926941,-0.03132028877735138,0.025074779987335205,0.9974992936235323,0.06610032248365058,-0.02501434961810054,-0.00035506905038847883
1681248746204072000,1.363072021484375,-0.0344267338514328,0.0018484368920326233,-0.0065135955810546875,-0.049999918788671494,-0.1313224583864212,-0.9900779724121094,0.005108531564474106,0.013204097747802734,0.00794607400894165,0.997516382169313,0.06581387372470084,-0.025090630619319723,-0.000430852425392165
1681248746219105000,1.37810498046875,-0.08027251809835434,-0.007573826238512993,0.004344644024968147,-0.04993920028209686,-0.1303473562002182,-0.9902098774909973,-0.00007914379239082336,0.009253516793251038,0.00729978084564209,0.9975493791088506,0.06532237745067351,-0.025060681240599816,-0.00045415167623250106
1681248746234138000,1.39313818359375,-0.10671232640743256,-0.015029612928628922,0.0033997551072388887,-0.05020178481936455,-0.1288730502128601,-0.9903895854949951,0.008026458323001862,-0.027743250131607056,0.008059263229370117,0.9975943500152962,0.06458103136141514,-0.025189311859410743,-0.0004308226057141336
1681248746249171000,1.4081708984375,-0.1245427206158638,-0.004094140604138374,-0.011900371871888638,-0.05035350099205971,-0.12741807103157043,-0.9905701279640198,0.00883430615067482,-0.01598411798477173,0.007629454135894775,0.9976395700671044,0.06384752819820913,-0.02526725705269302,-0.00048340391386757415
1681248746264204000,1.4232041015625,-0.1438780128955841,-0.011453254148364067,-0.01657315529882908,-0.050422266125679016,-0.1260136514902115,-0.990746259689331,0.0018992871046066284,0.0013492554426193237,0.013359785079956055,0.9976836983276354,0.06313716138752662,-0.025309442473663735,-0.0006285422590390826
1681248746279237000,1.438237060546875,-0.1237090528011322,-0.010184258222579956,-0.009583154693245888,-0.05055874586105347,-0.12427916377782822,-0.9909583926200867,0.0024019740521907806,-0.018894150853157043,0.00183790922164917,0.9977367626303234,0.0622609430416669,-0.025384773515135597,-0.0007701175387752501
1681248746294269000,1.45326904296875,-0.1214558556675911,-0.019682686775922775,-0.011899839155375957,-0.05069999396800995,-0.12236003577709198,-0.9911899566650391,0.007731214165687561,-0.003021515905857086,0.004541456699371338,0.9977947004750769,0.06129279625228102,-0.025460043102635853,-0.0008793842671534096
1681248746309301800,1.4683017578125,-0.1127782091498375,-0.02343135140836239,0.019554490223526955,-0.05102520063519478,-0.12078195065259933,-0.9913668036460876,0.01643349602818489,0.0027703940868377686,0.010028362274169922,0.9978389856051694,0.06049905430000021,-0.025621471974942973,-0.0008843757246718354
1681248746324334800,1.4833349609375,-0.12387016415596008,-0.023792477324604988,0.027482187375426292,-0.051320191472768784,-0.1195359006524086,-0.991502583026886,0.015706144273281097,-0.004960648715496063,0.004976153373718262,0.9978730785291737,0.059876212387080664,-0.025759256583934687,-0.0007410753274537081
1681248746339368000,1.498367919921875,-0.10961144417524338,-0.031100193038582802,0.025750068947672844,-0.05180405452847481,-0.1178034245967865,-0.9916847944259644,0.009918645024299622,-0.011789560317993164,0.0067147016525268555,0.9979187903061472,0.059009359599475265,-0.025990543159474033,-0.0005833634808910173
1681248746354400800,1.51340087890625,-0.08375150710344315,-0.02935049496591091,0.029668111354112625,-0.05224112421274185,-0.11656926572322845,-0.9918076992034912,0.010676149278879166,-0.012535437941551208,0.002534627914428711,0.9979497190329902,0.05839366268208759,-0.02619811371609217,-0.00040823605821347324
1681248746369433900,1.528433837890625,-0.030012384057044983,-0.02518344856798649,0.01632540673017502,-0.052711475640535355,-0.11602167785167694,-0.9918469786643982,0.010948136448860168,-0.002615496516227722,0.0009870529174804688,0.9979596489309749,0.05812265922592807,-0.026424547642065647,-0.00025625247486364466
1681248746384467000,1.543467041015625,-0.02316907048225403,-0.024121643975377083,0.015023121610283852,-0.0529247410595417,-0.11572299897670746,-0.9918705224990845,0.0018535442650318146,0.011261247098445892,-0.005703270435333252,0.9979655967984944,0.05797438119442923,-0.02652739681394381,-0.00019074691844577342
1681248746399499800,1.558499755859375,-0.050113338977098465,-0.03001308999955654,0.017198923975229263,-0.053145915269851685,-0.11535287648439407,-0.9919018149375916,0.0009150542318820953,0.010341808199882507,0.001957416534423828,0.9979734460140736,0.057791218972413246,-0.026632000112863107,-0.00008773609411955858
1681248746414532900,1.573532958984375,-0.10539667308330536,-0.025701167061924934,0.016595717519521713,-0.053455449640750885,-0.11446335911750793,-0.9919882416725159,0.00018698349595069885,-0.02806907892227173,0.01008516550064087,0.9979950544004453,0.05734767061909752,-0.026779244726389224,0.000037858883889449265
1681248746429566000,1.58856591796875,-0.1793164312839508,-0.033285580575466156,0.009493866935372353,-0.0537964403629303,-0.11240305006504059,-0.9922053813934326,-0.0023559369146823883,-0.025978997349739075,0.012453794479370117,0.9980494395524602,0.05631259045142804,-0.02694822785213378,0.0000454066118924462
1681248746444599000,1.60359912109375,-0.23060284554958344,-0.039897412061691284,0.011275255121290684,-0.05414320155978203,-0.10973232239484787,-0.9924854040145874,-0.005183003842830658,-0.022164739668369293,0.018425405025482178,0.9981195984476798,0.05497040059973053,-0.027120826530047874,0.000032245510540869584
1681248746459631900,1.6186318359375,-0.3053619861602783,-0.07390038669109344,0.0528503954410553,-0.05496601760387421,-0.10574780404567719,-0.9928726553916931,0.0005684047937393188,-0.02653072029352188,0.01475381851196289,0.998216564601235,0.05297311055503178,-0.027522981813258993,0.00017203708254756735
1681248746474665000,1.6336650390625,-0.4096195101737976,-0.12190891802310944,0.10957679152488708,-0.056469839066267014,-0.10042714327573776,-0.9933406114578247,0.010250933468341827,-0.0391908660531044,0.017434239387512207,0.9983335244855374,0.05031609121364311,-0.028248741989618003,0.0006608905080655477
1681248746489697000,1.648697021484375,-0.6081368923187256,-0.20641954243183136,0.2117966264486313,-0.059088826179504395,-0.09296738356351852,-0.9939142465591431,0.010855760425329208,-0.06363365799188614,0.015291869640350342,0.9984760349999097,0.04660402274625069,-0.0295115237593531,0.001670773402787594
1681248746504730000,1.663730224609375,-0.778140664100647,-0.25921860337257385,0.2988463044166565,-0.06290271133184433,-0.08316893875598907,-0.9945482015609741,0.024923555552959442,-0.08232797682285309,0.055797040462493896,0.9986305007523592,0.04174671852767655,-0.031354394086532456,0.003351227929415179
1681248746519763000,1.678762939453125,-0.9057063460350037,-0.2876734137535095,0.29855015873908997,-0.06735563278198242,-0.0702887549996376,-0.9952500462532043,0.019793957471847534,-0.07236575335264206,0.05692613124847412,0.9987976017568205,0.035365639637321,-0.03352960881078044,0.00533074371540828
1681248746534796000,1.693796142578125,-1.050262451171875,-0.30723005533218384,0.2929767072200775,-0.07207901775836945,-0.05548756942152977,-0.9958542585372925,0.004024796187877655,-0.05248371139168739,0.036656320095062256,0.9989368273592403,0.02803343244494851,-0.035874601574704,0.007243126451969176
1681248746549829000,1.7088291015625,-1.4212919473648071,-0.32568204402923584,0.24182936549186707,-0.07695089280605316,-0.036868806928396225,-0.9963529706001282,0.002304866909980774,-0.11199602484703064,0.03065478801727295,0.9990490100484889,0.01878985798691948,-0.03834649427920147,0.00880355857363914
1681248746564862000,1.723862060546875,-1.7760004997253418,-0.3510289490222931,0.23802690207958221,-0.08212040364742279,-0.012617184780538082,-0.9965425729751587,-0.008532091975212097,-0.193117156624794,0.10211813449859619,0.9990846432881275,0.006727257382509533,-0.04103012539644879,0.01005376086643724
1681248746579895000,1.73889501953125,-2.0215351581573486,-0.33618393540382385,0.2947269380092621,-0.08732882887125015,0.01639890857040882,-0.9960445761680603,-0.003079533576965332,-0.22695502638816833,0.0884060263633728,0.9989438863041311,-0.007701732515347487,-0.043799620309547274,0.011549314265245591
1681248746594928000,1.75392822265625,-1.29775869846344,-0.42274653911590576,0.8778524398803711,-0.09332772344350815,0.04315000772476196,-0.9946999549865723,-0.0009563714265823364,-0.15902534127235413,0.07409143447875977,0.9985608468051738,-0.020897467412171855,-0.047045883687879715,0.015040852046161663
1681248746609961000,1.7689609375,-0.3121863007545471,-0.3277558386325836,1.1942596435546875,-0.09813190996646881,0.0563025139272213,-0.9935794472694397,0.02936050295829773,-0.09440380334854126,0.007251322269439697,0.9981281278254341,-0.027055949952157595,-0.0497819512761767,0.0230194293758033
1681248746624994000,1.783994140625,0.7779866456985474,-0.22312502562999725,1.4249999523162842,-0.1013079360127449,0.054885201156139374,-0.9933399558067322,-0.011759720742702484,0.14849910140037537,-0.019965648651123047,0.9977930499810571,-0.025804082685718925,-0.05161549296389119,0.032848009271417136
1681248746640027100,1.799027099609375,1.5303901433944702,-0.012449808418750763,1.651864767074585,-0.1020176112651825,0.0393458753824234,-0.9940041899681091,-0.0008571818470954895,0.15572237968444824,-0.03575044870376587,0.9974867567121363,-0.01738187427382825,-0.05192091454875609,0.044967412645630624
1681248746655059700,1.814059814453125,1.7954427003860474,0.12398286908864975,1.6152836084365845,-0.10048019886016846,0.016331925988197327,-0.9948049783706665,-0.04299823194742203,0.06304420530796051,0.02895420789718628,0.997009218012461,-0.005236443058294815,-0.050695929546604186,0.05809501933451585
1681248746670091800,1.829091796875,1.5006980895996094,0.19197043776512146,1.3480308055877686,-0.0979643315076828,-0.00621844781562686,-0.9951704740524292,-0.04572773724794388,0.026070045307278633,0.028404176235198975,0.9963470544809845,0.006534650264517177,-0.0487036839186012,0.06984185356412027
1681248746685124900,1.844124755859375,1.6488853693008423,0.22513984143733978,1.4448084831237793,-0.09539151936769485,-0.02760901302099228,-0.9950568675994873,0.03119775652885437,0.004262980073690414,0.01068192720413208,0.9955000035451178,0.017633768936972268,-0.046482347555739566,0.08067386945885252
1681248746700158000,1.859157958984375,1.401382565498352,0.2936432659626007,1.2242406606674194,-0.09244764596223831,-0.048688970506191254,-0.9945264458656311,0.04000313580036163,0.04713248834013939,-0.028163373470306396,0.9944313552696209,0.028515743776368105,-0.04385929842736954,0.09148490578163888
1681248746715190800,1.874190673828125,1.1721841096878052,0.3406994640827179,0.8602622151374817,-0.08847533166408539,-0.06646064668893814,-0.9938586950302124,-0.00661749392747879,0.05732054263353348,0.012031912803649902,0.9934908012518706,0.0375320377279358,-0.040767641536158625,0.09952531327575913
1681248746730223900,1.889223876953125,0.92930006980896,0.32267677783966064,0.8280675411224365,-0.08429042249917984,-0.08095984160900116,-0.9931468367576599,0.004898890852928162,0.00011870265007019043,-0.006715834140777588,0.9926212221291986,0.04481021441375823,-0.03766469253466699,0.10619089463733425
1681248746745257000,1.904257080078125,0.741362988948822,0.38175687193870544,0.6892707943916321,-0.08010869473218918,-0.09286543726921082,-0.9924508333206177,0.022796630859375,0.02110327035188675,-0.021388888359069824,0.9917081017396189,0.050760373441772096,-0.03461185316462397,0.11287328917312997
1681248746760289800,1.919289794921875,0.46869421005249023,0.380334734916687,0.3926026225090027,-0.07529447227716446,-0.10095488280057907,-0.9920377135276794,-0.006599500775337219,0.0383022204041481,-0.025509893894195557,0.9911439176034132,0.05464683586621875,-0.0315413878365841,0.11684450324411581
1681248746775323000,1.934322998046875,0.4450348913669586,0.39686018228530884,0.41296249628067017,-0.07010576128959656,-0.10727548599243164,-0.9917545914649963,0.01410595327615738,0.040472425520420074,-0.0017909407615661621,0.990678134363712,0.05758647763407427,-0.028399055117363032,0.12014207030265264
1681248746790356000,1.94935595703125,0.4257615804672241,0.36974841356277466,0.3498991131782532,-0.06505677103996277,-0.11328088492155075,-0.9914308190345764,-0.00604923814535141,0.04376176744699478,-0.015786588191986084,0.9902099908472346,0.0603548358221986,-0.02533550441070728,0.12328617346591725
1681248746805388800,1.964388916015625,0.43897879123687744,0.3553130030632019,0.21555568277835846,-0.060155320912599564,-0.11942774802446365,-0.9910188317298889,0.005071040242910385,0.12299823015928268,-0.03257119655609131,0.989812410412566,0.06316759102421073,-0.022370380409467133,0.12562106331726855
1681248746820422000,1.979421875,0.4571482837200165,0.35196542739868164,0.12436666339635849,-0.05520641431212425,-0.1259484738111496,-0.9904994964599609,0.011306822299957275,0.14358755946159363,-0.024209976196289062,0.9894880578247064,0.06613573538851857,-0.01939897940188857,0.1271347222831562
1681248746835455000,1.994455078125,0.4493645429611206,0.3535281717777252,0.05152014642953873,-0.0501769557595253,-0.13266918063163757,-0.9898894429206848,-0.00916452705860138,0.1119629293680191,-0.01760256290435791,0.9892188000821478,0.06918114944598815,-0.01640834450286081,0.12802672300162105
1681248746850488000,2.009488037109375,0.4319799542427063,0.3575199842453003,-0.018033098429441452,-0.04491119459271431,-0.1392127424478531,-0.9892435669898987,-0.013758905231952667,0.09538942575454712,-0.010298669338226318,0.9890091950402693,0.0721121277025003,-0.013344207277554958,0.1283841503986109
1681248746865521000,2.02452099609375,0.4403350353240967,0.3569580614566803,-0.07373524457216263,-0.03945068269968033,-0.14570921659469604,-0.9885405898094177,-0.011651061475276947,0.060443028807640076,0.013473451137542725,0.9888459759047598,0.07500195221921992,-0.010218590691439012,0.1282730385445228
1681248746880554000,2.039553955078125,0.4173780083656311,0.3659307658672333,-0.14679375290870667,-0.033797960728406906,-0.15214286744594574,-0.9877804517745972,-0.021591495722532272,0.051160141825675964,0.004595696926116943,0.9887285600982508,0.07784755080159894,-0.007037526511870586,0.1276954387987793
1681248746895586000,2.0545859375,0.35753241181373596,0.35247674584388733,-0.21809908747673035,-0.028050197288393974,-0.15796852111816406,-0.9870456457138062,-0.03196267783641815,0.05811496078968048,-0.016707956790924072,0.9886908709108089,0.08038648061905236,-0.003896835673854932,0.12654282928505362
1681248746910619100,2.069619140625,0.2749520540237427,0.3034926950931549,-0.2815723419189453,-0.022609315812587738,-0.16266575455665588,-0.9864221811294556,-0.03686950355768204,0.060782745480537415,-0.032651305198669434,0.988744211499885,0.08238850057048261,-0.0010271809225481372,0.12488439782025382
1681248746925652000,2.08465185546875,0.24079567193984985,0.278457909822464,-0.31747281551361084,-0.01756540685892105,-0.16666579246520996,-0.9858569502830505,-0.04398860037326813,0.03179328143596649,-0.05850028991699219,0.9888515936642617,0.08407770026120193,0.0015667433490561989,0.12288609793703785
1681248746940685000,2.09968505859375,0.2588908076286316,0.2689749300479889,-0.38385823369026184,-0.01265993807464838,-0.17029151320457458,-0.9853124022483826,-0.05472293123602867,0.02994111180305481,-0.061425209045410156,0.9890197782909531,0.0856016090897095,0.004020553940721504,0.12039932836025642
1681248746955718100,2.11471826171875,0.3375830054283142,0.28645220398902893,-0.36421290040016174,-0.007621835917234421,-0.1748754382133484,-0.9845610857009888,-0.06833647191524506,0.004770383238792419,-0.02422797679901123,0.989138002008596,0.0876133840711688,0.0065850781641409685,0.11784123186029744
1681248746970751000,2.1297509765625,0.34734907746315,0.29222777485847473,-0.3152860999107361,-0.0024515308905392885,-0.18001124262809753,-0.9836614727973938,-0.07504791766405106,-0.027584657073020935,0.0023077726364135742,0.9891962797405974,0.08990918809612297,0.009251411700086925,0.11541898767826911
1681248746985783800,2.14478369140625,0.36821529269218445,0.3238528370857239,-0.18893374502658844,0.002787479665130377,-0.185246542096138,-0.9826881289482117,-0.08010382205247879,-0.13660717010498047,0.04857558012008667,0.989148767665836,0.09225829580374058,0.012014330185060009,0.11370489713160682
1681248747000817000,2.15981689453125,0.44343674182891846,0.3753378689289093,-0.009775435552001,0.008212860673666,-0.19119694828987122,-0.9815173149108887,-0.09418093413114548,-0.15577273070812225,0.05395084619522095,0.9889196171717879,0.09495216296396544,0.015013993446084511,0.1131222500411688
1681248747015849700,2.174849609375,0.4772258400917053,0.4496973156929016,0.11941610276699066,0.014088149182498455,-0.19817990064620972,-0.9800643920898438,-0.1231122612953186,-0.13087595999240875,0.06661230325698853,0.9884650825577153,0.0981228226262705,0.01843107646520971,0.11388177238854776
1681248747030882800,2.1898828125,0.3763948380947113,0.5226506590843201,0.219981849193573,0.02056686207652092,-0.20456059277057648,-0.9786378145217896,-0.134550079703331,-0.1321093887090683,0.06719988584518433,0.9879233637168978,0.10093606612712168,0.022203660410738468,0.11544024569159676
1681248747045916000,2.204916015625,0.31283238530158997,0.5895527005195618,0.2549499571323395,0.028146779164671898,-0.209578737616539,-0.9773865938186646,-0.12070665508508682,-0.14869770407676697,0.10673534870147705,0.9873699750885466,0.10297731806587128,0.0265025426969402,0.11744746765053347
1681248747060948700,2.21994873046875,0.33973199129104614,0.6188411116600037,0.6171646118164062,0.03569702059030533,-0.21435658633708954,-0.9761029481887817,-0.1053229346871376,-0.17216385900974274,0.11279124021530151,0.9866220849181443,0.1048384009799461,0.030942403099320677,0.12094756074772943
1681248747075983000,2.234983154296875,0.5357770919799805,0.7031506299972534,0.8806146383285522,0.04285642132163048,-0.2214060127735138,-0.9742395281791687,-0.07715824246406555,-0.14659027755260468,0.11051583290100098,0.9853789584784073,0.10774926470820136,0.035641554015651895,0.12707488923328183
1681248747091016000,2.250015869140625,0.45015329122543335,0.7836872935295105,0.6704491376876831,0.05137800797820091,-0.22916100919246674,-0.9720316529273987,-0.08979970216751099,-0.11706098914146423,0.09793192148208618,0.9839954259331688,0.11087282668822172,0.04112651959080212,0.13329959122805501
1681248747106049000,2.265049072265625,0.33137524127960205,0.8513818979263306,0.791111946105957,0.06073461100459099,-0.2353769689798355,-0.9700046181678772,-0.030156053602695465,-0.09929412603378296,0.10977518558502197,0.982659187216187,0.11311629482510391,0.04692958234074825,0.13922379655275796
1681248747121081000,2.2800810546875,0.2931550145149231,0.871144711971283,0.9038800001144409,0.07018358260393143,-0.24100004136562347,-0.967984139919281,-0.014138124883174896,-0.103497713804245,0.116513192653656,0.9811446967346246,0.11494078174250252,0.05288250665043826,0.1461065261253386
1681248747136114200,2.2951142578125,0.1373790055513382,0.9197447299957275,0.907834529876709,0.07986089587211609,-0.24501514434814453,-0.9662244915962219,0.011722289025783539,-0.06606584787368774,0.0839155912399292,0.9795601174881314,0.11582870801055475,0.05891901482747501,0.15353940326271945
1681248747151147000,2.31014697265625,0.055621564388275146,0.9244018197059631,1.030879020690918,0.08984077721834183,-0.24771694839000702,-0.9646579623222351,0.0166502445936203,-0.057001128792762756,0.08947485685348511,0.9779071164519676,0.1159237116471212,0.06505939570943875,0.1613272679672079
1681248747166180000,2.32518017578125,-0.18489773571491241,0.8624316453933716,1.2588801383972168,0.09856784343719482,-0.24854522943496704,-0.9635920524597168,0.0351601243019104,-0.09929420053958893,0.0694727897644043,0.9760791485985882,0.11499095469731911,0.0705765584123583,0.17048633438807737
1681248747181213200,2.340213134765625,-0.35967326164245605,0.7446179389953613,1.484933614730835,0.1051994115114212,-0.24645859003067017,-0.9634268283843994,0.042368270456790924,-0.11982870101928711,0.060289621353149414,0.9740598475303955,0.1125470927698783,0.07496493310219407,0.18144071312216645
1681248747196246300,2.355246337890625,-0.5583557486534119,0.7617950439453125,1.4360458850860596,0.11038877069950104,-0.24243392050266266,-0.9638672471046448,0.0973595678806305,-0.02647179365158081,0.03738415241241455,0.9718965803279402,0.10911458528555017,0.07848802639414701,0.19326343033847487
1681248747211279000,2.370279052734375,-0.5971130132675171,0.6887264251708984,1.2941617965698242,0.11636554449796677,-0.23574921488761902,-0.9648219347000122,0.10401707887649536,0.04065026342868805,0.027901768684387207,0.9699704233018696,0.1043070288827826,0.08190893200422242,0.20388339263016222
1681248747226312200,2.385312255859375,-0.514216959476471,0.6819995641708374,1.3823704719543457,0.12142468988895416,-0.23030689358711243,-0.9655126929283142,0.12807169556617737,0.034658655524253845,-0.042742252349853516,0.9678357350294704,0.10014811099583702,0.08493531115923644,0.214593019394666
1681248747241345300,2.40034521484375,-0.5815362334251404,0.6370560526847839,1.3220032453536987,0.12639546394348145,-0.22494933009147644,-0.9661376476287842,0.09830538928508759,0.043613821268081665,-0.05050969123840332,0.9655722936194593,0.09599223237433042,0.08784453203718913,0.2252527799580144
1681248747256377900,2.4153779296875,-0.6996033787727356,0.624641478061676,1.2320424318313599,0.1312790811061859,-0.21803367137908936,-0.9670714139938354,0.14260084927082062,0.05847245454788208,-0.02366650104522705,0.9633896586436314,0.0910731686474061,0.09038787779939295,0.2354064199245051
1681248747271411000,2.430410888671875,-0.7023243308067322,0.6137328743934631,1.129755973815918,0.13643580675125122,-0.21015535295009613,-0.9681012034416199,0.13880214095115662,0.07516078650951385,-0.0031359195709228516,0.9613056669924804,0.08567643375364406,0.09278433518835243,0.24483047958877774
1681248747286444000,2.445444091796875,-0.6360515356063843,0.5973365902900696,1.0459064245224,0.14198414981365204,-0.20259177684783936,-0.9689154028892517,0.1508624404668808,0.12991411983966827,0.012616574764251709,0.9592466822081295,0.08041533153068627,0.09526631671943327,0.2535812469230476
1681248747301476900,2.460476806640625,-0.5157274603843689,0.59812331199646,0.9269618988037109,0.1476728767156601,-0.19629406929016113,-0.9693613052368164,0.15005652606487274,0.13200874626636505,0.027359962463378906,0.9572491135901383,0.07580812728688234,0.09783899838540265,0.2614476304946529
1681248747316510000,2.475510009765625,-0.43219590187072754,0.6204451322555542,0.7584341168403625,0.15413150191307068,-0.191449373960495,-0.9693248271942139,0.13013964891433716,0.1582462042570114,0.021311521530151367,0.9553798706515867,0.07188986956570234,0.10084362558410882,0.2681632458531431
1681248747331543000,2.49054296875,-0.4456070363521576,0.6960357427597046,0.6443209052085876,0.16170985996723175,-0.1868302822113037,-0.9689913988113403,0.12015040218830109,0.14714211225509644,0.030911564826965332,0.9536830645868972,0.06800205522931914,0.10430729883356843,0.2738325071133037
1681248747346576000,2.505575927734375,-0.526470959186554,0.7361807823181152,0.6280359029769897,0.1704872101545334,-0.18125595152378082,-0.9685454964637756,0.07017432153224945,0.04870279133319855,0.07248836755752563,0.9520403510267029,0.06348923447680233,0.10814973100638564,0.2790914199022034
1681248747361609000,2.52060888671875,-0.5033391118049622,0.7451489567756653,0.5500561594963074,0.17964307963848114,-0.17502784729003906,-0.9680359363555908,0.067778080701828,0.032159775495529175,0.0787537693977356,0.9503951762704156,0.05858218306674954,0.11202743760020566,0.284195565467658
1681248747376642000,2.53564208984375,-0.28596410155296326,0.71147221326828,0.34729427099227905,0.18909622728824615,-0.17042209208011627,-0.9670568108558655,0.10863317549228668,0.1697506606578827,0.07769829034805298,0.9489792104590201,0.05452807767851611,0.11618206340190942,0.28803959685854735
1681248747391674000,2.550674072265625,-0.20725412666797638,0.699741780757904,0.26056843996047974,0.19859065115451813,-0.16796275973320007,-0.9655828475952148,0.11744929850101471,0.1750427931547165,0.049231529235839844,0.9477904502735901,0.05162371161615888,0.12059669563334843,0.29066237664414474
1681248747406707000,2.56570703125,-0.24549859762191772,0.6572635769844055,0.22265513241291046,0.20782580971717834,-0.16559047996997833,-0.9640478491783142,0.08984255790710449,0.09919942915439606,0.03005737066268921,0.9467128503780844,0.048830626277332076,0.12486653546061205,0.2928459306083956
1681248747421740000,2.580739990234375,-0.31668394804000854,0.6315832734107971,0.209966242313385,0.21665045619010925,-0.16208727657794952,-0.9626994729042053,0.08487838506698608,0.04868391156196594,0.019980967044830322,0.9457314138717189,0.04555445771340881,0.12874413088843134,0.2948589443061566
1681248747436773000,2.595773193359375,-0.2951817810535431,0.5998868346214294,0.223622128367424,0.2250828891992569,-0.1582029163837433,-0.9614101648330688,0.060057997703552246,0.014037832617759705,0.014068245887756348,0.944754989722202,0.04213210180102221,0.1323623701223507,0.2968890931118756
1681248747451806000,2.610805908203125,-0.21015557646751404,0.5742459297180176,0.19867683947086334,0.23304924368858337,-0.15531671047210693,-0.9599816203117371,0.04943661391735077,0.019589751958847046,0.004796743392944336,0.9437654608010161,0.039256064477236535,0.13589752724856677,0.2988269309922112
1681248747466839000,2.625839111328125,-0.37797167897224426,0.5377528667449951,0.1496102213859558,0.24061916768550873,-0.15174616873264313,-0.9586842656135559,0.03130762279033661,0.028790801763534546,-0.03554791212081909,0.9428585917047578,0.0361188141010259,0.13911614831679628,0.3005988452470176
1681248747481872100,2.6408720703125,-0.22666503489017487,0.5719561576843262,0.23275437951087952,0.24815933406352997,-0.14774657785892487,-0.9573859572410583,0.019067734479904175,0.002025097608566284,-0.03481680154800415,0.9419638287059482,0.03277252389561821,0.14224266693085907,0.302319691773674
1681248747496905200,2.6559052734375,-0.29462331533432007,0.5792622566223145,0.09714808315038681,0.2560098469257355,-0.14467108249664307,-0.9557872414588928,-0.0019816160202026367,0.011202394962310791,-0.05442088842391968,0.9409838784764643,0.02980627538617483,0.14566387501704545,0.30404460983338644
1681248747511938000,2.67093798828125,-0.18148531019687653,0.5297082662582397,0.08233930915594101,0.2639285624027252,-0.141413614153862,-0.9541194438934326,-0.022763490676879883,0.04264342784881592,-0.03422284126281738,0.9402583814029689,0.026860850543397465,0.14905964296771812,0.3049159965354613
1681248747526971100,2.68597119140625,-0.15080899000167847,0.4811689555644989,0.07151595503091812,0.2708948850631714,-0.13953456282615662,-0.9524421691894531,0.00936320424079895,0.016609713435173035,-0.17527389526367188,0.9395198930510776,0.02471341418221495,0.15221093309456324,0.3058160037797031
1681248747542004200,2.701004150390625,-0.004840717185288668,0.40894854068756104,0.1235317587852478,0.2770989239215851,-0.13869664072990417,-0.9507783055305481,-0.005080610513687134,-0.0008602887392044067,-0.1438109278678894,0.93884270097061,0.023208106729784694,0.1551522514192918,0.3065347650948336
1681248747557037000,2.716037109375,-0.09425251185894012,0.31716188788414,0.04161984473466873,0.28201621770858765,-0.13828401267528534,-0.9493916034698486,-0.0420261025428772,-0.04303620755672455,-0.18691515922546387,0.9381730370045502,0.022072344723165934,0.15753417596577393,0.30745284953365654
1681248747572070100,2.731070068359375,-0.006158875301480293,0.23431070148944855,0.005298055708408356,0.28600871562957764,-0.13769175112247467,-0.9482826590538025,-0.0426768958568573,0.05306646227836609,-0.1659141182899475,0.9378510417693412,0.02113510728036308,0.1594113508211579,0.3075332624506793
1681248747587103200,2.746103271484375,-0.06333018094301224,0.1884252429008484,-0.001515108859166503,0.2889847755432129,-0.13726316392421722,-0.9474421143531799,-0.03449881076812744,0.0021770596504211426,-0.1701267957687378,0.9375882629935515,0.02043183872149653,0.16081501252133004,0.3076511920328458
1681248747602136000,2.761135986328125,-0.0479879193007946,0.13392284512519836,-0.02151864394545555,0.291271448135376,-0.13632754981517792,-0.9468768239021301,-0.05846819281578064,-0.001108407974243164,-0.14241760969161987,0.9374291513529186,0.019610906314356257,0.16179306306945007,0.3076766103973447
1681248747617169200,2.776169189453125,-0.03657212480902672,0.09942959249019623,-0.03054755926132202,0.29304397106170654,-0.13555453717708588,-0.9464408159255981,-0.0681142508983612,-0.013294994831085205,-0.09498679637908936,0.9373484595921313,0.01897348868549487,0.16254108317145327,0.3075684025575885
1681248747632202200,2.7912021484375,-0.0358610600233078,0.05608370900154114,-0.03174305334687233,0.29423415660858154,-0.13493144512176514,-0.9461605548858643,-0.057143211364746094,-0.00035303831100463867,-0.06746554374694824,0.9373353531671001,0.01851550054550019,0.1630242448300762,0.3073805743861296
1681248747647235000,2.806235107421875,-0.03493731468915939,0.02246822789311409,-0.020106902346014977,0.29485800862312317,-0.13426415622234344,-0.9460612535476685,-0.03600800037384033,-0.02175702154636383,-0.04351699352264404,0.9373559346078298,0.018119721944486456,0.16322087207866948,0.3072367293781091
1681248747662268200,2.82126806640625,-0.044062476605176926,0.017543509602546692,-0.026948031038045883,0.2951115369796753,-0.13359029591083527,-0.9460775852203369,-0.030005425214767456,-0.023071736097335815,-0.026044607162475586,0.9373888411308724,0.017770440365910654,0.16323423609594792,0.307149643476895
1681248747677300000,2.836300048828125,-0.01213783212006092,0.038451723754405975,-0.05044430121779442,0.29552382230758667,-0.1330159455537796,-0.9460298418998718,-0.02565699815750122,-0.0013682395219802856,-0.0014646649360656738,0.9374514527945651,0.0174683873415343,0.163339976264353,0.30691941938111034
1681248747692333000,2.8513330078125,0.01278110034763813,0.05009426176548004,-0.058849506080150604,0.2961916923522949,-0.13282997906208038,-0.9458470940589905,-0.023166269063949585,0.006181970238685608,-0.004378795623779297,0.9375262340630244,0.01733761128174608,0.16363334537732827,0.3065421854860784
1681248747707366000,2.866365966796875,0.020167909562587738,0.06444976478815079,-0.08071964979171753,0.2970268428325653,-0.13276252150535583,-0.9455946087837219,-0.00822383165359497,0.01098206639289856,-0.005836665630340576,0.9376226293776825,0.017258904343293472,0.16402691487069293,0.3060407415093537
1681248747722399000,2.88139892578125,0.01200670562684536,0.07644597440958023,-0.09219760447740555,0.2981516420841217,-0.1326408088207245,-0.9452576637268066,-0.011606961488723755,0.010753557085990906,-0.0008330941200256348,0.9377318792006852,0.017127261795060755,0.16455344714559123,0.30543041738210813
1681248747737432000,2.89643212890625,0.001995564205572009,0.07752349227666855,-0.11661266535520554,0.29939162731170654,-0.1322750300168991,-0.9449169039726257,-0.016051262617111206,0.007488608360290527,0.014481723308563232,0.9378707413298317,0.0168772834761968,0.1650960290978955,0.3047245069559249
1681248747752465000,2.91146484375,0.03384297713637352,0.07908330857753754,-0.13505800068378448,0.3006909489631653,-0.1319473832845688,-0.9445500373840332,-0.015153348445892334,0.005421459674835205,0.014801502227783203,0.9380664502985575,0.01667203750173768,0.16567139083027124,0.30381959945361514
1681248747767498000,2.926498046875,0.07757021486759186,0.08758571743965149,-0.14607922732830048,0.3019217252731323,-0.13209767639636993,-0.944136381149292,0.002170562744140625,0.01889266073703766,0.006865203380584717,0.938289596891929,0.01673110172011785,0.16628858417589742,0.3027881731986666
1681248747782531000,2.941531005859375,0.11059725284576416,0.08236298710107803,-0.1560351848602295,0.30327358841896057,-0.1327223926782608,-0.9436153173446655,0.0021920204162597656,0.01788470149040222,0.0025295019149780273,0.9385288747882898,0.0170260761458342,0.16704025607686177,0.30161432601408333
1681248747797564000,2.95656396484375,0.07831499725580215,0.06815901398658752,-0.12733323872089386,0.3043248653411865,-0.13320030272006989,-0.9432094097137451,0.007808804512023926,-0.004357725381851196,-0.0012943148612976074,0.9387821063049662,0.017291108827220517,0.16761950892226218,0.3004875031096088
1681248747812597000,2.971596923828125,0.041057370603084564,0.05592978000640869,-0.09280800074338913,0.3052367866039276,-0.1334284394979477,-0.9428824782371521,0.013305574655532837,-0.022440120577812195,0.0032615065574645996,0.9389663704415825,0.01740925314895702,0.1680942757521707,0.2996385064268689
1681248747827630000,2.986630126953125,0.013892863877117634,0.05534069240093231,-0.07116289436817169,0.3058825135231018,-0.13330219686031342,-0.9426910281181335,0.00556454062461853,-0.031263887882232666,0.004840075969696045,0.9390934502465951,0.017346970436225392,0.16838515374108096,0.2990802422867675
1681248747842663200,3.0016630859375,-0.03303235396742821,0.04187069088220596,-0.06793780624866486,0.30657869577407837,-0.13272598385810852,-0.9425461888313293,0.0020149648189544678,-0.021693021059036255,0.012873947620391846,0.9392061371440655,0.017045192533598874,0.16863085617954152,0.29860514976736763
1681248747857696000,3.016696044921875,-0.03181774169206619,0.035544879734516144,-0.04793160781264305,0.30726951360702515,-0.13152827322483063,-0.9424891471862793,0.01108977198600769,-0.018358871340751648,0.0060877203941345215,0.9393103329545963,0.016426950498183535,0.1687767570040745,0.2982290371147737
1681248747872729000,3.03172900390625,-0.004230054095387459,0.032251618802547455,-0.021429961547255516,0.3078206181526184,-0.13104654848575592,-0.942376434803009,0.006601899862289429,-0.02219751477241516,0.002236604690551758,0.9393535914962052,0.01614976774745844,0.1689703594581615,0.29799860945163775
1681248747887762200,3.04676220703125,-0.028841551393270493,0.033990658819675446,-0.006721322424709797,0.30841007828712463,-0.13114199042320251,-0.9421703815460205,0.00019884109497070312,-0.03136417269706726,-0.003676176071166992,0.939313943702481,0.016112142376928738,0.16927849968087472,0.2979506337562158
1681248747902795000,3.061794921875,-0.0393257774412632,0.04021313786506653,-0.009136277250945568,0.308968186378479,-0.13098938763141632,-0.9420087337493896,0.005652695894241333,-0.03064700961112976,-0.0043108463287353516,0.9392624430547426,0.015946357490407497,0.16953274420798808,0.29797712960963496
1681248747917828000,3.076828125,-0.03975534439086914,0.03823254257440567,0.006112450733780861,0.30952557921409607,-0.1311638057231903,-0.9418014287948608,0.0002735257148742676,-0.018875926733016968,0.00449979305267334,0.9391836275364261,0.015929646469640873,0.16983968865788654,0.2980518980174517
1681248747932861200,3.091861083984375,-0.0740768313407898,0.03896757587790489,0.023476261645555496,0.3100890815258026,-0.1307099312543869,-0.9416791796684265,0.0027160048484802246,-0.01429438591003418,0.009855449199676514,0.9390914057295479,0.015588420242055335,0.1700512023781061,0.2982396849302052
1681248747947894000,3.10689404296875,-0.12342723459005356,0.03601226583123207,0.03284153342247009,0.31066757440567017,-0.12991304695606232,-0.9415987730026245,-0.0003954470157623291,-0.011398643255233765,0.013070940971374512,0.938951384958815,0.015045699733547952,0.1702182115205631,0.29861285576411134
1681248747962927000,3.121927001953125,-0.1260102391242981,0.02806060016155243,0.03329666703939438,0.31101953983306885,-0.12863560020923615,-0.9416579604148865,0.0015261471271514893,-0.01029573380947113,0.011436402797698975,0.9388362536710796,0.014299810211972491,0.1701955590307598,0.29902435210090883
1681248747977960200,3.136960205078125,-0.10576802492141724,0.023413915187120438,0.030937373638153076,0.3112589120864868,-0.12789516150951385,-0.9416797161102295,0.0005085766315460205,-0.0000040531158447265625,0.0007464885711669922,0.9387037214082377,0.013826548982825641,0.1702027189040107,0.2994578962976995
1681248747992993000,3.151992919921875,-0.10413496941328049,0.012986043468117714,0.038630980998277664,0.3114658296108246,-0.12690244615077972,-0.9417456388473511,-0.001605689525604248,0.009241878986358643,-0.0009881854057312012,0.9385941968302757,0.01324320969916054,0.1701523097899462,0.29985618771826184
1681248748008026000,3.167026123046875,-0.13285839557647705,-0.010651376098394394,0.05534550920128822,0.31138837337493896,-0.12600059807300568,-0.9418923258781433,0.007581233978271484,0.008034870028495789,-0.0049307942390441895,0.9384729145818907,0.012729977491678368,0.1699758477473541,0.3003577408226971
1681248748023059200,3.18205908203125,-0.19208596646785736,-0.014345180243253708,0.06818035244941711,0.31113773584365845,-0.12418980896472931,-0.9422155618667603,0.00838121771812439,-0.0024887099862098694,-0.0004113912582397461,0.9383498807809918,0.011779219310057853,0.16956844624638973,0.30101045393345127
1681248748038092000,3.197092041015625,-0.20881152153015137,-0.01586611196398735,0.07163473218679428,0.31079965829849243,-0.12201187759637833,-0.9426116347312927,-0.0034267008304595947,0.006914779543876648,0.02197253704071045,0.9382065217989408,0.010644247974945889,0.16905883692935825,0.3017850829827092
1681248748053123800,3.212123779296875,-0.1692337542772293,0.00023829005658626556,0.06975321471691132,0.3106018602848053,-0.11984243988990784,-0.9429550766944885,-0.002160787582397461,0.015334941446781158,0.020210325717926025,0.9380610198177405,0.009498892174102396,0.16861860187215383,0.3025210574431038
1681248748068157400,3.227157470703125,-0.1367301493883133,0.0022481773048639297,0.06419546157121658,0.3105141222476959,-0.11802403628826141,-0.9432132840156555,-0.0010659992694854736,0.036175839602947235,0.0035770535469055176,0.9379151010216292,0.008518358853621547,0.16828784558833734,0.30318600335355955
1681248748083190500,3.2421904296875,-0.11455672234296799,0.011840084567666054,0.06228756904602051,0.3105127215385437,-0.11651893705129623,-0.9434008598327637,0.0028721988201141357,0.022860437631607056,-0.007816791534423828,0.937770724382372,0.007686707345401837,0.16804905534297174,0.30378687808917093
1681248748098223400,3.257223388671875,-0.12693460285663605,0.003826100379228592,0.04785536974668503,0.3106584846973419,-0.11523786932229996,-0.9435102343559265,-0.007649540901184082,0.01843605935573578,-0.014863848686218262,0.9376275791003468,0.006951946737848627,0.16791831768971,0.3043181899106538
1681248748113256400,3.27225634765625,-0.14786413311958313,-0.004608131013810635,0.047171205282211304,0.31059956550598145,-0.1135975793004036,-0.943728506565094,-0.005103439092636108,0.013118401169776917,-0.009259164333343506,0.9375117955626738,0.006076788809821674,0.16762702677880306,0.3048537531546752
1681248748128289500,3.28728955078125,-0.12579062581062317,-0.004088015295565128,0.032738734036684036,0.3105456829071045,-0.11177700012922287,-0.9439635872840881,-0.006392329931259155,-0.0021451711654663086,0.0012755990028381348,0.9374301212264836,0.005130902674245752,0.1673077138776845,0.30529755652909457
1681248748143322400,3.302322265625,-0.1009846106171608,-0.0005883555859327316,0.02253270335495472,0.3104507625102997,-0.11006953567266464,-0.9441954493522644,-0.006587356328964233,-0.004340916872024536,0.002133011817932129,0.9373859643090597,0.004267487023293461,0.16698524824456631,0.3056227192926379
1681248748158355500,3.31735546875,-0.0847456157207489,0.007932428270578384,0.010937033221125603,0.310533732175827,-0.1083758994936943,-0.944364070892334,-0.0006735920906066895,0.001259148120880127,0.005551755428314209,0.9373687562618749,0.003406165910172975,0.166752430840449,0.3058133271101691
1681248748173388500,3.332388427734375,-0.09306400269269943,0.01455251406878233,0.013660382479429245,0.31060683727264404,-0.10713770240545273,-0.9444813132286072,0.0019388198852539062,-0.00238993763923645,0.006599783897399902,0.9373412703505347,0.00276726830930288,0.1665884093811274,0.30599353433688076
1681248748188421400,3.34742138671875,-0.12297700345516205,0.000589294359087944,0.018658868968486786,0.31055766344070435,-0.10546746850013733,-0.9446853995323181,0.006901353597640991,-0.02076854556798935,0.007826268672943115,0.9373115272329473,0.0019269398236555024,0.16629365015250208,0.30625096593994405
1681248748203454500,3.362454345703125,-0.13048908114433289,-0.0025295335799455643,0.03853617236018181,0.31047433614730835,-0.10386060923337936,-0.9448907971382141,0.007457703351974487,-0.029394447803497314,0.0032251477241516113,0.9372538622001929,0.0011074297656896463,0.16599205661233732,0.30659515330419773
1681248748218487600,3.377487548828125,-0.163629949092865,-0.017800631001591682,0.05021413043141365,0.31017005443573,-0.10222296416759491,-0.9451692700386047,0.014308005571365356,-0.013270854949951172,0.014154255390167236,0.9371604990816571,0.00027959348102248857,0.16557558152855545,0.30710724005299744
1681248748233520400,3.392520263671875,-0.22318221628665924,-0.027215437963604927,0.06894787400960922,0.30971604585647583,-0.09983842819929123,-0.9455729722976685,0.013053029775619507,-0.01885974407196045,0.017060399055480957,0.9370459713388236,-0.000911078153268675,0.16496266580502095,0.30778439837363053
1681248748248553500,3.407553466796875,-0.2517947256565094,-0.031417638063430786,0.09021321684122086,0.30925530195236206,-0.09703631699085236,-0.9460153579711914,0.007272928953170776,-0.01662646234035492,0.020813941955566406,0.9368834080740016,-0.002330951327442228,0.16427682971021543,0.3086374797026171
1681248748263586600,3.422586669921875,-0.24529412388801575,-0.05528329312801361,0.10611201822757721,0.30853918194770813,-0.09402348846197128,-0.9465532898902893,0.008141636848449707,-0.004670403897762299,0.015400946140289307,0.9366908421058218,-0.003837605008497738,0.16342772846247702,0.3096561153293514
1681248748278619600,3.43761962890625,-0.22610913217067719,-0.06694154441356659,0.1395069807767868,0.3076958954334259,-0.0920405313372612,-0.947022557258606,0.014249205589294434,0.01834052801132202,0.008454442024230957,0.9364237681864811,-0.004856328367327878,0.16268105295385782,0.3108404126362426
1681248748293652500,3.452652587890625,-0.3128080666065216,-0.09256541728973389,0.16866301000118256,0.3064360022544861,-0.08935479074716568,-0.947688102722168,0.019415348768234253,0.033431276679039,0.011851251125335693,0.9361347848977478,-0.00617879360293584,0.1616099649162539,0.31224299511008313
1681248748308685600,3.467685546875,-0.4958447515964508,-0.13682688772678375,0.22348923981189728,0.3047330677509308,-0.08501197397708893,-0.9486362338066101,0.02882397174835205,0.01045747846364975,0.024426639080047607,0.9357599396401236,-0.008299118510304857,0.16004063200540863,0.3141200306086004
1681248748323718700,3.48271875,-0.7122675776481628,-0.19674214720726013,0.34785008430480957,0.3021620512008667,-0.07796763628721237,-0.9500626921653748,0.028572112321853638,-0.012730658054351807,0.039479196071624756,0.935223459824459,-0.011702312313568929,0.15758078585738047,0.3168412668423329
1681248748338751500,3.49775146484375,-0.8638632893562317,-0.23604615032672882,0.4180432856082916,0.2986390292644501,-0.06813091039657593,-0.9519311189651489,0.034078776836395264,-0.01098596304655075,0.050167202949523926,0.9344625215114514,-0.016424604482900073,0.15415790053398748,0.320539078614109
1681248748353784600,3.51278466796875,-0.961422324180603,-0.25814852118492126,0.4730793535709381,0.29473817348480225,-0.05706392228603363,-0.9538726806640625,0.02075245976448059,0.03432827815413475,0.0347900390625,0.9335165044162389,-0.021728894638910128,0.1503047176336468,0.3247818419913787
1681248748368817700,3.527817626953125,-0.9820665717124939,-0.27070319652557373,0.41768375039100647,0.2904953062534332,-0.045067138969898224,-0.9558145403862,0.016816556453704834,0.13101986050605774,0.012546718120574951,0.9325236011887875,-0.027393130600289084,0.1460902186157082,0.32910012851185444
1681248748383850500,3.5428505859375,-1.031119704246521,-0.2579655647277832,0.352571576833725,0.2865093946456909,-0.03225572779774666,-0.9575343132019043,-0.02050301432609558,0.09588482975959778,-0.003372669219970703,0.9316290505875127,-0.03337557280507416,0.14184116896713667,0.3329182750711884
1681248748398883600,3.557883544921875,-1.0714800357818604,-0.2887898087501526,0.3506051003932953,0.2824247181415558,-0.01857134699821472,-0.9591096639633179,-0.06497180461883545,0.0006269607692956924,-0.001736283302307129,0.9307592249525719,-0.03968873735633323,0.13736797883311294,0.33651461325984455
1681248748413916700,3.572916748046875,-1.0790750980377197,-0.3214646577835083,0.3697851896286011,0.2778768837451935,-0.004448132589459419,-0.9606063961982727,-0.04261699318885803,-0.04370865225791931,-0.002696216106414795,0.9298056044483547,-0.04611306741501188,0.13255333247945292,0.3402423306938315
1681248748428949500,3.587949462890625,-1.0086159706115723,-0.3223525583744049,0.3940069079399109,0.2731889486312866,0.009108913131058216,-0.9619172811508179,-0.007426738739013672,-0.04321235790848732,0.02504289150238037,0.9287439138401351,-0.052224224453533225,0.12772626924779848,0.3440832830305426
1681248748443982600,3.602982666015625,-0.9151918292045593,-0.3179466128349304,0.40228188037872314,0.26871681213378906,0.021320464089512825,-0.962983250617981,0.011876970529556274,-0.018436603248119354,0.03715616464614868,0.92761707775321,-0.057696656708935694,0.12320501088864744,0.34787686042222243
1681248748459015700,3.618015625,-0.9829124808311462,-0.34414786100387573,0.43403103947639465,0.2640582025051117,0.03327314183115959,-0.9639326333999634,0.04760247468948364,-0.010110348463058472,0.02147352695465088,0.9264076837961787,-0.06299075739510827,0.11859947564644963,0.35175999358558835
1681248748474048500,3.633048583984375,-1.13857901096344,-0.3749758303165436,0.5185467004776001,0.25912800431251526,0.04669949412345886,-0.9647133350372314,0.07342195510864258,-0.05481721833348274,0.017508745193481445,0.9249342723738093,-0.06895977776578224,0.11352478824340823,0.35616463482699423
1681248748489081600,3.64808154296875,-1.248230218887329,-0.3946555256843567,0.5752302408218384,0.2539976239204407,0.062158238142728806,-0.9652054309844971,0.07615670561790466,-0.09864205121994019,0.01996922492980957,0.9231252544025877,-0.07587791888211776,0.10788798339549623,0.36116815900814736
1681248748504114700,3.66311474609375,-1.1315101385116577,-0.29710206389427185,0.508015513420105,0.24942053854465485,0.07777799665927887,-0.965266764163971,0.0694880485534668,-0.09543246030807495,0.028407633304595947,0.9211620427355736,-0.08293073552003691,0.10241630144707069,0.3661882731836409
1681248748519147500,3.6781474609375,-0.7104129791259766,-0.20315450429916382,0.3545607030391693,0.24643458425998688,0.0895119458436966,-0.9650169014930725,-0.011083140969276428,0.018977992236614227,0.02663189172744751,0.9195593212308756,-0.08829373697184781,0.09846710297273813,0.3700256808157593
1681248748534180600,3.6931806640625,-0.5039018988609314,-0.1888626515865326,0.28866690397262573,0.24404028058052063,0.09698834270238876,-0.9649028778076172,-0.012640848755836487,0.04615430533885956,-0.026674270629882812,0.9184151640196518,-0.09163248847489425,0.09566628483985072,0.37278016999364894
1681248748549213700,3.708213623046875,-0.4728628993034363,-0.1664755940437317,0.2545797824859619,0.2418689876794815,0.10287163406610489,-0.964840292930603,0.024381518363952637,-0.07807615399360657,-0.06421244144439697,0.9174669007441422,-0.0942052206555972,0.0933017765040369,0.37506632167656023
1681248748564246500,3.72324658203125,-0.5145472288131714,-0.13780160248279572,0.2174806147813797,0.2400951087474823,0.10923474282026291,-0.9645838737487793,-0.00004392862319946289,-0.11468217521905899,-0.0630040168762207,0.9165371189501201,-0.09705494821802796,0.0910405724032735,0.3771625042516813
1681248748579279600,3.738279541015625,-0.47465381026268005,-0.12978975474834442,0.19670476019382477,0.2385272979736328,0.11576128751039505,-0.964211642742157,-0.020967602729797363,-0.05944114178419113,-0.04057961702346802,0.9156594030431568,-0.09999433172817042,0.08885563586745035,0.379043008284215
1681248748594311400,3.7533115234375,-0.3441043496131897,-0.11926732957363129,0.14507777988910675,0.23694269359111786,0.12124062329530716,-0.9639288783073425,-0.02290777862071991,-0.04023175686597824,-0.05052119493484497,0.9149444104043026,-0.10239886051555963,0.0868909592494606,0.3805799268578103
1681248748609344500,3.768344482421875,-0.18005381524562836,-0.07583809643983841,0.09819896519184113,0.23579667508602142,0.1245587095618248,-0.9637868404388428,-0.04088100790977478,0.03988521546125412,-0.046802818775177,0.9144499660345704,-0.10383003908439215,0.08559150191910174,0.38167365980373474
1681248748624377600,3.783377685546875,-0.06456705182790756,-0.023839084431529045,0.036111362278461456,0.23525826632976532,0.1260652244091034,-0.9637225270271301,-0.04556111991405487,0.06802651286125183,-0.04528015851974487,0.9141897113994817,-0.10448321331906466,0.08498233372747961,0.3822543169067759
1681248748639410400,3.798410400390625,-0.02649940736591816,0.02584484964609146,-0.027994653210043907,0.23524940013885498,0.1266518533229828,-0.9636477828025818,-0.048405617475509644,0.040538638830184937,-0.02783787250518799,0.9141493715516997,-0.104761672368249,0.08485933807516617,0.3823019108050419
1681248748654443500,3.813443603515625,-0.023096686229109764,0.06078525632619858,-0.05485396459698677,0.23582567274570465,0.12715382874011993,-0.9634407758712769,-0.05958676338195801,0.020719051361083984,-0.020125508308410645,0.9142286350450596,-0.10508472384549143,0.08506942355119695,0.38197685331570946
1681248748669476600,3.8284765625,0.0004951923619955778,0.08268523216247559,-0.06857776641845703,0.23677830398082733,0.12758980691432953,-0.9631494283676147,-0.03594222664833069,0.012348487973213196,0.000045180320739746094,0.9143498693155003,-0.10543856032870325,0.08548673713236517,0.3814957643441419
1681248748684509400,3.843509521484375,0.02463669329881668,0.07330211251974106,-0.06440751999616623,0.237788587808609,0.12762536108493805,-0.9628958106040955,-0.025859370827674866,0.02543550729751587,0.002171933650970459,0.9145045294055876,-0.10561005469249231,0.08601517631019547,0.3809583012278773
1681248748699542500,3.85854248046875,0.02627997100353241,0.04877892881631851,-0.049638960510492325,0.2385893166065216,0.12747500836849213,-0.9627176523208618,0.0030335038900375366,0.025143340229988098,0.0001322031021118164,0.9146394462725065,-0.10566015178379452,0.08647029251342267,0.3805172874775066
1681248748714575600,3.87357568359375,0.014301072806119919,0.029306160286068916,-0.0340442880988121,0.23902004957199097,0.1274111419916153,-0.9626192450523376,0.011025622487068176,0.00891081988811493,0.0012544989585876465,0.9147528813193497,-0.10568547727578231,0.08672344452321652,0.38018001587297173
1681248748729608400,3.8886083984375,0.010459249839186668,0.022673822939395905,-0.029973382130265236,0.23899173736572266,0.12746122479438782,-0.9626196622848511,0.01694384217262268,0.009761020541191101,0.011356174945831299,0.9148577406886308,-0.105679410313393,0.08672969466212808,0.37992767879804795
1681248748744641500,3.9036416015625,-0.008990720845758915,0.017568279057741165,-0.025155989453196526,0.23893485963344574,0.12760129570960999,-0.9626151919364929,0.014650851488113403,0.008949562907218933,0.01376265287399292,0.9149381492266785,-0.10571521926360318,0.08669885160090975,0.37973099494006823
1681248748759674600,3.918674560546875,-0.03429123014211655,0.009460018016397953,-0.012181601487100124,0.23880203068256378,0.1281745284795761,-0.9625720381736755,0.008878529071807861,-0.007141858339309692,0.011461138725280762,0.9149844571532147,-0.10594507902182054,0.08654267197974984,0.3795911586305876
1681248748774707500,3.93370751953125,-0.04135100170969963,0.0023898575454950333,-0.011860956437885761,0.2387903332710266,0.12894411385059357,-0.962472140789032,0.008157804608345032,-0.011207342147827148,0.009560704231262207,0.9149856949914376,-0.10629872452123662,0.08639746122320709,0.37952220715468304
1681248748789740500,3.948740478515625,-0.05399207025766373,0.0007570735178887844,-0.0016802249010652304,0.23886950314044952,0.129831001162529,-0.9623332619667053,0.006125494837760925,-0.005929693579673767,0.006049692630767822,0.9149639185676048,-0.10672890209351751,0.08626889332886688,0.37948321394741025
1681248748804773600,3.963773681640625,-0.08891841769218445,-0.004940759390592575,0.009830756112933159,0.23892070353031158,0.1308416873216629,-0.9621836543083191,0.008180022239685059,-0.006574153900146484,0.007975220680236816,0.9148925194338439,-0.10722242746926107,0.08609027345608965,0.37955684645765575
1681248748819806500,3.978806396484375,-0.12159668654203415,-0.004751408472657204,0.01795659400522709,0.2391805499792099,0.1324874758720398,-0.9618937969207764,0.004639536142349243,-0.015620455145835876,0.003916501998901367,0.9147428678710681,-0.10806660934622378,0.08587605388916843,0.37972663321430716
1681248748834839600,3.993839599609375,-0.14798487722873688,-0.0024099573493003845,0.030488096177577972,0.2393246591091156,0.13437001407146454,-0.9615967869758606,0.00040608644485473633,-0.01449701189994812,0.004458725452423096,0.9145709000933934,-0.10900363191597778,0.08555588797240543,0.3799451422538278
1681248748849872600,4.00887255859375,-0.17213645577430725,0.016410600394010544,0.022258929908275604,0.23968294262886047,0.1363285630941391,-0.9612318277359009,0.0029164552688598633,-0.00858202576637268,0.011265337467193604,0.9143315114355541,-0.11003105709706626,0.08530684645929405,0.3802810872120602
1681248748864905500,4.023905517578125,-0.1715623289346695,0.028576454147696495,0.02313271351158619,0.2400997281074524,0.1385628581047058,-0.9608082175254822,-0.0032986849546432495,-0.016813024878501892,0.011421620845794678,0.9141067294887613,-0.11119369045030018,0.08504029117372515,0.38054281620156766
1681248748879938600,4.0389384765625,-0.18172942101955414,0.0458233505487442,0.01766364648938179,0.24079018831253052,0.14068660140037537,-0.9603266716003418,-0.0013798922300338745,-0.008850708603858948,0.006499767303466797,0.9138758046619324,-0.1123580360997651,0.08492541624119661,0.3807810482049289
1681248748894971600,4.0539716796875,-0.18432413041591644,0.057653382420539856,0.006456531584262848,0.24161149561405182,0.14307446777820587,-0.9597674608230591,-0.0034371614456176758,-0.008171573281288147,0.005467474460601807,0.9136470602120007,-0.11366889215449193,0.08482720822140163,0.3809628165837365
1681248748910004700,4.069004638671875,-0.15586619079113007,0.0707140564918518,0.0005943810101598501,0.24260076880455017,0.1450125277042389,-0.9592269062995911,-0.012620419263839722,-0.004982680082321167,-0.0060898661613464355,0.9134565598219134,-0.11479492835467185,0.0849039340581691,0.38106500030760937
1681248748925037600,4.08403759765625,-0.12029673904180527,0.06576643139123917,-0.011985059827566147,0.2435598075389862,0.14677616953849792,-0.9587154984474182,-0.009642675518989563,0.007886871695518494,-0.012765824794769287,0.913313734033495,-0.11582410270926566,0.08501198271822091,0.3810717118237476
1681248748940070700,4.099070556640625,-0.09457593411207199,0.05060771852731705,-0.009009776636958122,0.24435682594776154,0.14790676534175873,-0.9583388566970825,-0.0013759732246398926,0.017452657222747803,-0.01446998119354248,0.9132197312461298,-0.11651893906371265,0.08516992789059792,0.38105008636990967
1681248748955103700,4.114103759765625,-0.06589208543300629,0.03732973337173462,-0.00843000691384077,0.24489176273345947,0.14887714385986328,-0.9580519795417786,0.0020716339349746704,0.019000008702278137,-0.015290915966033936,0.91315749160087,-0.11708307321297459,0.08523824499512267,0.3810110183524852
1681248748970136600,4.129136474609375,-0.022700728848576546,0.028805753216147423,-0.011329390108585358,0.24527744948863983,0.14925041794776917,-0.9578952193260193,0.0030745118856430054,0.02500489354133606,-0.005819380283355713,0.9131325906309321,-0.11733428530703577,0.08535249293457363,0.38096775716926046
1681248748985169700,4.144169677734375,0.01699667051434517,0.024405144155025482,-0.01586288958787918,0.2455432265996933,0.1492307186126709,-0.9578301906585693,0.0037547796964645386,0.02915973961353302,-0.004343271255493164,0.9131588077974623,-0.11736947909393754,0.08549443088571612,0.3808623671462141
1681248749000202800,4.15920263671875,0.04239065945148468,0.019116107374429703,-0.02067255787551403,0.24554863572120667,0.148802250623703,-0.9578954577445984,0.002070888876914978,0.027543529868125916,-0.0023248791694641113,0.9132410813824698,-0.11715366731209688,0.08559950336202184,0.3807079998217618
1681248749015235600,4.174235595703125,0.050171349197626114,0.022241059690713882,-0.023846779018640518,0.2457222044467926,0.1483006477355957,-0.9579287767410278,0.0027365535497665405,0.022902920842170715,-0.0017728209495544434,0.9133353544938184,-0.11693294507734037,0.08580387195840057,0.38050347666218515
1681248749030268700,4.1892685546875,0.02935831807553768,0.019679632037878036,-0.022919733077287674,0.2458888441324234,0.1481112837791443,-0.9579153060913086,0.0001285076141357422,0.006368666887283325,0.0024251341819763184,0.9134228200217597,-0.11685692683550998,0.08594654450096703,0.38028457832889906
1681248749045301500,4.204301513671875,0.015689272433519363,0.018933415412902832,-0.020270420238375664,0.24612301588058472,0.14806097745895386,-0.957862913608551,0.00216791033744812,-0.004246935248374939,0.007743895053863525,0.9134878891496305,-0.11686301322713902,0.0860904534384244,0.38009390173559654
1681248749060334300,4.219334228515625,0.007519279606640339,0.028457676991820335,-0.019552698358893394,0.2464652806520462,0.14847928285598755,-0.9577101469039917,-0.0031944960355758667,-0.00657258927822113,0.004615664482116699,0.913532126176503,-0.11711107965320051,0.08619691800890136,0.3798870561626376
1681248749075366400,4.234366455078125,0.01047379057854414,0.029825476929545403,-0.022322652861475945,0.24684081971645355,0.1487136334180832,-0.9575770497322083,-0.0007471591234207153,-0.0025039613246917725,0.006603538990020752,0.9135779607298116,-0.1172798049617357,0.08635339402664179,0.3796889773196847
1681248749090399500,4.2493994140625,0.015147530473768711,0.029491249471902847,-0.02319963090121746,0.24721816182136536,0.14906835556030273,-0.9574245810508728,-0.0006209611892700195,0.002466633915901184,-0.0011326074600219727,0.9136316376030355,-0.11750278445425189,0.08649168328407203,0.37945943015888534
1681248749105432600,4.2644326171875,0.01668311096727848,0.02181362360715866,-0.020700521767139435,0.24751335382461548,0.14905069768428802,-0.95735102891922,0.0000909268856048584,0.0045289695262908936,-0.0022436976432800293,0.9136934357145409,-0.1175359442550713,0.08665897518854354,0.3792621717474477
1681248749120465400,4.27946533203125,0.03267965465784073,0.016415927559137344,-0.01993672549724579,0.247767835855484,0.14879406988620758,-0.9573251605033875,0.004780277609825134,0.007059156894683838,-0.0006369352340698242,0.9137592809262708,-0.11744977310305578,0.08685034632562816,0.379086374214767
1681248749135498500,4.29449853515625,0.04094743728637695,0.016405541449785233,-0.022524787113070488,0.24793195724487305,0.1482543647289276,-0.957366406917572,0.00235787034034729,0.008712753653526306,-0.0003668069839477539,0.9138434410610707,-0.11721124724158337,0.08705362375901336,0.3789106793859643
1681248749150531600,4.309531494140625,0.04167528077960014,0.015814851969480515,-0.02073461003601551,0.2481071799993515,0.14768286049365997,-0.9574093222618103,0.004089966416358948,0.0055610984563827515,0.0034756064414978027,0.9139303419918053,-0.11695935304951392,0.08726885404067217,0.37872933418557353
1681248749165564400,4.324564453125,0.035222120583057404,0.01699596457183361,-0.01609005779027939,0.24834582209587097,0.1472436636686325,-0.9574151039123535,0.0018982142210006714,0.004245549440383911,0.0030235648155212402,0.9139987566846216,-0.11678480001862471,0.08748581797339222,0.378567955175565
1681248749180597500,4.339597412109375,0.020684828981757164,0.015873441472649574,-0.012259632349014282,0.24851535260677338,0.14696727693080902,-0.9574135541915894,-0.00014813244342803955,0.0014701783657073975,0.0019997358322143555,0.9140601402965964,-0.1166742752956384,0.08763751432375663,0.37841860068242406
1681248749195630600,4.354630615234375,-0.009519943967461586,0.010428342968225479,-0.006654743105173111,0.24871154129505157,0.14695556461811066,-0.9573644399642944,0.00003714859485626221,-0.006101727485656738,0.0015233159065246582,0.9140841786714115,-0.11669996296240019,0.08774344873364928,0.3783280541351868
1681248749210663700,4.36966357421875,-0.02915143594145775,0.011477362364530563,-0.003113005543127656,0.2488792985677719,0.14742444455623627,-0.9572487473487854,0.0025549232959747314,-0.008447453379631042,0.0109596848487854,0.9140668892960683,-0.11695256510823558,0.08773672912867794,0.3782936050349039
1681248749225696500,4.384696533203125,-0.01336512342095375,0.015197265893220901,-0.008196713402867317,0.24904976785182953,0.14785611629486084,-0.9571378231048584,0.001011177897453308,-0.008253499865531921,0.012008368968963623,0.9140476439808847,-0.11718888237939541,0.08773746165599135,0.3782667749410292
1681248749240729600,4.3997294921875,-0.00738169252872467,0.011609454639256,-0.011981065385043621,0.24930107593536377,0.1481538712978363,-0.9570263624191284,-0.0014831870794296265,0.008645400404930115,0.0030925869941711426,0.9140484575681438,-0.11737363499914452,0.08780810008953112,0.3781912188270339
1681248749255762700,4.4147626953125,0.007125877309590578,0.013332253322005272,-0.014783776365220547,0.24946749210357666,0.1481945812702179,-0.9569766521453857,0.004987969994544983,0.011351272463798523,0.004233121871948242,0.9140783108683512,-0.11741665734495838,0.08789197801418289,0.3780860024341209
1681248749270795500,4.42979541015625,0.00742990430444479,0.005868212319910526,-0.0102883605286479,0.24959208071231842,0.14805488288402557,-0.9569658041000366,0.0023456960916519165,0.006867557764053345,-0.0033614039421081543,0.914117586471804,-0.11736607078159234,0.08799037964063905,0.37798390530046877
1681248749285828600,4.44482861328125,0.006293373182415962,-0.0011023450642824173,-0.004464293364435434,0.2496356964111328,0.14789678156375885,-0.9569788575172424,0.0034312158823013306,0.009375512599945068,-0.0014256834983825684,0.9141538084113661,-0.11729252401016485,0.08805130513094715,0.3779048547683206
1681248749300861700,4.45986181640625,0.0018037633271887898,-0.001504749059677124,-0.002883174689486623,0.2496819794178009,0.14776374399662018,-0.9569873213768005,0.0016759485006332397,0.0009636282920837402,0.002290666103363037,0.9141645774429406,-0.11723701626530585,0.08810113694913806,0.3778844980833369
1681248749315894500,4.47489453125,-0.018867958337068558,-0.0042877523228526115,0.002223969204351306,0.2496354728937149,0.14787092804908752,-0.9569829106330872,-0.0002917051315307617,-0.001600220799446106,0.0005620121955871582,0.9141646331267067,-0.11727798322255915,0.08805914174703929,0.37788152120172586
1681248749330927600,4.489927734375,-0.05303199961781502,-0.0035165008157491684,0.003804289037361741,0.24961505830287933,0.14854316413402557,-0.9568841457366943,-0.00039336085319519043,-0.006422862410545349,0.0058647990226745605,0.9141244658395258,-0.11759501217001704,0.08791670791808441,0.37791328620812603
1681248749345960700,4.504960693359375,-0.07300113141536713,0.001729660201817751,0.0006689494475722313,0.2495950162410736,0.14951321482658386,-0.956738293170929,-0.00011390447616577148,-0.014945998787879944,0.00803828239440918,0.9140567436341154,-0.11805648299929555,0.08771277716781725,0.3779805089291193
1681248749360993500,4.51999365234375,-0.051527369767427444,0.0055329203605651855,-0.0060326289385557175,0.24965724349021912,0.15053819119930267,-0.9565613269805908,-0.0026022791862487793,-0.009531766176223755,0.005236804485321045,0.914004383409592,-0.11855522722333335,0.08754432553830738,0.37799027311919814
1681248749376026600,4.535026611328125,-0.03234381973743439,0.003794675227254629,-0.011483852751553059,0.24974948167800903,0.1511579155921936,-0.9564394950866699,0.00008256733417510986,0.004832640290260315,0.0051454901695251465,0.9139900254836177,-0.11886299658420364,0.08747482369027056,0.377944574923164
1681248749391059700,4.550059814453125,-0.031292032450437546,-0.008314184844493866,-0.003600630210712552,0.24971503019332886,0.15161918103694916,-0.9563754796981812,0.00901290774345398,0.005927771329879761,-0.000823676586151123,0.913978862558411,-0.11907289242384309,0.08737227041815147,0.3779290459775662
1681248749406092500,4.565092529296875,-0.007809129543602467,-0.00990782119333744,-0.001535881543532014,0.24956071376800537,0.1518838107585907,-0.9563737511634827,0.005550876259803772,0.002794504165649414,-0.003175199031829834,0.9139721240142615,-0.11916822970622835,0.08724708737234431,0.3779442848131597
1681248749421125600,4.580125732421875,0.016992144286632538,-0.005913079716265202,-0.0014461330138146877,0.2494840919971466,0.15157829225063324,-0.9564422369003296,0.0025604814291000366,0.01808413863182068,-0.0015198588371276855,0.9139902959616514,-0.11900810646132275,0.08726950340882902,0.3779454276077575
1681248749436158700,4.59515869140625,0.015026198700070381,0.0009277821518480778,0.00015522574540227652,0.24946193397045135,0.15118470788002014,-0.9565102458000183,0.0008431375026702881,0.017516404390335083,0.000028312206268310547,0.9140152500406478,-0.11881579372143856,0.08733653180478242,0.37792995843423205
1681248749451191600,4.610191650390625,0.013411576859652996,0.008124709129333496,-0.0029569442849606276,0.249522864818573,0.15097790956497192,-0.956527054309845,-0.005565449595451355,-0.004829272627830505,-0.0004126429557800293,0.9140341694696629,-0.11872698868075827,0.08740921948582309,0.37789573372172397
1681248749466224600,4.625224609375,0.00986440572887659,0.015099793672561646,-0.008012956008315086,0.24972841143608093,0.15091167390346527,-0.9564838409423828,-0.007952988147735596,-0.0011619627475738525,-0.0005626678466796875,0.9140496055728135,-0.11873113383954964,0.08752704683644044,0.37782962297952366
1681248749481257500,4.640257568359375,0.010681889951229095,0.018355242908000946,-0.009136809967458248,0.2500230371952057,0.150894895195961,-0.9564095139503479,-0.003914147615432739,0.00532454252243042,-0.0009879469871520996,0.9140637985900623,-0.11877513371399655,0.08767950851613356,0.377746228325751
1681248749496290600,4.65529052734375,0.004527591168880463,0.01710701733827591,-0.008376477286219597,0.25027647614479065,0.15088820457458496,-0.9563443064689636,-0.0023823082447052,0.0013334155082702637,-0.000992119312286377,0.9140821002535179,-0.11881511644870382,0.08781125729045175,0.3776585139062792
1681248749511323400,4.670323486328125,0.00035926466807723045,0.016860410571098328,-0.011563481763005257,0.2505032420158386,0.1511806696653366,-0.9562387466430664,-0.00047284364700317383,-0.0008663982152938843,0.0008707046508789062,0.9140963788363391,-0.11898969269009478,0.0878753894456963,0.3775540838569762
1681248749526356500,4.6853564453125,0.005910038016736507,0.015629496425390244,-0.009559718891978264,0.25069957971572876,0.15118306875228882,-0.9561868906021118,0.0006888806819915771,0.0016336441040039062,0.0031229257583618164,0.9141178884174161,-0.1190224557793085,0.08797841128917,0.37746780696360815
1681248749541389600,4.7003896484375,0.010986927896738052,0.013000690378248692,-0.013288944028317928,0.2507825493812561,0.15105265378952026,-0.9561857581138611,0.0019639134407043457,0.006509557366371155,0.001717984676361084,0.9141566961349572,-0.11896844289878973,0.08805469219113209,0.3773731141030028
1681248749556422400,4.71542236328125,0.014862094074487686,0.012921061366796494,-0.013740882277488708,0.2509040832519531,0.1509813517332077,-0.9561651349067688,0.0035055577754974365,0.005375400185585022,0.002292454242706299,0.9141984138302681,-0.118948321341743,0.08814039534363677,0.377258271105384
1681248749571455500,4.73045556640625,0.01250104233622551,0.015204722061753273,-0.01155602466315031,0.2510073184967041,0.15087772905826569,-0.9561544060707092,0.0006862878799438477,0.0036174505949020386,0.0028157830238342285,0.9142425311032653,-0.1189092222092081,0.08822355689167315,0.3771442481286402
1681248749586488600,4.745488525390625,0.01977834291756153,0.017063608393073082,-0.01293660793453455,0.25120583176612854,0.15070408582687378,-0.9561296701431274,0.0010066032409667969,0.0006172657012939453,0.006361544132232666,0.914280826745323,-0.11885676783920722,0.08836427755394168,0.3770349174529456
1681248749601521400,4.760521484375,0.02239287458360195,0.017847377806901932,-0.012850320897996426,0.25140830874443054,0.1504574418067932,-0.9561153054237366,-0.00021821260452270508,0.0017794370651245117,-0.0009007453918457031,0.9143231787297279,-0.11877022817455019,0.08852114600838296,0.37692291476692746
1681248749616554500,4.775554443359375,0.025369489565491676,0.011635554023087025,-0.013333152048289776,0.2516007721424103,0.1502155214548111,-0.9561026692390442,0.0011914968490600586,0.004783213138580322,0.00029212236404418945,0.9143678205224463,-0.11868340993587286,0.08867302089373268,0.3768060203533383
1681248749631587600,4.790587646484375,0.013705856166779995,0.012639032676815987,-0.010755744762718678,0.2517787516117096,0.15009212493896484,-0.9560751914978027,-0.002480745315551758,-0.0021276921033859253,-0.0031685829162597656,0.9144117285154986,-0.11864898749526519,0.08879645755668751,0.376681269548992
1681248749646620400,4.805620361328125,-0.0005803517415188253,0.013113342225551605,-0.006581506691873074,0.2519526779651642,0.15004676580429077,-0.9560365080833435,0.00024449825286865234,-0.001990780234336853,0.0012483000755310059,0.9144363189302475,-0.11865451288714858,0.0888979656725842,0.3765959507303591
1681248749661653500,4.820653564453125,-0.008738039992749691,0.008724985644221306,-0.007020927965641022,0.25210484862327576,0.1502165049314499,-0.9559697508811951,0.0014655590057373047,-0.008630260825157166,0.005728662014007568,0.9144375216651932,-0.1187612195239236,0.08894325204363233,0.3765486863217067
1681248749676686600,4.8356865234375,-0.0032753641717135906,0.012305072508752346,-0.007086974568665028,0.25226858258247375,0.15032601356506348,-0.9559093117713928,0.0012408196926116943,-0.006481453776359558,0.004935801029205322,0.9144399640396375,-0.11884186448886876,0.08900530756898412,0.3765027161108372
1681248749691719400,4.850719482421875,0.01317887008190155,0.008563597686588764,-0.007994313724339008,0.2524028420448303,0.15035150945186615,-0.9558699131011963,0.003441154956817627,0.008370369672775269,0.004697978496551514,0.914451089164156,-0.11887601135662329,0.08907048966657458,0.37644954093508914
1681248749706752500,4.86575244140625,0.030073270201683044,0.015141871757805347,-0.013134214095771313,0.2525498569011688,0.15007485449314117,-0.955874502658844,0.0019971728324890137,0.007197439670562744,-0.002285897731781006,0.9144961700888603,-0.1187643800580438,0.08920628206722508,0.37634285771532705
1681248749721785600,4.88078564453125,0.03885414078831673,0.011223829351365566,-0.01765999011695385,0.2526836395263672,0.14959482848644257,-0.9559144377708435,-0.0004101693630218506,0.009600073099136353,-0.0019561052322387695,0.9145637709962853,-0.1185506339555951,0.0893786412297846,0.3762050782926049
1681248749736818400,4.895818359375,0.03538137674331665,0.009964686818420887,-0.01378056313842535,0.25281572341918945,0.14910611510276794,-0.9559558629989624,0.0012125074863433838,0.007677897810935974,-0.001243293285369873,0.9146346251239278,-0.11833170691215614,0.08955268651102746,0.37606038080800747
1681248749751851500,4.9108515625,0.027407394722104073,0.005736918188631535,-0.009727498516440392,0.25293678045272827,0.14860273897647858,-0.9560021758079529,0.0032276511192321777,0.00009410083293914795,0.0011376738548278809,0.914686735063171,-0.11810836110487664,0.0897179720918307,0.37596456104012244
1681248749766884600,4.925884521484375,0.018133308738470078,0.007039736956357956,-0.007034244015812874,0.25305503606796265,0.14833609759807587,-0.9560123085975647,0.0025600790977478027,-0.0012108981609344482,0.0019107460975646973,0.9147226485737017,-0.11799807345710384,0.08983483444188269,0.3758838157322589
1681248749781917700,4.940917724609375,0.0014601622242480516,0.006780877709388733,-0.0044326018542051315,0.25319749116897583,0.14838391542434692,-0.9559671878814697,0.002646505832672119,-0.005500674247741699,0.0048410892486572266,0.9147328356065941,-0.11804420929849889,0.08989980011749074,0.3758290163464423
1681248749796950500,4.955950439453125,-0.003876280039548874,0.014774356037378311,-0.00273856520652771,0.2533412277698517,0.1485077291727066,-0.9559098482131958,0.0027621686458587646,-0.00893564522266388,0.005500912666320801,0.914730976845546,-0.11812869809054691,0.08994821046363526,0.37579526403689906
1681248749811983600,4.970983642578125,-0.00778223155066371,0.013515746220946312,-0.00293430732563138,0.2535349726676941,0.14872770011425018,-0.9558243155479431,0.0010730624198913574,0.0037685930728912354,0.00341641902923584,0.9147261158805422,-0.11826775075291751,0.09000330165638559,0.3757501292688591
1681248749827016700,4.9860166015625,-0.0022232024930417538,0.010959643870592117,-0.003261609934270382,0.2536938786506653,0.14886510372161865,-0.9557607173919678,0.0016313493251800537,0.003326013684272766,0.0018270015716552734,0.9147177312866052,-0.11836291215998893,0.09005469671811181,0.3757283787083146
1681248749842049500,5.001049560546875,0.00007979257497936487,0.011851536110043526,-0.008893396705389023,0.25390952825546265,0.1488887369632721,-0.9556998014450073,-0.0034671127796173096,-0.0008785277605056763,-0.002384364604949951,0.9147206709030484,-0.11841312116090855,0.0901578245560594,0.3756808039774529
1681248749857082600,5.01608251953125,-0.008696388453245163,0.013208683580160141,-0.007206284441053867,0.254104346036911,0.14894047379493713,-0.9556399583816528,-0.002868473529815674,0.004166170954704285,0.0009127259254455566,0.9147326183553528,-0.11847031853730765,0.0902485920194161,0.37561170734217786
1681248749872115700,5.03111572265625,-0.028216561302542686,0.014388463459908962,-0.000548115058336407,0.2543315291404724,0.1491227000951767,-0.9555510878562927,0.0001849532127380371,-0.004591509699821472,0.0022277235984802246,0.9147100439777017,-0.11860230800951567,0.09032136006318808,0.37560742999324603
1681248749887148500,5.0461484375,-0.023119961842894554,0.013673404231667519,-0.0028307102620601654,0.25455355644226074,0.14948348701000214,-0.955435574054718,-0.0018680989742279053,-0.009255260229110718,0.0037449002265930176,0.9146757501390376,-0.11881897603025135,0.09035627579369342,0.375614122782919
1681248749902181600,5.061181640625,-0.022950531914830208,0.008758807554841042,0.0038737973663955927,0.2547318637371063,0.14985552430152893,-0.9553297758102417,-0.0032060742378234863,-0.0004567652940750122,0.00003802776336669922,0.914640487376421,-0.11903300822828579,0.09036729886583643,0.3756297401598196
1681248749917214700,5.076214599609375,-0.0359392985701561,0.010052837431430817,0.004546245560050011,0.25488436222076416,0.15022306144237518,-0.9552313685417175,0.0009291470050811768,0.0005337148904800415,0.0034491419792175293,0.9145992212897875,-0.1192416182149746,0.09036450435650298,0.3756647400160019
1681248749932247600,5.09124755859375,-0.02909311279654503,0.017335783690214157,-0.003211276140064001,0.25503143668174744,0.15068839490413666,-0.9551188349723816,-0.0019340217113494873,-0.005989342927932739,0.0034586191177368164,0.9145583179470974,-0.11949449558998662,0.09034184947214402,0.37568953472463545
1681248749947280600,5.10628076171875,-0.014428417198359966,0.02053610421717167,-0.0053236959502100945,0.2553026080131531,0.15102696418762207,-0.9549928903579712,-0.0030291378498077393,-0.0014756172895431519,-0.0019315481185913086,0.9145346737019223,-0.11970741789149032,0.09040844691795288,0.3756629239931003
1681248749962313700,5.121313720703125,-0.016100136563181877,0.01758478954434395,-0.004196379333734512,0.25554415583610535,0.15112324059009552,-0.9549130797386169,0.0012306571006774902,0.0056607723236083984,-0.003811955451965332,0.9145224515263242,-0.11979977270528203,0.09050681361848024,0.37563980647668466
1681248749977346600,5.1363466796875,-0.012368515133857727,0.024622458964586258,-0.006300010718405247,0.25580230355262756,0.1513107270002365,-0.9548142552375793,0.0014302730560302734,0.0007277876138687134,-0.0013320446014404297,0.9145139783260823,-0.11993658261166974,0.09059853112318313,0.3755945602847149
1681248749992370000,5.151369873046875,-0.008787255734205246,0.018231404945254326,-0.005881894379854202,0.256109356880188,0.15146097540855408,-0.9547080993652344,-0.0012570321559906006,0.00044029951095581055,-0.00412362813949585,0.9886121194118549,-0.07660282906404436,0.1295297515311926,-3.55392591529692e-17
1681248750007403000,5.166403076171875,-0.013203895650804043,0.018356572836637497,-0.004995860159397125,0.25637125968933105,0.15158303081989288,-0.9546184539794922,0.000373154878616333,0.003995612263679504,-0.0007801055908203125,0.9885894260185604,-0.07666060227977306,0.1296685713583475,-0.00004362215125781423
1681248750022435600,5.181435546875,-0.028838833793997765,0.023046933114528656,-0.0009473229292780161,0.2566424310207367,0.15182502567768097,-0.9545071125030518,0.00033086538314819336,-0.0021973103284835815,0.002526581287384033,0.9885613708818072,-0.07678318696875079,0.12981057521103803,-0.000058709401217776596
1681248750037468700,5.19646875,-0.05121338367462158,0.02679559774696827,0.003956621512770653,0.25697219371795654,0.15244679152965546,-0.9543192982673645,-0.0018146634101867676,-0.003917694091796875,0.002979576587677002,0.98851385849229,-0.0771055275360208,0.12998116055659195,-0.000027030432174056328
1681248750052501800,5.211501708984375,-0.04953734949231148,0.027072034776210785,-0.0008855375926941633,0.257332980632782,0.153203547000885,-0.9541008472442627,-0.0028316080570220947,-0.004369288682937622,0.0032647252082824707,0.9884585962697674,-0.0774981302593243,0.13016766045828848,0.000014729109316717219
1681248750067534600,5.22653466796875,-0.03445272147655487,0.025139112025499344,-0.0028107366524636745,0.25768348574638367,0.1537896990776062,-0.9539119005203247,-0.004021316766738892,-0.00431455671787262,-0.0015476346015930176,0.9884107791899236,-0.07780009538289423,0.1303502537829858,0.00002763697978840178
1681248750082567200,5.241567138671875,-0.02133878692984581,0.028627054765820503,-0.009354389272630215,0.2580110430717468,0.15419012308120728,-0.953758716583252,-0.0029450953006744385,0.005264252424240112,-0.00020545721054077148,0.9883719783343037,-0.07799997551329929,0.1305244967730942,-0.00001584843846900846
1681248750097600300,5.256600341796875,-0.015456397086381912,0.028413468971848488,-0.013532622717320919,0.25839364528656006,0.1544571965932846,-0.9536119103431702,-0.000993102788925171,0.004676744341850281,-0.0003217458724975586,0.9883348283740031,-0.07812804307292148,0.13072893079146644,-0.00009125731355662778
1681248750112633300,5.27163330078125,-0.003246602136641741,0.024975061416625977,-0.015711089596152306,0.25872576236724854,0.15453965961933136,-0.9535084962844849,-0.0017982423305511475,0.006410077214241028,-0.004239857196807861,0.9883086943821082,-0.07815758778788297,0.13090890736026572,-0.0001986860138632793
1681248750127666200,5.286666259765625,-0.007686304394155741,0.02404135651886463,-0.00987184140831232,0.2590603232383728,0.15460105240345,-0.9534077048301697,0.000506967306137085,0.00831708312034607,-0.0027080178260803223,0.988283205458585,-0.07817613933008874,0.13109019240290326,-0.00030787796927291304
1681248750142699300,5.30169921875,-0.01610993593931198,0.021400300785899162,-0.008261960931122303,0.2592885196208954,0.1547449827194214,-0.9533223509788513,-0.00004163384437561035,-0.002080753445625305,0.0021504759788513184,0.9882616518099601,-0.07824211549710096,0.13121358738049177,-0.0003719641706087561
1681248750157732400,5.316732421875,-0.030769573524594307,0.023589685559272766,-0.006191886030137539,0.2595575749874115,0.15511120855808258,-0.9531896114349365,-0.0007837116718292236,-0.005529254674911499,0.0032536983489990234,0.9882280594032701,-0.0784236152385398,0.13135807633547003,-0.00042014481854427317
1681248750172765200,5.33176513671875,-0.050294432789087296,0.02390793338418007,-0.0007454553269781172,0.25983142852783203,0.15576058626174927,-0.9530090689659119,0.0004988014698028564,-0.00291326642036438,0.005957067012786865,0.9881822934528369,-0.07875545994513981,0.13150305018174252,-0.00042238532828908044
1681248750187798300,5.34679833984375,-0.05630422756075859,0.03184415400028229,-0.0034770595375448465,0.2602006793022156,0.15656621754169464,-0.9527762532234192,0.0023573338985443115,-0.006145045161247253,0.007585883140563965,0.9881234566547802,-0.07917012927586843,0.1316964557256352,-0.0004043377559511032
1681248750202831400,5.361831298828125,-0.04215528070926666,0.026945801451802254,0.00006121618207544088,0.2605782151222229,0.15730684995651245,-0.9525510668754578,-0.000598907470703125,-0.00011076033115386963,-0.002221822738647461,0.9880664963072459,-0.07955058705079147,0.1318945230255067,-0.0003954095314373971
1681248750217865200,5.376865234375,-0.030068255960941315,0.02240617573261261,0.0006681506056338549,0.26090940833091736,0.1578383445739746,-0.9523724913597107,0.002426832914352417,0.005934283137321472,-0.0018053650856018066,0.9880212295921327,-0.07982527394459535,0.1320669922733921,-0.0003794107216741189
1681248750232898300,5.391898193359375,-0.019972585141658783,0.022006437182426453,-0.0077064260840415955,0.26118579506874084,0.15812034904956818,-0.9522499442100525,0.0034627020359039307,0.0010746270418167114,-0.000035822391510009766,0.9879903101657217,-0.07996892966596456,0.13221196602361154,-0.0003906587949908756
1681248750247931100,5.40693115234375,-0.003412410616874695,0.017076658084988594,-0.008280603215098381,0.26143038272857666,0.15827800333499908,-0.9521566033363342,-0.00035247206687927246,0.004548579454421997,0.0003591775894165039,0.9879666042547034,-0.0800429217862315,0.13234358297278973,-0.0004478210009741654
1681248750262964200,5.421964111328125,-0.0022687427699565887,0.014008697122335434,-0.0021886222530156374,0.2616826593875885,0.15826068818569183,-0.9520902037620544,0.007406115531921387,0.010211631655693054,0.0021390318870544434,0.9879498821489688,-0.08003255986879525,0.13247524618155082,-0.00046942483256392137
1681248750277997300,5.436997314453125,0.0009552801493555307,0.01783033274114132,-0.006077636033296585,0.2618831396102905,0.15822724997997284,-0.9520406126976013,0.005313575267791748,0.004156827926635742,0.0015249252319335938,0.9879372276128146,-0.08001098692326239,0.13258178375351792,-0.0005113418889846292
1681248750293030100,5.452030029296875,-0.00859694555401802,0.013523202389478683,-0.0016746321925893426,0.2620731294155121,0.15831884741783142,-0.9519731402397156,-0.0006594955921173096,0.0019137412309646606,0.003563106060028076,0.9879201489421751,-0.08005331679430899,0.13268349171428995,-0.0005512280479797937
1681248750308063200,5.467063232421875,-0.01436695083975792,0.009749237447977066,0.0005554989911615849,0.262262225151062,0.15852834284305573,-0.9518861770629883,0.003240734338760376,-0.0012407153844833374,0.004300177097320557,0.9878980875734131,-0.080161514553894,0.13278195188319197,-0.0005480016366035286
1681248750323096000,5.482095947265625,-0.003913670778274536,0.01103181578218937,-0.003523665014654398,0.2624300718307495,0.15869981050491333,-0.9518113136291504,-0.001001209020614624,-0.0050742775201797485,0.002455294132232666,0.9878791174326688,-0.08024563626218932,0.13287202015845453,-0.000578900878346363
1681248750338129200,5.497129150390625,-0.004152289591729641,0.007710054516792297,0.0009235476609319448,0.26256251335144043,0.15885990858078003,-0.9517481327056885,-0.0017744898796081543,0.0035546869039535522,0.0016291141510009766,0.9878632439196599,-0.08032583643401787,0.13294248340227757,-0.0005943234543981263
1681248750353162000,5.512161865234375,0.009105565026402473,0.012325312942266464,-0.004988403525203466,0.262760192155838,0.15895549952983856,-0.9516775608062744,0.005275756120681763,0.0034285783767700195,0.0020163655281066895,0.9878453244101972,-0.08037205114433453,0.13304713356953726,-0.0006208081095467425
1681248750368195000,5.527195068359375,0.02068514935672283,0.011113042011857033,-0.0048951925709843636,0.26293236017227173,0.15876218676567078,-0.9516623020172119,0.0009989738464355469,0.003194645047187805,-0.0005319118499755859,0.9878414460772851,-0.08026407791089353,0.13314099488903744,-0.0006978175038105559
1681248750383228200,5.542228271484375,0.026369985193014145,0.005651963874697685,-0.006114121526479721,0.26303374767303467,0.15844020247459412,-0.9516879320144653,0.0036136507987976074,0.008750393986701965,-0.0002925992012023926,0.9878479234027427,-0.08009101930294552,0.13319703945434458,-0.0007684361988800609
1681248750398261000,5.557260986328125,0.02442135103046894,0.00859981682151556,-0.008860372938215733,0.2631394863128662,0.15804892778396606,-0.9517237544059753,0.004133492708206177,0.003633245825767517,0.003313779830932617,0.9878568443705686,-0.07988061215227918,0.13325614841260117,-0.0008544087557685736
1681248750413294000,5.572294189453125,0.01848958618938923,0.004841031040996313,-0.0057130493223667145,0.2632061243057251,0.1577739417552948,-0.9517509937286377,-0.00273856520652771,-0.0001811385154724121,0.005965471267700195,0.9878635849733761,-0.07972895546962325,0.13329595378201356,-0.0009425752720807647
1681248750428327200,5.5873271484375,0.006690769921988249,0.010117818601429462,-0.007094698026776314,0.26329413056373596,0.15771403908729553,-0.951736569404602,0.0035668611526489258,-0.0016776174306869507,0.007263302803039551,0.987859929449814,-0.07969140053231268,0.13334542541512923,-0.0009979874545636032
1681248750443360000,5.602360107421875,0.01888224110007286,0.022984614595770836,-0.017636554315686226,0.2635228931903839,0.15768688917160034,-0.9516777396202087,-0.002155095338821411,-0.003939300775527954,0.007265567779541016,0.9878449627246438,-0.07966460066104301,0.1334716462777465,-0.0011026318265982987
1681248750458393000,5.61739306640625,0.05192780867218971,0.04430215060710907,-0.037196673452854156,0.2639405429363251,0.15738576650619507,-0.9516118764877319,-0.004876762628555298,0.0007411092519760132,0.0032933950424194336,0.9878280041544535,-0.07947790444249196,0.13370615427726085,-0.001364041296453394
1681248750473426200,5.63242626953125,0.09100665897130966,0.05594895780086517,-0.05703269690275192,0.2645975649356842,0.15665653347969055,-0.9515497088432312,-0.004023224115371704,0.013875722885131836,-0.0076024532318115234,0.9878114383665506,-0.07904742437004685,0.13407703657960518,-0.0018222169522520777
1681248750488459000,5.647458984375,0.13993026316165924,0.06252110749483109,-0.08414261043071747,0.2652898132801056,0.155273899435997,-0.9515835642814636,0.0021968185901641846,0.011581003665924072,-0.011627435684204102,0.9878185230965849,-0.0782534857966407,0.13447898825953614,-0.0025037798097915696
1681248750503492000,5.6624921875,0.19682449102401733,0.05925314128398895,-0.0735890343785286,0.26592180132865906,0.15328849852085114,-0.9517290592193604,0.006646007299423218,-0.0012346208095550537,-0.019996345043182373,0.9878529435227961,-0.07713220675351913,0.1348557962604955,-0.0033292841511318857
1681248750518525200,5.677525146484375,0.25024935603141785,0.05061064660549164,-0.07003691047430038,0.2665485143661499,0.1504216194152832,-0.9520111680030823,0.009299904108047485,0.005080744624137878,-0.012313783168792725,0.987921382333791,-0.07556841068382632,0.13521776744768915,-0.004105690401089673
1681248750533558000,5.69255810546875,0.24945643544197083,0.044824935495853424,-0.05868305638432503,0.2670765519142151,0.14706304669380188,-0.952387809753418,0.008405685424804688,0.009400621056556702,0.0006209015846252441,0.9880129681882607,-0.07374914096858916,0.13552546303871327,-0.004917262898509222
1681248750548591000,5.707591064453125,0.22541655600070953,0.06090323626995087,-0.049345482140779495,0.2675437927246094,0.14414727687835693,-0.9527024030685425,0.005161315202713013,0.008089691400527954,0.006443917751312256,0.9880887714359035,-0.07216927297821443,0.1357954143818552,-0.005626015317117857
1681248750563624200,5.722624267578125,0.13773736357688904,0.026410505175590515,-0.0395226776599884,0.2679940462112427,0.14191481471061707,-0.9529110193252563,-0.006961911916732788,-0.011406347155570984,0.010787606239318848,0.9881383778645364,-0.07095946562942776,0.13604871594401022,-0.006171559569088143
1681248750578657000,5.737656982421875,0.05957837775349617,0.03266414254903793,-0.026734445244073868,0.26834428310394287,0.14084389805793762,-0.952971339225769,-0.005740493535995483,-0.00821445882320404,0.016386866569519043,0.9881512217671151,-0.0703640861895651,0.13624696517828533,-0.006543924943234849
1681248750593690000,5.752690185546875,0.004847756586968899,0.023082086816430092,-0.01773056387901306,0.26871874928474426,0.14064566791057587,-0.9528950452804565,-0.013820648193359375,-0.015157341957092285,0.012541711330413818,0.9881303794831581,-0.07023309056486451,0.136454304613557,-0.0067669607094230505
1681248750608723200,5.76772314453125,-0.014946348033845425,0.013940786011517048,-0.010416991077363491,0.2689960300922394,0.14091771841049194,-0.9527766108512878,-0.0058886706829071045,-0.003191843628883362,0.011980772018432617,0.9880996233232872,-0.07035655925628415,0.1366075997293571,-0.006877889218139546
1681248750623756300,5.78275634765625,-0.020835289731621742,0.008996360935270786,-0.0041798679158091545,0.26919740438461304,0.1414038985967636,-0.9526477456092834,-0.0019854605197906494,0.0017540901899337769,0.005763649940490723,0.9880666951061543,-0.07059732660344398,0.13671925173227195,-0.006927191440936485
1681248750638789000,5.7977890625,-0.01703362725675106,-0.0008823685348033905,0.004502037540078163,0.2692433297634125,0.1416827291250229,-0.9525933265686035,0.0012950301170349121,0.0014600157737731934,0.0032067298889160156,0.9880530549334415,-0.07074196656905746,0.13674398998089524,-0.006907428977927877
1681248750653822200,5.812822265625,-0.012563510797917843,-0.005383643321692944,0.005012298934161663,0.26917022466659546,0.1417551338672638,-0.9526032209396362,0.007410615682601929,0.007445350289344788,0.0029724836349487305,0.9880560237860152,-0.0707870172510778,0.1367025815575124,-0.006847190556281375
1681248750668855300,5.827855224609375,-0.01001151092350483,-0.009694235399365425,0.009160172194242477,0.26902520656585693,0.14179866015911102,-0.9526376724243164,0.010027587413787842,0.0029462575912475586,0.0006723999977111816,0.9880652239096105,-0.0708192054338428,0.13662281561922102,-0.006772930886175585
1681248750683888000,5.84288818359375,0.0003277860814705491,-0.013836249709129333,0.004719085060060024,0.2687841057777405,0.14174678921699524,-0.9527134895324707,0.007781475782394409,-0.00014518201351165771,0.002228260040283203,0.9880848887030236,-0.07080125460218396,0.13649340227843623,-0.006709059689357446
1681248750698921200,5.857921142578125,-0.006247558631002903,-0.014677010476589203,0.00806161854416132,0.2685791552066803,0.14180469512939453,-0.9527626633644104,0.00899350643157959,-0.0031480342149734497,0.0031777024269104004,0.9880977345874942,-0.0708384885991047,0.13638395960792518,-0.006650317043532257
1681248750713954300,5.872954345703125,-0.017684344202280045,-0.009989580139517784,0.00577955599874258,0.2684306502342224,0.1419951319694519,-0.9527761340141296,0.0033589303493499756,-0.011440888047218323,0.005220592021942139,0.9881015261282837,-0.07094467874325765,0.1363040313185867,-0.006581050779114415
1681248750728987100,5.887987060546875,-0.025184176862239838,-0.009757885709404945,0.008185988292098045,0.2683172821998596,0.14233027398586273,-0.9527580738067627,0.0007714927196502686,-0.011715009808540344,0.0013878941535949707,0.9880973970633777,-0.07112465510583309,0.13624336151757055,-0.0065107788917467225
1681248750744020200,5.903020263671875,-0.026536904275417328,-0.0043367547914385796,0.004398972727358341,0.26835495233535767,0.1427534818649292,-0.9526841044425964,-0.0006546974182128906,-0.005592182278633118,-0.002302408218383789,0.9880792310160339,-0.07135022061572412,0.13626107279643793,-0.006436661545172561
1681248750759053300,5.91805322265625,-0.024720629677176476,-0.0006946157664060593,0.0028391594532877207,0.2684142589569092,0.14311447739601135,-0.9526132345199585,-0.004849165678024292,-0.003618583083152771,-0.0016408562660217285,0.9880616170108386,-0.07154189007101987,0.13629061337605877,-0.006379319965844628
1681248750774086100,5.933086181640625,-0.029021527618169785,-0.0016118083149194717,0.004597910679876804,0.26854467391967773,0.14342229068279266,-0.9525302052497864,-0.003377377986907959,-0.005086064338684082,-0.0024410486221313477,0.9880410553483255,-0.07170621518073002,0.13635656033735935,-0.006325024269579301
1681248750789119200,5.948119140625,-0.026463668793439865,0.0016412432305514812,0.005255712196230888,0.26861196756362915,0.14376185834407806,-0.9524600505828857,-0.0012474358081817627,-0.005776584148406982,-0.002282381057739258,0.9880236769421317,-0.07188801535298886,0.13638948935175602,-0.006260519803027223
1681248750804153000,5.963153076171875,-0.022306101396679878,0.0026516462676227093,0.00466315820813179,0.26870912313461304,0.14394500851631165,-0.9524049758911133,0.0007000863552093506,0.003073453903198242,0.0012636780738830566,0.9880102778336363,-0.07199267016904827,0.13643520255933983,-0.006178787726184943
1681248750819186200,5.978186279296875,0.004386763088405132,0.0049787163734436035,0.0025826969649642706,0.2687573730945587,0.143978551030159,-0.9523863196372986,0.0020251572132110596,0.005878061056137085,0.002602994441986084,0.9880058563208519,-0.07201643677681902,0.13645689316341528,-0.006130963617224229
1681248750834219300,5.99321923828125,0.008119342848658562,0.0024449853226542473,-0.005361512303352356,0.2687683701515198,0.14374640583992004,-0.9524182677268982,-0.001922607421875,0.008719459176063538,0.0024823546409606934,0.9880137602899589,-0.07189541616594188,0.13646216611283382,-0.006152221661929961
1681248750849252000,6.008252197265625,0.01560591533780098,0.00720005901530385,-0.008835606276988983,0.26878708600997925,0.14358358085155487,-0.9524375200271606,-0.001544654369354248,0.004716619849205017,0.00355452299118042,0.988018271823285,-0.0718050336271713,0.13647444579891102,-0.006207057803576752
