seconds_elapsed,rotationRateX,rotationRateY,rotationRateZ,gravityX,gravityY,gravityZ,accelerationX,accelerationY,accelerationZ,quaternionW,quaternionX,quaternionY,quaternionZ
1.0,-0.051492233329182346,0.08736548845815396,-0.24679867637094513,-0.06259706773229885,-0.09353593642603703,-0.9936455934830812,0.0007674896220970485,0.186101169892312,-0.06621525242906534,0.9984057279228796,0.04693211311839185,-0.031214025704113,0.002854689608224093
1.01,0.05244181187458192,0.07249813433735036,-0.18772342570492012,-0.06161355746788216,-0.09382512746995122,-0.9936799038167994,0.0018517882897511914,0.14815822860923994,-0.07170131228098867,0.9984167434115838,0.047044041406873814,-0.030768888274069376,0.0018452154493507093
1.02,0.083512504186882,0.05924587614657151,-0.11418160547012085,-0.06078242976049061,-0.09461643364644909,-0.9936563376929213,0.008716192444825587,0.07545676628509675,-0.06765816383459655,0.998412232405646,0.04741608849756047,-0.030388712940911056,0.0010711805837749313
1.03,0.048479294900479274,0.04838788084084666,-0.04261257556283077,-0.06019588969989092,-0.09530858040665194,-0.9936259271661942,0.02863277048218615,-0.031066154513489527,-0.03537082785954132,0.9984048982867945,0.04775194003115517,-0.03011199712505814,0.000712316165405609
1.04,0.03343521145269477,0.03911239508635384,0.004309764131117447,-0.059758006546643996,-0.09568903940427986,-0.9936158433965544,0.033995717837832944,-0.06796998352946883,-0.019598095843414452,0.998402432261875,0.04794106561456918,-0.029894744222313894,0.0006677691252639367
1.05,0.030419878220231317,0.030259882446828073,0.03662103452286939,-0.0594156736916259,-0.09597814935216563,-0.9936085289463495,0.03505944598568276,-0.07281027535165109,-0.009388634976402686,0.9984005326550023,0.04808886074434178,-0.02971833519170908,0.0007698781950636153
1.06,0.04401590135754338,0.021230803278687514,0.0490716275273476,-0.05921405031347833,-0.09627937513507769,-0.9935914403713568,0.036593480126895235,-0.0474993104686965,-0.0005752123360883606,0.9983960194048347,0.04824707057086676,-0.029605603678822805,0.001013455240683359
1.07,0.0892330644938264,0.0191484238557635,0.05051675998070739,-0.059030704184840195,-0.09693325460041818,-0.9935386192561455,0.03350277751647882,-0.03054396611848975,0.0015499065225316288,0.9983824527857402,0.048583212912387944,-0.029500402943299708,0.0012885689446026035
1.08,0.1424205779891361,0.02165979721490031,0.04795042569831862,-0.058848227085292235,-0.09793502916444664,-0.9934509026041082,0.02615749797199567,-0.014698141901850082,-0.0024260858960914677,0.9983601062002139,0.04909405888075605,-0.02939536423569056,0.001566038545008011
1.09,0.18950456950101205,0.03112269849565238,0.043898717249209296,-0.058651318700573385,-0.09962425331468262,-0.9932945653756265,0.010694653736688115,0.0056674980855890705,-0.017990422452120697,0.9983205524886892,0.049949344615205254,-0.02928380756159898,0.0018211057204255347
1.1,0.21071804730644392,0.04269728279548178,0.0327443441182336,-0.05831722711438667,-0.10162601626069377,-0.9931105883829099,0.0029566036823605443,0.01810967935956318,-0.01706467291421139,0.9982740469366279,0.05096027380601541,-0.029104883504778196,0.002037590169422928
1.11,0.2157449670859236,0.05228987041940018,0.022242414549106023,-0.057904517349681627,-0.10372262429715523,-0.9929185581841163,-0.0018356854603955772,0.02383080448285083,-0.010919211821589968,0.9982255421351057,0.052018009416635876,-0.028887517258354534,0.0022289855152820854
1.12,0.19764793570205902,0.053791531936502865,0.020787170520616585,-0.05739098082242802,-0.10579438575635983,-0.9927297359047559,-0.005424939452039846,0.017142354154038454,-0.005433651008159178,0.9981779235029161,0.05306208411227094,-0.028621136786906812,0.0023830280948056145
1.1300000000000001,0.15492860634758637,0.057950374484062164,0.012582808126352391,-0.056848224358155924,-0.1074812605939548,-0.9925797040076261,-0.005562410023255457,0.007996067757341215,-0.0007344148916971411,0.9981400422816844,0.0539116557321866,-0.028342195198186693,0.002496348637025247
1.1400000000000001,0.11852298214505273,0.060711263935109935,-0.00018708931089338708,-0.056280920390634065,-0.10894699058129056,-0.9924527383053926,-0.005010619122131096,-0.0010783920566870987,0.0033276005174587777,0.9981080433932875,0.05464890907870282,-0.02805325156308778,0.002567014324262645
1.1500000000000001,0.12816732981874848,0.05626060413094578,-0.020032680277908364,-0.05566802383806224,-0.11013190524804602,-0.992356509430545,-0.00598892619176164,-0.007303145358681611,0.006235798091555384,0.9980840484325978,0.05524249252149587,-0.027746430739377416,0.0025477208106122404
1.1600000000000001,0.1538644863663293,0.05290782456808431,-0.029186545061450485,-0.055072848616856795,-0.11155413707024767,-0.9922303970954885,-0.007324516395945573,-0.007822952010841547,0.0012239997850603083,0.9980526793780601,0.05595372127952092,-0.027452014244347962,0.002464660047810812
1.1700000000000002,0.18503651549785358,0.05060406046248824,-0.03542550211303827,-0.054494226848803576,-0.11314365474442596,-0.992082534703718,-0.008948244891150378,-0.0023716469347952965,-0.005425517694492015,0.9980159164042289,0.056748145411226185,-0.02716800904475474,0.0023445872051160396
1.1800000000000002,0.21556904116988898,0.0504449751467428,-0.0444636162209154,-0.053948993263922176,-0.11500384128917858,-0.9918983666507224,-0.011097190191438604,0.01591132429308766,-0.008309640947666912,0.9979701075174423,0.05767761352423241,-0.02690356078499147,0.002177536403050462
1.1900000000000002,0.23138994930762358,0.051897687830160855,-0.04893769666775911,-0.05339271679129037,-0.1171253566660223,-0.9916793223974181,-0.01106444216883976,0.019403946801125074,-0.0062261519047725625,0.9979156166313862,0.05873875377176326,-0.026633804866149628,0.002011674420593517
1.2000000000000002,0.23386076492812416,0.05230767491271272,-0.04987173987126841,-0.052852043446540056,-0.11927634460203723,-0.991452788198685,-0.009644982657832393,0.015675627701013387,-0.001958832757471703,0.9978592409822237,0.05981486562859508,-0.026372257641038715,0.001843464906544038
1.2100000000000002,0.20949532160465498,0.04722412121738094,-0.04450545153957263,-0.052377483608583165,-0.12120495978800912,-0.9912439586755144,-0.006242217684370955,0.005840325126819035,0.0035468206347792604,0.9978072045811773,0.06077934321850439,-0.026144874600257443,0.001665890027246716
1.2200000000000002,0.1802481698266284,0.04210991024595898,-0.03954176082178619,-0.0519500622859317,-0.12306059132527876,-0.9910374573706806,-0.004464376416818048,-0.0015783656995034799,0.007353300879846663,0.9977557256391032,0.06170774771931051,-0.025940750772068484,0.001500243223286786
1.2300000000000002,0.14759199009941754,0.03590589007782571,-0.034809174373183406,-0.05158082344996991,-0.12475507720754107,-0.9908456463186218,-0.0036373400676651805,-0.00892830197103465,0.010540381776708869,0.9977079011875771,0.06255558446006261,-0.025765361646667307,0.0013448799323099862
1.2400000000000002,0.10946811774712367,0.025932235962097518,-0.030352562728979272,-0.05135270980693377,-0.12598261477132153,-0.9907021181481496,-0.0039872544122733595,-0.01923123082274077,0.013807273250253767,0.9976721167728593,0.06316941143126685,-0.025659698296645883,0.0012097073801850377
1.2500000000000002,0.0979677236524585,0.02246085161649164,-0.033150603829740936,-0.05121287098104511,-0.1268898384838519,-0.9905936848436958,-0.002818280857176181,-0.02034406654949816,0.013992611750198976,0.9976450822353988,0.06362251803123622,-0.02559773359662608,0.0010846518061203288
1.2600000000000002,0.09398263817435461,0.021203336614098407,-0.03904279873861173,-0.05109264158323256,-0.12758240085717099,-0.9905111126904677,-0.0038266126247945625,-0.015768000897422908,0.011260154248212965,0.9976245246903909,0.06396731758599387,-0.025546523187113142,0.0009456769009634091
1.2700000000000002,0.07951506797591594,0.018760589743583477,-0.04588033259302155,-0.05091836587237317,-0.1279496466248503,-0.9904726931332334,-0.014902051126351637,-0.00356577704816044,0.0022998729494927324,0.9976150816603425,0.06414671094467304,-0.02547236266398697,0.0007417663357491842
1.2800000000000002,0.08770911142050265,0.01926027118982543,-0.04253773054747859,-0.05075093824327148,-0.12861821382254768,-0.990394520833349,-0.010255041229320106,0.005719974624688969,0.009709845873505733,0.9975956244943347,0.06447792813207787,-0.02540161379098304,0.0005423947714460039
1.2900000000000003,0.10035688597036176,0.020557935821898857,-0.035724336533336745,-0.05058138157516068,-0.1294498979746211,-0.9902948740135544,-0.0016908114557613713,0.011731019015153459,0.01861256834642722,0.9975707402235054,0.0648916361419097,-0.025329074869504586,0.00035696797653362694
1.3000000000000003,0.09528520209437669,0.020384859483182253,-0.03131732784818542,-0.050393342821159,-0.13043847798524819,-0.9901746989072833,-0.00229500012875923,0.00981669221714673,0.008200233957318639,0.9975406187518168,0.06538554126859188,-0.02524457289657631,0.00021730247773281826
1.3100000000000003,0.06620072969402511,0.017969021597318523,-0.02750730164470427,-0.05022759723756299,-0.13126073742294625,-0.9900744794351103,-0.0022606339032053098,0.006919034915625904,0.004758597325383416,0.9975155403641174,0.06579610292304533,-0.025170453386668578,8.975026936352103e-05
1.3200000000000003,0.02730990608090937,0.01427597177206257,-0.02494236662248463,-0.05007114762103213,-0.13190312711823265,-0.9899971991142422,-0.0022730637652460363,-0.0001713872634433733,0.006072034787571156,0.9974962113849584,0.0661162795298808,-0.025100593531415975,-3.282977778594547e-05
1.3300000000000003,-0.010817088603822154,0.009233165134553968,-0.026296693185612674,-0.04991474354631656,-0.13211049955293228,-0.9899774540786357,-0.003515524095645717,-0.022141882661153047,0.01466968938818669,0.9974912349914644,0.06621747695641887,-0.025030480746251436,-0.00015569550764675988
1.3400000000000003,-0.02567022572372494,0.0038747267473156844,-0.02087939141728823,-0.04986257422293432,-0.1320402314783449,-0.9899894600315302,-0.0030422978388115534,-0.02994389154806494,0.020892645040760768,0.9974941841885983,0.06617924030693466,-0.025011704949779424,-0.0002682028567004432
1.3500000000000003,-0.03020253209904649,-0.0002301998383512472,-0.013183943626602664,-0.049875339715099845,-0.13181406273935745,-0.9900189384260266,-0.001132780249361612,-0.025512414273574036,0.022840467905833356,0.9975015226970153,0.06606295737716435,-0.025024299906395955,-0.00036495442705149054
1.3600000000000003,-0.03343401527663735,0.001359941925773371,-0.008081176580571336,-0.04997064178733134,-0.13143798903604853,-0.9900640989898716,0.0036417772445165213,0.004105431801461529,0.011446366454351348,0.997512890083701,0.06587241022058166,-0.025075042412444487,-0.0004153659096361688
1.3700000000000003,-0.05555488358062412,-0.00249383774630281,-0.0015095474235211634,-0.04997193650590945,-0.13087307999035325,-0.9901387612131423,0.0027177777909984597,0.01138346216928351,0.007648228112149823,0.9975315888953099,0.06558736637970569,-0.02507682836970647,-0.00044158994615698933
1.3800000000000003,-0.08360540415940253,-0.008513669948541025,0.004225535479765159,-0.0499723005350894,-0.13016151166543394,-0.9902325306923586,0.0009426127949109051,0.004589866915525839,0.007395517857830169,0.9975550479437185,0.06522892662007676,-0.025076895851214493,-0.00045121091610901266
1.3900000000000003,-0.1011930121290635,-0.01347321624624064,0.0035970008222656114,-0.0501469702545659,-0.12918081182714974,-0.9903520714199759,0.006334412565056434,-0.02002016902773427,0.007900721158426228,0.9975849623312724,0.06473578747794308,-0.025162460196844195,-0.00043569255297347826
1.4000000000000004,-0.11485116844501644,-0.010038019315218248,-0.003584123946832322,-0.05027103701590478,-0.12820891202353782,-0.9904719957109046,0.008395207649740008,-0.022375689665842736,0.007863073045506453,0.9976149911101758,0.06424621731806776,-0.02522489063620598,-0.00045482381153083323
1.4100000000000004,-0.12689526072499213,-0.00498952969523462,-0.012468913080064554,-0.05036186769956061,-0.1272471942093692,-0.9905915580485662,0.007990516968312345,-0.013875152905551998,0.008326667976236936,0.9976449391870196,0.06376109731368211,-0.02527238978580188,-0.0005010630096519783
1.4200000000000004,-0.13975698561419156,-0.009884769573945235,-0.015577221660801836,-0.05040760986977379,-0.12631298243182498,-0.9907087198562308,0.003377382303394948,-0.002345092888890706,0.012138451064920043,0.9976742930513718,0.06328856540895372,-0.025300451284485784,-0.0005976081996322409
1.4300000000000004,-0.1347602999733074,-0.010879583493225911,-0.013413209592665417,-0.05048396405363486,-0.12522954755254356,-0.9908421578990024,0.0021265350765587174,-0.007802112119690956,0.008151130002540733,0.9977076869257616,0.0627410523517921,-0.02534349712036137,-0.000692543712335582
1.4400000000000004,-0.12344479955688892,-0.011298226691237246,-0.009854853683046918,-0.05057531133149132,-0.1240540899071209,-0.9909855502749665,0.0030269832750320982,-0.017032620311920457,0.00215497921136237,0.9977435575366423,0.06214739952335216,-0.025393601075047467,-0.0007829322574839936
1.4500000000000004,-0.12194586410692312,-0.01761703966398289,-0.011396023967252943,-0.050669276387458224,-0.12277739336312844,-0.9911395978506312,0.006572250934300738,-0.006473377690533612,0.003953509439676049,0.9977821005864727,0.06150334156598186,-0.025443674036409347,-0.0008556217573194856
1.4600000000000004,-0.11757040540458266,-0.021361166067772604,0.002183960191367915,-0.05084560652873822,-0.12165344197317687,-0.991269140594417,0.011627695000927462,-0.0004281654901197936,0.006998240190734646,0.9978145293157669,0.06093739518000402,-0.025532323513353102,-0.000881619211834309
1.4700000000000004,-0.1140312239449299,-0.023472146391365162,0.020450051178909304,-0.05105852459690324,-0.12064118925528006,-0.991382142111932,0.016351329943880652,0.001897048404541866,0.009457633985363353,0.9978428369495141,0.060428694283983085,-0.025637036963577213,-0.0008681876390045046
1.4800000000000004,-0.12140952843126837,-0.023712365267701672,0.02572350959358053,-0.05125475080040836,-0.11981232398296925,-0.9914724617727982,0.015867499752233588,-0.0032455966711952477,0.006096933768355076,0.9978655153658974,0.06001438343636085,-0.02572869049067056,-0.0007728650414006755
1.4900000000000004,-0.11754839305610461,-0.02703243898098512,0.0267142323112334,-0.051534717845822337,-0.11876778702969668,-0.9915833685923726,0.013140188455218405,-0.007988326941207491,0.005746959187952523,0.9978933453827892,0.05949188301474395,-0.02586180020573283,-0.0006711519265416085
1.5000000000000004,-0.10680391385733766,-0.030910233938041744,0.026175438228826814,-0.051851505780432995,-0.1176694359314233,-0.991698137802948,0.010000884828471189,-0.011870537856173976,0.006260884471216289,0.997922148138692,0.05894251536248392,-0.02601307842818683,-0.0005643504590379731
1.5100000000000005,-0.08960175352504493,-0.029746325971226638,0.02878173976301719,-0.05214224673483943,-0.11684846723534634,-0.9917798946797243,0.010504780472280786,-0.01236669940649374,0.0034802783760072543,0.997942722083499,0.05853295067330487,-0.02615115540746539,-0.0004478548157919412
1.5200000000000005,-0.060161275744218874,-0.027521258033131265,0.023810972807867287,-0.05244759760443095,-0.1163288873201746,-0.9918249419778041,0.0107955453520352,-0.008180813228168975,0.0018552783055368594,0.9979540780284027,0.05827469843653343,-0.026297512969345273,-0.00034151878240429984
1.5300000000000005,-0.029299446279626818,-0.025072829553084635,0.016189734405826158,-0.0527336936745571,-0.11599056142672351,-0.9918494314658064,0.010000660015521223,-0.0011698145900201646,0.000290053691997888,0.997960268581003,0.05810721159093928,-0.026435262489369726,-0.0002494280928897637
1.5400000000000005,-0.02474731356520179,-0.024366523263080718,0.015323461856281795,-0.05287555660106259,-0.11579188196201728,-0.9918650926888275,0.003950989756822909,0.008060915214725628,-0.0041603108092890615,0.9979642250681668,0.05800857789972533,-0.026503677165219588,-0.000205854174628149
1.5500000000000005,-0.0348785855479245,-0.026681964957626505,0.015968687847390018,-0.05302085956237866,-0.11556215011563269,-0.9918841216539551,0.001445692658882169,0.010861674787297309,-0.0023740678072151156,0.9979690079324094,0.057894782047079235,-0.026572855606222714,-0.00014598018820006071
1.5600000000000005,-0.05563036002560376,-0.02958278003379458,0.017138726760887187,-0.05317680536841559,-0.11526410676535546,-0.9919104399259979,0.0008423961398932367,0.006508579322304806,0.0027685282889616356,0.9979756024310908,0.05774695489824264,-0.02664669444426037,-7.520229621341689e-05
1.5700000000000005,-0.09240451497217769,-0.026714513768928555,0.01673747730613567,-0.05338270584639453,-0.11467240494406707,-0.9919679304915187,0.00035808768621404077,-0.019042121218870927,0.008175060016521862,0.9979899762050577,0.05745190909221739,-0.02674464071180014,8.342758665830661e-06
1.5800000000000005,-0.1371962747881705,-0.028963912162374934,0.013540566563394207,-0.05360214072056913,-0.113577033068124,-0.9920816531880232,-0.0009069575313699189,-0.02716994500794245,0.011104127953220029,0.9980184503938146,0.056902388628656576,-0.02685193971652881,4.1105847219834185e-05
1.5900000000000005,-0.18420886335807798,-0.0339163116744349,0.009663801231268244,-0.053829519407855395,-0.11214827784315667,-0.992232093958014,-0.002625623012122053,-0.025615138872079262,0.013023452143847768,0.9980561323118229,0.05618455317734598,-0.02696469278382897,4.4151117717082804e-05
1.6000000000000005,-0.21832429028285893,-0.03831446383884604,0.01084877037663679,-0.05406018295571569,-0.11037172520298691,-0.992418363390301,-0.004506171624843802,-0.0230779166649059,0.016995733031998146,0.9981028016042127,0.05529173623039376,-0.027079504428745196,3.539642901756454e-05
1.6100000000000005,-0.2624350336246049,-0.0543757631324962,0.028977808616332156,-0.05449355383580778,-0.10803572801932296,-0.9926502943352579,-0.0027340735860078634,-0.024023759384974603,0.016862055962379857,0.9981608863064174,0.05411996128456634,-0.027292062883301278,9.176828695409115e-05
1.6200000000000006,-0.31485040964624655,-0.07826961836552367,0.058013035490001495,-0.05510287961951751,-0.10526357345332372,-0.992915243831907,0.0014496067343085575,-0.027682913629183865,0.014997762233324767,0.9982272090599792,0.05273129659522354,-0.027589032872572885,0.00021652738066046433
1.6300000000000006,-0.38420191321246966,-0.11020461647126903,0.09574710693981552,-0.056103212981535325,-0.1017243006012918,-0.993226525507702,0.00789036895516926,-0.03610436955864508,0.01678076273778273,0.9983050101003362,0.05096386265629803,-0.028071804355353006,0.0005417098593732305
1.6400000000000006,-0.493281120865471,-0.15752441366485145,0.15265551814296272,-0.05757356448268523,-0.09728336056938763,-0.993582359742066,0.0105058270039334,-0.049491844845515776,0.01653137586086229,0.9983935830005352,0.04875170615262559,-0.02878091884822171,0.001086487645553094
1.6500000000000006,-0.6228716937023897,-0.21099581546419557,0.21934151619976075,-0.059419388493685915,-0.09211811924076602,-0.9939691935814371,0.012075063767478644,-0.06525395777753168,0.018802589672146316,0.998489423068651,0.046183023775636385,-0.02967125155810846,0.001816424075267286
1.6600000000000006,-0.7359572220281578,-0.24611744623158568,0.277246459839658,-0.061956362896697585,-0.0856002502769423,-0.9943908967916975,0.021432879936566167,-0.07768931082606366,0.045746395649718725,0.9985921727961476,0.04295197302870909,-0.030897118269185245,0.002934252732709577
1.6700000000000006,-0.8313451705117382,-0.27108640448006854,0.29872278934299573,-0.06475991527768195,-0.07779693110589493,-0.9948409237089776,0.022784126438056235,-0.07817297859407928,0.056267956441230976,0.9987001944687909,0.03908532756747844,-0.03226162261372599,0.004176835245816401
1.6800000000000006,-0.9176016588960033,-0.28928270150976515,0.29809152747290096,-0.06774431330159013,-0.06907078684119417,-0.9952997660083602,0.01849633599227886,-0.0707296888694633,0.05525815779916928,0.9988090584303209,0.0347622829099634,-0.03372257487442219,0.005488110925460157
1.6900000000000006,-1.0137595461638715,-0.30229166667577945,0.2943840996728044,-0.07088628174112521,-0.059225123574997915,-0.9957016845343483,0.0080067808702929,-0.05750426924622202,0.04177479634594478,0.9989016704979303,0.029884940981296747,-0.03528245053393744,0.006760216890276555
1.7000000000000006,-1.2033802835350038,-0.31484489065140164,0.2718690320165744,-0.07408956127175478,-0.04780390927190617,-0.9960600688861145,0.0033150093769861175,-0.07704347423722362,0.03417958551725106,0.9989831233286516,0.024218759760368656,-0.03689471144906844,0.007887091383252264
1.7100000000000006,-1.4489197543826255,-0.32765628286556187,0.24153319635625467,-0.07735353956196417,-0.03497987830767026,-0.9963677384927899,0.001460789690111985,-0.11831444868797891,0.03622097899940261,0.9990517854771093,0.01785031706123876,-0.03855551896191883,0.008900935271913778
1.7200000000000006,-1.684873669196874,-0.34451717167620927,0.23900377855085989,-0.08079232419960114,-0.018847577159862534,-0.9964938629472155,-0.005748009919104226,-0.1722766339517573,0.08375875686176502,0.999075488887513,0.009826214409892856,-0.04034068389188145,0.00973257613123996
1.7300000000000006,-1.876252011664273,-0.3449677474407751,0.2611774599895817,-0.08424699753377685,-0.0007699480296452059,-0.9963392414651748,-0.0063058188011911554,-0.2069331190075967,0.0965194968919752,0.9990271723772928,0.0008359177962804255,-0.04216090690859187,0.010664393558267376
1.7400000000000007,-1.968335660681441,-0.3425465173253696,0.33758821547889534,-0.08776976359961919,0.0183651856064727,-0.99594574292999,-0.0029234755041343445,-0.22196201360990486,0.0873538657347221,0.9989157318807799,-0.008671654175459474,-0.04403822931387261,0.011805951591418607
1.7500000000000007,-1.4868837347839725,-0.40012746197989213,0.725479935575047,-0.0917601936645745,0.03615986245073513,-0.9950513086764863,-0.0015111602891205776,-0.17677557892197854,0.07783188178653201,0.9986609362156296,-0.01744938090947805,-0.04619762498713003,0.014128502382413857
1.7600000000000007,-0.8996818229799095,-0.3843793919268245,1.0056506526874183,-0.09526815477533722,0.04846236081624859,-0.9942473771627328,0.011288742841648602,-0.13292442776721547,0.047094429401194876,0.9983860697722357,-0.02338490465466801,-0.048150993002216175,0.018263433301045337
1.7700000000000007,-0.23683590352011025,-0.32052398303723273,1.2102079148631528,-0.09835143002059639,0.05620455233254595,-0.9935628941372894,0.026518361993123258,-0.07761487969952004,0.005370144079268151,0.9981049679692292,-0.026969423593089577,-0.04990868171373221,0.023698759569965994
1.7800000000000007,0.4883408518183133,-0.25092416978879273,1.3636950372302277,-0.10046410422573264,0.05526176405296431,-0.9934035857977984,-0.0008345736115435778,0.08396273135861343,-0.012734427976504304,0.99788207612004,-0.026136688708827443,-0.051128343067649025,0.03023667422054969
1.7900000000000007,1.0785814657281385,-0.138957581969464,1.5156353472501847,-0.10159146035233024,0.04867704177272947,-0.99360532584928,-0.007404017018269323,0.15138489345540115,-0.02627187814840376,0.9976706819028526,-0.022439302711175047,-0.051737512793167226,0.03768986591787574
1.8000000000000007,1.5475440466590349,-0.0036200390377223828,1.6494972756468305,-0.10191811166414981,0.03785643847177822,-0.9940560160925155,-0.0035845031945787465,0.1497243525156658,-0.03156283613100772,0.9974558509447962,-0.016595835630992907,-0.051841634897708815,0.04581701658000632
1.8100000000000007,1.723861205433435,0.08713713884097768,1.6251629095537963,-0.1008954005830218,0.02254719484317696,-0.9945887132206661,-0.03161739714509949,0.0880733630970653,0.011479726222826253,0.9971381846385841,-0.00851650242885817,-0.051026755473144204,0.054549708462566064
1.8200000000000007,1.6789685303214767,0.15084950327466956,1.5096733707254004,-0.0994860040516817,0.0074206991927756,-0.9949494112275791,-0.044076850021953905,0.048433133748676124,0.028736851993143474,0.9967475509795338,-0.0005848624174513766,-0.04990865423233368,0.06273701351425202
1.8300000000000007,1.509650695048071,0.193974338401106,1.3538775446934812,-0.0978088973028795,-0.007510740183698636,-0.9951636106175134,-0.041080350534993426,0.02475259045272702,0.027333501994100694,0.9962958806363814,0.007205193853011882,-0.04856948381677656,0.07049626037091576
1.8400000000000007,1.6082256195557858,0.21603879271558535,1.4182545430186946,-0.09609744971450908,-0.021739851849338427,-0.9950880390330634,0.010090875207558948,0.010246420871439552,0.015544572715781524,0.995732418089356,0.014588383472561415,-0.04709183968485914,0.07770177187799229
1.8500000000000008,1.5521568553748368,0.25191220260403824,1.3586066407271797,-0.09424100108943184,-0.03584743670686627,-0.9948495693172791,0.03463905593396102,0.021017149172563844,-0.004499509731207793,0.9950823567224947,0.02188663895954751,-0.04545721313203169,0.08489901544280545
1.8600000000000008,1.3885442656625233,0.29627906723126013,1.203852807699707,-0.09222514113854091,-0.049684431433763734,-0.9944890425357946,0.03739173241692912,0.047703161014611466,-0.025911878645233956,0.9943786711690715,0.02902078158191892,-0.043686122661335196,0.09193528037882669
1.8700000000000008,1.2360778228457512,0.32758159548994054,0.961728581095846,-0.0895826947544771,-0.061506431895733196,-0.994044844104334,0.006378951151259776,0.05448041608748994,0.0008266623912625108,0.9937529997401072,0.03501856311724568,-0.04162950353209237,0.09728388678671256
1.8800000000000008,1.0783256952257128,0.33373490290379104,0.8478211298414559,-0.08685814455256559,-0.07206361445434897,-0.9935836094839706,-0.0021671825098839885,0.035215862524291666,0.004787164223964596,0.9931547671602767,0.04034456556734019,-0.039568559564440664,0.10210111405039042
1.8900000000000008,0.9195973937654542,0.3257269210633359,0.8209018457564234,-0.08407453136348934,-0.0815744948603302,-0.9931109040090833,0.005822902082636835,0.0012020783276739397,-0.007473363687353967,0.9925740802278331,0.045117404805308035,-0.03750708281079112,0.10653588833990196
1.9000000000000008,0.7945827316888131,0.3650266588556068,0.7285750504775201,-0.08129287017510525,-0.08949402841629664,-0.9926479265376454,0.017728375492148098,0.015160891713837516,-0.017233794712124217,0.9919666778120025,0.04907541626736217,-0.035476351672085106,0.11098097863784585
1.9100000000000008,0.6371958455769566,0.3812135755933495,0.575935207825939,-0.07826952633628237,-0.09595583300823049,-0.9922930099391695,0.01156648169830988,0.027673753056914746,-0.022963228392245724,0.9914925675297905,0.05224511140926268,-0.03343884904094362,0.11439040465355692
1.9200000000000008,0.4675764862955672,0.3811154372421933,0.3935644724635604,-0.07504934495056229,-0.10125348346780519,-0.9920243381528525,-0.005621324767868941,0.03840474617203238,-0.024389352860953704,0.9911219128703307,0.05478571169288333,-0.03139293639640896,0.1170002883320282
1.9300000000000008,0.4518384439842873,0.3921080695050676,0.40710774305092395,-0.07159784433261404,-0.10545791225074469,-0.99183600698994,0.008151823828162227,0.03984835409658897,-0.008611642059464474,0.9908120765461432,0.05674114443959246,-0.02930267479807038,0.11919381091741321
1.9400000000000008,0.4377565755187801,0.38662177452070984,0.3891474277093227,-0.06819907561724974,-0.10954334699606663,-0.9916323230066195,0.006494606688671949,0.041714602829695725,-0.007076215462331049,0.9905013460374651,0.05863191219271758,-0.027242144933329257,0.12132940007699937
1.9500000000000008,0.42632783303742944,0.3691299708035716,0.34414356353317965,-0.06484678280714092,-0.11354422921494096,-0.9914131686487093,-0.005572822483341266,0.04715642093680871,-0.016505675432985912,0.9901929576813936,0.060475340056431945,-0.025208472382850407,0.1233862049629188
1.9600000000000009,0.43511998818359265,0.35952746306402633,0.2547776372777235,-0.0615863135060155,-0.11763315349744707,-0.9911391126194766,0.001824442685691637,0.09986491484984689,-0.027670881419080202,0.9899284851746291,0.062346398977656724,-0.0232360569692768,0.12493938544706576
1.9700000000000009,0.4457605930353354,0.354063513310905,0.18151918692035063,-0.05830813097514532,-0.12186162282357732,-0.9908249887334006,0.00739855918756529,0.13068324120849228,-0.029450353234461324,0.9896913451177746,0.06427545723492765,-0.02126129864970763,0.12618603975272125
1.9800000000000009,0.456848947970421,0.35202552514276336,0.12156523829278464,-0.05501299873052471,-0.12620692895196642,-0.9904760359107045,0.010519565003589604,0.14237138556167017,-0.023955877932755908,0.9894777031031529,0.0662528514806339,-0.019283969926753592,0.12716902554581255
1.9900000000000009,0.45167124851796586,0.3530650536890416,0.07310815542022095,-0.05166743191367311,-0.1306775043606839,-0.9900702318154605,-0.003097858501129265,0.12133486404950909,-0.019560664725702802,0.9892985944060111,0.0682786433442489,-0.017294616843341607,0.12776237927824594
2.000000000000001,0.44295222011950147,0.3550005557771338,0.025865362877164448,-0.04823467451517884,-0.1350827799165732,-0.9896512109411474,-0.010859168017970749,0.1058497760741621,-0.014908514497146998,0.9891414870539521,0.07026224369141104,-0.015278134439342159,0.1281585604525416
2.0100000000000007,0.4322644951282557,0.35750084738638455,-0.019930092346801917,-0.04472523124005964,-0.13943398656130743,-0.9892196263784904,-0.013687120443357292,0.09419929023854577,-0.009489085308380297,0.989003636444619,0.07221054365071908,-0.013237761187727931,0.12838036637005998
2.020000000000001,0.43782233712734225,0.3571270535183882,-0.056983440393994556,-0.041092871237807506,-0.14375547387035637,-0.9887520024188882,-0.01228497216445453,0.07095277105145148,0.006324248913097725,0.9888950622539495,0.0741328694680936,-0.011158585298693279,0.12830645420532674
2.030000000000001,0.43196797728102754,0.3602283080239831,-0.10036259404985702,-0.03739045717829432,-0.14805406421798098,-0.988263545265732,-0.015274012760326776,0.057059731208788544,0.010237810698844269,0.988803181823888,0.07603907643173735,-0.009059200641615372,0.12806252301883903
2.040000000000001,0.4156022063663053,0.3655315439188697,-0.14890960040600226,-0.033627406996862494,-0.15231573241905252,-0.9877586478299956,-0.021899240435499345,0.0513665125886529,0.003963552323282827,0.9887274417447166,0.0779228886193458,-0.006944332603032511,0.1276612373470962
2.0500000000000007,0.37579002799068073,0.3565812806430379,-0.196345349442175,-0.029803717427049955,-0.1561912383295308,-0.9872698193839738,-0.028798651187066777,0.0559931937334389,-0.010208666030324842,0.9887023690787273,0.07961190723724855,-0.0048549935192898986,0.12689446588517087
2.060000000000001,0.3277918957953006,0.334835614405528,-0.24095836528806552,-0.026090716523038942,-0.15966018424555148,-0.9868211109823757,-0.03372982359442066,0.0590757376070192,-0.02244979929920997,0.9887100810073294,0.08110748871381203,-0.0028633573094760923,0.12594556125589604
2.070000000000001,0.27408668948593384,0.3028584295748777,-0.2824818936584434,-0.022481526518928933,-0.16276709699238134,-0.9864078607974909,-0.0370498685012028,0.06004828671694118,-0.03330619876024914,0.9887469320666247,0.08243129706766535,-0.0009614628944239671,0.1248337701556904
2.080000000000001,0.2513653231599487,0.2862048939155496,-0.30636345728006054,-0.019126238398258163,-0.1654279855611664,-0.9860318602864188,-0.04178560445414394,0.0407640361036045,-0.05050135278731359,0.9888183643830709,0.08355497945522926,0.0007640566132400611,0.12350446942459407
2.0900000000000007,0.24723311578807813,0.27508428771418025,-0.34108979242958315,-0.015820259412053835,-0.1679556625203699,-0.9856632243306106,-0.04780739750006529,0.031134361922218072,-0.05954084595225151,0.988911426268398,0.08461983919191016,0.0024396999363795638,0.12200141600984245
2.100000000000001,0.26053938719147984,0.26934107405513485,-0.38344666944535605,-0.012554391241741217,-0.17038754515308266,-0.9852966623765795,-0.05500813111059418,0.029413792070561433,-0.06064593742013367,0.9890222550448144,0.0856437552136229,0.004074280006854775,0.12034573695313416
2.110000000000001,0.31288498323336345,0.28096685586338815,-0.3703787070645176,-0.009203074748827176,-0.17343674562663372,-0.9847968909432087,-0.06406377984095517,0.012670368626489133,-0.03590255310136481,0.9891008967798192,0.08698197632640342,0.005780186726863536,0.11864410591769306
2.120000000000001,0.34101431088843825,0.2884814484784175,-0.34702248883377923,-0.0058052513369319155,-0.17667990101759537,-0.9842450070711064,-0.07069453566503707,-0.006597547090663243,-0.01490465196570352,0.9891584778661677,0.08842001388693302,0.007521893373753183,0.11699017734647646
2.130000000000001,0.3476947353631354,0.2927516577225394,-0.3131930183831052,-0.0023647444097712753,-0.18009796763309024,-0.9836453489346243,-0.07513167091178896,-0.029390662258538196,0.003074218922728092,0.9891954926824843,0.08994810208354909,0.009297180642411319,0.11539059302537011
2.140000000000001,0.3615752722095521,0.3137891499892128,-0.22914143076406526,0.0011203283865425235,-0.18358057175513756,-0.9829978651904708,-0.07849493858564482,-0.10191416461000352,0.033852297243631035,0.9891638868978637,0.09151076573548038,0.011135117777314036,0.11425035284621513
2.1500000000000012,0.39431607030449833,0.34171741403716216,-0.12676834876449034,0.004670010044310525,-0.1873112487795103,-0.9822818730575814,-0.08498838059270321,-0.14325734822383882,0.050440721327072224,0.9890692556894843,0.09319302955951189,0.013055170857319725,0.11350272684230088
2.160000000000001,0.4438483087840815,0.37624360162571746,-0.008201822440302625,0.008284424424301752,-0.19128200390209843,-0.9814996176341845,-0.09453333117166957,-0.1554694764443603,0.05410506863970026,0.988914080728475,0.09499078307548553,0.015055615108870034,0.113131501377131
2.170000000000001,0.46632535209528025,0.4257086833071597,0.07773843496616593,0.012192759392336557,-0.19592717440451218,-0.9805331103624464,-0.11377890821140281,-0.13890775025285698,0.06252767040749187,0.988611717104341,0.09709995609929456,0.017328712852452847,0.11363674767181123
2.180000000000001,0.44268103662722147,0.4746912050684003,0.15387002940424624,0.016307762785400977,-0.2003659322340957,-0.9795756451693605,-0.12703086947278194,-0.13129853392067062,0.06681360964714994,0.9882794891338831,0.09908664270055217,0.01972356754801617,0.11441570692150094
2.1900000000000013,0.3758993532087002,0.5231721768816641,0.22025443415866952,0.020625949386549977,-0.20459971043859781,-0.9786280609499839,-0.1344421668181675,-0.13223869868984942,0.06750807446041132,0.9879190499170145,0.10095197818588816,0.022237171250958594,0.11545589247833665
2.200000000000001,0.3336179762695318,0.5676750289212165,0.24351501784666266,0.0256680665089785,-0.2079377514430578,-0.9777957561559083,-0.12523360061764655,-0.14327315038305669,0.09380683629284178,0.9875509389936473,0.1023098072006209,0.025096762949718247,0.11679108494679916
2.210000000000001,0.3219296892793166,0.5994578857209241,0.37744903091579435,0.030700230742406267,-0.21119458069570818,-0.9769524716795037,-0.11550396249459478,-0.15663383313000986,0.10878341907020252,0.9871170426022949,0.10360672642983493,0.028004079920755237,0.11863118055948886
2.220000000000001,0.3404005330676586,0.6191286191517821,0.6180630140113813,0.03572143516872415,-0.21438062588746515,-0.9760965936605663,-0.10522688906645956,-0.17207664944662882,0.11278348075157059,0.9866178456795424,0.10484832744075295,0.03095842787469695,0.1209684558124733
2.2300000000000013,0.47079801482694994,0.6752062708802994,0.7932942230845975,0.04048344055926802,-0.219069482951104,-0.9748571580620254,-0.08649341943366605,-0.15506663180345318,0.11127001582580201,0.9857909922836632,0.1067844599866573,0.034084022157559034,0.12504398844052791
2.240000000000001,0.5072019875250878,0.7300280116668656,0.8104764164707854,0.04570031783973714,-0.2239940762648104,-0.9735026972351237,-0.08137705812402188,-0.13673551178197654,0.10631622274497181,0.984917234207252,0.10879168643047779,0.03747204346905401,0.12915224982851065
2.250000000000001,0.45024367916594027,0.7836022757764111,0.6706709968740442,0.051369012247329905,-0.229152822705196,-0.9720339836496412,-0.0897863573323421,-0.1170921614503386,0.09794520556696268,0.9839968864459735,0.11086952933010477,0.041120729439725875,0.1332930201813528
2.260000000000001,0.3712682004021365,0.8286458950432216,0.7505859694121516,0.057592089450921806,-0.23328926818143117,-0.970685420848494,-0.05018805139353389,-0.10526132909877371,0.1057974906241157,0.9831079781884147,0.11236280053286585,0.044980557708885004,0.13723408480921898
2.2700000000000014,0.31878704263801505,0.8578909704770071,0.828253187392256,0.06384672052145894,-0.23722898185783695,-0.9693391542578661,-0.02488039498900952,-0.10067861802509741,0.11199441290543038,0.9821603752352931,0.11371720710845055,0.04889023511683173,0.14149068961933803
2.280000000000001,0.2933611036686753,0.8710381479352461,0.9032719379759302,0.07013263234210468,-0.24096972092203708,-0.9679950346388491,-0.014224495939919028,-0.10347504743306746,0.11647686031624468,0.9811528630928106,0.11493094383737562,0.052850407596162864,0.14606941342263663
2.290000000000001,0.19037361117314883,0.9032111263583382,0.9064892088188297,0.07656869828958554,-0.24364921643340764,-0.966823119520599,0.002924641394161367,-0.07880007431764603,0.0950052130798446,0.9800991873539157,0.11552663773214827,0.05686540996044003,0.15101075719487111
2.300000000000001,0.11080723966710782,0.9212583181868677,0.9478248886348623,0.0831044302454021,-0.24589325040728902,-0.9657153581335425,0.013323910600207333,-0.06311974792488603,0.08572239319300204,0.9790228800707845,0.11585958488675195,0.060914683489733196,0.15607051620757048
2.3100000000000014,0.05642089494304875,0.9243562880204218,1.0296760326851142,0.08974320537681188,-0.247690533246713,-0.964673278050025,0.016602064692171542,-0.057089753226560375,0.08942050472597471,0.9779232776015399,0.11592278281044968,0.06499936210286933,0.1612511271520578
2.320000000000001,-0.10201904093791772,0.88378547088649,1.1803149877623735,0.09556065084541263,-0.2482598184434775,-0.9639593461368461,0.028781947290568214,-0.08472075640024979,0.07636514814260385,0.9767090339745951,0.11531236623689452,0.0686754417722628,0.16733028217101284
2.330000000000001,-0.24093376385721355,0.8246585525519596,1.331356756014417,0.100694037784274,-0.24787621709035254,-0.9635390787902907,0.03747117946049224,-0.1058779132228252,0.06652850863123293,0.9754317260782753,0.11420741069128508,0.07198354652647526,0.17399849589791777
2.340000000000001,-0.3571953236134826,0.7462882819216299,1.4817286665402003,0.10510539025395027,-0.24648817405340567,-0.9634291709035672,0.04226607457220818,-0.11953756632308421,0.06041981877130593,0.9740884768415207,0.11258174143350227,0.0749027154634736,0.1812854037817715
2.3500000000000014,-0.48901886474771283,0.7558005199705593,1.453106889736188,0.10857777064115655,-0.24383846323826303,-0.963713548295379,0.0781685195770612,-0.059051801810995515,0.04537778015808367,0.9726515246067754,0.11031247331547588,0.0772585254237891,0.18913749864006657
2.360000000000001,-0.5706116147543868,0.7386892025811496,1.3911791379606446,0.11227875287752995,-0.2403200753240069,-0.964169139497041,0.09946481354601712,-0.005246380759609533,0.03438562229307086,0.971287488772176,0.10759433435628922,0.07956978903964339,0.1966216868392949
2.370000000000001,-0.5963935610075732,0.6900828001223209,1.29679559514022,0.11625459746753787,-0.23587330327749087,-0.9648042128056817,0.10389349530115101,0.03940427467949997,0.028077790456581646,0.9700061786122407,0.1043962716957937,0.08184542963126785,0.20368625395313358
2.3800000000000012,-0.5435097884104542,0.6843766229031405,1.3512003315150292,0.119636948811871,-0.2322300368438633,-0.9652686009397209,0.11957155907548829,0.036775899196992416,-0.0177789021211332,0.9685900659720311,0.10161774030436675,0.08386588501863074,0.210808577911478
2.3900000000000015,-0.5352092027422252,0.667984779533501,1.363546093262354,0.12297473183164202,-0.2286362386674252,-0.9657075732401896,0.11878963552714542,0.03745115471137995,-0.045164381364861096,0.9671299236041575,0.09885217879264456,0.08584249670657847,0.21791706425990218
2.4000000000000012,-0.5799903226924876,0.6380881294243871,1.323389510208153,0.12628131575812893,-0.2250723604574172,-0.9661232962532834,0.09898893873017589,0.0434081760490523,-0.050331320818778905,0.9656242709828979,0.09608766741080284,0.08777772508109635,0.22500799065332056
2.410000000000001,-0.6573650463967912,0.6290827722734825,1.2642257689585525,0.12953197487855675,-0.22050773722045802,-0.9667373605704855,0.12675421932042644,0.05315680226140735,-0.03326960939575144,0.9641704928146699,0.09283295582668097,0.08947799992155785,0.23177397146928339
2.4200000000000013,-0.7004399693355879,0.6212874921153235,1.2005931874440465,0.13286458057695164,-0.21561138433893118,-0.9673880355744358,0.14143288912615318,0.06360348988198986,-0.01735411828482711,0.9627489094769306,0.08941387534641171,0.09112469844556087,0.23830396434292253
2.4300000000000015,-0.7022499603272648,0.6140310340357454,1.1325517206098983,0.13629486043763994,-0.2103706872564858,-0.9680730566995881,0.13890596922727466,0.07470465232045459,-0.003697072126686074,0.9613626277387065,0.08582394012516113,0.0927188339656873,0.2445728962771267
2.4400000000000013,-0.6600514229029322,0.603274305296265,1.076271519684407,0.13997488480864279,-0.20533083400491653,-0.968620550455142,0.14649494957917983,0.11008586565087963,0.006912000397940493,0.959992318522704,0.08232057575684104,0.09436749727416949,0.25041226289052126
2.450000000000001,-0.5995853718405331,0.5975750190710966,1.0098583556225893,0.14370821082509183,-0.20068315436539771,-0.969050540832343,0.15061819502796378,0.1305489303725002,0.017084797680636424,0.9586412866194015,0.07901904351311964,0.09604600965100603,0.25596528212994923
2.4600000000000013,-0.5195438913277522,0.5980983588101707,0.9307345732885242,0.14749244205753184,-0.19649381955585943,-0.9693471621360792,0.1500820880037936,0.13194230904592574,0.0268923326817128,0.9573124723375144,0.07595425828191464,0.09775739824096463,0.26119812506841295
2.4700000000000015,-0.4628121118241809,0.6122636790688035,0.8202033696520058,0.15176426935362672,-0.19322506463373137,-0.9693381972238276,0.13743963592892577,0.14862958106955634,0.023528412257414776,0.9560649905664913,0.07332599985200357,0.0997423615973675,0.26570182057339575
2.4800000000000013,-0.43620149138348513,0.6430222644972471,0.7243511923560655,0.1563949786970595,-0.1900697602153159,-0.9692252400015314,0.1271560965547986,0.1549296739117856,0.02417882800634713,0.954873074706224,0.07072867113353917,0.10187814307872237,0.2698565204586753
2.490000000000001,-0.44512264555903325,0.6933055191663496,0.6484425094744174,0.16143614062801262,-0.18699711712888678,-0.9690034417625951,0.12051119934166928,0.1475431760084411,0.030564825138909048,0.9537443507694041,0.06814247746373397,0.10418219596216312,0.2736277415908909
2.5000000000000013,-0.4964774369191677,0.7212904443810578,0.6340762304795049,0.1672315722994342,-0.18332354614127658,-0.9687108876731305,0.0887111255290545,0.08521526637233218,0.05706696930234044,0.9526496556958262,0.06516310070768666,0.10672452096343067,0.2771408180477876
2.5100000000000016,-0.5196634527894453,0.7388200399607514,0.6050871261744898,0.17318170485073597,-0.1794230732969083,-0.9683955372478532,0.06946912818936542,0.043834322149365605,0.07433222215348961,0.9515561900562003,0.06204513088603336,0.10929090715233179,0.28059352663044757
2.5200000000000014,-0.5042760314536764,0.7447857147602843,0.5532146082212841,0.17927223532678122,-0.17528010700516564,-0.9680565752985029,0.06787513672506891,0.032829824728157056,0.07849999900083014,0.9504618115256681,0.05878093558346322,0.11187037710089634,0.2839888299574636
2.530000000000001,-0.36754680401695417,0.7241113834393779,0.4233925437499634,0.18554838003954488,-0.17215067144385035,-0.9674242850389669,0.09329990862520669,0.1181116234339421,0.07809442067217531,0.9495106345512206,0.05604961814106734,0.11462279676754933,0.2865968989658061
2.5400000000000014,-0.2631453548751851,0.7080714528403143,0.3221516537874565,0.19184874821551723,-0.1697091089810522,-0.9666294953306569,0.11118905075346228,0.17128489861192783,0.06944551410837561,0.9486345779321822,0.05368607520636046,0.11746190594679598,0.2887999648755184
2.5500000000000016,-0.2107836818263611,0.7002678031411862,0.26445744646481134,0.19816489707719742,-0.16807304244112772,-0.9656489438509627,0.11705396115669614,0.1748054804941503,0.05050805109565409,0.9478437572991696,0.05175395076605321,0.12039873231310068,0.29054476453799055
2.5600000000000014,-0.23097967349655638,0.673389772541191,0.23704833545362125,0.20431982406454827,-0.16649107942990615,-0.964630587675975,0.10032303160784486,0.1279921936996022,0.03733654452880146,0.9471219445747118,0.049890978090249574,0.12324555656005023,0.2920169779901525
2.570000000000001,-0.26582702964387533,0.6499300413280766,0.219031560451723,0.21034586791579882,-0.16459006862697464,-0.9636627927689932,0.08842493687225803,0.08477369043989291,0.027179847622226704,0.946432581120627,0.04789504937066467,0.1259738621029635,0.293420787820924
2.5800000000000014,-0.31317988312540385,0.632847374103147,0.21059084687516463,0.2162160671773703,-0.1622597200936818,-0.962765846083041,0.08512274410682956,0.05117051381649021,0.020476973205864266,0.9457797246155399,0.04571572554803698,0.1285532581033449,0.2947598546672138
2.5900000000000016,-0.3034392473184645,0.6120592019082289,0.21837786538314818,0.22184458623434755,-0.15969462525590725,-0.9619052971566714,0.06958975845421723,0.027342948714833375,0.016338905190102813,0.945129965392327,0.043446387403532634,0.13097285954737883,0.2961094560973111
2.6000000000000014,-0.2712746338810615,0.5926772821058724,0.2166081648980004,0.22732281993745404,-0.15739139069192246,-0.9610084954385546,0.05707154209744306,0.015598887276418784,0.01146134163120759,0.944476760043888,0.041323435250421016,0.13335636393997172,0.29743396249217025
2.610000000000001,-0.2147138559578529,0.5756205460672243,0.20001416364417413,0.23262216511371026,-0.1554714408081952,-0.9600582049978857,0.05000602938294018,0.01929211195259589,0.005293791330959299,0.943818509733501,0.03941024967238063,0.1357080064496317,0.29872304294136215
2.6200000000000014,-0.3127895020915653,0.5519272948846204,0.16866839834997516,0.23767890082448456,-0.15313301826464804,-0.9591881767529024,0.03834918250166396,0.025216982285512887,-0.01987747029409351,0.9432108326456309,0.03733736706399542,0.13786598981204068,0.29991060838148237
2.6300000000000017,-0.33609235887331235,0.547219804422287,0.17262322807574282,0.24270616818214966,-0.15063914433539083,-0.9583249140976406,0.027919812534960498,0.021382472150650943,-0.0353455521128208,0.9426109352567071,0.03519261314331927,0.13998151992442093,0.30107514873632035
2.6400000000000015,-0.23544241747499556,0.5699720057519655,0.22793114065059886,0.24772192481785796,-0.14797859635021024,-0.9574612728319079,0.019777777209011672,0.003577790994541072,-0.0348592136790003,0.9420157344052051,0.032966644051748095,0.14206129584698704,0.3022198645094725
2.6500000000000012,-0.26792825739969217,0.5763923085725544,0.15041632234044328,0.2529260447120323,-0.14587918438411307,-0.9564152416105592,0.006286892650326104,0.007597411390913954,-0.04672010153690931,0.9413688180008042,0.0309714634293475,0.14431997185365933,0.3033670354857783
2.6600000000000015,-0.26380591477294835,0.5657643593542051,0.09311435531989119,0.2581668075906285,-0.14378378819961596,-0.9553329539224666,-0.007642342978690242,0.019766545473446223,-0.04891918889187471,0.9407862620000835,0.02900397789919847,0.14658884042563836,0.30428196484958164
2.6700000000000017,-0.18854472189235338,0.5328002601351755,0.0832633243195906,0.26343446254137887,-0.14161686866669115,-0.9542235085675888,-0.021466775140601285,0.040681618508026915,-0.03548312802659452,0.9403036498564779,0.027044634644575346,0.14884775904810166,0.30486162508469694
2.6800000000000015,-0.16299363075999268,0.5004487798620695,0.0758149935392613,0.2681278602543311,-0.1402809224041254,-0.9531083830505341,-0.0033975256587785406,0.026950310211980712,-0.11924838729381343,0.9398132207779607,0.025566376351270827,0.1509592400011119,0.30545852071520296
2.6900000000000013,-0.11168972994456283,0.461814001666007,0.08545610596155949,0.27255755740164606,-0.13931000106517627,-0.9519962564310405,0.005492285343866542,0.01192778122434596,-0.1668418710985824,0.9393384066732964,0.024309994229636527,0.1529992016287847,0.30600863064486405
2.7000000000000015,-0.014590899988259243,0.4137726180954116,0.12005728049306366,0.2766845152845633,-0.1387526110682213,-0.9508894459483972,-0.004115812948358439,0.00030664782503607435,-0.14591254678625984,0.9388879350920385,0.023308656133793314,0.1549557813864929,0.3064867542903004
2.7100000000000017,-0.058345490199346685,0.3540226325130054,0.07451497767242234,0.2800414740502041,-0.13844972061738212,-0.9499484913067462,-0.027189104948113586,-0.026098714734648025,-0.16960486392688784,0.9384419683980171,0.022528457153529843,0.15657761518322588,0.30708415457623534
2.7200000000000015,-0.07102984180451553,0.2953211983582106,0.032044931547913255,0.28306869397742285,-0.1381278845465768,-0.9490992707737663,-0.04219766043280864,-0.01770224837257934,-0.18137900175140095,0.9380881547202155,0.021825276299754094,0.15802902456102527,0.30747404746250934
2.7300000000000013,-0.01242951125813234,0.24020817205327263,0.00788349462520728,0.28572452369473916,-0.13773390917989994,-0.9483615953652198,-0.042630571421694144,0.04622573143164791,-0.167409003591129,0.9378739618686659,0.021201821234269617,0.1592777307254837,0.3075275385397526
2.7400000000000015,-0.04011942562060877,0.2070541012101919,0.0012509412419242057,0.2877765365900339,-0.1374371643686961,-0.9477833638167836,-0.03781899962633692,0.022837449677309617,-0.16841650727496987,0.9376949475234977,0.020717355979894242,0.16024514538409157,0.30760331426188664
2.7500000000000018,-0.059353212773467556,0.1742973192496721,-0.006700356260868479,0.28957751892911493,-0.1370206372604568,-0.947295581711331,-0.04071207134666313,0.0013254120595988681,-0.16294411608287895,0.9375470186226135,0.020219039453130437,0.16106853941252677,0.3076577808936599
2.7600000000000016,-0.04914729734057003,0.1380414610483107,-0.020007024613328886,0.29109864975340766,-0.13639825193700453,-0.9469195415503051,-0.05665688390832674,-0.0008601330390831338,-0.1445115266503465,0.9374411750392775,0.019672942214093398,0.16171915412735763,0.3076746895922969
2.7700000000000014,-0.04125683493979874,0.11358462043669605,-0.026842354942811866,0.2923165791910842,-0.1358717590874396,-0.9466197409216839,-0.06415578913259735,-0.008293973925448674,-0.11445102305172258,0.9373815731445434,0.01923506634665654,0.1622341174712207,0.30761280790874473
2.7800000000000016,-0.036390925985596415,0.0883838716973295,-0.030852203966094675,0.2933472630051255,-0.13539575621987848,-0.9463693977205723,-0.06531852891180778,-0.009997029102190873,-0.08797362585450784,0.9373451197153116,0.018856780737388265,0.16266420602302373,0.30752053878433044
2.790000000000002,-0.035917922110272865,0.05954997177535817,-0.03164745265053061,0.2941389804229087,-0.13498127224771547,-0.9461829666659641,-0.05802053818023008,-0.0013879744686135613,-0.06966635004756434,0.9373364012553965,0.01855212472091756,0.16298560759082234,0.3073955945390531
2.8000000000000016,-0.03532044959924963,0.03641066836453727,-0.024933141248342415,0.29459925821144023,-0.13454092262433,-0.9461024400174399,-0.04477409300066278,-0.012879452275593345,-0.05344995372042459,0.9373473981983325,0.01828387606046344,0.1631393184724685,0.3072963908910581
2.8100000000000014,-0.03722264350616228,0.02123486888769188,-0.021820212058720485,0.2949215029111685,-0.13409539292776326,-0.9460653436934129,-0.034504700146019,-0.02208628201068449,-0.03914116453262767,0.9373641758013636,0.018032246975371997,0.16322421899723133,0.30721491936296297
2.8200000000000016,-0.04329274715342309,0.017958921487259187,-0.0263709653063955,0.2950901512503382,-0.13364713765599104,-0.9460762076042939,-0.030511756930174442,-0.022960836748935627,-0.027518445160926334,0.9373860653861598,0.017799903110841505,0.1632331088088063,0.3071569893830404
2.830000000000002,-0.025517758561700576,0.029688889527438922,-0.0405967877457337,0.2953510295498476,-0.13325666132847575,-0.946049851586,-0.027479465881149086,-0.010464384283749547,-0.011766355815738445,0.9374252116423736,0.01759498067758582,0.16329565953982858,0.3070159085203434
2.8400000000000016,-0.006004719305637231,0.04131721565140797,-0.05251301221558671,0.29568820022926845,-0.13297017499459643,-0.9459848635234437,-0.025043973400492806,0.0004900378458304109,-0.0021818984004962653,0.9374698581558888,0.01743620039575935,0.16341218103750998,0.30682657358851245
2.8500000000000014,0.010571480026509702,0.049061890550857315,-0.05810419680612035,0.29613247074540733,-0.13284646914806775,-0.9458632987396434,-0.023387127867859802,0.005512475390237558,-0.004120392805185646,0.9375196030321549,0.017349207502394694,0.16360733164843105,0.3065756357023492
2.8600000000000017,0.017039837288454363,0.058370678449278755,-0.07145835872750382,0.29667318389999453,-0.1327910875758648,-0.9457015280456403,-0.01455146552245229,0.00894938255658395,-0.0052193053311756455,0.9375818091124821,0.017292234159292603,0.16386025105356775,0.3062530866444425
2.870000000000002,0.018195038745152232,0.06734970112944297,-0.08349430436738221,0.29729874923710325,-0.1327330989586934,-0.9455131564544944,-0.009041661740414524,0.010926827074452356,-0.004627113670436706,0.9376490391806122,0.01722708137406165,0.16415419758140123,0.30589320314745266
2.8800000000000017,0.012766164799427385,0.07532964016466426,-0.09112949761018821,0.29804697136205255,-0.13265213506811283,-0.9452890189062808,-0.01129213673914575,0.010774821533064857,-0.0012987127112406432,0.9377217127128931,0.017139512088221436,0.16450444950149598,0.3054872124653255
2.8900000000000015,0.006278946235661698,0.07706246386094968,-0.10616640067600638,0.2988610853666964,-0.13243153268621152,-0.9450627019537164,-0.014149717249947548,0.008885554234125796,0.007929102482697539,0.9378113275703395,0.01698423957579383,0.16486387916747772,0.30502653885290126
2.9000000000000017,0.009554243072804069,0.07789369975743814,-0.12099048928238217,0.2997000088788359,-0.13219726619862715,-0.9448298316965725,-0.015838151276314775,0.00699799039021778,0.014557619776641986,0.9379171909817783,0.016828570307152266,0.1652325857022568,0.304509735814879
2.910000000000002,0.030739646549038328,0.07893131426491849,-0.1332606184774743,0.30056433821985246,-0.13197931040306002,-0.9445857862314615,-0.01524084454858673,0.005622890345454563,0.014770341778318853,0.9380473796873848,0.0166920374342863,0.16561532543912802,0.3039077770125499
2.9200000000000017,0.05866927684865903,0.08391058241506447,-0.14131534256198947,0.3013897267304197,-0.13203271275040887,-0.9443151825385324,-0.005317634284471132,0.0130697835207279,0.010295639428996101,0.9381931425959505,0.01670557142850407,0.1660218046175113,0.30323400341176426
2.9300000000000015,0.08526391901309095,0.08636907360730825,-0.1483984844105262,0.30223664407075745,-0.13224320510684406,-0.9440149984580445,0.0021755613450155737,0.018657854932185882,0.005855194418787062,0.9383453370810545,0.01679981650960181,0.16646368741174697,0.30251472351915915
2.9400000000000017,0.10723367095114947,0.08289488709219711,-0.15502123748414082,0.30313591024133196,-0.13265876952269876,-0.9436683841919057,0.0021898350965380803,0.017987355366742334,0.002971063975729775,0.9385045059423609,0.016996034982640282,0.1669637033445687,0.30173387446222805
2.950000000000002,0.09241066471485941,0.07436101189411613,-0.13986560614114463,0.3038658376297621,-0.13299162891764882,-0.9433866445097651,0.005356301756056864,0.005354168875351012,0.0003753097890785988,0.9386715357396822,0.017175385422076368,0.16736658497583207,0.3009795170862177
2.9600000000000017,0.0697991411857959,0.06536381725029629,-0.11944191595523136,0.30453330025554826,-0.13325244721072113,-0.9431346840360907,0.009065183610680599,-0.008490760379627683,-0.0002530053907707213,0.9388242229669026,0.017318112695415715,0.16772802485184615,0.3002934506644137
2.9700000000000015,0.04501518036248672,0.05722886923847151,-0.09647555383491394,0.30513991487060105,-0.13340420494392255,-0.9429172075719209,0.012721662783691027,-0.02051926069999371,0.002777549953321677,0.9389467963982595,0.017396702893033692,0.16804384213732004,0.2997286937967722
2.9800000000000018,0.025873286593060103,0.05560049901555351,-0.08070908369244756,0.3055977271462016,-0.13335787393109153,-0.9427754637892096,0.00897858605104244,-0.027372322196152307,0.004143875996850106,0.9390374039580294,0.0173744391193105,0.1682568671757822,0.2993264547600157
2.990000000000002,0.0033738418404358414,0.05232118073283487,-0.07043994038825148,0.3060385736710553,-0.1331730296971881,-0.9426585601250234,0.004768847651080329,-0.02911842828400825,0.006640994043502333,0.9391187107783985,0.017279322196031125,0.16844023178830905,0.2989737428625648
3.0000000000000018,-0.02784104931526911,0.04336086790771079,-0.0682945955344148,0.3065016776093419,-0.13278972990717086,-0.9425622123022461,0.002407651954775064,-0.02275183948858622,0.011985165912158265,0.9391936706699192,0.01707857801589989,0.1686036742873646,0.2986577089268016
3.0100000000000016,-0.032358759489489554,0.03836254960617911,-0.056842854333221934,0.3069618065716337,-0.13206176262050912,-0.9425145549199176,0.00704763254352749,-0.019843982576210333,0.009110470765787242,0.9392639216107811,0.016702330511262374,0.16871176923445264,0.2983965668220038
3.020000000000002,-0.025754498878488435,0.034821084359894006,-0.04210705598300965,0.3073906357802369,-0.13142239939788944,-0.9424643751735663,0.010103424061520233,-0.019202531293016786,0.00524131927652812,0.9393198403495391,0.016366031063907174,0.1688193070976378,0.2981783935489561
3.030000000000002,-0.007403030198666984,0.03263039060799074,-0.024478027464449905,0.30775723329850735,-0.13110195367620855,-0.9423893983287633,0.007118068930582271,-0.021756016229451107,0.002679537722021292,0.9393486161492028,0.01618164770264529,0.16894809242479011,0.29802511190734743
3.040000000000002,-0.01777085417103151,0.0332084071243006,-0.013337534689490865,0.3081449284429394,-0.13109905891119464,-0.9422630680328345,0.0030790528940019156,-0.027240843945655183,-0.001016500198456133,0.9393317779981575,0.016129066950024244,0.16913989262798546,0.2979722140929021
3.0500000000000016,-0.031099676670961425,0.035330875747274976,-0.007241462920788476,0.3085302853470451,-0.13110912235835906,-0.942135565339847,0.0013735093372151765,-0.031209707876758176,-0.0038128733290334694,0.9393028513324821,0.01607643511144251,0.16933325965941398,0.2979563405156929
3.060000000000002,-0.03807394988572421,0.03947016735898171,-0.008847929118901685,0.30890154768864836,-0.1310076085643622,-0.9420280346653741,0.005001499927044221,-0.03073263963366854,-0.004235066036182637,0.9392685922859468,0.01596615237925177,0.16950238714553736,0.29797396597702475
3.070000000000002,-0.03956023382105985,0.039132134770865044,-0.0008135662903307299,0.309272409751537,-0.1310845845137786,-0.9418955873138984,0.002716760604709394,-0.024222387138612515,0.0004979747757608904,0.9392194257762643,0.015937236664340035,0.16970027358748963,0.29801793798708565
3.080000000000002,-0.046996996984512956,0.038387630721852896,0.00977612318795705,0.30964447522763555,-0.13106804060587487,-0.9417756348744283,0.0007888759203768716,-0.01790924580127145,0.005629808231916576,0.9391641692219321,0.01585764953665187,0.1698843169364589,0.29809152006488154
3.0900000000000016,-0.06982782289549477,0.03887657857587362,0.02132661762476199,0.3100193198023412,-0.13076612102419097,-0.9416943141400596,0.002413625336739006,-0.014861581780006825,0.009192417664011483,0.9391028228117052,0.01563066413215489,0.17002501692801705,0.29821643686466043
3.100000000000002,-0.10079537609306051,0.03736755686002493,0.028546664653709218,0.3104022803424676,-0.13027849427747656,-0.9416356471143404,0.0010314499025073983,-0.012726616963495694,0.011596331849991075,0.9390155978134469,0.015294588758626713,0.17014162192795734,0.2984417214075082
3.110000000000002,-0.12396090870592329,0.03436937357545071,0.03293556849960382,0.3107402939211775,-0.1296491139067219,-0.9416110017035387,1.5732146260849641e-06,-0.011170771327194701,0.012733229324675105,0.938927597703556,0.014891591629715338,0.1702135312935996,0.29869787495041644
3.120000000000002,-0.12567913632626684,0.029079885539233647,0.033238325672956946,0.31097442309545686,-0.12879934989941375,-0.941650373468155,0.0012798273127786232,-0.010437110411263972,0.01164592630244611,0.9388510117913247,0.01439542216477451,0.17019846274333825,0.2989716043853369
3.1300000000000017,-0.11513994392735771,0.025565278412014027,0.03202970012210733,0.3111480854077046,-0.12823797635442705,-0.9416696434663661,0.0009797004015084428,-0.00476898628614684,0.005695799417667608,0.938765082365126,0.014045663644085552,0.17019940396269412,0.29925717017865466
3.140000000000002,-0.10543780154577448,0.021305274676947483,0.03249311315874568,0.31130075328724577,-0.1276944225786078,-0.9416930464769412,8.104670133691393e-05,0.0018655850529377112,0.0003957167245047976,0.9386815742272812,0.013708590795588798,0.1701925255776194,0.29953843559151544
3.150000000000002,-0.10435146715766774,0.014368489254360729,0.03761102262492797,0.3114383981015647,-0.1270340525994973,-0.9417368993257491,-0.0013253966318373714,0.00801612552304283,-0.0007582158784403938,0.9386087167433866,0.01332054426525257,0.17015899263657153,0.29980338535255474
3.160000000000002,-0.11943382299056043,0.0003961310099669813,0.04753357911238498,0.31142457437878057,-0.12642209810272909,-0.9418237682248504,0.0032875079889580264,0.008598994213215826,-0.0030881227499269196,0.9385295987092499,0.012969848702850282,0.17005832145665248,0.30012332811656905
3.1700000000000017,-0.14457501824847627,-0.011382098441692075,0.05788454656394441,0.31133879130805253,-0.12564238090487034,-0.9419562696471623,0.007739489795326281,0.005953055523271048,-0.004036748803246896,0.9384485755688375,0.012541894902797642,0.1698952540375165,0.30048686300543526
3.180000000000002,-0.1839734965872658,-0.013839235555349286,0.06642234890975628,0.31117206596040736,-0.1244378348736077,-0.9421712878541254,0.00827164300660318,-0.001047282883587939,-0.0010304191874328426,0.9383667328650646,0.011909445773781382,0.16962424850800772,0.30092105105280004
3.190000000000002,-0.20092097099820758,-0.015148587878634845,0.07000507279595315,0.3109591518366089,-0.12303935186871626,-0.9424247809652871,0.0021438753111192215,0.002478531596505111,0.011412557614709426,0.9382741537123732,0.011179689019422597,0.16929925334917864,0.3014196392270959
3.200000000000002,-0.20115502021863846,-0.012750641240141757,0.07127074396876937,0.3107613933619806,-0.12159218988285246,-0.9426780751604568,-0.00318180408370496,0.008543698634757837,0.02163162914618875,0.9381783737707114,0.01042267362146431,0.16897367143047295,0.30192746063087816
3.2100000000000017,-0.17482555218746,-0.002037041974871666,0.07001904743528874,0.3106298064423668,-0.12014895180494065,-0.9429065530362484,-0.0023396438329233655,0.014145287582995008,0.020459302107350877,0.9380815772602361,0.009660715304060558,0.1686808010724562,0.302417074304709
3.220000000000002,-0.15220496481798124,0.0012912793143844859,0.06684148204885933,0.3105558939199479,-0.1188897698033066,-0.9430903527084573,-0.0015872229040567142,0.02625358471899261,0.011496077228052596,0.9379845722832095,0.008985186216584373,0.16844531711993374,0.3028694256917838
3.230000000000002,-0.13253745412092952,0.004061877284740328,0.0638347048895945,0.31051385739253295,-0.1177394423716394,-0.9432487520666274,-0.0003213392555634775,0.03365807711569696,0.0014226314879202061,0.9378878013511319,0.008361104797426463,0.168242693581406,0.30329962064217875
3.240000000000002,-0.11778757881800923,0.01044246228651639,0.06256556517652873,0.31051292563375305,-0.11673824278177189,-0.94337352844452,0.002298369940538677,0.024800604687827264,-0.006156611622615445,0.9377917612838322,0.007807886027200271,0.16808384910799676,0.3036993255414177
3.2500000000000018,-0.1209869885528145,0.007676847438639664,0.05479009131662954,0.3105884449964997,-0.11585342678714447,-0.9434576795200869,-0.0025938086537788682,0.020561988386156686,-0.011477713404852548,0.9376963609023651,0.007305001745492468,0.1679811375832878,0.3040628927468339
3.260000000000002,-0.13080032023675253,0.002268284485877208,0.047729003486766765,0.3106476022294029,-0.11493490515796306,-0.9435505495785795,-0.00717927186555855,0.017453879468623156,-0.013828654611589017,0.9376061936976029,0.0067903036827863415,0.16786451579722525,0.3044171092898541
3.2700000000000022,-0.1447227491376104,-0.0033422086990011583,0.0472738938405655,0.3106084088866806,-0.11384377597733987,-0.9436957453510115,-0.005485592124135519,0.01391654647151597,-0.010100390363213049,0.9375291739054293,0.00620814422307077,0.1676707476167827,0.30477336865607607
3.280000000000002,-0.1364939969492281,-0.004340217697724541,0.03973699190417834,0.31057181040218806,-0.11265979298509361,-0.943849597416157,-0.00576735100018864,0.005256084888606096,-0.0038326731111611983,0.9374697248436391,0.005589559752263389,0.16746254765385693,0.3050823577316181
3.290000000000002,-0.12131801755587247,-0.003457014839262655,0.030898552261443803,0.3105285684392231,-0.11146913852535228,-0.9440053927974686,-0.006427493848940646,-0.0025410715265639485,0.0014301934269973296,0.9374221595852512,0.004975225918522841,0.16724957223577588,0.30535618447272106
3.300000000000002,-0.10481666337514309,-0.0011289857733168796,0.024109339010337197,0.3104654258879332,-0.1103333061262776,-0.9441596311174171,-0.006557228497493624,-0.004001716346465614,0.002000558011176541,0.93739278570443,0.0044008681528586524,0.16703506298946214,0.30557248789291036
3.3100000000000023,-0.09269105612348622,0.0037633660380707117,0.016610580541378612,0.31049313665024875,-0.10920456440859624,-0.9442815674858247,-0.003567087754066144,-0.0014808602932127237,0.00387902729570472,0.9373771758416719,0.0038275944293376185,0.16686634409806955,0.3057200662240028
3.320000000000002,-0.08620894934121553,0.009097004305758119,0.01141611270412951,0.3105465924991518,-0.10815808137173177,-0.9443846956424194,-0.0002140282006749505,0.000617217191873029,0.00573611993301813,0.9373639210626602,0.0032937738872312857,0.16672357691519732,0.3058450283635957
3.330000000000002,-0.09174238223396569,0.013500718707616582,0.013227698341484202,0.31059522237760284,-0.1073344264349169,-0.9444626858347662,0.0015237613978836477,-0.0018101730271179789,0.006433273746964539,0.9373456372960588,0.002868775986595651,0.1666144690146888,0.30596490311805946
3.340000000000002,-0.10820972132479925,0.007482578203751692,0.01619124424588292,0.31058193930174044,-0.10629202018919558,-0.9445846473526964,0.004451477839799271,-0.011695497678130166,0.007220784560771733,0.9373262106481064,0.0023417884685064875,0.1664391652321894,0.306123878552694
3.3500000000000023,-0.12426555505163933,5.4319764007113914e-05,0.02206843581255111,0.31054337025559914,-0.10519184287974732,-0.9447206315179205,0.006996784634673389,-0.022248152216978578,0.00703703538896132,0.9373016359121846,0.0017863687277197573,0.16624191761541354,0.3063100046235209
3.360000000000002,-0.12926262695011168,-0.0020203402828107113,0.03529091810120444,0.31048794052052,-0.10412295200574964,-0.944857263039439,0.007366871292204856,-0.02798614581123609,0.003976346569432305,0.9372632768420812,0.0012412265113286385,0.16604129607412005,0.30653895979103746
3.370000000000002,-0.14712356220327696,-0.010194594772795575,0.0443977198804438,0.3103216072454674,-0.10303862183490893,-0.9450305717570977,0.010896093157982721,-0.02130149138663555,0.008710822835130394,0.9372070002100573,0.0006919117708504473,0.16578301420272235,0.3068521863226652
3.380000000000002,-0.17358305237820992,-0.019374148694873774,0.053345142793179375,0.31009417496892405,-0.1018244313509867,-0.9452367416978771,0.014098258666599807,-0.014204938458487883,0.01463996566495473,0.9371413578044704,8.059387423222031e-05,0.16547314355618234,0.30722041503395753
3.3900000000000023,-0.21319816369561412,-0.025637027396339822,0.06580712572368418,0.30979216127148274,-0.1002382002589394,-0.9455052908343834,0.013263428891146716,-0.017922756018456446,0.01657317845819946,0.9370651721360639,-0.0007114597545812412,0.16506542230961765,0.3076708714735771
3.400000000000002,-0.23741830582745982,-0.029306233150989566,0.07952839740073986,0.30948680376555826,-0.09844424408384093,-0.9457930802923372,0.010177153640478989,-0.01774857978049593,0.01892796586446412,0.9369650883528493,-0.0016175328505072715,0.1646214296020106,0.30820884706591595
3.410000000000002,-0.25073680487045436,-0.035301581960442044,0.09280061921702958,0.30913875916675326,-0.09654600331851339,-0.9461029020754087,0.0074143041938261114,-0.014680709747570141,0.019933020312963214,0.9368520695075613,-0.0025761471267449943,0.16413864529415081,0.30880325447875573
3.420000000000002,-0.24641264207265157,-0.051176878040819516,0.10337641018729661,0.3086624002705823,-0.09454188716054647,-0.9464607312849423,0.007992163674640522,-0.0067276086398560826,0.016332326721405596,0.9367239757363411,-0.003578364464279647,0.16357382804217982,0.3094808450216789
3.4300000000000024,-0.23583326682756636,-0.06103242508556007,0.12258035826504474,0.3081233249439535,-0.09304561606096694,-0.9467847036724888,0.011153513824751882,0.006677171374987431,0.011975357874204383,0.9365591376874575,-0.00433997666567814,0.16305951406021588,0.31024013786648114
3.440000000000002,-0.23983734346990995,-0.07099891770699503,0.14412364801086103,0.3074963995585631,-0.0916152618162956,-0.9471279420457718,0.015067230696800847,0.02073004972484821,0.008992304610277207,0.9363780095658535,-0.005065732119616714,0.1625114531427876,0.3110625024311262
3.450000000000002,-0.29750991114335,-0.08804404694788465,0.1635183854372712,0.3066583122729866,-0.08982869365437418,-0.947570666238829,0.018503775148434907,0.030768491713149757,0.011251879125603945,0.9361857764272985,-0.005945442652308584,0.16179895998776925,0.3119955073540414
3.460000000000002,-0.4022678966475052,-0.11419836820818145,0.19545952459564375,0.30560368696606527,-0.08723222362259399,-0.948151505157999,0.02401384667463663,0.02220275118505042,0.017997516663251483,0.9359515779464168,-0.007215109934032659,0.16084294788090023,0.313160402878299
3.4700000000000024,-0.5291643629868052,-0.14605120661523918,0.24263534877958093,0.30433724410381774,-0.08392745531234772,-0.9488558457534904,0.02878519645662783,0.006887523705450176,0.026744071850612536,0.9356773453070636,-0.008823060910833883,0.15966192371835955,0.31453898149036946
3.480000000000002,-0.6731275784453898,-0.18590649160160116,0.32535946516306646,0.30262701872557585,-0.0792416025161717,-0.9498047176252423,0.028617661018967473,-0.008537090945993678,0.03675694593101684,0.9353204820283572,-0.011086845797505516,0.15802564825026755,0.31634913213564814
3.490000000000002,-0.7856945193115693,-0.21577944523947062,0.38184888307824605,0.30045563930247265,-0.07320311696148368,-0.9509676838968926,0.031239321898651116,-0.011885597088478653,0.0446560420963518,0.9348548915286338,-0.013989603080096433,0.1559228761571027,0.31863233999466145
3.500000000000002,-0.8784553172686208,-0.23935202981880585,0.4262750997231486,0.2980555733444392,-0.06647560702353791,-0.9522215207977948,0.03208554278039212,-0.004208254824862198,0.047867221148178915,0.9343210245410909,-0.017217973853058784,0.1535815751066753,0.3211736740848231
3.5100000000000025,-0.9433510244663342,-0.25405439941656466,0.4628847746573776,0.29546074658183064,-0.05911391037211805,-0.9535130364400499,0.023220953536763976,0.025934517027485206,0.03763842043341144,0.9336917394264374,-0.020746357067138652,0.15101846006838188,0.3239959358090821
3.5200000000000022,-0.9713308924560019,-0.26417435756360985,0.4464912633333386,0.292701735025104,-0.05130585595838161,-0.9548047102576973,0.018863354016259635,0.08073709707138338,0.024113967489331492,0.9330399431172685,-0.024447543921941234,0.14828189499497535,0.32685447926017575
3.530000000000002,-0.9891877402341676,-0.26885404198817137,0.40823124987246734,0.2899166612861309,-0.043207273692302386,-0.9560642041978052,0.011398779057019071,0.12591921836488226,0.01023566000547526,0.9323937369935006,-0.028261617013096475,0.14547337322701775,0.3296544185986415
3.5400000000000023,-1.021818130954327,-0.26038090518853646,0.36491830421422367,0.28726521281754575,-0.03468505848139941,-0.9572082057330267,-0.013426387311485724,0.1025472190246458,-0.000353996599782953,0.9317986774299079,-0.03224116768638933,0.14264688400890163,0.3321942689124105
3.5500000000000025,-1.0503143765758964,-0.2726250395463196,0.3516363548104759,0.2845667934804918,-0.02574767408546675,-0.9582835226488756,-0.041651598247054486,0.05058184258114897,-0.0025944325133060216,0.9312153766306535,-0.03637800416064269,0.13971379747083462,0.33462863101948953
3.5600000000000023,-1.0725493094387415,-0.2933899494911955,0.353305376370641,0.28178444958916354,-0.01658300501904054,-0.9593203819661899,-0.06182457419973254,-0.00561484495587864,-0.0018714277981953928,0.9306249691361652,-0.040593189046581726,0.13669014706034557,0.3370394213414878
3.570000000000002,-1.077601501039365,-0.31512507058393036,0.3660638610899817,0.2787592563828007,-0.007188324263833753,-0.96031599961501,-0.04695428258982173,-0.035106638992430377,-0.0025099695621334044,0.9299906262777019,-0.044866616342987366,0.13348747207908804,0.33951907747530785
3.5800000000000023,-1.0458755225023395,-0.3218830268978048,0.38119820020719375,0.2756679796385929,0.001939800101116303,-0.9612240709494374,-0.026035727519035084,-0.04347480375108077,0.010374150104230019,0.9293053473655555,-0.04899257823384248,0.13027887271494126,0.3420521457155133
3.5900000000000025,-0.9958728667451556,-0.32175158499864015,0.3951356186959468,0.27257894677272926,0.010774575345235607,-0.9620626799678037,-0.004793702261377511,-0.03983293145349363,0.026695148569007506,0.928590212783001,-0.05297066719929749,0.1271095671405073,0.3446007290567989
3.6000000000000023,-0.9337276667966167,-0.31882077544139587,0.40064008262822154,0.2696041073720293,0.018897628600697103,-0.9627717567083357,0.008047013790990515,-0.023352242371892578,0.0347528279890534,0.9278406479181112,-0.056610897567968416,0.12410205216079404,0.3471241948545643
3.610000000000002,-0.9468035984242686,-0.33017726612149534,0.41710227956580653,0.26654218904719357,0.02689993329500627,-0.9634264192627642,0.028553514030475728,-0.014549935910935676,0.029835562856999353,0.9270525367786755,-0.060167924853843556,0.12105516274465172,0.3496894937395535
3.6200000000000023,-1.00346071561664,-0.34821720301887626,0.44518724398502,0.26340740833687015,0.03504544213862094,-0.9640356872839703,0.051010688036575304,-0.01601172789151538,0.020950169323228584,0.926213191095553,-0.06377867777794045,0.11792960866777369,0.3523414133827493
3.6300000000000026,-1.1070108751654637,-0.36872412340940636,0.5014074871780272,0.2601278156780191,0.0439767192785736,-0.9645550139435317,0.06818593639985196,-0.04575096280653933,0.018312776534962234,0.9252330703994871,-0.06774930017961012,0.11455390105870218,0.35527140291174625
3.6400000000000023,-1.1892830116653148,-0.38407595157042795,0.5447578323366669,0.2567556564293875,0.053847798117950436,-0.9649408859573533,0.07468653572171997,-0.0750823335064672,0.018646499794090308,0.9240977613109653,-0.07215880711219692,0.11091826377025103,0.3584783229148549
3.650000000000002,-1.2333350260915468,-0.3822062743080513,0.5666526565694765,0.253413520749027,0.0641515482379476,-0.9652132579970395,0.07530568724690918,-0.09823246038283691,0.021046089503818022,0.9228747198228907,-0.07677796164457115,0.10718971659104676,0.3618087991470176
3.6600000000000024,-1.1556935019232417,-0.3173142742605992,0.5219418076287362,0.2503688699598853,0.07454172150087297,-0.9652540564742261,0.07086973503566821,-0.09609745902272908,0.02665927007792569,0.9215688027467427,-0.08146945458807467,0.10354998532224863,0.3651481501381215
3.6700000000000026,-0.9386400620345806,-0.25407239105017765,0.4377304489064335,0.24805291775119911,0.08315235653356141,-0.9651523225645185,0.03258499390505552,-0.04303041427132952,0.027594311708487827,0.9204279674460762,-0.08538708669007666,0.10060749748154671,0.3679458749317983
3.6800000000000024,-0.6849646538522768,-0.20139332172180255,0.34644062139506077,0.2461395346250671,0.09043326095614031,-0.9650028503737201,-0.01127509703469854,0.022326924674903853,0.020062982412649786,0.9194183269324675,-0.08870517075132602,0.09812195863091046,0.3703651160483476
3.690000000000002,-0.5475946745152633,-0.19188646373964469,0.3026084463631404,0.24454685762898207,0.0954065170190872,-0.9649270024758988,-0.01231127526871009,0.040404451384464836,-0.015395969291848218,0.9186572401556109,-0.09092608899162705,0.09625887056538064,0.37219738636026056
3.7000000000000024,-0.4898218122082274,-0.17870730783848993,0.2732041109987594,0.2430553264057444,0.0996571546288422,-0.9648744877014903,0.004153446954927656,-0.0101998187386982,-0.043702548131975584,0.9179850074656681,-0.0927995458077634,0.0945936831859981,0.3738172270591316
3.7100000000000026,-0.47781627711948427,-0.16306824371889758,0.2501712626305855,0.24165819641443145,0.10362776669711153,-0.9648098224612014,0.0214790255404814,-0.08242607291048845,-0.06406884351398102,0.9173564141280338,-0.09454385576033669,0.09303307605084471,0.3753154125072899
3.7200000000000024,-0.5055449029695653,-0.143994160173044,0.22549270949733852,0.24047820321825303,0.10786053867551697,-0.964639251130507,0.005231095234452296,-0.10677658252306702,-0.06326499340740373,0.9167379185976539,-0.09643950888184967,0.09152891169896053,0.3767098037095142
3.730000000000002,-0.49662547901302434,-0.13420235389115193,0.2081472540083203,0.239390784238733,0.11216673273854942,-0.9644166524072414,-0.009443695949823843,-0.08986565119346715,-0.05293006236989431,0.916142813186118,-0.09837543910974676,0.09005900984616491,0.3780073033186397
3.7400000000000024,-0.45971200244409316,-0.1285854291696417,0.19079588539549688,0.23834593487926048,0.11638841520486687,-0.9641792794384565,-0.021189662132817394,-0.057242565579178506,-0.04171746275508789,0.9155775698241737,-0.10026953782137589,0.08863077227701012,0.3792189135835952
3.7500000000000027,-0.37286420221016403,-0.12158540423653579,0.15645112709562678,0.2372917795868693,0.12003353374687538,-0.9639911708930373,-0.02248036074892224,-0.04446355587899466,-0.048331080062749096,0.9151019222224217,-0.10186914638923192,0.08732377459510045,0.3802413459750533
3.7600000000000025,-0.2711148499861432,-0.0999447591971175,0.12422041882622781,0.23643280608863088,0.12271690898523893,-0.9638656827012455,-0.030904442682484073,-0.004586047180591676,-0.04886681193410922,0.9147244218057937,-0.10303562166979022,0.08631280361775089,0.38106655142600443
3.7700000000000022,-0.16733594232863624,-0.0701117533771377,0.09136162539457854,0.2357373833201357,0.1247246131148229,-0.9637797579839119,-0.041396400911935756,0.042984249787447124,-0.04663513722405155,0.9144213057337951,-0.10390196929235171,0.08552441783589727,0.3817376041297014
3.7800000000000025,-0.09051481348639444,-0.03552231054453458,0.05006131008776984,0.23537923692127494,0.12572673810093002,-0.9637369770734313,-0.04450958442004467,0.061703678485380005,-0.045622272405575134,0.914248185851808,-0.10433645702543255,0.08511920266880553,0.38212385388513487
3.7900000000000027,-0.047797232488058394,-0.0019519776680251844,0.007870941481917547,0.23525436053464974,0.12632365019415853,-0.963689600189652,-0.04681419745253682,0.05591736641806176,-0.03759636327913931,0.9141719406135803,-0.10460588200567145,0.08492815084072537,0.38227528329665583
3.8000000000000025,-0.026139606188157413,0.02953942201023511,-0.030834736626320417,0.23531033477155602,0.12670493182663656,-0.9636258940451158,-0.04958790344726797,0.038442930534558245,-0.027022372906557086,0.9141577528139653,-0.10479583158885976,0.08488155235563964,0.38226753947021913
3.8100000000000023,-0.023876135716485475,0.05278157898076222,-0.04870139562348115,0.23569366798541472,0.1270388429784804,-0.9634881942285273,-0.057025537206007136,0.02525905527903058,-0.02189215273148894,0.9142104784325183,-0.10501072356800503,0.0850213000024212,0.3820513131034032
3.8200000000000025,-0.012807447096923427,0.07033659779730596,-0.060839392090542926,0.23624114837411272,0.1273439739917383,-0.9633137090875035,-0.049274558201579534,0.01706835741416786,-0.01132836915882008,0.9142815095287411,-0.10523904424754835,0.08525142852435608,0.38176703367573456
3.8300000000000027,0.00294168795023788,0.0817343484179239,-0.06815515435714739,0.23688068597165748,0.12759340996791615,-0.9631237267867075,-0.03492043175882997,0.013674724279892601,0.00026070514056369596,0.9143655425426567,-0.10545593953828576,0.08554028906853509,0.3814412979235898
3.8400000000000025,0.019000735914057428,0.07549264999216014,-0.06538108544188907,0.2375527318601827,0.12761706078120277,-0.9629550189735732,-0.028213265304683644,0.02238027542115832,0.0016754321629956757,0.9144684232132205,-0.10557001845246848,0.08589180947006052,0.38108377475278676
3.8500000000000023,0.02534617828103155,0.06271423044494237,-0.058031195937265925,0.23813430238583214,0.1275604463148736,-0.9628188907833928,-0.013384875100989254,0.025309364195766237,0.0012912801935375828,0.9145627797491854,-0.10563168410657706,0.0862116726847435,0.3807678935859186
3.8600000000000025,0.025118576592744486,0.04689097850896187,-0.04812700464622875,0.23863107761411964,0.12746881630876175,-0.9627081114056824,0.0038083666291624085,0.023569542866710907,0.0002410134545733457,0.914650444181264,-0.10566260717529714,0.08649483645097086,0.38048458786273665
3.8700000000000028,0.01715028261187476,0.033937805210939045,-0.03775351851555374,0.2389175986980748,0.1274263327632753,-0.9626426514583205,0.009124677817521278,0.012771763972285365,0.0009875581843584974,0.9147259005200761,-0.10567945354647781,0.08666323170758315,0.38026023673694487
3.8800000000000026,0.012659247854810499,0.02647179310283529,-0.03230456322051302,0.23900795018920362,0.12743254516295638,-0.9626194233590314,0.013554807415865096,0.009274157985121045,0.005571507792323254,0.9147976935687286,-0.10568288452481091,0.08672611555571913,0.38007217818515626
3.8900000000000023,0.00865879458219721,0.022201210231108874,-0.029527443156325054,0.23898647227747427,0.12747419095355317,-0.9626192484712608,0.016731583388327993,0.009685905098264481,0.011578939077807052,0.9148651839890543,-0.10568272509538919,0.08672683956519178,0.3799094720618116
3.9000000000000026,-0.004279213720637888,0.018805031892266105,-0.026322941336578146,0.2389486375380618,0.12756736531836246,-0.96261627482132,0.015206299212066177,0.009146128161024298,0.01317971431389748,0.9149186712847284,-0.1057065450025057,0.086706322938787,0.37977863909405063
3.910000000000003,-0.019691922049406837,0.014138777627601701,-0.01966829217038431,0.2388786777869695,0.1278437524576571,-0.9625969394541735,0.012209367687702064,0.002143473180141852,0.012789195553829093,0.9149577358062758,-0.10581244163539387,0.08663279326467763,0.37967184923411423
3.9200000000000026,-0.0349136824334764,0.008836649746863037,-0.012153330565911493,0.23880099933465895,0.12824238197497623,-0.9625632303311871,0.008814983588865902,-0.007500307573519684,0.01129357950696081,0.9149845662920488,-0.10597625955639352,0.0865298689071185,0.3795850792548233
3.9300000000000024,-0.03960987802272844,0.004133543406819624,-0.011940035864883132,0.23879321815761373,0.12875431403826282,-0.9624967780879877,0.008335554047275397,-0.010204687870667412,0.01002940091378184,0.9149853897082666,-0.10621150632303718,0.08643327398080111,0.3795392123859146
3.9400000000000026,-0.046642287146246304,0.001706408491048513,-0.0075995163302101576,0.23882347211332472,0.12931534622700983,-0.962414009034803,0.007307122480418787,-0.00899822945281057,0.008091068616301898,0.9149765798384069,-0.10647878780581593,0.08634364540658133,0.37950588541819497
3.950000000000003,-0.05691829194168218,0.000279694019790015,-0.0007158044929295811,0.23887379284441368,0.12991567911976856,-0.9623207274417342,0.006297628572764014,-0.005983688168366155,0.006211018459130056,0.9149579365594999,-0.10677025095368163,0.08625392808390675,0.37948938307369895
3.9600000000000026,-0.08015109678314503,-0.003510471563089377,0.006941233676703931,0.2389078510484014,0.13058798172270028,-0.9622212092903848,0.007664288349021128,-0.006412379455987319,0.007491868610264385,0.9149104422675867,-0.10709854118673434,0.08613511117490075,0.3795383629947665
3.9700000000000024,-0.10245325204561323,-0.004862333164261487,0.013196352692126403,0.23902832791700487,0.13152334752564962,-0.9620635998542557,0.006713607568876079,-0.010320992186905464,0.006294162075466317,0.9148305360673991,-0.10757207456719499,0.08600154701935993,0.37962716951048453
3.9800000000000026,-0.12369185128588817,-0.004565502364074055,0.01895156792559778,0.23919199192958196,0.13263694529611747,-0.9618702149794243,0.004303409476585042,-0.015531256204216396,0.003959553357616922,0.9147292140048692,-0.1081410068930526,0.08585063341419345,0.37974398235511225
3.990000000000003,-0.14124512351090088,-0.003007982583433834,0.027287450882910895,0.23928785249150444,0.13388919884698858,-0.9616726456773625,0.0014873431583866982,-0.014783948237613143,0.004320237271093758,0.914614822031153,-0.1087643089012559,0.08563766089323378,0.37988933330773617
4.000000000000003,-0.15788202349655064,0.005302574255038547,0.027115841975817546,0.2394714811643933,0.13517261362467878,-0.9614472292575997,0.0014348178542927473,-0.012073092369155174,0.007248026970389383,0.9144728003125852,-0.10942466349688582,0.08545383251969987,0.38008281012440975
4.0100000000000025,-0.1720933974268374,0.017323014728312346,0.022324461904704284,0.23971420069366173,0.1364961306842133,-0.9612000578300669,0.0024503323691083506,-0.00919933399048775,0.01127705840332646,0.9143146532458619,-0.11011825223836129,0.08528685535399542,0.3803007163549518
4.020000000000003,-0.17171148536266265,0.02541580189438628,0.02290570715669941,0.23999144849233212,0.1379823949738246,-0.9609182701854263,-0.0016840101977564003,-0.014674636038929986,0.011381018893582203,0.9141651271631882,-0.11089164179822265,0.08510954143605952,0.38047481979644954
4.030000000000003,-0.17568414979890165,0.035568484596085526,0.020915509775080162,0.2403796462251848,0.13942384070949385,-0.9606129949362936,-0.0025207909589558732,-0.013585037851883773,0.0094262618530672,0.9140131107075654,-0.11166572553674116,0.08499371995260109,0.3806393973708719
4.040000000000003,-0.18191263844932246,0.046658691892428696,0.016872290512903877,0.24084818240352415,0.14085521324607553,-0.9602871846499126,-0.0015251599731380017,-0.008802753550225237,0.006426875116887681,0.9138596525755951,-0.11245059817144835,0.08491848158369904,0.38079388322037416
4.0500000000000025,-0.18363862417225013,0.054527960852230085,0.009417382326050988,0.24139451128280034,0.14244360818624593,-0.959915200866661,-0.0028936435880254478,-0.008350996651230517,0.005740199872575859,0.9137074930870087,-0.11332257205740405,0.08485315417544252,0.3809147944974295
4.060000000000002,-0.172912300205352,0.06289080286989365,0.004105768742593157,0.24200820099155554,0.14385164318532928,-0.959550694728159,-0.007119711214966027,-0.006892805098276745,0.0008329011006788234,0.9135706682407131,-0.11412044044283705,0.08485797581151876,0.3810037929622971
4.070000000000003,-0.15351106850477314,0.07038646465205875,-0.0002385281298411656,0.24266426861649174,0.14512930184566472,-0.9591930449952742,-0.012423257083607626,-0.004130562135128147,-0.0065318943115460736,0.9134471030498569,-0.11486307198185314,0.08491108816920495,0.3810654446900908
4.080000000000003,-0.12985009012633553,0.06709527952625949,-0.0086064355064264,0.24330222601092946,0.14630248527288756,-0.9588528539173204,-0.010442446953050417,0.004430328499387297,-0.010972775604684341,0.9133520946163429,-0.11554768394391828,0.08498296268184355,0.3810699092244152
4.0900000000000025,-0.11009530180276036,0.05975415229155828,-0.010804997041028443,0.24387592257884197,0.14722458871360541,-0.9585661140409756,-0.006363919474609717,0.011680872737273742,-0.01344173072365032,0.9132764504594303,-0.11609969009778873,0.08507462724927721,0.38106313469287256
4.100000000000003,-0.09280252544763216,0.04978679333751158,-0.008973931773116428,0.244389898968795,0.1479667599990673,-0.9583211202197172,-0.0011628213398682554,0.017548323831208728,-0.014520736336437114,0.9132158832155739,-0.11655381724200035,0.08517415166636973,0.3810476709492533
4.110000000000003,-0.07372219476855985,0.04095435420582606,-0.008588272297689489,0.24474573583286843,0.14861225019170018,-0.9581302911908545,0.0011305070552501191,0.018577613109524344,-0.015066817411551648,0.9131744817625754,-0.11692907602389213,0.08521959581021363,0.38102168312942564
4.120000000000003,-0.04895125890117303,0.03398639617197996,-0.00956722397845097,0.2450430395844739,0.14902355212466686,-0.9579904939152023,0.0024649899843883936,0.021355288101832483,-0.011575921678307288,0.9131477247621885,-0.1171816054389737,0.08528305614894861,0.380994050138043
4.130000000000003,-0.020420462161115555,0.02855297690314822,-0.011589799808116166,0.245292716047718,0.1492492863941079,-0.9578914840006202,0.0031135872924067266,0.025243552930666373,-0.005734590793431599,0.9131340965767228,-0.11733630688077014,0.08536064602235444,0.3809617034387239
4.140000000000002,0.005986018901395971,0.025625717140520726,-0.014605457510335656,0.2454695094488605,0.14923618251003581,-0.957848227306149,0.003566097516053076,0.02800733257074015,-0.004752691583004649,0.9131515360846656,-0.11735971758480251,0.085455062328688,0.3808915986033338
4.150000000000003,0.02684537290668175,0.022353865432208207,-0.017728251965094952,0.2455453244515952,0.14906454331353086,-0.9578555035823445,0.0031017062630632176,0.02853291533533428,-0.003560466198140563,0.9131907164533059,-0.11728577952167375,0.0855351817717357,0.3808024979448296
4.160000000000003,0.042803355070014516,0.019281857991807153,-0.02084092176107607,0.24555784198117844,0.1487756451014527,-0.957897225017718,0.002106196401422254,0.027297387292749234,-0.002295597445611386,0.9132460817232196,-0.11714195998251958,0.08561034327815294,0.380697151707443
4.170000000000003,0.04797910906111391,0.021360592005205327,-0.022952429646134247,0.24567330077127186,0.14844197633495856,-0.9579193889818877,0.0025489998930990814,0.024210430805487865,-0.0019283655383844178,0.9133087926715077,-0.11699513444073109,0.08574629029735995,0.3805611018720185
4.180000000000003,0.042190570020624096,0.021258877501332738,-0.023491302254997865,0.24578610261353934,0.14822803592275322,-0.9579236114058995,0.0017364955296899718,0.016562843373570484,-0.00016311053768878645,0.9133688932446137,-0.11690379580072059,0.08585857989835242,0.3804195398607686
4.190000000000003,0.028693235481243258,0.019643324039365032,-0.022790827819221558,0.2459002380188626,0.14810883606927353,-0.9579127568768816,0.00022773701826191834,0.005852152977440387,0.00268392439833435,0.9134259860324311,-0.11685722297565315,0.08595354655012047,0.380275300747518
4.200000000000003,0.019600517503215634,0.01914693698359592,-0.021028491580783362,0.24605601024467968,0.14807537205181512,-0.9578779051335807,0.0015843579772042348,-0.001209399007562382,0.006221990907672434,0.913469270343882,-0.11686127167400684,0.08604927549982821,0.3801484617176898
4.210000000000003,0.01259225416976718,0.022543799495691293,-0.019998351729118378,0.24625275898693944,0.1482195454628543,-0.9578050039770325,0.00013517042851234496,-0.005128526353559976,0.006558069384340991,0.9135046581827326,-0.11695704834668141,0.08613081121182718,0.3800154923011203
4.220000000000002,0.007650133751712911,0.028518256320576713,-0.019675378569517774,0.24648191313156032,0.14848966215149254,-0.9577042520818735,-0.0030861044329078486,-0.006392391324129714,0.0047037066730974695,0.9135341561710927,-0.11711855243167736,0.0862038482710396,0.37987828332750584
4.230000000000003,0.00961558508363631,0.02942816805723012,-0.021518056027222423,0.2467317357794867,0.14864556092079417,-0.9576157108593009,-0.0014580442769622979,-0.0036857876572588127,0.006026115232893436,0.9135646470322555,-0.11723079482493408,0.08630794197737766,0.379746513863994
4.240000000000003,0.012225257051664048,0.029700226445012606,-0.022651297088305704,0.24698222725312982,0.14884656420869172,-0.9575199126664866,-0.0006998669215444705,-0.000641249425759741,0.0037044471616029823,0.9135980759364644,-0.11736336568913824,0.086405217406507,0.3796029553832584
4.250000000000003,0.015208877882077932,0.029184523480812966,-0.023099789916582854,0.2472299549279003,0.1490676501170294,-0.9574216425968669,-0.0005925208121068337,0.0025490255230464047,-0.001176996212958532,0.9136341064765302,-0.11750410920918905,0.0864983667010689,0.3794515495610527
4.260000000000003,0.01623033716839339,0.02407741104382552,-0.021437396936658203,0.24742631494565273,0.14905590419976356,-0.9573727161431755,-0.00011897697121308719,0.003920879274533454,-0.0019160869935589955,0.9136752142238221,-0.1175261669174125,0.08660964831090315,0.3793203344036459
4.270000000000003,0.022607448874833166,0.019814580818333066,-0.020417648961431386,0.24760760153033423,0.14895565529127422,-0.9573414485223862,0.0018276331888363053,0.005466027257620009,-0.001648631381876665,0.9137178215625983,-0.11750403067221872,0.08672984970392467,0.3791970649339346
4.280000000000003,0.03297370500142592,0.016415558168798836,-0.020028771991637835,0.24777367296479225,0.14877487483790214,-0.9573266274653056,0.004694122745589219,0.007117968394324681,-0.0006273279054389866,0.913762274149202,-0.11744128973881268,0.08685757605115617,0.379080125486771
4.290000000000003,0.03847338631337912,0.016408649388769896,-0.021750335649299523,0.24788284556628265,0.14841586608055865,-0.9573540643420919,0.0030827514035434355,0.008217931419564813,-0.00044764015168751185,0.9138182569853949,-0.1172826237116932,0.08699279502724193,0.37896325430014377
4.3000000000000025,0.04121379904482268,0.016189372602863687,-0.021869653532000592,0.2479960818010958,0.1480452169183303,-0.95738211222601,0.0029917485860129,0.007559373252187017,0.001039363444457147,0.9138752433440294,-0.11711906398987247,0.0871323894783296,0.3788443142581428
4.310000000000003,0.041474166456948916,0.015851661633856148,-0.020589861424409717,0.24811461733890852,0.14766917281672554,-0.9574095024483698,0.004021659920818175,0.005520099048153415,0.0034615184531867197,0.9139324741525119,-0.1169539130614298,0.08727561577492939,0.37872430476908614
4.320000000000003,0.03718149180570441,0.01663734368326551,-0.017500281887497846,0.24827336326295943,0.14737701687757618,-0.9574133484314189,0.0025636953260658735,0.004644989219565366,0.0031608180877786655,0.9139779839506079,-0.11683779950649319,0.08741994127528205,0.37861695463916417
4.330000000000003,0.029965794798055476,0.016590087929036264,-0.014705070506083377,0.2484071201436944,0.14714372904693693,-0.9574145435715806,0.0011583057819123574,0.0032420437707675427,0.0026533735287269664,0.9140209514834362,-0.11674483700713353,0.08754066762900754,0.3785139522777121
4.340000000000003,0.01987594775216065,0.01572762220160458,-0.01210953389566935,0.24852060652302269,0.14696696327607922,-0.9574122389167938,-0.00014317063311013406,0.0012674033762797325,0.001986977347456145,0.9140607840422128,-0.11667496320915162,0.08764035123816992,0.3784161758536531
4.350000000000003,-0.0002160929779943116,0.012105574086410087,-0.008381193902364543,0.24865111010675459,0.14695917231323452,-0.9573795684161117,-1.9922755233672384e-05,-0.0037693847176509627,0.0016700655611067467,0.9140767742304748,-0.11669205049690268,0.08771081819654981,0.378355944812747
4.360000000000003,-0.01653180597289148,0.010803025608630622,-0.005389725903352357,0.24877145986101076,0.1471230364245126,-0.9573231175494687,0.0009364327036947149,-0.006939560203256489,0.0048937432251971655,0.9140780033529882,-0.11679018592615749,0.08774104866426821,0.37831574980611615
4.370000000000003,-0.028798150701450614,0.01156061087549401,-0.003226774920809773,0.24888311353607778,0.1474341050297373,-0.9572462649515766,0.002520375489897879,-0.008443112852754333,0.010983153573391451,0.9140664586010733,-0.11695785370262707,0.08773674552206219,0.3782930045985359
4.380000000000003,-0.01829701613645147,0.014035109430673121,-0.006608482983090426,0.24899651056206232,0.1477212552435264,-0.957172477586067,0.0014934682787986593,-0.008314093998714562,0.011680743529745454,0.9140536565205224,-0.11711505314114448,0.087737232802919,0.3782751570850141
4.390000000000003,-0.011254233136390693,0.013931524539263544,-0.009531792219089189,0.2491384266500206,0.1479611610683832,-0.9570985009696393,0.00013119266979827384,-0.002291748983267083,0.008862976653274955,0.9140479310057492,-0.11725406112334687,0.08776238213819652,0.3782401195538701
4.400000000000003,-0.007120642974011486,0.01164045471949027,-0.012031497432693126,0.24930407043182953,0.14815460383404194,-0.9570254679312873,-0.0013667449260250947,0.00869408993073977,0.0031131098057306317,0.9140489947491336,-0.11737440914425236,0.08780960939089065,0.3781893255607719
4.410000000000003,0.002529708795791682,0.012786450465323205,-0.01389584460932117,0.24941476950695624,0.14818168387283548,-0.9569924009439463,0.002937831430834746,0.010494020415526899,0.003871787027273945,0.9140688529922234,-0.11740302736051411,0.08786540450252073,0.3781193362231449
4.4200000000000035,0.0072317984304145,0.0107318276946779,-0.013217601347741935,0.2495108980027342,0.14814591121823814,-0.956972872753616,0.004067418142060059,0.009789174049873735,0.0015872361448027571,0.9140919942451867,-0.1173990332997878,0.08792626053100386,0.37805043242549535
4.430000000000003,0.007414437026929493,0.005773348621585615,-0.01020909964317802,0.24959267428701645,0.14805273125179239,-0.956965981746581,0.0023604691458382664,0.00690168901896614,-0.00333506033856338,0.9141180794233655,-0.11736506986898905,0.08799120878772355,0.37798282948609396
4.440000000000003,0.006658423080614403,0.001136574059150075,-0.006334963761566106,0.24962168719827146,0.1479475631655555,-0.956974664804408,0.0030825506487776877,0.008569966108710851,-0.0020474302655641968,0.9141421740486165,-0.11731614698088864,0.08803173607242896,0.3779302455281105
4.450000000000003,0.004748957891499418,-0.0012407710976469427,-0.003920392237814909,0.24965161765719043,0.14785101695178118,-0.956981769065137,0.002827408007828884,0.006481844069848648,-0.0001472679263379512,0.9141575129330435,-0.11727342947574224,0.0880684471598694,0.3778978521162918
4.460000000000003,0.0016137449028184752,-0.0015303309586439467,-0.002836228844747549,0.24968155192092506,0.14776472925295714,-0.9569872808323995,0.0016578614516218632,0.0009400609002327402,0.00227477598558897,0.9141645779547964,-0.11723739284142244,0.08810075092119783,0.37788447071927106
4.470000000000003,-0.012137411743948421,-0.0033816288061067593,0.0005611241596311287,0.24965061504453953,0.1478360297822238,-0.9569843467358248,0.00034894709209612007,-0.0007654521213196489,0.0011248480279687889,0.9141646149965196,-0.11726464471021601,0.08807281504764784,0.3778824904504759
4.480000000000003,-0.030470505291456312,-0.004025825411124691,0.0027606661048958725,0.24962853983662198,0.1480992280524692,-0.9569493688065092,-0.0003262287194780685,-0.0032380517948235976,0.002362906669539871,0.9141509918003861,-0.11738565032255331,0.0880107693904213,0.3778923090056403
4.490000000000003,-0.053127994145014915,-0.0034912817550707726,0.003789217002954579,0.24961496195776692,0.1485478273090967,-0.9568834446021517,-0.00039201746565787975,-0.006463834369421498,0.005875247274043752,0.9141241402890133,-0.11759723052755613,0.08791572759324344,0.377913609357544
4.5000000000000036,-0.0664115611515562,-1.509034331055592e-06,0.001703573322925589,0.2496016298773518,0.14919310991351717,-0.9567864227411081,-0.00020612167673177563,-0.012133467597446584,0.007321059355347109,0.9140790911370262,-0.11790420324647206,0.08778007183147414,0.37795832624998227
4.510000000000003,-0.0658027568449177,0.003004578479312756,-0.0015775349936484142,0.2496158758862155,0.14985680455146083,-0.9566789710574938,-0.000948050515806104,-0.01313105481163514,0.007099178772459826,0.9140391915854854,-0.11822367064896454,0.0876563092817479,0.3779837820537221
4.520000000000003,-0.05151926952705353,0.005532186387792255,-0.006034930713938671,0.24965728243772836,0.1505384528774873,-0.9565612755371602,-0.0026011455117125283,-0.009525700815796428,0.005236765927916017,0.9140043773469679,-0.11855535717872731,0.08754429619120133,0.37799025382316725
4.530000000000003,-0.038758275467313516,0.004375896973900323,-0.009661112238589294,0.24971863974462036,0.1509506966636475,-0.9564802323479601,-0.0008151720894379816,2.957468346731669e-05,0.00517602318532568,0.9139948263823247,-0.11876008690704638,0.08749806321197945,0.3779598551530974
4.540000000000003,-0.03199586016189475,-0.0002112619645363539,-0.00887587031717031,0.24973808419856214,0.151310514630376,-0.9564183170712272,0.003036964574618075,0.005194939147089241,0.0031707289641862424,0.913986332487168,-0.11893243578371797,0.0874408963044978,0.3779394375295241
4.550000000000003,-0.03129621732579962,-0.00826600583453229,-0.0036319961572238556,0.2497151672696856,0.15161734574342633,-0.956375734404076,0.008977375500369998,0.005923413997401304,-0.0007999263286636409,0.9139789069737136,-0.1190720572854659,0.0873726784594608,0.37792910776449085
4.560000000000003,-0.01576427086515592,-0.009367955980739457,-0.0022353422322754376,0.2496129904808357,0.1517941639699507,-0.9563743367272803,0.0067236848270140455,0.003855939508141927,-0.0023785899647823733,0.9139744067844635,-0.11913593295153843,0.08728949477079963,0.37793912245775574
4.570000000000003,0.0002870508718496286,-0.008603769315484337,-0.001506583843196632,0.2495357011946645,0.15178407664906007,-0.9563961077926298,0.004574685430714218,0.007785684859502621,-0.002634826268842103,0.9139780561032976,-0.1191159587346509,0.08725440491082323,0.3779446578694513
4.580000000000004,0.016784715158040264,-0.005946490328526985,-0.001446883638941323,0.24948473283468056,0.15158084749994452,-0.9564416641097216,0.0025854920393664537,0.017956261508430858,-0.0015337035201249782,0.9139901439778768,-0.11900944567580764,0.08726931592898637,0.37794541804982557
4.590000000000003,0.01570083012912482,-0.0014197194522630454,-0.0003942945238991221,0.24946953769118327,0.1513197698004594,-0.9564869079510468,0.0014324590969119865,0.017711227362687137,-0.0005029562329835723,0.9140066868301047,-0.1188817875207686,0.08731353042424655,0.3779352668164747
4.600000000000003,0.014506215734654188,0.0032455257484963955,-0.0008470370512219656,0.2494815565237319,0.15111810925091076,-0.9565156589181648,-0.0012207241644971406,0.01032006212041215,-0.00011369576552907343,0.9140213429724767,-0.1187871943879965,0.08735994060242813,0.37791893649271296
4.610000000000003,0.013432161157577543,0.008032957806925827,-0.0029172682236727338,0.24952208803065948,0.15098054597061233,-0.956526840023524,-0.005483748566268119,-0.004544394731622419,-0.0004070213593171006,0.9140339282719075,-0.11872812082784603,0.08740829281380326,0.3778961700416479
4.620000000000003,0.01109720251651064,0.012675647359528728,-0.006255771259963834,0.24965697501521747,0.1509346936867578,-0.9564988594736649,-0.007123214294404554,-0.0024365129942233994,-0.0005105276491115995,0.9140442408532451,-0.11872969321595016,0.08748609668941303,0.37785259934790505
4.6300000000000034,0.010124088902067369,0.016133924197047896,-0.008369961017504745,0.24982200266382731,0.15090634395594132,-0.9564602301268862,-0.006670004456108933,0.0008985495233378286,-0.0006977626089637542,0.9140541141463805,-0.11874511090076247,0.0875754780253125,0.3778031317180085
4.640000000000003,0.010667883522409346,0.018299465418056247,-0.009117554329181626,0.25001798920209367,0.15089518267523694,-0.9564107874375847,-0.003983347400435084,0.005213405485325052,-0.0009806604342783936,0.9140635554129094,-0.11877437983876239,0.08767689630221431,0.3777476571744677
4.650000000000003,0.006693464569017057,0.017546303543650235,-0.008644060058487998,0.25018728374466875,0.15089055919521374,-0.9563672548428426,-0.0029214062416787305,0.002738007021007512,-0.0009906509519832512,0.9140756593757741,-0.11880104538315599,0.08776489113633926,0.3776893831140738
4.660000000000004,0.003221752464851865,0.017029761235330555,-0.009374890868959972,0.2503475165613967,0.15097982701227236,-0.9563112370570016,-0.0017841178737802708,0.000644265581715868,-0.00040854035573761925,0.9140865733978562,-0.11886980708120778,0.08783134838707644,0.37762579842676547
4.6700000000000035,0.0004489606910330511,0.016865717172259598,-0.011494902291926077,0.25049836236047307,0.15117437626305902,-0.9562410181293728,-0.0005139324101688144,-0.0008190615821847161,0.0008306195229671157,0.9140960715830345,-0.11898593607588698,0.08787400941961919,0.3775563310322149
4.680000000000003,0.0039322228763464745,0.01606808767763251,-0.010273686531284855,0.25062962195469607,0.15118221392536665,-0.9562053676063919,0.0002749426912789215,0.0007428454278307722,0.002320429110401642,0.9141102242646133,-0.11901078185032189,0.08794170322184054,0.3774985485801813
4.690000000000003,0.007478221164678724,0.01481749351814281,-0.010711626487359948,0.25072520793188974,0.1511427853205644,-0.9561865407916901,0.0010827211891815253,0.003139748272028513,0.002688958313583439,0.9141298756005334,-0.11900577192541302,0.08800197343603433,0.3774385576098223
4.700000000000003,0.010855339026911838,0.013068826899802509,-0.013192285536087985,0.2507803988747896,0.15105603403962703,-0.9561857874670385,0.0019308656252747674,0.006383177647541132,0.0017543996102127417,0.9141556902703801,-0.1189698428688642,0.08805271505199451,0.3773755684651816
4.7100000000000035,0.013464305384330097,0.01294978388513778,-0.013577866255887434,0.25086024547516134,0.15100707068391253,-0.9561725737840469,0.0029494801993170208,0.0057844954365877214,0.0020852406611861114,0.9141833660826334,-0.11895557927174603,0.08810948185714682,0.37729969545619946
4.720000000000003,0.014143149679066526,0.013616440053792513,-0.013075589301834611,0.2509355185650472,0.15094979844694087,-0.956161867957371,0.0026470851474983386,0.004840101451900914,0.0024518087744419,0.9142118476172743,-0.11893641558730897,0.08816571818087335,0.3772235509089772
4.730000000000003,0.01257259168245726,0.015135517974823874,-0.01162223462008689,0.251004190054345,0.15088086924131486,-0.9561547311975133,0.0007717230758816167,0.003670723524877835,0.0027999240608359835,0.9142411941727824,-0.11891040706988937,0.08822103676291133,0.3771477034825866
4.740000000000004,0.017121404316361256,0.016384929974650384,-0.012432557710840347,0.2511333546762393,0.15076748287900393,-0.9561387012172317,0.0008896562717234844,0.0017126316224170591,0.0050669886230510965,0.9142668450266206,-0.11887591890200849,0.08831290051442141,0.3770748340249357
4.7500000000000036,0.020562978413408782,0.01729882195374137,-0.012910712714913083,0.2512665962335592,0.15063006658453393,-0.956125359210937,0.0006390291929144808,0.0009660397919514976,0.004182090650859602,0.9142935368114183,-0.11883079680448208,0.08841135464967238,0.37700130482387645
4.760000000000003,0.0223021780405466,0.017820189313715887,-0.012853314143794927,0.2514012849388982,0.15046599774064442,-0.9561158037272789,-0.00017572447385359323,0.0017391220341358223,-0.0006488209026318682,0.9143217095646661,-0.1187732301838673,0.08851570433532266,0.37692680007325846
4.770000000000003,0.024269676858176405,0.013930725812051521,-0.01315475348555618,0.25152965992531834,0.15030490724332823,-0.9561073381117675,0.0006706312416147497,0.0036733648324958007,-0.00014862362563081686,0.9143513260778482,-0.1187154879179783,0.08861690549760448,0.3768492110119427
4.780000000000003,0.021920368145501745,0.011932298579501233,-0.012570971827700539,0.251653403494828,0.15017903114759648,-0.9560945436350708,0.00010555658701857278,0.0027395488286047613,-0.0007312630856294346,0.9143808048125186,-0.11867323067413078,0.08870952307308408,0.37676912956153075
4.790000000000004,0.014161786490128609,0.012599806791413957,-0.010856495369064093,0.2517717944111347,0.150096948497066,-0.956076265600102,-0.0023371977176212724,-0.0018575454729242496,-0.003033304275074203,0.9144100121562145,-0.11865033306520376,0.08879163242923963,0.37668614604610223
4.800000000000003,0.004760909054543546,0.012936009583179205,-0.00814215135729798,0.25188765119115447,0.15006372446605265,-0.9560509708579605,-0.0007744031046616124,-0.002041968205515827,-0.0004030635414818849,0.9144271251806465,-0.11865244707939608,0.08886001429154583,0.3766278493324273
4.810000000000003,-0.00295693952797673,0.011834877747304552,-0.006709523747708549,0.25199701000095515,0.15009621608040657,-0.9560170596383433,0.0006002311495446946,-0.003925067007086088,0.0025535685699831752,0.9144366693242678,-0.11868559984240883,0.08891115899807193,0.3765821811411228
4.820000000000004,-0.008383386695224215,0.008915768263556037,-0.0070018242442256694,0.25209823304493734,0.1502091255686559,-0.9559726531325617,0.0014124737186869672,-0.008341611196380841,0.005533879486574169,0.9144374693766157,-0.1187565804816564,0.08894128323085955,0.37655074112913106
4.830000000000004,-0.00534173275025185,0.010950831611495173,-0.007061991093591771,0.25220664687191524,0.15028458969020958,-0.9559321740977512,0.001325831922921316,-0.007294283882418202,0.005235716872615809,0.9144390401616748,-0.11881135888556378,0.08898183380046615,0.37652010528098045
4.840000000000003,0.0014459254879387548,0.01123151380541432,-0.007347321595907554,0.252307106271973,0.15033332921797496,-0.9558980069284366,0.0018721720831600488,-0.0022199512721043898,0.0048675615081832865,0.9144431562231534,-0.11885166240782098,0.08902401057020583,0.37648745831132246
4.850000000000003,0.01239136495246312,0.008742665917215783,-0.007950888170270655,0.25239641634226334,0.15035028921023544,-0.9558717987346689,0.0033358461785214797,0.007659556457925217,0.004709360762141875,0.9144505567119926,-0.11887437707616406,0.08906737002968294,0.37645208591670387
4.860000000000003,0.023608538482282754,0.01262466033001936,-0.011167403985310555,0.252493600887445,0.15018071797893037,-0.9558727464402927,0.0025497202431818385,0.007646267550580816,0.00038651951047444146,0.9144789196341647,-0.1188070963659143,0.08915432038563141,0.3763836806146211
4.870000000000004,0.032554262576413216,0.014034847888322065,-0.014412950149048594,0.25258765653273313,0.14993922547429367,-0.9558857861309528,0.0013169899768710022,0.007876292086932071,-0.0021927164613665204,0.9145152703972171,-0.11870398713400837,0.08925498131222653,0.376303928808017
4.8800000000000034,0.038395247038354605,0.01142858868071247,-0.01742347025148507,0.25267664796329253,0.14961991494365878,-0.95591235073709,-0.0002843601648744626,0.009474509984073344,-0.0019733403930728326,0.9145602381308816,-0.11856180445964988,0.08936963363291059,0.37621227873080026
4.890000000000003,0.03672549784508681,0.010452033504442858,-0.015282081697431412,0.2527646008133211,0.14929526989796923,-0.9559398295102086,0.0005844561225525993,0.008421868991440134,-0.0015191846407758259,0.9146072012831836,-0.11841644185383986,0.08948532289744737,0.37611638546018084
4.900000000000004,0.03316333133504961,0.008788689334155922,-0.012653161377261543,0.25284939668264356,0.1489660958372896,-0.9559687453848333,0.0017730404885543793,0.00556838640000888,-0.0005810026984960182,0.9146491200414177,-0.11826958097044038,0.08959866240143927,0.376033727550499
4.910000000000004,0.02785908449230477,0.005976402029424153,-0.0099570861707444,0.25292992312303836,0.14863125294179763,-0.9559995523982191,0.0031135024088337453,0.0005236883972360848,0.0010028029085991186,0.9146837832724071,-0.11812101262780417,0.08970860941634286,0.37596998879363647
4.9200000000000035,0.021763569306288078,0.006529759842943514,-0.008088495144169865,0.25300874593245315,0.1484404720543265,-0.9560083422049052,0.002821394378849328,-0.0007000676168935659,0.0016081336693603925,0.9147085905413131,-0.11804124460081904,0.08978908968795164,0.3759154227830982
4.930000000000003,0.013568880539326209,0.006968871841277942,-0.00632202039105221,0.25309403447055095,0.14834918817066015,-0.9559999563838579,0.0025837392164729553,-0.002385264074526874,0.0027129546609336035,0.9147254373682557,-0.11801070357075841,0.08985261939695806,0.3758688138931217
4.940000000000003,0.0024779996567987905,0.006796680163418743,-0.004591423032674798,0.25318879478199535,0.14838099631285942,-0.9559699423437894,0.0026412297819936,-0.005238798381978098,0.0046622020214108755,0.9147322137237721,-0.11804139286632064,0.08989583418961929,0.3758323616577857
4.950000000000004,-0.001763941921261236,0.011610276275011567,-0.003409120233224286,0.2532843321292705,0.14845871964776475,-0.9559325451264196,0.0027163855272405294,-0.007575971536177187,0.005239733009993374,0.9147317126038698,-0.11809525466753415,0.08992904806771193,0.3758086243032533
4.9600000000000035,-0.004928443507700627,0.014435318733474587,-0.0027912931286008147,0.2533934176915828,0.14856698372005273,-0.9558868079001104,0.0023071666163318612,-0.005513448252926458,0.004939403377663567,0.9147296674258611,-0.11816615532243502,0.08996305062236831,0.375783105884413
4.970000000000003,-0.0075266599214862005,0.013598098743851149,-0.0029214996570937853,0.2535222956800138,0.1487133071214692,-0.955829912064578,0.0011835828983959415,0.0029373377771163157,0.0035528102346370884,0.914726433939981,-0.11825865235132127,0.08999969696599329,0.3757530824970719
4.980000000000004,-0.004448078044741955,0.01198266597894916,-0.0031306144736565115,0.2536302801278177,0.14881011103789976,-0.9557861711143528,0.001407907628161318,0.0035031460667835712,0.002463129932590476,0.9147210870305432,-0.11832482596078685,0.09003412700798298,0.37573708387784865
4.990000000000004,-0.0016129602270267664,0.011195975397655098,-0.004753907668052969,0.253751020980375,0.1488713660029149,-0.9557445760263062,0.00028037071857084264,0.0022119040908813274,0.0007110835767293381,0.9147185102193196,-0.11837621642404095,0.09008202329227266,0.37571577246700333
5.0000000000000036,-8.099631332579961e-05,0.011789266605579225,-0.008500200581492097,0.25389447218317646,0.1488870869542446,-0.955704054431706,-0.0031111519418025313,-0.0005849780459942465,-0.002090338406116609,0.9147204656669772,-0.11840961570423043,0.09015062444927362,0.37568412551651864
5.010000000000003,-0.005145438000349311,0.01265956507312858,-0.007888910749679432,0.2540255203737847,0.14891954043847586,-0.9556641716188499,-0.003110690310482284,0.00212502399911077,-0.00042131733032752883,0.9147277842696572,-0.11844717577749264,0.09021186639079949,0.3756396646880364
5.020000000000003,-0.013783121815920119,0.013516120697713437,-0.005471241795945829,0.2541635473504057,0.1489879598806466,-0.9556167997411122,-0.002072785509953088,0.0018840197304832436,0.001255399250467125,0.9147267357312169,-0.11850471348129635,0.09026755453777333,0.37561059271406033
5.030000000000004,-0.02676782819352288,0.014300903468184292,-0.0010422659300870695,0.2543146682403933,0.14910917576439697,-0.9555576835802907,-4.1663654441167434e-05,-0.003941538922391049,0.0021301281170304637,0.9147117193854232,-0.11859251211683032,0.0903159594207293,0.3756077474462247
5.040000000000004,-0.025204490390523502,0.013965866173461466,-0.0018971201491789083,0.2544627464320578,0.14933592379073815,-0.9554828196385499,-0.0010283928275341464,-0.0073477685389564465,0.0031243692199607845,0.9146897764493782,-0.11873035798636582,0.09034199512722627,0.37561138540650807
5.050000000000003,-0.023076553265767945,0.012414266301732459,-0.0011129904954853874,0.2545992394337426,0.14957880434648274,-0.955408468151365,-0.002210893208320734,-0.007001053133891135,0.0027951857277637667,0.9146667156882282,-0.11887381187467434,0.09035909994573524,0.37561812401291095
5.060000000000004,-0.022963849454972922,0.009145104942065774,0.0033468093041373877,0.2547178484177116,0.14982628140671628,-0.9553380917694345,-0.0031009066355793704,-0.001148345057057588,0.00032939554824950364,0.9146432591019482,-0.11901618485816613,0.09036643242973838,0.3756285126019367
5.070000000000004,-0.03056976458378008,0.009517887687077219,0.0042682566234773,0.25482131960766613,0.1500711222150875,-0.9552720499387176,-0.0007803464052000986,0.000124252071189201,0.002038993179145595,0.9146162806196333,-0.11915537920220705,0.09036565960189606,0.3756502711351392
5.080000000000004,-0.03421538285079036,0.011886732384618735,0.0025928493122158638,0.2549213965612846,0.15034023554427717,-0.9552030318305109,0.0002081818252467686,-0.0011088350319656236,0.00345152838657019,0.9145889215524199,-0.11930529444233254,0.09035879970393311,0.37567098349074596
5.090000000000003,-0.029661265606988473,0.016731384902032527,-0.0025674931780262627,0.2550192312331786,0.1506497777057672,-0.955128173933637,-0.0016964124195764452,-0.005448005933178378,0.003457832626825984,0.9145617124429342,-0.11947350974530438,0.0903437295608013,0.37568747705575817
5.100000000000003,-0.020555219182229034,0.01919903383461235,-0.004441142487240832,0.2551893146249541,0.15088551243065595,-0.9550455090917364,-0.002571606380112291,-0.0033614186695150724,0.000320424116073326,0.9145445520936882,-0.11961846051964929,0.09038062299481918,0.3756740417610533
5.110000000000004,-0.014842009935732559,0.01980593243112368,-0.005044791503025194,0.2553623682979254,0.15105078350902326,-0.9549731447635701,-0.001975240711752436,0.0002899654853956528,-0.0023967714286464727,0.9145316498671995,-0.11973026698987932,0.09043278339080438,0.3756572045900134
5.120000000000004,-0.01595404607350118,0.017842703052333285,-0.0042948948142580825,0.25552304712582835,0.15111482705665322,-0.9549200543377682,0.0008583963352936682,0.005037127784294097,-0.0036476278537377676,0.9145235196144589,-0.11979170187697487,0.09049821741522342,0.37564182670170826
5.1300000000000034,-0.013943947219552487,0.02165126522932807,-0.005411890515792618,0.2556933176323887,0.15123157317615168,-0.9548559773931452,0.0013459983280505238,0.0028104164488556415,-0.0023790240975055275,0.914517555578433,-0.11987882361327014,0.09055980943008923,0.37561366251786865
5.140000000000004,-0.011497629204606622,0.02306829089201939,-0.006198333739611265,0.2558769723751451,0.1513472642096631,-0.9547884403927954,0.0007767777250360004,0.0006578766368313415,-0.0020108981979872712,0.932533066376929,-0.10939873767647097,0.10006577386611251,0.2842579713498437
5.150000000000004,-0.009113808858303483,0.01881416604222936,-0.005920019849515407,0.2560813585666926,0.15144727517585607,-0.9547177790694633,-0.0010119932424519312,0.00046651379137246175,-0.0038690807236839804,0.9818555634740799,-0.0805541688081732,0.12597985183656896,0.03424816897295846
5.160000000000004,-0.011322720922134289,0.01830326021017088,-0.005373247769828343,0.25625970770519124,0.15153104388873162,-0.9546566365430211,-0.0003211889461954625,0.0024813016951848333,-0.002204208583610654,0.9885990917913604,-0.07663599499562146,0.1296094439774395,-2.5042214902130733e-05
5.1700000000000035,-0.01694497605396613,0.019478867965577677,-0.004027138495495649,0.25643614474001236,0.15164093461278572,-0.9545918125299543,0.0003630359768779795,0.0025137885982672546,1.1108379209297226e-05,0.9885827130708432,-0.07668993397098035,0.1297025496079324,-4.7232182499731166e-05
5.180000000000003,-0.027345753445764433,0.022599020580886635,-0.0013339436707238508,0.25661653513408733,0.15180191603930385,-0.9545177452135168,0.0003349038778349342,-0.0016059084990804424,0.002210804585846046,0.9885640500464428,-0.07677148057193411,0.1297970143539445,-5.7268623120741794e-05
5.190000000000004,-0.041585670383133655,0.025182556657890303,0.001846466388429259,0.25683029764764453,0.15217924722645437,-0.9544001142669222,-0.0008914476945155776,-0.0031774172275522558,0.0027846538340626664,0.9885343029555979,-0.07696682518980826,0.1299077581057053,-4.066181394256853e-05
5.200000000000004,-0.050819682360566165,0.026860532951044003,0.0028191957831480135,0.2570569427546766,0.15262455378927173,-0.9542679840067367,-0.002053544244483742,-0.0040237738996127485,0.0030465581491620278,0.9885008773670514,-0.07719775012294516,0.13002496948193726,-1.7221093836653952e-05
5.2100000000000035,-0.0497047759844814,0.027044420254621306,-0.0004018328317091126,0.25729694002680414,0.15312795133862722,-0.9541226692863756,-0.0027300209433773273,-0.0043241768951974265,0.003236240447172532,0.988464116658411,-0.07745891143104927,0.13014903015548154,1.0557563401819705e-05
