time,seconds_elapsed,rotationRateX,rotationRateY,rotationRateZ,gravityX,gravityY,gravityZ,accelerationX,accelerationY,accelerationZ,quaternionW,quaternionX,quaternionY,quaternionZ
1681501362404944100,2.161944091796875,-0.07614263147115707,0.005737813655287027,0.007428320590406656,0.030672987923026085,-0.22257880866527557,-0.9744320511817932,-0.00041483156383037567,-0.0007639378309249878,0.009954512119293213,0.9935873478095367,0.11200767095667534,0.015435476333139145,2.917782334340769e-17
1681501362414942200,2.171942138671875,-0.08290732651948929,0.00880550965666771,0.020940667018294334,0.030679550021886826,-0.22184206545352936,-0.9745998382568359,0.00046361424028873444,-0.01183086633682251,0.013280868530273438,0.9936295721987937,0.11163098491473185,0.015446753932897435,0.00007683291970238173
1681501362424940300,2.181940185546875,-0.09495846182107925,0.009931493550539017,0.020043980330228806,0.030698703601956367,-0.22096392512321472,-0.9747987389564514,-0.002378411591053009,-0.01687467098236084,0.01146554946899414,0.9936796630028961,0.11118173137519272,0.015468237550786487,0.0001899690979715462
1681501362434938000,2.191938232421875,-0.0733940452337265,0.008846787735819817,0.024911439046263695,0.030729059129953384,-0.220119446516037,-0.9749888181686401,-0.0010049622505903244,-0.01060853898525238,0.012845814228057861,0.9937274108899588,0.1107495548440979,0.01549645319066879,0.0003135047331616016
1681501362444939300,2.201939208984375,-0.045647457242012024,0.003782587358728051,0.038592565804719925,0.03067508339881897,-0.21950213611125946,-0.9751296639442444,-0.0007831044495105743,-0.005748182535171509,0.01060640811920166,0.9937630571641124,0.11043987755904426,0.015433801486465492,2.01952937094045e-17
1681501362454937300,2.211937255859375,-0.0237184539437294,0.006331498734652996,0.04408426955342293,0.03056429512798786,-0.21918457746505737,-0.975204586982727,-0.00044343434274196625,-0.00112190842628479,-0.0012053251266479492,0.9937818552294505,0.11027455849747982,0.01540252195019447,0.00022306979593410424
1681501362464935200,2.22193505859375,-0.0012945386115461588,0.009912785142660141,0.04185853153467178,0.03050200082361698,-0.21913659572601318,-0.9752172827720642,0.004425378516316414,0.012669816613197327,-0.005938053131103516,0.9937849741338759,0.11024670523687322,0.015395202602778291,0.0004401102058839304
1681501362474933200,2.231933349609375,0.031216267496347427,0.012446516193449497,0.0395442433655262,0.030496899038553238,-0.21932277083396912,-0.9751756191253662,0.005132386460900307,0.02161453664302826,-0.004942178726196289,0.9937743954869307,0.11033824885712591,0.015416398289942576,0.0006522903196228465
1681501362484932000,2.24193212890625,0.06690754741430283,0.021490611135959625,0.04393419995903969,0.030563360080122948,-0.21985086798667908,-0.9750546216964722,0.004348762333393097,0.02293609082698822,-0.002148747444152832,0.9937437073391998,0.1106040387772087,0.015474004833601087,0.0008635786392824296
1681501362494930000,2.251929931640625,0.09468618035316467,0.025531426072120667,0.050965212285518646,0.030703753232955933,-0.22070007026195526,-0.9748583436012268,0.0054138172417879105,0.027935683727264404,0.0037737488746643066,0.9936942091513943,0.11103305892542513,0.015572195653977916,0.0010998882266101215
1681501362504928000,2.261927978515625,0.12834398448467255,0.02517123334109783,0.05962168052792549,0.030809076502919197,-0.22186698019504547,-0.9745901226997375,0.0007766298949718475,0.030552178621292114,0.004024326801300049,0.9936263536711435,0.11162325622261884,0.015658885887860387,0.0013845134651951092
1681501362514926000,2.271926025390625,0.1090291440486908,0.015639247372746468,0.07924092561006546,0.030848130583763123,-0.22317302227020264,-0.9742906093597412,-0.0003610551357269287,0.024656102061271667,-0.00030344724655151367,0.9935504053570314,0.11228344909561187,0.015720078352329032,0.0017333393369708611
1681501362524924200,2.281924072265625,0.055183716118335724,0.011702962219715118,0.08030872046947479,0.030777016654610634,-0.22396160662174225,-0.9741119146347046,-0.00044253095984458923,0.02008882164955139,-0.00763857364654541,0.9935045906008443,0.11267910789897885,0.015731294175762172,0.0021353069254138927
1681501362534922200,2.291922119140625,0.04870238155126572,0.015547234565019608,0.08545580506324768,0.030708523467183113,-0.22446072101593018,-0.9739991426467896,0.0020673703402280807,0.01628495752811432,-0.008346378803253174,0.9934753395339604,0.11292708420061963,0.015744520706514872,0.002546165406279516
1681501362544920300,2.30192041015625,0.07104864716529846,0.020040452480316162,0.08794007450342178,0.03072565793991089,-0.22499535977840424,-0.9738752841949463,-0.0007268637418746948,0.006428375840187073,0.004911661148071289,0.993442915141354,0.11319275382812198,0.01580410280202678,0.0029829165895819366
1681501362554918100,2.311918212890625,0.11406508833169937,0.02899559959769249,0.08087790757417679,0.030831797048449516,-0.2258356213569641,-0.973677396774292,-0.002267332747578621,0.004003241658210754,0.004637479782104492,0.9933918004222514,0.11361441244361667,0.01590799740129605,0.0034060459077462613
1681501362564916200,2.321916259765625,0.13424476981163025,0.033025894314050674,0.08086045831441879,0.031012840569019318,-0.2269955277442932,-0.9734019041061401,0.003975577652454376,0.02260395884513855,0.004346728324890137,0.9933209920447315,0.11419936958644421,0.016048634283746088,0.0038093453435742966
1681501362574914300,2.331914306640625,0.12165440618991852,0.02728225477039814,0.09131230413913727,0.031182609498500824,-0.22817467153072357,-0.9731207489967346,0.003607438877224922,0.025873571634292603,0.0041419267654418945,0.9932484503698231,0.114793813144303,0.016186819118605963,0.004235665110358212
1681501362584912100,2.341912109375,0.08860106021165848,0.021927369758486748,0.09764216840267181,0.03120841644704342,-0.22909151017665863,-0.9729045033454895,0.005153287202119827,0.008220449090003967,0.002369225025177002,0.9931919014890511,0.11525374856102491,0.01625837604410691,0.004715499878366896
1681501362594910200,2.35191015625,0.06313298642635345,0.01994837448000908,0.09221171587705612,0.03118278458714485,-0.22976790368556976,-0.9727457761764526,0.005148407071828842,-0.012007683515548706,0.0019358992576599121,0.9931496342112124,0.11559127099770398,0.016302396033005078,0.0051848736512679836
1681501362604909000,2.361908935546875,0.044709037989377975,0.02331487648189068,0.0897379070520401,0.03117477148771286,-0.23022496700286865,-0.972637951374054,0.0074757542461156845,-0.02032443881034851,0.0044678449630737305,0.9931199123675206,0.11581709470917734,0.01635301322225265,0.005639214106725051
1681501362614907100,2.3719072265625,0.03931720182299614,0.024420354515314102,0.0810496136546135,0.031220316886901855,-0.23057691752910614,-0.9725531339645386,0.009001865983009338,-0.016340911388397217,0.008640170097351074,0.9930960129510293,0.11598956005027443,0.016427446237438467,0.006068419765546
1681501362624905200,2.3819052734375,0.034733787178993225,0.025548934936523438,0.07884218543767929,0.031262122094631195,-0.23091207444667816,-0.9724722504615784,0.0060456283390522,-0.010787233710289001,0.011031270027160645,0.9930731151533222,0.11615376008445934,0.016497722013710008,0.006477469567099405
1681501362634903300,2.3919033203125,0.030324924737215042,0.02448207512497902,0.07296139001846313,0.031292784959077835,-0.23122897744178772,-0.9723959565162659,0.00024714693427085876,-0.010073617100715637,0.010741353034973145,0.9930513906694937,0.11630905211835905,0.016559502111396212,0.0068614062989498245
1681501362644901000,2.401901123046875,0.01700369268655777,0.02103554457426071,0.06833907961845398,0.031393807381391525,-0.2313987910747528,-0.9723523259162903,0.0008327625691890717,-0.010514140129089355,0.008607268333435059,0.99303789300009,0.11638943609151049,0.016653419124384488,0.007222072271668867
1681501362654899200,2.411899169921875,0.005943050608038902,0.014250075444579124,0.05817725136876106,0.03144985809922218,-0.23143690824508667,-0.9723414182662964,-0.00045924633741378784,-0.011147424578666687,0.003988206386566162,0.9930326475186041,0.11640340891919372,0.016719141435914235,0.007540370743594529
1681501362664897300,2.421897216796875,-0.013022899627685547,0.00695747509598732,0.05616769939661026,0.03147213160991669,-0.2313985973596573,-0.9723498225212097,-0.00110713392496109,-0.012101233005523682,-0.0011150836944580078,0.9930325458245697,0.11637898716865924,0.016763551470846034,0.007825183676916005
1681501362674895000,2.43189501953125,-0.03163307160139084,0.007768407464027405,0.04396482929587364,0.03145119547843933,-0.23122918605804443,-0.9723908305168152,-0.0006436854600906372,-0.012057051062583923,-0.0006774067878723145,0.9930410095557098,0.11628833577746715,0.016781384468843644,0.008074807791489141
1681501362684893200,2.44189306640625,-0.05264552682638168,0.01190556213259697,0.02912522666156292,0.031537409871816635,-0.23088987171649933,-0.9724686741828918,0.0017420202493667603,-0.014608874917030334,0.006587326526641846,0.9930590117908185,0.11611161637183379,0.01684545505194837,0.008266414298182034
1681501362694891300,2.451891357421875,-0.051874540746212006,0.013182280585169792,0.010191216133534908,0.03170390799641609,-0.2304438054561615,-0.9725690484046936,0.0034828707575798035,-0.008493676781654358,0.014256060123443604,0.9930833504275594,0.11588167635900738,0.016938782668852785,0.00836774418513287
1681501362704889000,2.46188916015625,-0.06775733083486557,0.01551774051040411,0.006980909034609795,0.031876955181360245,-0.22994758188724518,-0.9726808071136475,0.004454229027032852,-0.0008111745119094849,0.020807087421417236,0.9931111177083785,0.11562706344343056,0.017028608018167364,0.008413441719210038
1681501362714887200,2.47188720703125,-0.12128899991512299,0.008333330973982811,0.00833272933959961,0.03197046369314194,-0.22907200455665588,-0.9728842973709106,0.010403204709291458,0.0035317540168762207,0.01870650053024292,0.9931618384562084,0.11517900301230122,0.017077362740389092,0.008468147001203382
1681501362724886300,2.48188623046875,-0.1416405886411667,0.002261456800624728,0.00902741588652134,0.031991127878427505,-0.22782745957374573,-0.9731758236885071,0.01370895653963089,-0.01036234200000763,0.016571879386901855,0.9932347707187542,0.11454304391914807,0.017087156376825428,0.008520753988185876
1681501362734884000,2.491884033203125,-0.1382831335067749,0.008573947474360466,0.023742979392409325,0.03199349716305733,-0.22648707032203674,-0.9734885692596436,0.014271166175603867,-0.025527194142341614,0.01709824800491333,0.9933127031119603,0.11385764105783278,0.017092222966749598,0.008617541812585892
1681501362744882200,2.501882080078125,-0.11583191901445389,0.015374994836747646,0.0382501482963562,0.032017555087804794,-0.22532546520233154,-0.9737573266029358,0.0103255994617939,-0.02067682147026062,0.013765871524810791,0.9933787544618254,0.1132622060695031,0.017117702843603304,0.008790093064585698
1681501362754880300,2.51188037109375,-0.05600932985544205,0.026702750474214554,0.0700586810708046,0.03208353370428085,-0.2245098054409027,-0.9739435315132141,0.0019283220171928406,-0.00048114359378814697,0.009847462177276611,0.9934231920016904,0.11284131986975117,0.017177666449443033,0.009065160990846527
1681501362764878000,2.521878173828125,0.0004056234029121697,0.06513209640979767,0.12872205674648285,0.0323224812746048,-0.2243998944759369,-0.9739609360694885,-0.005421224981546402,0.013660669326782227,0.004646420478820801,0.9934225113910061,0.11277507248306805,0.017358151975082555,0.009600859921736652
1681501362774876200,2.531876220703125,-0.013786627911031246,0.05690985545516014,0.11807820200920105,0.0326634980738163,-0.2244577407836914,-0.9739362597465515,-0.008783482015132904,0.016922861337661743,0.0026380419731140137,0.9934097032270742,0.11279133269202478,0.017606474156982365,0.010272887002524784
1681501362784874200,2.541874267578125,-0.03306720033288002,0.04314350709319115,0.08163703978061676,0.03294653818011284,-0.22426816821098328,-0.9739704132080078,-0.008700311183929443,0.02402697503566742,-0.0014171600341796875,0.9934127017291231,0.11268414344126837,0.01780696922103322,0.010794772405363567
1681501362794872000,2.5518720703125,-0.00008528039325028658,0.03133425489068031,0.0822671428322792,0.03323274850845337,-0.22411172091960907,-0.9739966988563538,-0.010237745940685272,0.025747358798980713,0.0035682320594787598,0.9934146955400068,0.11259545349971903,0.017997875369092205,0.01121696117909177
1681501362804870100,2.5618701171875,0.04006972908973694,0.032796330749988556,0.09920111298561096,0.03345276787877083,-0.22442051768302917,-0.9739180207252502,-0.014211427420377731,0.011667117476463318,0.0035201311111450195,0.9933896152723103,0.11274347255866336,0.01816279000097717,0.011675553187697614
1681501362814868200,2.5718681640625,0.024637242779135704,0.029337415471673012,0.11733298003673553,0.03364282473921776,-0.2248823195695877,-0.9738049507141113,-0.012494131922721863,0.00880250334739685,-0.0027727484703063965,0.9933544672017776,0.11296792445287258,0.018323949331414662,0.012222632757264292
1681501362824866000,2.581865966796875,-0.01800527609884739,0.03559018671512604,0.12900647521018982,0.0337376594543457,-0.22505676746368408,-0.9737613797187805,-0.007141575217247009,0.011540427803993225,-0.004357516765594482,0.9933356558593749,0.11304472483817966,0.018444453863435226,0.012850708349340276
1681501362834864000,2.591864013671875,-0.048190340399742126,0.03546847775578499,0.1373826563358307,0.033787067979574203,-0.22475680708885193,-0.9738289713859558,-0.015034008771181107,-0.008031383156776428,0.0046975016593933105,0.9933435715018786,0.11287872086470171,0.018545055951911214,0.013537342737440032
1681501362844863200,2.60186328125,-0.03259257227182388,0.04987151920795441,0.14536800980567932,0.03382446616888046,-0.2243536412715912,-0.9739205837249756,-0.01900816708803177,-0.028591394424438477,0.014585316181182861,0.9933563868740786,0.11265938808542338,0.01864293503958262,0.014262862730784526
1681501362854861000,2.611861083984375,0.00902890507131815,0.07162821292877197,0.16947974264621735,0.03398727625608444,-0.22423362731933594,-0.9739425778388977,-0.018545370548963547,-0.02732287347316742,0.014515697956085205,0.9933498940236443,0.11258174264612071,0.018816497712410365,0.015079962514928887
1681501362864859100,2.621859130859375,0.017911529168486595,0.0773644670844078,0.16984213888645172,0.034257907420396805,-0.2243727445602417,-0.9739010334014893,-0.016710292547941208,-0.010139688849449158,0.007378876209259033,0.9933253888254265,0.1126337044616902,0.019055692173095825,0.015976999244766928
1681501362874857200,2.631857177734375,0.009234684519469738,0.08346656709909439,0.1600094735622406,0.034583162516355515,-0.22449801862239838,-0.9738606810569763,-0.01033693552017212,0.0024214982986450195,0.006300926208496094,0.9933008632281138,0.11267846580314454,0.01931886442387718,0.01684318345145377
1681501362884855000,2.64185498046875,-0.007203493732959032,0.07328936457633972,0.15373046696186066,0.0348627045750618,-0.22454844415187836,-0.9738391041755676,-0.0024835504591464996,0.007461562752723694,0.007805228233337402,0.9932810777697686,0.1126858107002508,0.01955399932936788,0.01767094135103828
1681501362894853000,2.65185302734375,-0.005385353695601225,0.0671108290553093,0.1436232477426529,0.03508900851011276,-0.2244890183210373,-0.9738446474075317,0.0026917606592178345,0.00027626752853393555,0.005308330059051514,0.9932681398227619,0.1126380626841048,0.019756792209936147,0.018459900877448997
1681501362904851200,2.661851318359375,0.01625690795481205,0.057552941143512726,0.12529917061328888,0.03530828654766083,-0.22455789148807526,-0.9738208651542664,0.011154737323522568,-0.0006466507911682129,-0.0005137920379638672,0.993248733791109,0.11265714399271226,0.019948311111049152,0.01916871233632332
1681501362914849000,2.67184912109375,0.0422525554895401,0.049367714673280716,0.10387776046991348,0.0354306697845459,-0.22489845752716064,-0.9737378358840942,0.016586553305387497,0.011778861284255981,-0.006807148456573486,0.9932159468772818,0.11281742930094993,0.020082665396932594,0.019776096846910878
1681501362924847000,2.68184716796875,0.07434787601232529,0.03775274008512497,0.08835912495851517,0.03545733541250229,-0.2255943864583969,-0.9735758304595947,0.017948437482118607,0.02671124041080475,-0.012111365795135498,0.9931649475562473,0.11316174799435641,0.02016159608075986,0.020281797303645027
1681501362934845200,2.69184521484375,0.1138920858502388,0.034044817090034485,0.07338044047355652,0.035445425659418106,-0.22663943469524384,-0.9733335375785828,0.01579359918832779,0.03364618122577667,-0.011026144027709961,0.9930954382224593,0.1136863187108187,0.020215053584291882,0.020695223565764934
1681501362944843000,2.701843017578125,0.1394861340522766,0.02999787963926792,0.05361232906579971,0.0354553759098053,-0.22791694104671478,-0.9730348587036133,0.0169433131814003,0.03350462019443512,-0.011309623718261719,0.9930132272135412,0.11433095626654698,0.020273536787264124,0.02102844836409698
1681501362954841000,2.711841064453125,0.16910287737846375,0.03194012492895126,0.031174661591649055,0.035579584538936615,-0.22942392528057098,-0.9726760983467102,0.01958094909787178,0.03324156999588013,-0.008525073528289795,0.992918337167556,0.11509408090726729,0.02037918427726944,0.021244131167553686
1681501362964839200,2.721839111328125,0.16053318977355957,0.03517919406294823,0.029336415231227875,0.035812411457300186,-0.2310284525156021,-0.972287654876709,0.01643369346857071,0.035105496644973755,-0.0038322806358337402,0.9928172033047975,0.11590741086829424,0.02053373768276268,0.021396748653353476
1681501362974838000,2.731838134765625,0.12830974161624908,0.03085874766111374,0.021745074540376663,0.03609972447156906,-0.23243044316768646,-0.9719428420066833,0.008837413042783737,0.0275353342294693,-0.000164031982421875,0.9927275945949402,0.11661749984484669,0.020710727267799076,0.021525479326406124
1681501362984836000,2.741836181640625,0.10086113959550858,0.028190258890390396,0.013709519058465958,0.036439016461372375,-0.23351649940013885,-0.9716698527336121,0.00378316268324852,0.008800208568572998,0.0051476359367370605,0.9926571846799324,0.11716699385706772,0.02090415966576565,0.02160298351092537
1681501362994834200,2.751834228515625,0.07097567617893219,0.027399566024541855,0.015393968671560287,0.03680931031703949,-0.23429429531097412,-0.9714686274528503,0.0009256862103939056,-0.007130354642868042,0.014528930187225342,0.9926049939414767,0.11755901790875807,0.021108583005550133,0.021672763897905796
1681501363004832000,2.76183203125,0.042909473180770874,0.01790972426533699,0.02144034206867218,0.03712093457579613,-0.23474426567554474,-0.9713481068611145,-0.001506909728050232,-0.018155008554458618,0.015278220176696777,0.9925727091187778,0.11778377439415573,0.021281938811075197,0.021763643226807572
1681501363014830000,2.771830078125,0.0001415044243913144,0.017598934471607208,0.02252478152513504,0.03736738860607147,-0.23484167456626892,-0.9713151454925537,-0.00007489696145057678,-0.025229215621948242,0.011338949203491211,0.9925619961204258,0.11782879436592483,0.021419939902950717,0.021870065833825444
1681501363024828200,2.781828125,-0.04274687543511391,0.017358584329485893,0.031148763373494148,0.0375647209584713,-0.23453842103481293,-0.9713807702064514,0.0008721835911273956,-0.028553709387779236,0.009863495826721191,0.992575349142419,0.1176688052422243,0.02153277826481716,0.022015564155323443
1681501363034826000,2.791825927734375,-0.07563158124685287,0.02041402831673622,0.03489929437637329,0.037754494696855545,-0.23388567566871643,-0.9715307950973511,0.003932524472475052,-0.02876393496990204,0.00952523946762085,0.9926090876427305,0.11732970798324925,0.021641213611740383,0.02219402521796656
1681501363044824000,2.801823974609375,-0.08869411051273346,0.029759259894490242,0.040311966091394424,0.03798045590519905,-0.23303796350955963,-0.9717257022857666,0.003752347081899643,-0.024683073163032532,0.0167391300201416,0.9926536087057884,0.11689013560513926,0.021768272944804233,0.022398180791573342
1681501363054822100,2.811822265625,-0.08796945959329605,0.03648587316274643,0.046329647302627563,0.038232509046792984,-0.23214267194271088,-0.9719300866127014,0.0004180148243904114,-0.016178950667381287,0.018454134464263916,0.9926996494449297,0.11642516828231202,0.021912207503745628,0.022641031442307176
1681501363064820000,2.821820068359375,-0.05966874957084656,0.043157223612070084,0.04579048976302147,0.03852701559662819,-0.2314162254333496,-0.9720916748046875,-0.002699371427297592,-0.00323350727558136,0.013839781284332275,0.9927344168525915,0.11604561809372556,0.022081254490418787,0.022898863616266536
1681501363074818000,2.831818115234375,-0.01292840763926506,0.04000696912407875,0.05020201578736305,0.03882994502782822,-0.2310994565486908,-0.972154974937439,-0.0037957578897476196,0.011067628860473633,0.00999683141708374,0.992744194112521,0.11587490306421146,0.02226035128170143,0.023161713974966174
1681501363084816100,2.841816162109375,0.06855233013629913,0.024196583777666092,0.05319301038980484,0.03902838006615639,-0.23142243921756744,-0.9720701575279236,-0.001949511468410492,0.017829805612564087,-0.0018982887268066406,0.9927165493953315,0.11603158921269656,0.022395950042344417,0.02343017248066858
1681501363094815000,2.85181494140625,0.14067286252975464,0.011149756610393524,0.06485658884048462,0.03906355798244476,-0.2325521856546402,-0.9717991352081299,0.0016011223196983337,0.02152302861213684,-0.011278867721557617,0.9926413532453078,0.11660127300049332,0.02246299476006436,0.023721163943245346
1681501363104813000,2.86181298828125,0.18524831533432007,-0.009642073884606361,0.06070978194475174,0.03891075775027275,-0.23425054550170898,-0.9713972806930542,0.005934830754995346,0.03352107107639313,-0.0183640718460083,0.9925330731623737,0.1174633488764044,0.0224439577532796,0.024015932192622404
1681501363114811100,2.87181103515625,0.18597669899463654,-0.013395532965660095,0.05693048983812332,0.038668952882289886,-0.23618094623088837,-0.9709393978118896,0.01289050281047821,0.04324871301651001,-0.02494072914123535,0.9924116097628471,0.11844610657438326,0.02237918163463076,0.024271656393297945
1681501363124809000,2.88180908203125,0.151009663939476,-0.017490142956376076,0.05974012613296509,0.038391150534152985,-0.23791299760341644,-0.9705274701118469,0.015747040510177612,0.032605886459350586,-0.020927608013153076,0.9923014890811429,0.11932832279649842,0.022294060556887044,0.024527735648530325
1681501363134807000,2.89180712890625,0.10567553341388702,-0.006720853038132191,0.06690056622028351,0.038127351552248,-0.23919528722763062,-0.9702225923538208,0.011936742812395096,0.006986930966377258,-0.007163822650909424,0.99221748644908,0.11998005283259842,0.022214346104827747,0.02481901585472135
1681501363144805000,2.90180517578125,0.06889461725950241,0.0094123100861907,0.06907077878713608,0.03796591982245445,-0.24004974961280823,-0.9700179100036621,0.0025003962218761444,-0.013322532176971436,0.01172018051147461,0.992157384227435,0.12041113650125966,0.02218585570142249,0.02515464991395903
1681501363154803000,2.911802978515625,0.055327143520116806,0.028803052380681038,0.07128626108169556,0.03796233981847763,-0.2406463474035263,-0.9698702096939087,-0.009245291352272034,-0.017929181456565857,0.021429717540740967,0.9921110903794222,0.1207081532484617,0.02223603355910719,0.025511498532707472
1681501363164801000,2.921801025390625,0.043280452489852905,0.029559455811977386,0.07347078621387482,0.03808346763253212,-0.24109739065170288,-0.9697534441947937,-0.010037802159786224,-0.012030750513076782,0.0216943621635437,0.9920720196832334,0.12092900179340323,0.02234873458225979,0.025881472411562263
1681501363174799000,2.931799072265625,0.01761423796415329,0.026528246700763702,0.08151938766241074,0.03819798678159714,-0.2413741499185562,-0.9696800708770752,-0.007024277001619339,-0.00568099319934845,0.02067500352859497,0.9920433303644987,0.12106029579184394,0.02245815060178989,0.02627174610343553
1681501363184797000,2.941796875,0.01798253506422043,0.0526062548160553,0.11362026631832123,0.03836221992969513,-0.24141912162303925,-0.9696623682975769,-0.004914943128824234,-0.005224049091339111,0.01421809196472168,0.9920253249982305,0.12106973901714524,0.022603544521322367,0.02677943356721787
1681501363194795000,2.951794921875,0.09075314551591873,0.02734270878136158,0.07254873216152191,0.038654495030641556,-0.24181713163852692,-0.9695516228675842,-0.002887886017560959,0.00484803318977356,0.0053945183753967285,0.9919839032569048,0.12125824090974217,0.022817438014605212,0.027274717945731886
1681501363204793000,2.96179296875,0.14857794344425201,0.020389260724186897,0.036908648908138275,0.03883887827396393,-0.24290381371974945,-0.9692725539207458,-0.0007529295980930328,0.015196815133094788,-0.0017204880714416504,0.9919066764233516,0.12180589354152058,0.022957543732242753,0.027521666001530148
1681501363214792000,2.9717919921875,0.17823383212089539,0.01649092510342598,0.03586016222834587,0.039046965539455414,-0.2444602996110916,-0.9688727855682373,0.0007784813642501831,0.020583242177963257,-0.01206892728805542,0.991801237247572,0.12259536636478403,0.023107902727964147,0.027692437374760816
1681501363224790000,2.9817900390625,0.1761862188577652,0.004497579764574766,0.033462051302194595,0.039069391787052155,-0.24625293910503387,-0.9684178233146667,0.0034263357520103455,0.034048885107040405,-0.013073205947875977,0.9916822219474584,0.12350869138408412,0.023166623176372646,0.027846069187972985
1681501363234788000,2.9917880859375,0.09333235025405884,-0.0065153902396559715,0.030468124896287918,0.03890620172023773,-0.24766668677330017,-0.9680638313293457,0.0037116073071956635,0.028809770941734314,-0.007262706756591797,0.9915888118380365,0.1242309076450294,0.023125311854386467,0.02799384087904137
1681501363244786000,3.001785888671875,0.014254426583647728,-0.008523613214492798,0.02074379287660122,0.03868173807859421,-0.24819190800189972,-0.9679383039474487,0.009337682276964188,0.0014877021312713623,-0.0018187761306762695,0.9915537890689248,0.12449984050740523,0.023035805859676566,0.028115475572440398
1681501363254784000,3.011783935546875,-0.010892737656831741,-0.009402722120285034,0.010056527331471443,0.03850499168038368,-0.24819418787956238,-0.9679447412490845,0.013298600912094116,-0.01868210732936859,0.013400733470916748,0.9915533334804774,0.12450174053366471,0.022955384271043076,0.028184280553012843
1681501363264782000,3.021781982421875,0.008462767116725445,0.0030201910994946957,0.011493236757814884,0.03840284049510956,-0.24815432727336884,-0.9679589867591858,0.011798582971096039,-0.03085273504257202,0.026430726051330566,0.9915556178592556,0.12448159582243043,0.02290906480489328,0.028230610701863265
1681501363274780200,3.0317802734375,0.030776329338550568,-0.003840644843876362,0.012512960471212864,0.03835158795118332,-0.248383030295372,-0.9679023623466492,0.008126694709062576,-0.029510140419006348,0.022681474685668945,0.9915398954669833,0.12459813218326568,0.02289348643173554,0.028283022219099552
1681501363284777200,3.041777099609375,0.009750123135745525,-0.0016831513494253159,0.018759338185191154,0.038272250443696976,-0.24852024018764496,-0.96787029504776,0.006817474961280823,-0.0193173885345459,0.011556267738342285,0.9915293879378464,0.12466745152189812,0.022866405977174542,0.02836816935257544
1681501363294775300,3.051775390625,0.01944056712090969,-0.003231512848287821,0.00814717449247837,0.038213226944208145,-0.2485823780298233,-0.9678567051887512,0.005518469959497452,-0.006895631551742554,-0.0025565028190612793,0.9915239634709164,0.12469842586045489,0.022846463654153954,0.028438230929523016
1681501363304773000,3.061773193359375,0.04862227290868759,0.004375074524432421,0.004749712999910116,0.03822457417845726,-0.24879401922225952,-0.9678018689155579,0.006697308272123337,0.0049889832735061646,0.0016611218452453613,0.9915094585877093,0.12480612644834936,0.02285838398778764,0.028460270150602967
1681501363314771200,3.071771240234375,0.08094292879104614,0.01494462788105011,0.008620351552963257,0.03833421692252159,-0.24934817850589752,-0.9676548838615417,0.0022846870124340057,0.012669011950492859,-0.00004220008850097656,0.9914716688702386,0.12508779368685796,0.022925975873612035,0.028486769385593552
1681501363324769300,3.081769287109375,0.08786967396736145,0.018533769994974136,0.006687162443995476,0.03855662792921066,-0.2501830458641052,-0.9674305319786072,-0.0021186359226703644,0.02507004141807556,0.0029377341270446777,0.9914140870907574,0.12551157884351555,0.023055980279107068,0.028520944752025903
1681501363334768400,3.091768310546875,0.06941503286361694,0.01891779899597168,0.008495449088513851,0.038826607167720795,-0.251008540391922,-0.9672058820724487,-0.007515568286180496,0.03173968195915222,0.002774178981781006,0.9913564931415272,0.1259300047234316,0.023209783649346755,0.02855447827310068
1681501363344766200,3.10176611328125,0.04337982088327408,0.012487396597862244,0.016163155436515808,0.039053451269865036,-0.2516741156578064,-0.9670237898826599,-0.006262306123971939,0.018962234258651733,0.002958238124847412,0.9913089705106082,0.12626661619042703,0.023342161877799604,0.02861064224720727
1681501363354764300,3.111764404296875,-0.07133796811103821,0.004777544643729925,0.03559171408414841,0.039121367037296295,-0.2516719102859497,-0.9670215845108032,-0.0011422261595726013,-0.0037603378295898438,0.005855262279510498,0.9913048233098606,0.12626163477049,0.02339223870376157,0.028735222950636023
1681501363364762400,3.121762451171875,-0.10847318917512894,0.010650213807821274,0.03998339921236038,0.039162516593933105,-0.25079870223999023,-0.9672467708587646,0.004492882639169693,-0.01771029829978943,0.009010136127471924,0.991355374389324,0.12580880589325344,0.023425598566208204,0.028947378713408637
1681501363374760200,3.13176025390625,-0.07281745970249176,0.002212520921602845,0.028210896998643875,0.03916194662451744,-0.24995136260986328,-0.9674661159515381,0.006812795996665955,-0.021426305174827576,0.017789602279663086,0.991405498957104,0.12537068919383657,0.023433693822616453,0.029124195111507257
1681501363384758300,3.14175830078125,-0.022673679515719414,-0.000796251930296421,0.021176090463995934,0.03916722908616066,-0.24947470426559448,-0.9675889015197754,0.005464736372232437,-0.026404306292533875,0.015028536319732666,0.9914327202262277,0.12512348712601648,0.023444733897717496,0.029253195891394343
1681501363394756000,3.151756103515625,0.03545966371893883,-0.002397877164185047,0.007575592957437038,0.03913266956806183,-0.24951215088367462,-0.9675806760787964,0.007162507623434067,-0.009917885065078735,0.0019587278366088867,0.9914284664384113,0.12514140824723197,0.023437127833887933,0.029326030521439568
1681501363404754200,3.161754150390625,0.055280376225709915,-0.012573283165693283,0.001446061534807086,0.03903165087103844,-0.24991096556186676,-0.967481791973114,0.00703464075922966,0.014986544847488403,-0.003724813461303711,0.9914034189156742,0.1253468657597949,0.023393545217141983,0.029331525814601942
1681501363414752300,3.171752197265625,0.059247419238090515,-0.017622370272874832,-0.00033772375900298357,0.03882535174489021,-0.25039803981781006,-0.9673641920089722,0.0034720227122306824,0.018327027559280396,-0.011166691780090332,0.9913740695865123,0.12559933737159734,0.023296463759012117,0.029322080280723563
1681501363424750000,3.18175,0.03849763423204422,-0.023032449185848236,-0.0017298911698162556,0.03859283775091171,-0.25084954500198364,-0.967256486415863,0.0018429532647132874,0.01098129153251648,-0.007825851440429688,0.9913477224668031,0.1258344387976022,0.023182987204423366,0.029292313648237863
1681501363434748200,3.191748046875,-0.011665936559438705,-0.017014503479003906,0.005653190426528454,0.03839314356446266,-0.2510169446468353,-0.9672210216522217,0.0018900670111179352,0.002161264419555664,0.004376232624053955,0.9913388422386066,0.12592292421719048,0.02308492871032738,0.029291048415639384
1681501363444746200,3.201746337890625,-0.05034681782126427,-0.013416572473943233,0.007460144814103842,0.03827245905995369,-0.2507529854774475,-0.9672942757606506,-0.0009341910481452942,-0.006098330020904541,0.008660852909088135,0.9913564805297136,0.12578868869275506,0.023023410109031528,0.029320415580661813
1681501363454745300,3.211745361328125,-0.06735749542713165,-0.008764829486608505,0.003983920905739069,0.03822034224867821,-0.2502502202987671,-0.9674264788627625,-0.0011719949543476105,-0.013116568326950073,0.014927148818969727,0.9913891697694542,0.12553148911283818,0.022991190225629142,0.02933961159863746
1681501363464743200,3.2217431640625,-0.06953489780426025,-0.007764013018459082,0.006213785614818335,0.03817399963736534,-0.24964487552642822,-0.9675847291946411,0.0014530830085277557,-0.020420536398887634,0.022272229194641113,0.9914283901932787,0.12522162866683123,0.02296053064446619,0.02936171150699543
1681501363474741200,3.2317412109375,-0.05176149308681488,-0.006806606892496347,0.00565798394382,0.03816422447562218,-0.2491023689508438,-0.9677249193191528,-0.00027664005756378174,-0.019666045904159546,0.016812443733215332,0.9914627553198992,0.12494321256712526,0.022950773369240063,0.029395145359757582
1681501363484739300,3.2417392578125,-0.0579257607460022,-0.007172591518610716,0.006554470397531986,0.0381411574780941,-0.2485426664352417,-0.9678696990013123,0.001913171261548996,-0.004905924201011658,0.008503913879394531,0.9914981507294314,0.12465611479586947,0.022934531608424957,0.029432705502782205
1681501363494737200,3.251737060546875,-0.05258319154381752,-0.008229866623878479,-0.0018656456377357244,0.03808049485087395,-0.24796752631664276,-0.9680196046829224,0.0038354061543941498,0.005016982555389404,0.0029928088188171387,0.9915356413647889,0.1243622484289444,0.02289585830917069,0.029444731029724357
1681501363504735200,3.2617353515625,-0.040938254445791245,-0.008145976811647415,-0.0005271410336717963,0.03801194205880165,-0.2474900782108307,-0.9681444764137268,0.006467435508966446,0.0050583332777023315,0.002873539924621582,0.9915675030437019,0.12411908448542759,0.022851809379393486,0.02943254184773124
1681501363514733000,3.271733154296875,-0.01924654096364975,-0.008087653666734695,-0.0016488645924255252,0.03795105218887329,-0.24719379842281342,-0.9682225584983826,-0.0009027011692523956,0.0017255544662475586,0.0017461776733398438,0.9915872710498194,0.12396834088062149,0.022815860660537916,0.02943001939562806
1681501363524731100,3.281731201171875,0.0007159815286286175,-0.0027765114791691303,-0.003522664774209261,0.03789477050304413,-0.2471415102481842,-0.968238115310669,-0.00537828728556633,0.005838930606842041,0.0022805333137512207,0.991591466824719,0.12394262788367863,0.022785163176696863,0.02941834924149908
1681501363534729200,3.291729248046875,0.003549318527802825,-0.0035067503340542316,-0.009356585331261158,0.03788437694311142,-0.24722810089588165,-0.9682164192199707,-0.006603851914405823,0.011739134788513184,0.0014196038246154785,0.9915871454813883,0.12398798094488163,0.022776522220874684,0.02937960765338802
1681501363544727000,3.30172705078125,-0.0275467149913311,-0.0015758257359266281,-0.00299016572535038,0.037869613617658615,-0.24717234075069427,-0.9682312607765198,-0.00542941689491272,0.016459345817565918,0.0014191269874572754,0.9915918547522274,0.12396035322139048,0.0227642391150512,0.029348311201825645
1681501363554725000,3.31172509765625,-0.011411687359213829,-0.009361311793327332,-0.005860520526766777,0.03784094378352165,-0.2470235526561737,-0.9682703018188477,-0.0025321021676063538,0.012450084090232849,0.0020685791969299316,0.9916022063190079,0.12388500077138416,0.022745132451718376,0.02933083973432716
1681501363564723200,3.32172314453125,0.021830637007951736,-0.011997375637292862,-0.01428696233779192,0.037783533334732056,-0.24709098041057587,-0.9682554006576538,0.0017214789986610413,-0.0013832449913024902,0.007104277610778809,0.991600296050071,0.1239216715103569,0.02270975668736286,0.029270376792898813
1681501363574722300,3.331722412109375,0.013054190203547478,-0.012712700292468071,-0.013522634282708168,0.037721000611782074,-0.24728918075561523,-0.9682071805000305,0.002852126955986023,-0.009668931365013123,0.001715540885925293,0.9915905096351859,0.12402585686063436,0.022671224387197802,0.029188038836838327
1681501363584720100,3.34172021484375,-0.014056573621928692,-0.008180065080523491,-0.016900520771741867,0.03770383447408676,-0.24726352095603943,-0.9682144522666931,0.0038611143827438354,0.0008034706115722656,-0.0017715096473693848,0.9915945733372042,0.1240147515063592,0.022652370524184295,0.029109849787284772
1681501363594718200,3.35171826171875,-0.03674191236495972,-0.008665826171636581,-0.01805047318339348,0.037651777267456055,-0.24699145555496216,-0.968285858631134,0.0038673952221870422,0.004727572202682495,0.005639433860778809,0.9916153924380454,0.12387840935261496,0.022609654636466397,0.02901387965445662
1681501363604716300,3.36171630859375,-0.0357658788561821,-0.0124043058604002,-0.011444836854934692,0.037558041512966156,-0.24660421907901764,-0.9683881998062134,0.0020843036472797394,-0.009026378393173218,0.012135207653045654,0.9916433370246377,0.12368307802747848,0.022547321175985038,0.028943983339657805
1681501363614714000,3.371714111328125,-0.015757551416754723,-0.008143248036503792,-0.011181450448930264,0.03743932023644447,-0.2463107705116272,-0.9684674739837646,-0.0007114075124263763,-0.014675647020339966,0.013969242572784424,0.991664870377015,0.12353579560949063,0.022475701998004884,0.02888801877789069
1681501363624712200,3.381712158203125,0.0014017121866345406,-0.014425843954086304,-0.014645756222307682,0.037315841764211655,-0.24620631337165833,-0.9684988260269165,0.00014449283480644226,-0.005289137363433838,0.00891941785812378,0.9916746867777079,0.12348543816203662,0.022403811505368826,0.028824222737370613
1681501363634710300,3.391710205078125,0.007737106177955866,-0.019480258226394653,-0.014525380916893482,0.037176888436079025,-0.24622181057929993,-0.9685002565383911,0.00011559948325157166,0.004644572734832764,0.0004979372024536133,0.9916774498373353,0.12349705080339765,0.022323964080274518,0.02874341254588967
1681501363644708000,3.4017080078125,0.010711806826293468,-0.022370919585227966,-0.01599671132862568,0.03705165162682533,-0.24632613360881805,-0.9684785008430481,0.004345446825027466,0.009723275899887085,-0.005367875099182129,0.9916745130779822,0.12355417296815133,0.022251171793065634,0.028652165971177302
1681501363654706200,3.4117060546875,0.01240664254873991,-0.017129018902778625,-0.020016219466924667,0.03692832589149475,-0.2464631199836731,-0.9684483408927917,0.005491115152835846,0.008441165089607239,-0.0026972293853759766,0.9916698123364008,0.12362817453174717,0.022178669711642007,0.028551377037848925
1681501363664704000,3.4217041015625,0.010091740638017654,-0.013435682281851768,-0.017353923991322517,0.03685932233929634,-0.24656769633293152,-0.968424379825592,0.0035154372453689575,0.0060585737228393555,0.0009104013442993164,0.991666818939933,0.12368495490215199,0.022132442926068897,0.028446050123395933
1681501363674702000,3.4317021484375,-0.002128707244992256,-0.014772322028875351,-0.019624536857008934,0.03680851310491562,-0.24659574031829834,-0.9684191942214966,0.0028796084225177765,0.006483346223831177,0.007237553596496582,0.9916683315017044,0.12370215987830666,0.022095094879660777,0.028348331628312008
1681501363684700200,3.4417001953125,-0.011397672817111015,-0.014697352424263954,-0.021779432892799377,0.036750923842191696,-0.24655374884605408,-0.9684320688247681,0.0038832426071166992,0.00401519238948822,0.009783387184143066,0.9916748051319474,0.12368394957723294,0.02205125031527129,0.02823493209331503
1681501363694699300,3.45169921875,-0.008901492692530155,-0.015353554859757423,-0.021152790635824203,0.03666257485747337,-0.24650633335113525,-0.9684474468231201,0.0060925595462322235,-0.003112301230430603,0.010912716388702393,0.9916818351245071,0.12366333801789077,0.021991986078782347,0.028122850444069022
1681501363704697000,3.461697021484375,-0.006341461557894945,-0.014438494108617306,-0.018402544781565666,0.03656641021370888,-0.24644875526428223,-0.9684657454490662,0.006722785532474518,-0.00678621232509613,0.0064144134521484375,0.991689461462645,0.12363745519012052,0.02192948824631027,0.028017698562308024
1681501363714695200,3.471695068359375,-0.004302545450627804,-0.013481087051331997,-0.023491844534873962,0.03647926449775696,-0.24637524783611298,-0.9684877395629883,0.006001211702823639,-0.004235178232192993,-0.00014013051986694336,0.9916981703961641,0.12360339794600066,0.021870692051997036,0.027907754857066758
1681501363724693200,3.481693359375,0.0008696792647242546,-0.008580738678574562,-0.020993666723370552,0.03645579144358635,-0.24632583558559418,-0.9685012102127075,0.0019505880773067474,0.005267396569252014,0.0017348527908325195,0.9917048596215338,0.123581015265641,0.021843400580943303,0.027789961863136228
1681501363734691000,3.491691162109375,-0.005316844210028648,-0.0074587478302419186,-0.015846043825149536,0.03647523373365402,-0.24629606306552887,-0.9685080647468567,0.0011529475450515747,0.009967848658561707,0.0057089924812316895,0.9917093123623191,0.12356768750297993,0.02184052731364043,0.02769200496201551
1681501363744689200,3.501689208984375,-0.019083639606833458,0.00024304678663611412,-0.014758608303964138,0.03650043532252312,-0.24616365134716034,-0.9685407280921936,-0.0014509856700897217,0.006951510906219482,0.008000016212463379,0.991719836840631,0.1235014217957345,0.021840875994489594,0.02760950330648884
1681501363754687200,3.511687255859375,-0.0036245216615498066,-0.007862551137804985,-0.015729330480098724,0.03652619943022728,-0.24602961540222168,-0.968573808670044,-0.0022396892309188843,0.0011259466409683228,0.01001673936843872,0.991730523738955,0.12343437757819305,0.02184118131746419,0.027524474544215374
1681501363764685000,3.52168505859375,0.017950478941202164,-0.01578598842024803,-0.005932359490543604,0.036457084119319916,-0.2460959404706955,-0.9685595631599426,-0.0017891041934490204,-0.0031259506940841675,0.006340384483337402,0.9917287840072084,0.12347066901127109,0.021799083389942662,0.027457825609513965
1681501363774683100,3.53168310546875,0.02154574729502201,-0.016484534367918968,-0.005015965551137924,0.03635038062930107,-0.2463114857673645,-0.968508780002594,0.0018881559371948242,-0.003185063600540161,0.00026237964630126953,0.9917171719874888,0.12358329456700928,0.021743207191625126,0.027414074568181145
1681501363784681000,3.541680908203125,0.02110148034989834,-0.015360214747488499,-0.01589597761631012,0.03625917062163353,-0.24652314186096191,-0.968458354473114,0.0036120526492595673,0.004533901810646057,-0.002397298812866211,0.9917062554440995,0.12369423045387054,0.02169221735562486,0.027347450182101603
1681501363794679000,3.551678955078125,0.014533060602843761,-0.017587684094905853,-0.02684263326227665,0.03619740158319473,-0.24669073522090912,-0.9684180021286011,0.0037195980548858643,0.00792112946510315,-0.0001640915870666504,0.9916993359288886,0.12378334944406637,0.0216490306060818,0.027230064666541137
1681501363804678100,3.56167822265625,0.008295903913676739,-0.011447364464402199,-0.02237238548696041,0.03613131865859032,-0.24678660929203033,-0.9683960676193237,-0.0019211061298847198,0.0043701231479644775,0.0041168928146362305,0.991697338940443,0.12383610876856307,0.0216008458966027,0.02709905238154973
1681501363814676200,3.57167626953125,0.00005954562220722437,-0.007127983961254358,-0.025005454197525978,0.03611885383725166,-0.24678650498390198,-0.9683965444564819,-0.0031140856444835663,0.0034392327070236206,0.009427428245544434,0.9917009191983241,0.12383884929506009,0.02157934939492953,0.02697726660796473
1681501363824674000,3.581674072265625,-0.0217119287699461,-0.00452101556584239,-0.029611123725771904,0.03612467646598816,-0.24666523933410645,-0.9684272408485413,-0.006385285407304764,0.0006324201822280884,0.01307445764541626,0.9917121338180818,0.1237796096105315,0.021563889322639813,0.02684475288085991
1681501363834672000,3.591672119140625,-0.05041974037885666,-0.006247276905924082,-0.025163112208247185,0.03612864017486572,-0.2463015913963318,-0.9685196280479431,-0.005687348544597626,-0.002859249711036682,0.01029825210571289,0.9917389160373874,0.12359624864153021,0.02154435498218324,0.026716471732858273
1681501363844670200,3.601670166015625,-0.07363566011190414,-0.012052901089191437,-0.026656944304704666,0.03608640283346176,-0.24567419290542603,-0.9686805605888367,-0.0016320496797561646,-0.009605452418327332,0.00775831937789917,0.9917827390561718,0.12327829953302853,0.021498711529047466,0.026597138851521252
1681501363854668000,3.61166796875,-0.0738828033208847,-0.015287043526768684,-0.02590326964855194,0.036040812730789185,-0.2449553906917572,-0.9688642621040344,0.0015568546950817108,-0.01789259910583496,0.010185062885284424,0.9918325625537581,0.122913912466989,0.021448717856613116,0.026466732605642928
1681501363864666000,3.621666015625,-0.07420971989631653,-0.013397730886936188,-0.01957646571099758,0.03599200397729874,-0.24423177540302277,-0.9690487384796143,0.0009190179407596588,-0.01852467656135559,0.009804964065551758,0.991881957460733,0.12254676915585974,0.021399321655710367,0.02635400821142755
1681501363874664200,3.631664306640625,-0.06527375429868698,-0.01829581707715988,-0.025150461122393608,0.035917337983846664,-0.2435302734375,-0.9692280292510986,0.000810578465461731,-0.010086163878440857,0.003453493118286133,0.991930114311508,0.1221912251461304,0.02133761261125697,0.026243715080080544
1681501363884662300,3.641662353515625,-0.05640769004821777,-0.01869875192642212,-0.026042087003588676,0.0357997827231884,-0.2429177612066269,-0.9693860411643982,0.0037815235555171967,-0.0007346868515014648,0.00014781951904296875,0.9919734237219241,0.12188226493015468,0.021252840973001546,0.026110138931243133
1681501363894660400,3.651660400390625,-0.05337807908654213,-0.01702921837568283,-0.02450943924486637,0.03567657992243767,-0.24238954484462738,-0.9695228338241577,0.002821352332830429,0.0030553340911865234,-0.00037157535552978516,0.9920113094505175,0.12161633236089754,0.021167348983093703,0.025983025502926
1681501363904658200,3.661658203125,-0.054627735167741776,-0.016659172251820564,-0.02550479583442211,0.035533640533685684,-0.24187126755714417,-0.9696574807167053,0.0030253268778324127,0.002689659595489502,0.0008312463760375977,0.9920485746298201,0.1213557200621375,0.02107227579378665,0.025857047475117044
1681501363914656300,3.67165625,-0.06205928698182106,-0.016594456508755684,-0.02508188597857952,0.035408612340688705,-0.2413245439529419,-0.9697982668876648,0.0012277550995349884,0.005499854683876038,0.0012924671173095703,0.9920873451823017,0.12108044815934052,0.02098538890211852,0.025726972571604518
1681501363924655000,3.681655029296875,-0.06771760433912277,-0.011108211241662502,-0.02208756096661091,0.035321030765771866,-0.24072875082492828,-0.9699495434761047,0.0021850764751434326,0.0053313374519348145,0.007760882377624512,0.9921287035439165,0.12077951442907052,0.02091750364309189,0.02560318081092205
1681501363934653200,3.691653076171875,-0.07647701352834702,-0.007919608615338802,-0.020912040024995804,0.035299960523843765,-0.24008816480636597,-0.9701090455055237,0.0014126971364021301,0.0015779286623001099,0.011170506477355957,0.9921715282823174,0.12045452906774744,0.020884866970165564,0.025498341268336458
1681501363944651000,3.701651123046875,-0.08969605714082718,-0.008876815438270569,-0.02042648009955883,0.03526715189218521,-0.23932971060276031,-0.970297634601593,0.0010487735271453857,-0.001499861478805542,0.012152552604675293,0.9922217982953278,0.1200694517392401,0.020844732083404066,0.02539381997572117
1681501363954649000,3.711649169921875,-0.07762820273637772,-0.009081346914172173,-0.020858444273471832,0.03523891046643257,-0.23852390050888062,-0.9704970717430115,0.002465568482875824,-0.0033737868070602417,0.01158905029296875,0.992274414729508,0.11965988221111626,0.020807997980042712,0.02530328579204804
1681501363964647200,3.721647216796875,-0.05007882043719292,-0.006085223518311977,-0.018226509913802147,0.035244230180978775,-0.23790214955806732,-0.9706494808197021,0.002948526293039322,-0.007474526762962341,0.009864568710327148,0.9923152513306226,0.11934418075151085,0.020790034694257734,0.025205690708142787
1681501363974645200,3.731645263671875,-0.02525416761636734,-0.008177668787539005,-0.014481572434306145,0.03523654118180275,-0.2375173717737198,-0.9707440137863159,0.002391647547483444,-0.0010386407375335693,0.002756953239440918,0.9923409761220644,0.11914932524523271,0.02077126074027515,0.025127317892196695
1681501363984643300,3.741643310546875,0.014672559686005116,-0.005357980728149414,-0.013365374878048897,0.03521697223186493,-0.23749159276485443,-0.9707509875297546,0.002640094608068466,0.012073397636413574,-0.004377126693725586,0.99234460820273,0.1191379075162213,0.020752279956346677,0.025054389881233777
1681501363994641400,3.751641357421875,0.02935083769261837,-0.004197907634079456,-0.011505955830216408,0.035207562148571014,-0.2377132624387741,-0.9706971049308777,0.004724700003862381,0.017986610531806946,-0.0055449604988098145,0.9923328565368023,0.11925271084978856,0.020742366459750965,0.024985174276871466
1681501364004639200,3.76163916015625,0.024539504200220108,-0.004476740024983883,-0.014655676670372486,0.035210661590099335,-0.23797795176506042,-0.9706321358680725,0.002325974404811859,0.019258365035057068,-0.0014900565147399902,0.9923183994161107,0.11938953660589512,0.02073833578515924,0.024907557799922948
1681501364014637300,3.77163720703125,0.009805033914744854,-0.0015304852277040482,-0.01675105281174183,0.0352279394865036,-0.23814235627651215,-0.9705911874771118,0.00043185800313949585,0.018934503197669983,0.0014292001724243164,0.9923099885471115,0.11947495522920717,0.02074009955332342,0.024830623743803102
1681501364024635100,3.78163525390625,-0.007289080880582333,-0.0017970013432204723,-0.011818943545222282,0.03525763377547264,-0.23817236721515656,-0.9705827236175537,-0.0014594011008739471,0.009900778532028198,0.003984212875366211,0.99230963016259,0.11949134282261918,0.020747366453010372,0.024763262261670152
1681501364034633200,3.79163330078125,-0.024904293939471245,-0.004930476658046246,-0.004951184615492821,0.03525256738066673,-0.23803257942199707,-0.9706171751022339,0.0010633617639541626,-0.0033157914876937866,0.007772386074066162,0.9923192899214845,0.11942087969655373,0.020737695841906097,0.024720397585643233
1681501364044632300,3.80163232421875,-0.026445066556334496,-0.002321643754839897,-0.005575695540755987,0.03525345027446747,-0.2377878725528717,-0.9706771373748779,0.0019780024886131287,-0.008367016911506653,0.007588207721710205,0.9923350951635794,0.11929637413917293,0.020731600229528455,0.024694542133349724
1681501364054630400,3.81163037109375,-0.019699012860655785,0.00033885426819324493,0.002529901685193181,0.03527310490608215,-0.2375577688217163,-0.9707328081130981,0.0021261945366859436,-0.005758985877037048,0.008101582527160645,0.9923493101156382,0.11917873853558718,0.02073737178926948,0.024686988355602773
1681501364064628200,3.821628173828125,-0.01400227751582861,0.0006678877398371696,-0.00019224855350330472,0.035276319831609726,-0.2373584657907486,-0.9707813858985901,0.0015889182686805725,-0.005500525236129761,0.007646679878234863,0.992361234250042,0.11907661122303799,0.020737752813865713,0.024699908241567578
1681501364074626300,3.831626220703125,-0.005136881023645401,-0.0009840712882578373,-0.0003712129546329379,0.0353078655898571,-0.2372126579284668,-0.970815896987915,0.002564452588558197,0.0012048929929733276,0.0027373433113098145,0.9923698686062211,0.11900173954638736,0.020751738598513137,0.024701050824245455
1681501364084624400,3.841624267578125,0.012361069209873676,-0.0031912322156131268,-0.0016858158633112907,0.0353088416159153,-0.237217515707016,-0.9708147048950195,0.002365119755268097,0.007267475128173828,0.0009660720825195312,0.9923697561828697,0.11900439938768634,0.02075123843579702,0.024692202255331627
1681501364094622200,3.851622314453125,0.030441271141171455,-0.00345248868688941,0.003933453932404518,0.035280752927064896,-0.23737595975399017,-0.9707769751548767,0.0017981082201004028,0.00789894163608551,-0.0027031898498535156,0.9923600787833011,0.1190855487497808,0.020739996676729534,0.024697937496994355
1681501364104620300,3.861620361328125,0.03678635135293007,-0.00638396292924881,0.005005509592592716,0.03521715849637985,-0.23769228160381317,-0.9707018733024597,0.0025330930948257446,0.011282280087471008,-0.003007173538208008,0.9923407854123026,0.11924756790092592,0.020714226430488872,0.024713231602242133
1681501364114618400,3.871618408203125,0.03522787243127823,-0.004683001898229122,0.003962881863117218,0.035168539732694626,-0.23807238042354584,-0.970610499382019,0.0023070499300956726,0.009816065430641174,-0.0033121705055236816,0.9923176671979683,0.11944226515476708,0.020695461251627273,0.02471655374864576
1681501364124616200,3.8816162109375,0.033378537744283676,-0.009273892268538475,0.003449824173003435,0.03510616347193718,-0.2384221851825714,-0.9705268740653992,0.0017285607755184174,0.004596397280693054,-0.0001761913299560547,0.9922964155468806,0.11962147408715852,0.020670294980650823,0.024727822185993387
1681501364134614300,3.8916142578125,0.023360522463917732,-0.007128982339054346,-0.0003089616075158119,0.035031188279390335,-0.23871713876724243,-0.9704570770263672,0.0028258711099624634,0.00020691752433776855,0.004896223545074463,0.9922786071261124,0.11977296584272108,0.020637250508607367,0.024732687593642708
1681501364144612400,3.9016123046875,0.011415746994316578,-0.0034526214003562927,-0.0011165651958435774,0.03499845787882805,-0.23888814449310303,-0.9704161882400513,0.0030111931264400482,-0.00020191073417663574,0.006915271282196045,0.9922684385731801,0.11986086361377124,0.02062241579351439,0.024726531581064134
1681501364154611200,3.911611083984375,0.002654479816555977,0.006617323029786348,-0.006207996513694525,0.03504641354084015,-0.23894956707954407,-0.9703993201255798,-0.00021058693528175354,0.00013415515422821045,0.01338338851928711,0.9922645751880816,0.11989189003264114,0.020646236128164974,0.024716613893316773
1681501364164609300,3.921609375,-0.017841124907135963,0.004744521342217922,-0.0015612465795129538,0.035126328468322754,-0.23886466026306152,-0.970417320728302,-0.0033117420971393585,0.0003391653299331665,0.013630270957946777,0.9922693186293614,0.11984773649266825,0.02068442309886692,0.024709306124276423
1681501364174607400,3.931607421875,-0.03173057362437248,0.0017873470205813646,0.0014092433266341686,0.035172946751117706,-0.2385915070772171,-0.9704828262329102,-0.006043910980224609,-0.0019176304340362549,0.011849462985992432,0.9922855437193051,0.11970744609024983,0.020705112455957474,0.02471785472318488
1681501364184605200,3.941605224609375,-0.023348959162831306,0.004113418981432915,0.0015479275025427341,0.03520818054676056,-0.2382780909538269,-0.9705585837364197,-0.005026288330554962,-0.007632628083229065,0.012749195098876953,0.9923042969270649,0.1195466227144778,0.02072001805865125,0.024730706012966546
1681501364194603300,3.951603271484375,-0.013963977806270123,-0.002128231804817915,-0.001085938885807991,0.03523237630724907,-0.23805545270442963,-0.9706123471260071,-0.0017088092863559723,-0.00907599925994873,0.00962907075881958,0.9923178330800595,0.1194325973303919,0.020728996589368283,0.024729973336956406
1681501364204601300,3.961601318359375,-0.0055074263364076614,-0.005540073849260807,-0.00034524715738371015,0.03520148620009422,-0.23796088993549347,-0.9706366062164307,0.0012365169823169708,-0.0023041069507598877,0.0010779500007629395,0.9923241562190185,0.11938482954708694,0.020710998386810373,0.024720737058074316
1681501364214599200,3.97159912109375,0.0018048149067908525,-0.004903579130768776,-0.004846255760639906,0.035179514437913895,-0.23795385658740997,-0.970639169216156,0.004554376006126404,0.00756131112575531,-0.0010862946510314941,0.9923253874870743,0.11938201746238343,0.020696827762079182,0.02469576126793982
1681501364224597200,3.98159716796875,-0.004510622005909681,-0.007858023047447205,-0.004591724369674921,0.035166848450899124,-0.23793482780456543,-0.9706442952156067,0.004521269351243973,0.008396774530410767,0.0012076497077941895,0.9923274089672888,0.11937299826324412,0.020686919269958526,0.024668672674249898
1681501364234595300,3.99159521484375,-0.014704936183989048,-0.0038523622788488865,-0.004338724073022604,0.03511315956711769,-0.2378375232219696,-0.9706700444221497,0.0006687119603157043,0.0044542402029037476,0.0026830434799194336,0.9923345663777967,0.11932442733380103,0.020655390407075768,0.024642715502007573
1681501364244593200,4.00159326171875,-0.018637560307979584,-0.005427888128906488,-0.00687059061601758,0.035068850964307785,-0.23767229914665222,-0.9707121253013611,-0.00029405951499938965,-0.0003343820571899414,0.006234645843505859,0.9923458892746782,0.11924114318241266,0.020627169681791672,0.02461283242237841
1681501364254591200,4.01159130859375,-0.018964063376188278,-0.003909087274223566,-0.0059747034683823586,0.03500661253929138,-0.23750664293766022,-0.9707549214363098,0.00040904805064201355,-0.0016292035579681396,0.00874936580657959,0.9923573763284508,0.11915785369712203,0.020589836821462877,0.024582265406748304
1681501364264589300,4.02158935546875,-0.01583198457956314,-0.004515223670750856,-0.007308414671570063,0.0349588580429554,-0.237368643283844,-0.9707903861999512,0.000044811517000198364,-0.001751929521560669,0.007350504398345947,0.9923670763541959,0.11908853617017644,0.02056015983931325,0.02455144998205764
1681501364274588200,4.031588134765625,-0.01047583669424057,-0.006474244873970747,-0.010250142775475979,0.03491415083408356,-0.23728115856647491,-0.9708133935928345,0.00381266325712204,0.0017311573028564453,0.005054175853729248,0.9923741158470785,0.11904530779418347,0.02053080739201434,0.02450467735675003
1681501364284586200,4.041586181640625,-0.003895415225997567,-0.004153365734964609,-0.010529441758990288,0.034894295036792755,-0.2372041940689087,-0.9708329439163208,0.0028254427015781403,0.0029511600732803345,0.005027890205383301,0.9923803387676576,0.11900733561019874,0.02051323509397483,0.02445045330095046
1681501364294584300,4.051584228515625,0.0036874033976346254,-0.003912882413715124,-0.007822072133421898,0.03490922600030899,-0.23718109726905823,-0.9708380103111267,0.001803431659936905,0.0008681416511535645,0.004041194915771484,0.9923829234452024,0.11899644767506783,0.020514168026604513,0.024398185714434008
1681501364304582100,4.06158203125,0.012802138924598694,-0.0067824386060237885,-0.004220678936690092,0.03489796072244644,-0.23723912239074707,-0.9708242416381836,0.0003956258296966553,0.004115238785743713,0.002150595188140869,0.9923802637983616,0.11902690803645667,0.02050528775839289,0.024364759571813013
1681501364314580200,4.071580322265625,0.011460971087217331,-0.004944324493408203,-0.004354636184871197,0.03485481068491936,-0.2373482584953308,-0.9707991480827332,-0.0009345114231109619,0.006101205945014954,0.0027205348014831543,0.9923746239775405,0.11908369472399324,0.020481872575614065,0.02433822030626089
1681501364324578300,4.081578369140625,0.007843200117349625,-0.005669769831001759,-0.006289955228567123,0.03482123836874962,-0.2374548465013504,-0.9707742929458618,0.0029442720115184784,0.005368560552597046,0.0010324716567993164,0.9923691174577479,0.119139200105537,0.020462548636939644,0.024305866608761367
1681501364334576000,4.091576171875,0.0005613184766843915,-0.005768573842942715,-0.004682471510022879,0.03477754071354866,-0.23751012980937958,-0.970762312412262,0.0032778866589069366,0.0067513734102249146,0.0010052919387817383,0.9923669244886103,0.11916859708956563,0.020437433187249086,0.024273699165710094
1681501364344574200,4.10157421875,0.00408123480156064,-0.001613842323422432,-0.003744705580174923,0.03476211801171303,-0.23754370212554932,-0.9707546234130859,0.0020268335938453674,0.0035043060779571533,0.006277143955230713,0.9923657442742775,0.11918657024595428,0.020426368057697087,0.024242398144352702
1681501364354572300,4.111572265625,0.00878837238997221,0.00221178843639791,-0.005479488987475634,0.03480343893170357,-0.23759421706199646,-0.970740795135498,0.0023517198860645294,0.001845821738243103,0.010078012943267822,0.9923629152482377,0.1192124469217951,0.020444752272037837,0.024216386776592515
1681501364364570000,4.121570068359375,0.0013689553597941995,0.004028530791401863,0.0006977798766456544,0.03485549986362457,-0.2376524657011032,-0.9707247018814087,-0.00005019083619117737,0.0041318535804748535,0.007940888404846191,0.9923590853302301,0.11924178441700331,0.02047079793183768,0.024208234166367956
1681501364374568200,4.131568115234375,-0.015228662639856339,0.0017320867627859116,0.0007904579397290945,0.0348978191614151,-0.2375832051038742,-0.9707401394844055,0.0017995797097682953,0.0069617778062820435,0.006827175617218018,0.9923628488931237,0.11920582077303245,0.02049179520043771,0.024213471014026294
1681501364384567300,4.1415673828125,-0.015185386873781681,0.005124421324580908,0.004069075454026461,0.03493539243936539,-0.23740576207637787,-0.9707821607589722,0.0018688105046749115,-0.0016690194606781006,0.007815301418304443,0.9923729675971339,0.11911445490962463,0.020510043052836237,0.024228091212119808
1681501364394565000,4.151565185546875,-0.00542916264384985,0.004340652842074633,0.005246459040790796,0.034964222460985184,-0.23729652166366577,-0.9708078503608704,0.0004819519817829132,-0.009194046258926392,0.007764697074890137,0.9923788448892001,0.11905782159148787,0.020525928911224935,0.024251974639213157
1681501364404563200,4.161563232421875,0.006313280668109655,0.003074186621233821,0.003754689358174801,0.03500783070921898,-0.23730434477329254,-0.9708043336868286,0.001033443957567215,-0.004532292485237122,0.0022222399711608887,0.9923774910484296,0.1190608306568614,0.02055085335985542,0.024275740556579942
1681501364414561300,4.171561279296875,0.016441548243165016,0.000250969547778368,-0.0013085126411169767,0.03503754362463951,-0.237405925989151,-0.9707784652709961,0.0021633952856063843,0.006876036524772644,-0.0006113052368164062,0.9923706334233517,0.11911220121964428,0.020568381953132837,0.024285396570529787
1681501364424559000,4.18155908203125,0.021086500957608223,-0.0014678342267870903,-0.0023727116640657187,0.03505054488778114,-0.23758193850517273,-0.9707348942756653,0.0029285885393619537,0.011705979704856873,-0.0026842355728149414,0.9923600277546927,0.1192022439565843,0.020575811828076863,0.024272534713177876
1681501364434557200,4.19155712890625,0.03110557794570923,-0.0043845283798873425,-0.0014792210422456264,0.0350479818880558,-0.2378334105014801,-0.9706734418869019,0.003114253282546997,0.00828009843826294,-0.00007539987564086914,0.9923447990493219,0.11933095654606976,0.020576815597899756,0.024262821447607497
1681501364444555300,4.20155517578125,0.027905574068427086,-0.004778343252837658,-0.004334995523095131,0.0350259393453598,-0.23811817169189453,-0.970604419708252,0.0014273151755332947,0.006016656756401062,0.0031819939613342285,0.9923279070582497,0.11947711619128422,0.020567251305500307,0.024243038074721446
1681501364454553000,4.211552978515625,0.01889903098344803,-0.00530325248837471,-0.00550465565174818,0.03499191999435425,-0.23832640051841736,-0.970554530620575,0.0016596950590610504,0.004851579666137695,0.0037729740142822266,0.9923158987569402,0.11958443068520827,0.02054990495146971,0.024217505183261805
1681501364464551200,4.22155126953125,0.012389698065817356,-0.0052186972461640835,-0.011091567575931549,0.0349758043885231,-0.23848207294940948,-0.9705168604850769,0.0018894411623477936,0.0015587657690048218,0.00521540641784668,0.9923076554951437,0.11966518075918486,0.020537966417880294,0.024168094236098857
1681501364474549200,4.23154931640625,-0.00022755976533517241,-0.007113269995898008,-0.010157065466046333,0.034946274012327194,-0.2385607361793518,-0.9704986214637756,0.002636134624481201,-0.0024519413709640503,0.005380213260650635,0.9923045297729219,0.11970690895789718,0.020517099246754014,0.02410950308020532
1681501364484547000,4.241547119140625,-0.0015693434979766607,-0.009913250803947449,-0.012505240738391876,0.034896377474069595,-0.23856370151042938,-0.9704996943473816,0.0023350790143013,-0.005287110805511475,0.005945861339569092,0.9923061227092902,0.11971020035264852,0.02048495374465334,0.02405105493140124
1681501364494546200,4.251546142578125,-0.00035467580892145634,-0.010515657253563404,-0.009097992442548275,0.034837860614061356,-0.23853044211864471,-0.970509946346283,0.00355326384305954,-0.0024212002754211426,0.006078183650970459,0.9923100558458363,0.11969496812832812,0.02044848918195352,0.023996924106853272
1681501364504544300,4.261544189453125,-0.006059316452592611,-0.008342985063791275,-0.0041879890486598015,0.034775640815496445,-0.2384706735610962,-0.9705268740653992,0.0011283010244369507,0.00023509562015533447,0.00444716215133667,0.9923150635849253,0.11966581693029865,0.02041227192595549,0.02396326955759965
1681501364514542000,4.2715419921875,-0.007789839059114456,-0.009369634091854095,-0.00581944128498435,0.03471509739756584,-0.23838788270950317,-0.9705493450164795,0.0027299821376800537,-0.001098915934562683,0.0029743313789367676,0.9923216553697614,0.11962493892456992,0.02037616908276597,0.023926164252850633
1681501364524540200,4.2815400390625,-0.0002491480263415724,-0.01148291677236557,-0.010007728822529316,0.03462980315089226,-0.23833520710468292,-0.9705653786659241,0.004829436540603638,0.0003743022680282593,0.0029140114784240723,0.9923266806486706,0.1195998467284282,0.020327344676112795,0.02388350922102863
1681501364534538200,4.291538330078125,-0.0065001193434000015,-0.010775048285722733,-0.012694325298070908,0.034581877291202545,-0.23828908801078796,-0.9705783724784851,0.005502969026565552,0.003151044249534607,0.002774477005004883,0.992331443265769,0.11957804176893734,0.020295272335634825,0.02382291422261711
1681501364544536000,4.3015361328125,-0.015673179179430008,-0.012200373224914074,-0.011165670119225979,0.034512341022491455,-0.23817965388298035,-0.9706076979637146,0.0028259269893169403,0.00447593629360199,0.003932952880859375,0.9923404342506177,0.11952421653181917,0.020250895006206922,0.023757622738436582
1681501364554534100,4.3115341796875,-0.01814805530011654,-0.015439043752849102,-0.009462312795221806,0.034426700323820114,-0.2380153387784958,-0.9706510901451111,0.0006837882101535797,0.00034433603286743164,0.004296720027923584,0.9923527451546965,0.11944238523288656,0.02019851072530933,0.023699275802702775
1681501364564532200,4.3215322265625,-0.02454926073551178,-0.012395983561873436,-0.012913635931909084,0.03433457762002945,-0.23780964314937592,-0.9707047343254089,0.003659818321466446,-0.005125641822814941,0.003770589828491211,0.9923677187831992,0.11933954468152949,0.020141934773001958,0.023637734416263087
1681501364574530000,4.331530029296875,-0.030252952128648758,-0.007222259417176247,-0.014291555620729923,0.03430568799376488,-0.237525075674057,-0.9707754254341125,0.0033987872302532196,-0.00614263117313385,0.005626559257507324,0.9923872883616317,0.11919591980270021,0.020114917652394218,0.023565777304181752
1681501364584528100,4.341528076171875,-0.028384579345583916,-0.006932375021278858,-0.014558005146682262,0.03428332135081291,-0.23724593222141266,-0.9708445072174072,-0.0004850924015045166,-0.0021340399980545044,0.008472681045532227,0.9924064780521636,0.1190550920235991,0.02009077143864226,0.02348954872627672
1681501364594526200,4.351526123046875,-0.031092479825019836,-0.009975302964448929,-0.01602221094071865,0.03426587954163551,-0.23696589469909668,-0.9709135293960571,-0.003763549029827118,0.000057831406593322754,0.009152054786682129,0.9924257856837218,0.118913825617339,0.020068670475898057,0.023409614898686572
1681501364604525000,4.361525146484375,-0.036265771836042404,-0.011017531156539917,-0.015904100611805916,0.034239936619997025,-0.23661652207374573,-0.9709995985031128,-0.0014640502631664276,0.0011275261640548706,0.004660546779632568,0.9924493170396858,0.11873718884709772,0.0200417119302352,0.02333232981412414
1681501364614523100,4.371523193359375,-0.02780997008085251,-0.009584217332303524,-0.012792462483048439,0.034208983182907104,-0.23629668354988098,-0.9710785746574402,0.0008709803223609924,-0.00012308359146118164,0.003122091293334961,0.9924709105385264,0.11857566437199553,0.020012926690623028,0.023257350882831686
1681501364624521200,4.381521240234375,-0.012579717673361301,-0.005361642688512802,-0.003349292790517211,0.03418045863509178,-0.2360839545726776,-0.9711313247680664,0.0017540007829666138,-0.0008545964956283569,0.0038004517555236816,0.9924851443594656,0.11846817556339888,0.019990646081777974,0.02321459320944755
1681501364634519000,4.39151904296875,0.0016399652231484652,-0.0039261989295482635,0.0005580970901064575,0.034145232290029526,-0.2360307276248932,-0.971145510673523,-0.0012930557131767273,0.0027237534523010254,0.005660951137542725,0.9924889269154121,0.1184415288177221,0.019971204035058598,0.023206235373602124
1681501364644517000,4.40151708984375,0.0218829195946455,-0.002424175851047039,0.0012004515156149864,0.034140925854444504,-0.23615677654743195,-0.971114993095398,-0.0006173588335514069,0.009838312864303589,0.003967225551605225,0.992481509613556,0.1185061693906082,0.019969438730538157,0.02319571531641858
1681501364654515200,4.41151513671875,0.03494998440146446,-0.003909420222043991,0.002576240571215749,0.03412887826561928,-0.2364426851272583,-0.9710458517074585,-0.0000865049660205841,0.013557463884353638,0.0002512335777282715,0.9924640386338854,0.11865226259810956,0.019967609681427863,0.023199694238819586
1681501364664513000,4.421512939453125,0.03485146537423134,-0.002869522664695978,0.0026993451174348593,0.03408567234873772,-0.236786350607872,-0.9709636569023132,0.0009637773036956787,0.012283682823181152,-0.0028675198554992676,0.9924430499516618,0.11882805484900043,0.019951706223990798,0.023210819311811518
1681501364674511000,4.431510986328125,0.027966661378741264,-0.002766192425042391,0.00015256422921083868,0.03403589874505997,-0.23710516095161438,-0.9708876013755798,0.00263097882270813,0.010283157229423523,-0.000410616397857666,0.992423772383634,0.11899137404154075,0.019931371751326726,0.023215269764113942
1681501364684509200,4.44150927734375,0.026542652398347855,-0.00047154584899544716,-0.0019790963269770145,0.03401011601090431,-0.2373664379119873,-0.970824658870697,0.0014818422496318817,0.007202774286270142,0.0039362311363220215,0.9924081310381446,0.11912524667700806,0.019921131280272685,0.023209483206266823
1681501364694507000,4.451507080078125,0.013012195006012917,0.004169811028987169,-0.0028185248374938965,0.03403092548251152,-0.23756687343120575,-0.9707748889923096,0.002696990966796875,0.0025966763496398926,0.00454258918762207,0.9923957474689129,0.1192276982697559,0.019932744306394672,0.02319685432447658
1681501364704505000,4.461505126953125,-0.0039124260656535625,0.0006998456083238125,-0.004543054848909378,0.03407570347189903,-0.2376161366701126,-0.970761239528656,0.005978625267744064,0.00029608607292175293,0.006482124328613281,0.9923927612334916,0.1192527426074764,0.019953792870068255,0.023178899576911747
1681501364714504200,4.471504150390625,-0.0205148383975029,0.0017677729483693838,-0.005309512838721275,0.03409218043088913,-0.23747135698795319,-0.9707961082458496,0.003597032278776169,-0.002549484372138977,0.00888204574584961,0.9924019138649641,0.1191789334817861,0.019958207612121515,0.023162419493719572
1681501364724502000,4.481501953125,-0.008583527989685535,-0.0018941396847367287,-0.0038769314996898174,0.034092146903276443,-0.2373039722442627,-0.9708370566368103,0.002727322280406952,-0.006378993391990662,0.011928975582122803,0.9924128241218128,0.11909393144579088,0.01995287131444679,0.023136463123212606
1681501364734500000,4.4915,0.01711011864244938,-0.0077991667203605175,-0.003912085201591253,0.03404359146952629,-0.23733140528202057,-0.9708320498466492,0.0011889636516571045,-0.008548825979232788,0.01227492094039917,0.992412028279396,0.11910885035942606,0.019926468082724358,0.02311726018041664
1681501364744498200,4.501498291015625,0.034862786531448364,-0.009695203974843025,-0.005073356907814741,0.0339803509414196,-0.23757168650627136,-0.9707754850387573,0.0010233186185359955,-0.0029221773147583008,0.0028495192527770996,0.992398379135741,0.1192326994908535,0.01989524295864246,0.023096269544789716
1681501364754496000,4.51149609375,0.048156484961509705,-0.007040033116936684,-0.011138706468045712,0.03392785042524338,-0.23793527483940125,-0.9706882834434509,0.0014420337975025177,0.013005360960960388,-0.005111277103424072,0.9923775848100179,0.11942016136716173,0.019866867575330696,0.02304057616928561
1681501364764494000,4.521494140625,0.06610575318336487,-0.009008508175611496,-0.012027003802359104,0.03389812260866165,-0.2384907305240631,-0.9705529808998108,0.0018684864044189453,0.017573893070220947,-0.008298277854919434,0.9923451348247238,0.11970569383593402,0.019850838664643822,0.02297152607640021
1681501364774492200,4.5314921875,0.07110903412103653,-0.0027290410362184048,-0.00863440241664648,0.03388376906514168,-0.23915693163871765,-0.9703895449638367,0.001425076276063919,0.013204678893089294,-0.00226670503616333,0.9923055229566052,0.12004756042604914,0.019844670769764667,0.022908346190170927
1681501364784490000,4.541489990234375,0.0435875840485096,-0.0012650350108742714,-0.006863733287900686,0.03392935171723366,-0.23972207307815552,-0.9702484607696533,-0.0008177682757377625,0.01335783302783966,0.0022919774055480957,0.9922710196250777,0.12033697609886379,0.01986879768065838,0.022857113924720042
1681501364794488000,4.551488037109375,0.008873543702065945,-0.00041335588321089745,-0.006220846436917782,0.03397064283490181,-0.2399778515100479,-0.970183789730072,-0.0026596002280712128,0.010424524545669556,0.007949352264404297,0.9922557790686813,0.12046808568777438,0.01988798877815388,0.022816415130096194
1681501364804486400,4.561486328125,-0.011586690321564674,-0.0022532008588314056,0.0016784889157861471,0.03399226814508438,-0.2399693727493286,-0.9701851606369019,-0.0016436241567134857,-0.003972992300987244,0.011429667472839355,0.992256328926569,0.12046383498656973,0.019896980961971348,0.02280162586157755
1681501364814484200,4.571484130859375,-0.022647330537438393,0.0016177038196474314,0.003626591293141246,0.03398303687572479,-0.23981310427188873,-0.970224142074585,-0.0010087788105010986,-0.017129749059677124,0.015466451644897461,0.9922659486435569,0.12038378116190672,0.01989185250691178,0.022814451061781576
1681501364824482300,4.581482421875,-0.02919028513133526,0.0038056238554418087,0.0024746409617364407,0.03400270640850067,-0.23956073820590973,-0.9702857732772827,-0.001058977097272873,-0.01744312047958374,0.01301044225692749,0.9922810849054557,0.12025427020348473,0.019900413387286556,0.02283038205092054
1681501364834481200,4.591481201171875,-0.03212482109665871,0.0018322216346859932,0.0018336180364713073,0.03401947021484375,-0.23921911418437958,-0.9703694581985474,-0.0002975389361381531,-0.009636566042900085,0.008073985576629639,0.9923017688634245,0.12007911357828424,0.019906634889370393,0.02284872634427655
1681501364844479000,4.60147900390625,-0.028942693024873734,-0.0016521918587386608,0.0016628429293632507,0.03402300551533699,-0.2388772815465927,-0.9704535603523254,-0.0004994422197341919,-0.0036002248525619507,0.002909064292907715,0.9923226611736565,0.11990412129746598,0.01990546800535734,0.022861127473811086
1681501364854477000,4.61147705078125,-0.013811678625643253,-0.0023651202209293842,0.0010132978204637766,0.034003548324108124,-0.2386421263217926,-0.9705120921134949,0.0014578849077224731,0.0006507039070129395,0.00017523765563964844,0.9923372419474937,0.11978395778895563,0.019893738310729672,0.0228705319855696
1681501364864475100,4.62147509765625,0.0059164525009691715,0.0011956593953073025,-0.0037637471687048674,0.03398493304848671,-0.23857659101486206,-0.9705288410186768,0.0025598742067813873,0.005147531628608704,0.0019162297248840332,0.992341496391806,0.11975069460237783,0.019883316697517212,0.022868962363666832
1681501364874473200,4.63147314453125,0.020600058138370514,-0.0012725582346320152,-0.0033304509706795216,0.03398608788847923,-0.23868870735168457,-0.9705012440681458,0.0027570798993110657,0.011881992220878601,0.0036128759384155273,0.992334833950568,0.1198082489832745,0.019883750361936976,0.022855632744582847
1681501364884471300,4.64147119140625,0.02355128899216652,-0.001111370511353016,-0.0028423601761460304,0.033976566046476364,-0.23892243206501007,-0.9704440832138062,0.0007829666137695312,0.015335291624069214,0.004150748252868652,0.9923207843367761,0.11992812469002787,0.019880009241968127,0.02283921066461031
1681501364894469400,4.651469482421875,0.019195156171917915,-0.0010128337889909744,-0.0035534240305423737,0.033965177834033966,-0.23919494450092316,-0.9703773260116577,-0.0005179010331630707,0.010923385620117188,0.0012001395225524902,0.9923042942575523,0.12006786682674479,0.019875798727620395,0.022822524889086156
1681501364904467200,4.66146728515625,0.01711103320121765,-0.0008961870335042477,-0.001040731556713581,0.033961400389671326,-0.23941342532634735,-0.9703235626220703,0.0015763305127620697,0.005541861057281494,0.0019398331642150879,0.9922911819159932,0.1201799499662774,0.01987444155948921,0.022803572081091236
1681501364914465300,4.67146533203125,0.022671181708574295,0.0014745588414371014,-0.003605089383199811,0.03396846354007721,-0.23963238298892975,-0.9702692627906799,0.0017981454730033875,0.0016409456729888916,0.003121495246887207,0.9922777745800626,0.12029205231541035,0.01987927924048051,0.02279066371231189
1681501364924463400,4.68146337890625,0.016249850392341614,0.0023951472248882055,0.0005710800178349018,0.03399370610713959,-0.23982343077659607,-0.970221221446991,-0.00024125352501869202,-0.0010519176721572876,0.006094634532928467,0.9922659740286249,0.12038957141443689,0.01989355686566044,0.02278309397116258
1681501364934461200,4.691461181640625,0.010395157150924206,-0.0001673465594649315,-0.0002529020421206951,0.033996742218732834,-0.2399539053440094,-0.9701887965202332,-0.00007644295692443848,0.0009859055280685425,0.00522303581237793,0.9922577723042593,0.12045629271310805,0.01989650956795492,0.022780830621621163
1681501364944460000,4.7014599609375,0.00326402741484344,0.000561760738492012,0.00048113169032149017,0.03401775658130646,-0.2400026172399521,-0.9701760411262512,0.0013368688523769379,0.00042426586151123047,0.005271255970001221,0.9922548156191483,0.120481194239964,0.019906377074069965,0.022769689079618925
1681501364954458000,4.7114580078125,0.005975391715764999,-0.00003132550045847893,0.0004592937766574323,0.03403691202402115,-0.2400149554014206,-0.9701722860336304,0.0024163424968719482,-0.00259988009929657,0.0035890936851501465,0.9922539009497182,0.12048725618264333,0.01991642604973178,0.022771660329707444
1681501364964456200,4.721456298828125,0.0012075179256498814,0.0037222004029899836,-0.0014206981286406517,0.034074071794748306,-0.24001939594745636,-0.9701699018478394,0.0007770135998725891,-0.00038293004035949707,0.006379067897796631,0.9922533732751215,0.12048915988018101,0.019935015725017612,0.02277010388881453
1681501364974454300,4.731454345703125,-0.008142041973769665,0.0003397194668650627,-0.0012563811615109444,0.03408956527709961,-0.2399657964706421,-0.9701825976371765,-0.000215042382478714,0.0009367614984512329,0.005720376968383789,0.9922564850015209,0.12046166221004763,0.019941852702192887,0.02276781975966169
1681501364984452400,4.741452392578125,-0.01752905175089836,0.0011204252950847149,-0.0012916680425405502,0.03410715609788895,-0.23982642590999603,-0.9702164530754089,-0.0014991164207458496,0.0010262727737426758,0.005983114242553711,0.9922651318228134,0.12039031267222507,0.019948415494230647,0.022763781207822735
1681501364994450200,4.7514501953125,-0.034041449427604675,0.004262422677129507,-0.0023457470815628767,0.034142348915338516,-0.23957324028015137,-0.9702777862548828,-0.0004051625728607178,0.0003763735294342041,0.007417738437652588,0.9922808238914924,0.12026068203286082,0.019961903542077105,0.02275589499024923
1681501365004448300,4.7614482421875,-0.029149023815989494,0.00324083399027586,-0.0019952752627432346,0.0341937355697155,-0.2392701506614685,-0.9703507423400879,-0.0004412829875946045,-0.005618259310722351,0.009214937686920166,0.9922994074598144,0.12010545178793326,0.01998256758478617,0.022745202980178035
1681501365014446300,4.7714462890625,-0.02997060865163803,0.0007108310237526894,-0.004197176545858383,0.034224733710289,-0.23897914588451385,-0.9704213738441467,-0.000670652836561203,-0.007389351725578308,0.009972214698791504,0.9923173332426676,0.11995659245686702,0.01999330393349822,0.022736017931484876
1681501365024444200,4.781444091796875,-0.03808968886733055,-0.0015764250420033932,-0.002159192692488432,0.03423618897795677,-0.23864230513572693,-0.9705038666725159,-0.000666838139295578,-0.005376338958740234,0.005904257297515869,0.9923385227388546,0.11978457262611451,0.019993162812162093,0.022723222970934657
1681501365034442200,4.791442138671875,-0.029019493609666824,-0.002698148600757122,-0.007138505112379789,0.03423834964632988,-0.23830756545066833,-0.9705860018730164,0.0019402503967285156,-0.0006604194641113281,0.0013935565948486328,0.9923597365864905,0.11961397147340355,0.01998705281158485,0.02269945135136533
1681501365044440300,4.8014404296875,0.006619194522500038,-0.006096075288951397,-0.0019525315146893263,0.03421580418944359,-0.2382040172815323,-0.9706122279167175,0.002451077103614807,0.0006093233823776245,0.00010752677917480469,0.9923668127132189,0.11956176906199495,0.019971557552432368,0.022676213478291497
1681501365054439400,4.811439453125,0.02258431166410446,-0.0012334100902080536,-0.001359978225082159,0.0341796949505806,-0.23836524784564972,-0.9705739617347717,0.0032501220703125,0.0035171210765838623,0.0016408562660217285,0.9923573823552682,0.11964462703728573,0.019954822974573332,0.022671039795513836
1681501365064437200,4.821437255859375,0.02559622935950756,-0.0030268486589193344,-0.0051735579036176205,0.0341670848429203,-0.23860009014606476,-0.9705166816711426,0.001385904848575592,0.012190073728561401,-0.0013613700866699219,0.9923432821775847,0.11976513537363735,0.019949342893637118,0.02265311864928054
1681501365074435300,4.831435302734375,0.028499608859419823,-0.0015288209542632103,-0.006850550416857004,0.03415451571345329,-0.23887144029140472,-0.9704503417015076,0.0015052855014801025,0.018107175827026367,-0.0005273818969726562,0.9923273989003271,0.11990465359129174,0.01994222652201254,0.02261764061355942
1681501365084433200,4.84143310546875,0.027262920513749123,-0.005534814205020666,-0.001883422490209341,0.03411523997783661,-0.23916085064411163,-0.9703804850578308,0.0029788874089717865,0.012964457273483276,0.0006234049797058105,0.9923103227607541,0.12005340747077924,0.019923520178106228,0.022595735235315943
1681501365094431200,4.85143115234375,0.022822365164756775,-0.0005781389772891998,-0.005905861034989357,0.034096959978342056,-0.23941674828529358,-0.9703180193901062,0.0030124224722385406,0.003302156925201416,0.003444850444793701,0.9922951986804193,0.12018494924678368,0.01991427179653014,0.022568185741028753
1681501365104429300,4.86142919921875,0.00698877451941371,0.0013996576890349388,-0.007824269123375416,0.03412862494587898,-0.2395678013563156,-0.9702796339988708,-0.0006508342921733856,0.004185616970062256,0.00664132833480835,0.9922863500699557,0.1202625267751294,0.019927902142169565,0.022532972855188793
1681501365114427100,4.87142724609375,-0.018954142928123474,-0.0004078298807144165,-0.0041240728460252285,0.03418100252747536,-0.23950472474098206,-0.9702933430671692,-0.0007795020937919617,0.0018337219953536987,0.0067771077156066895,0.992290491240083,0.12023034002619887,0.01994987671014298,0.022503242552968223
1681501365124425200,4.88142529296875,-0.042890701442956924,0.00104572344571352,-0.000725613150279969,0.034210119396448135,-0.23919004201889038,-0.9703699350357056,0.00039682164788246155,-0.005805149674415588,0.009112060070037842,0.9923100364202917,0.12006944692929844,0.019959061677287296,0.02249130350698252
1681501365134423300,4.89142333984375,-0.056245386600494385,0.0009916615672409534,-0.0011975253000855446,0.034237202256917953,-0.2386903166770935,-0.9704920053482056,0.0020787231624126434,-0.015383884310722351,0.009859740734100342,0.9923408598356138,0.11981383747496648,0.019965895319868553,0.02248799578404889
1681501365144421000,4.901421142578125,-0.057220637798309326,0.002756538102403283,-0.0003727442817762494,0.03426499664783478,-0.23811376094818115,-0.9706326723098755,-0.00019211694598197937,-0.01531955599784851,0.010305583477020264,0.9923761506674803,0.11951878788579068,0.019973269205123583,0.022494350750568257
1681501365154419200,4.911419189453125,-0.04517649486660957,-0.0008347346447408199,-0.0014095129445195198,0.0342910960316658,-0.23758956789970398,-0.97076016664505,-0.0007522664964199066,-0.010365858674049377,0.009746432304382324,0.992408356587914,0.11925072547255741,0.01997935924296521,0.022491559258904857
1681501365164418300,4.921418212890625,-0.04287738725543022,-0.0007452522404491901,-0.000660099380183965,0.03429434448480606,-0.2371342033147812,-0.9708713889122009,0.0008008778095245361,-0.003237590193748474,0.005295276641845703,0.9924363390675972,0.11901802106814978,0.01997527778908341,0.02249255639452268
1681501365174416400,4.93141650390625,-0.034590695053339005,-0.0030100042931735516,-0.005259911064058542,0.03429897129535675,-0.23674209415912628,-0.9709669351577759,0.0038785263895988464,0.004213303327560425,0.0002332925796508789,0.9924606834636306,0.11881789232053293,0.019971119740343782,0.022480338156937653
1681501365184414200,4.941414306640625,-0.013216644525527954,-0.007806557230651379,-0.007134843152016401,0.0342453196644783,-0.23651638627052307,-0.9710237979888916,0.0038101114332675934,0.004842087626457214,-0.000854194164276123,0.9924756530043529,0.11870373196123625,0.01993772927899885,0.022451277093228507
1681501365194412300,4.951412353515625,0.0016808114014565945,-0.0064089298248291016,-0.002894824370741844,0.03417397290468216,-0.23647461831569672,-0.9710364937782288,0.003240589052438736,0.004388332366943359,-0.0008720159530639648,0.9924794307926417,0.11868357590545185,0.019898547603116684,0.022428655272418406
1681501365204410000,4.96141015625,-0.0008439483935944736,-0.011816412210464478,-0.009965583682060242,0.034092020243406296,-0.2365022599697113,-0.9710326790809631,0.0023307204246520996,0.00902414321899414,-0.0012268424034118652,0.9924791597417593,0.11869921432409374,0.01985367654862791,0.022395676467207002
1681501365214408200,4.971408203125,-0.004936960991472006,-0.011926665902137756,-0.011513945646584034,0.03401925042271614,-0.23651105165481567,-0.9710330367088318,0.005729898810386658,0.007568076252937317,-0.0006465911865234375,0.9924805831629537,0.11870566321912233,0.019809911023217452,0.02233529423049325
1681501365224406300,4.98140625,-0.011324885301291943,-0.007838981226086617,-0.00977463461458683,0.033948834985494614,-0.236476331949234,-0.9710440039634705,0.006288602948188782,0.004329010844230652,0.005711972713470459,0.9924847216093314,0.11868984683771897,0.019766794603229988,0.022275059780573276
1681501365234404000,4.991404052734375,-0.014889792539179325,-0.005224023479968309,-0.01016931515187025,0.033911678940057755,-0.23638680577278137,-0.9710670709609985,0.006569903343915939,0.000897824764251709,0.00935143232345581,0.9924918361652773,0.11864567783932957,0.019739869164100293,0.02221589807251347
1681501365244402200,5.001402099609375,-0.015173153020441532,-0.004164085723459721,-0.004536197055131197,0.033902209252119064,-0.2362571656703949,-0.9710989594459534,0.0036801956593990326,0.0011801570653915405,0.01112276315689087,0.9925006786134933,0.11858025465675583,0.01972918692517029,0.022180139416829673
1681501365254400300,5.011400146484375,-0.02427370660007,-0.00476409588009119,-0.007559151854366064,0.03390868008136749,-0.23606644570827484,-0.9711450934410095,0.0008966252207756042,0.0037207603454589844,0.008056163787841797,0.9925131433658382,0.11848348698181028,0.019725712115807457,0.022143919084889458
1681501365264399400,5.0213994140625,-0.029252802953124046,0.0009054411202669144,-0.005199257750064135,0.033939894288778305,-0.23580048978328705,-0.9712086319923401,0.00014825165271759033,0.0023409277200698853,0.0036641359329223633,0.9925296996995381,0.1183478511533273,0.01973491773603399,0.022117390709554516
1681501365274397200,5.031397216796875,-0.021544815972447395,-0.00009084725752472878,-0.003302820725366473,0.033978238701820374,-0.23554839193820953,-0.9712684750556946,-0.002743486315011978,-0.0009019076824188232,0.00378495454788208,0.9925453597662423,0.11821922799936876,0.019747899589070382,0.022090884863288248
1681501365284396300,5.041396240234375,-0.02021443285048008,0.0021810955367982388,-0.001998936990275979,0.03401896730065346,-0.2353312224149704,-0.9713196754455566,-0.004752602428197861,-0.0007223188877105713,0.004812777042388916,0.9925585865985987,0.1181081549201932,0.01976413960731941,0.022077925376986936
1681501365294394400,5.051394287109375,-0.011231059208512306,0.00376780703663826,-0.004020010121166706,0.03409804403781891,-0.23515599966049194,-0.971359372138977,-0.006754282861948013,0.0021389275789260864,0.004654049873352051,0.9925688867274488,0.11801813286001027,0.019800129804213647,0.02206416343574573
1681501365304392200,5.06139208984375,0.004731195978820324,-0.00004051299765706062,-0.0056064547970891,0.03417748212814331,-0.23511506617069244,-0.9713664650917053,-0.006375964730978012,0.0011672377586364746,0.003974556922912598,0.9925712718731607,0.11799698168861883,0.01983632941056114,0.022036403730953936
1681501365314390300,5.071390380859375,0.016425136476755142,-0.004562294110655785,-0.004433865193277597,0.03418721258640289,-0.2352304756641388,-0.971338152885437,-0.005226027220487595,0.001313135027885437,-0.0002804398536682129,0.992564677831005,0.11805635942470541,0.0198395112987847,0.022009749715576565
1681501365324388400,5.081388427734375,0.024886449798941612,-0.006488492712378502,-0.01025799848139286,0.03416673466563225,-0.23545652627944946,-0.9712841510772705,-0.0007805004715919495,0.0072154700756073,-0.0004412531852722168,0.9925519864059643,0.11817285139258317,0.019827065280682198,0.021968039470942575
1681501365334386200,5.09138623046875,0.02199106104671955,-0.005945740267634392,-0.014722787775099277,0.034132979810237885,-0.23567719757556915,-0.9712318181991577,0.0027475208044052124,0.01021324098110199,-0.00006639957427978516,0.9925403505012091,0.11828721316068838,0.019804956540371527,0.021902009916021963
1681501365344384300,5.10138427734375,0.022896701470017433,-0.004846254363656044,-0.016162093728780746,0.034118954092264175,-0.23587945103645325,-0.971183180809021,0.0026394762098789215,0.008569180965423584,0.0042032599449157715,0.9925301007464219,0.11839243895318823,0.019789769753455276,0.02181275074172193
1681501365354382300,5.11138232421875,0.006596557330340147,-0.008718756958842278,-0.01389680802822113,0.03408798202872276,-0.23601168394088745,-0.971152126789093,0.002365272492170334,0.003925397992134094,0.005133509635925293,0.9925240073389311,0.1184619197997995,0.019766098661545425,0.02173134462626414
1681501365364380200,5.121380126953125,-0.004833696875721216,-0.01393682137131691,-0.016175808385014534,0.03399493545293808,-0.23599930107593536,-0.9711584448814392,0.0041978247463703156,-0.00019159913063049316,0.002103269100189209,0.9925273566068062,0.11845807189093012,0.019709704818625252,0.02165284254762657
1681501365374379300,5.131379150390625,-0.00471864826977253,-0.015292370691895485,-0.01873856782913208,0.033849213272333145,-0.23591424524784088,-0.9711841940879822,0.00806669145822525,-0.004320219159126282,0.003944814205169678,0.9925358877489459,0.11841791816490431,0.019624149693145687,0.021559795481895478
1681501365384377300,5.14137744140625,0.012855968438088894,-0.01632947102189064,-0.016249779611825943,0.033703748136758804,-0.23595304787158966,-0.9711797833442688,0.007250852882862091,-0.008325010538101196,0.006519198417663574,0.992536685002343,0.11844101467951976,0.019540279112927418,0.02146697254754396
1681501365394375200,5.151375244140625,0.029126282781362534,-0.015599232167005539,-0.01574111543595791,0.03355490416288376,-0.23614633083343506,-0.9711380004882812,0.004820957779884338,-0.0025622695684432983,0.00582122802734375,0.9925279259755581,0.11854280204069875,0.019457963600248814,0.021385688928371022
1681501365404373200,5.161373291015625,0.03658255189657211,-0.015256816521286964,-0.017062775790691376,0.033434346318244934,-0.23645347356796265,-0.9710674285888672,0.0023170001804828644,0.00902111828327179,0.0015087127685546875,0.9925121382309735,0.11870264855311126,0.01939015082815044,0.0212951122227352
1681501365414371300,5.171371337890625,0.038888052105903625,-0.016223544254899025,-0.01763162575662136,0.033336538821458817,-0.2367890626192093,-0.9709889888763428,0.001926526427268982,0.01390385627746582,-0.0016977190971374512,0.9924945553529765,0.11887698165702526,0.019333052032167227,0.021195685642969878
1681501365424369200,5.181369140625,0.031166881322860718,-0.014404606074094772,-0.019215675070881844,0.033255428075790405,-0.23711542785167694,-0.9709120988845825,0.0018245354294776917,0.009988263249397278,0.001628100872039795,0.9924774249624351,0.11904659557149332,0.01928329929352823,0.021088595375378546
1681501365434367200,5.1913671875,0.028520498424768448,-0.009164569899439812,-0.019878800958395004,0.033198557794094086,-0.23739750683307648,-0.9708451628684998,0.0013168267905712128,0.00581476092338562,0.004994332790374756,0.9924627867591668,0.1191932779932662,0.019245548425085742,0.020984496650744807
1681501365444365300,5.201365234375,0.017160650342702866,-0.006930976640433073,-0.02171664871275425,0.03318491205573082,-0.2376139909029007,-0.9707926511764526,0.0013609938323497772,0.0043528079986572266,0.007993638515472412,0.9924519725484138,0.11930617952027271,0.019227873350957433,0.02087305777331671
1681501365454363100,5.211363037109375,-0.004731863737106323,-0.009881492704153061,-0.016022277995944023,0.03322414308786392,-0.2376796156167984,-0.9707752466201782,0.0000858008861541748,0.002419516444206238,0.010310828685760498,0.9924494668319018,0.11934123851926848,0.01923674428796017,0.020775935773018155
1681501365464361200,5.221361328125,-0.025944823399186134,-0.01145082712173462,-0.015305954031646252,0.033206310123205185,-0.23751923441886902,-0.970815122127533,-0.0013001710176467896,-0.005568638443946838,0.009114682674407959,0.9924613488968811,0.11926107110045041,0.019215772247710032,0.020692052264906037
1681501365474359300,5.231359375,-0.03632689267396927,-0.012078799307346344,-0.014625516720116138,0.03314734622836113,-0.23721233010292053,-0.9708921313285828,-0.0003256760537624359,-0.011658623814582825,0.009420633316040039,0.9924824560217305,0.11910646704320296,0.019172249922905345,0.020607185711622695
1681501365484358400,5.2413583984375,-0.028328336775302887,-0.011359015479683876,-0.013906928710639477,0.033080488443374634,-0.2368815541267395,-0.9709751605987549,-0.000029943883419036865,-0.011653706431388855,0.008176147937774658,0.9925050392412467,0.1189395774819031,0.019125430498909093,0.020530106798511038
1681501365494356200,5.251356201171875,-0.03045087493956089,-0.007395431865006685,-0.011980132199823856,0.03304862231016159,-0.23656824231147766,-0.9710526466369629,-0.002149563282728195,-0.004963234066963196,0.005110323429107666,0.9925258745417729,0.11878109454960113,0.019097738899925137,0.020463599948226222
1681501365504354300,5.261354248046875,-0.033804696053266525,-0.0054349456913769245,-0.005964450538158417,0.033009134232997894,-0.23622983694076538,-0.9711363911628723,-0.002384733408689499,0.0013206899166107178,0.00482785701751709,0.992548064658131,0.1186095289295521,0.019067984432694685,0.020414248506889415
1681501365514352000,5.27135205078125,-0.02938810922205448,-0.007701828610152006,-0.007002284284681082,0.03296969458460808,-0.2359129935503006,-0.971214771270752,-0.0015670917928218842,0.0017057359218597412,0.004417896270751953,0.9925686331972489,0.1184488050596342,0.019039678023563728,0.020374542362542283
1681501365524350200,5.28135009765625,-0.021885467693209648,-0.004508631303906441,-0.0017809572163969278,0.03293410316109657,-0.2356565147638321,-0.971278190612793,0.001443956047296524,0.00041165947914123535,0.005564749240875244,0.9925850581144658,0.11831854756905116,0.01901616442762997,0.02035276009883337
1681501365534348300,5.291348388671875,-0.013247238472104073,-0.0007905922830104828,-0.002983374521136284,0.03291507065296173,-0.23548223078250885,-0.9713211059570312,0.0018749795854091644,0.004372522234916687,0.006034910678863525,0.9925958917074825,0.11822983849705439,0.01900382865015743,0.020346698500987265
1681501365544346000,5.30134619140625,-0.0023610179778188467,-0.0025038705207407475,0.00008891467587091029,0.032903049141168594,-0.2354259341955185,-0.9713351726531982,0.0022379495203495026,0.007673174142837524,0.006033718585968018,0.9925996144244974,0.11820133516687524,0.01899623380976359,0.0203392717049532
1681501365554344200,5.31134423828125,-0.0049581327475607395,-0.00402187230065465,-0.002444284036755562,0.032862093299627304,-0.23542745411396027,-0.9713361859321594,0.005254365503787994,0.010375484824180603,0.006278872489929199,0.9926001074858489,0.1182027580260773,0.01897399151835727,0.020325573936070384
1681501365564342300,5.32134228515625,-0.009102510288357735,-0.0010453909635543823,-0.008887136355042458,0.03284943103790283,-0.2353868931531906,-0.9713464379310608,0.005968939512968063,0.008351266384124756,0.0028101205825805664,0.9926035058292726,0.11818283010285623,0.018962897773670908,0.02028994617964997
1681501365574340000,5.331340087890625,-0.013580615632236004,-0.0015436680987477303,-0.010111924260854721,0.032856184989213943,-0.23529410362243652,-0.9713687300682068,0.006709866225719452,0.0067783743143081665,0.004754960536956787,0.9926101409470174,0.11813631446719855,0.01895934055479071,0.020240529887062778
1681501365584338200,5.341338134765625,-0.01944003626704216,0.003318731440231204,-0.005708920303732157,0.032876234501600266,-0.23514243960380554,-0.9714047312736511,0.0016239024698734283,0.001408219337463379,0.0060269832611083984,0.9926199626830028,0.11805937117943281,0.01896332347911645,0.020203872575673236
1681501365594337300,5.351337158203125,-0.028871353715658188,0.003944041673094034,-0.00488547096028924,0.03292611241340637,-0.23489588499069214,-0.9714627265930176,-0.002820514142513275,-0.0019969195127487183,0.006359577178955078,0.992634941055894,0.11793343297965339,0.018982895216439047,0.020181115879430965
1681501365604335400,5.36133544921875,-0.04628356918692589,0.004231929313391447,-0.006384829990565777,0.03298928961157799,-0.23451901972293854,-0.9715515971183777,-0.0030057579278945923,-0.0006037652492523193,0.006768941879272461,0.992657940921449,0.11774091144184848,0.01900708233361627,0.02015345239946962
1681501365614333200,5.371333251953125,-0.0558544360101223,0.002294745994731784,-0.009709521196782589,0.03305007889866829,-0.2340080887079239,-0.9716727137565613,-0.0036158673465251923,-0.004547908902168274,0.008034467697143555,0.9926891007913609,0.11748007804387119,0.019027920700553324,0.020120597216698774
1681501365624331300,5.381331298828125,-0.053577736020088196,0.0010437262244522572,-0.012806111015379429,0.033099088817834854,-0.23345623910427094,-0.9718037843704224,-0.0013913139700889587,-0.008349895477294922,0.008440196514129639,0.9927231150841589,0.11719881720657614,0.01904029430168907,0.020070135959952797
1681501365634329000,5.3913291015625,-0.04896913468837738,-0.0002894522622227669,-0.005625962279736996,0.03316132724285126,-0.23294253647327423,-0.9719249606132507,-0.0023843348026275635,-0.007291942834854126,0.009705722332000732,0.9927544175301848,0.11693676998755288,0.01906090106703029,0.020029036239545175
1681501365644327200,5.4013271484375,-0.04499915987253189,-0.004440787713974714,-0.007022790610790253,0.03318864479660988,-0.23248682916164398,-0.9720331430435181,-0.004395298659801483,-0.002574920654296875,0.004809021949768066,0.9927822661652784,0.11670447054960177,0.019065843912543467,0.01999845236293018
1681501365654325200,5.4113251953125,-0.03500191867351532,-0.0019834889099001884,-0.00496283546090126,0.03320858255028725,-0.2320999950170517,-0.9721248745918274,-0.0022179745137691498,0.0008987337350845337,-0.003369450569152832,0.9928059023715113,0.1165073458500597,0.019068246174234787,0.01997107017949675
1681501365664323000,5.421322998046875,-0.025470996275544167,-0.0016364790499210358,-0.003635782515630126,0.033208444714546204,-0.2318209409713745,-0.9721914529800415,-0.0009513534605503082,0.0021150410175323486,-0.0032876133918762207,0.9928232847003327,0.11636536952196992,0.01906212618596977,0.019946651638732955
1681501365674321200,5.431321044921875,-0.017572594806551933,0.004284260328859091,-0.00673676747828722,0.033216774463653564,-0.2316288948059082,-0.9722369909286499,0.0006272271275520325,0.008438482880592346,-0.00032770633697509766,0.9928350981717968,0.11626762518345626,0.019061950852639092,0.019928045423992267
1681501365684319200,5.4413193359375,-0.005599521566182375,0.00043292995542287827,-0.006599747110158205,0.03324699029326439,-0.23151375353336334,-0.9722633361816406,0.0008716769516468048,0.01035277545452118,0.0031319260597229004,0.9928421272084773,0.11620899379672024,0.019073391128229304,0.0199069948280636
1681501365694318300,5.451318359375,0.0014899959787726402,-0.0023105917498469353,-0.008159893564879894,0.033256594091653824,-0.23151294887065887,-0.9722632169723511,0.0036696791648864746,0.009268611669540405,0.00531381368637085,0.992842891231617,0.11620924484803644,0.01907364098646535,0.0198678855964596
1681501365704316200,5.461316162109375,0.00778758991509676,-0.00867055356502533,-0.007423730101436377,0.033215854316949844,-0.23159250617027283,-0.9722456932067871,0.0053431205451488495,0.00606749951839447,0.005387783050537109,0.9928393338762378,0.11625100114008392,0.01904921971741845,0.019826815830463976
1681501365714314200,5.471314208984375,-0.0013518464984372258,-0.010338224470615387,-0.00454005878418684,0.0331365205347538,-0.231657937169075,-0.9722327589988708,0.006978847086429596,0.004866451025009155,-0.000545501708984375,0.9928369021419878,0.11628588283128836,0.01900531500093892,0.01978672658287261
1681501365724312300,5.481312255859375,-0.001988042378798127,-0.010392420925199986,-0.0018341538961976767,0.0330168679356575,-0.2316652238368988,-0.9722351431846619,0.006747551262378693,0.00017403066158294678,-0.0020080208778381348,0.9928380493790793,0.11629122169906216,0.018941832185904377,0.01975848664711402
1681501365734310100,5.49131005859375,0.010569561272859573,-0.00692924577742815,0.0020151790231466293,0.03294434770941734,-0.2316986322402954,-0.9722295999526978,0.003127437084913254,-0.002401798963546753,0.0018469691276550293,0.9928367433784789,0.11630903295178079,0.018905077355235722,0.01975324748311399
1681501365744308200,5.50130810546875,0.029447345063090324,-0.00806921161711216,-0.0021488063503056765,0.03287217393517494,-0.23188772797584534,-0.9721869826316833,0.0017195045948028564,-0.00032061338424682617,0.005130767822265625,0.9928260212102239,0.1164062271902224,0.01887069335730599,0.01975175702547353
1681501365754306000,5.51130615234375,0.040767110884189606,-0.005694204941391945,-0.011962021701037884,0.0328492633998394,-0.23220932483673096,-0.9721109867095947,0.0014372393488883972,0.008301764726638794,0.003345787525177002,0.9928077370310935,0.11657147461322495,0.018857397628134726,0.019705840943087718
1681501365764304100,5.52130419921875,0.04600135236978531,-0.006516588386148214,-0.009225890971720219,0.03282260522246361,-0.23260362446308136,-0.9720175862312317,0.005278602242469788,0.014143452048301697,0.005312323570251465,0.992785678005224,0.11677430360891408,0.018840270272892215,0.019636577225770033
1681501365774302200,5.53130224609375,0.05179852247238159,-0.009161639958620071,-0.006914532743394375,0.032794613391160965,-0.23304736614227295,-0.9719122648239136,0.005947459489107132,0.012130513787269592,0.0034216642379760742,0.9927601415436887,0.11700203803288997,0.018825261142391258,0.019586508911855843
1681501365784300000,5.541300048828125,0.05523400008678436,-0.008997855708003044,-0.002311525633558631,0.03275863453745842,-0.23356309533119202,-0.9717896580696106,0.003252122551202774,0.00799231231212616,-0.001324295997619629,0.9927299461031479,0.1172663575901088,0.018808676860762662,0.01955053839273582
1681501365794298000,5.551298095703125,0.04626766964793205,-0.004774081986397505,-0.008173143491148949,0.03274677321314812,-0.23405654728412628,-0.9716713428497314,0.00207379087805748,0.005647629499435425,-0.0002219676971435547,0.9927008781683013,0.1175191095945733,0.018803963392620023,0.01951448007413928
1681501365804297200,5.561297119140625,0.02993462048470974,-0.003576392773538828,-0.012538396753370762,0.03277260810136795,-0.23441249132156372,-0.971584677696228,0.000842515379190445,0.0034553557634353638,0.0028499364852905273,0.9926802085951376,0.11770181258918891,0.018813682562294955,0.019453105273681336
1681501365814295300,5.57129541015625,0.029922636225819588,-0.007209742907434702,-0.014737635850906372,0.03275620937347412,-0.2346806526184082,-0.9715204834938049,0.0011488310992717743,0.0018924623727798462,0.011193335056304932,0.992665538342888,0.11784029502114146,0.018799668281068226,0.019379428327155744
1681501365824293000,5.581293212890625,0.0356178879737854,-0.005509913433343172,-0.009556922130286694,0.03274025022983551,-0.23498640954494476,-0.9714471101760864,-0.0012308433651924133,-0.0030507892370224,0.014217495918273926,0.9926483864722961,0.1179978901466748,0.01878688573272048,0.019310907374622953
1681501365834291200,5.591291259765625,0.041246213018894196,-0.009051652625203133,-0.007753961719572544,0.032710831612348557,-0.23534640669822693,-0.9713609218597412,-0.0004079677164554596,-0.0025992393493652344,0.007554829120635986,0.9926275391074145,0.11818285830062653,0.018770764015124147,0.01926642921366564
1681501365844289300,5.601289306640625,0.034050438553094864,-0.01809767633676529,-0.008896390907466412,0.03264118358492851,-0.2356732189655304,-0.971284031867981,-0.0016810931265354156,0.0005199313163757324,0.0004131197929382324,0.9926092443594361,0.11835141397248423,0.01873285303014897,0.019212365593878403
1681501365854287000,5.611287109375,0.02227872982621193,-0.016635868698358536,-0.010501477867364883,0.032532256096601486,-0.23593346774578094,-0.9712245464324951,0.00045726075768470764,0.00036819279193878174,-0.0011265277862548828,0.9925953700972325,0.11848638393286727,0.0186740056161279,0.019154980096976245
1681501365864285200,5.62128515625,0.007743597961962223,-0.026664534583687782,-0.0272839218378067,0.03236483782529831,-0.23601190745830536,-0.9712110757827759,0.0004263073205947876,-0.002925574779510498,0.0002485513687133789,0.9925938945276125,0.11852982914239411,0.01857831774863749,0.01905263552175794
1681501365874283300,5.631283203125,0.03650786727666855,-0.010845357552170753,-0.03411412984132767,0.0322645865380764,-0.23620104789733887,-0.9711683988571167,0.005699288100004196,-0.007619231939315796,0.005439698696136475,0.992586486800974,0.11863059435399123,0.01850894480544547,0.018877389297097768
1681501365884281000,5.641281005859375,0.03184773400425911,-0.008517755195498466,-0.021095000207424164,0.03225279226899147,-0.23655086755752563,-0.9710836410522461,0.003178119659423828,0.0038237422704696655,0.01341158151626587,0.9925678439774496,0.11881209750036298,0.018489538642776752,0.018733153658246418
1681501365894279200,5.651279052734375,0.009682511910796165,-0.01070367731153965,-0.026948895305395126,0.03222116827964783,-0.23673593997955322,-0.9710395932197571,-0.010935146361589432,0.01081421971321106,0.0049599409103393555,0.9925590858603199,0.11890920710102625,0.01846083531559909,0.01860988039673277
1681501365904277000,5.661277099609375,-0.01130321342498064,-0.012138254940509796,-0.02574947476387024,0.03217535838484764,-0.23672465980052948,-0.9710438847541809,-0.011057179421186447,0.003570273518562317,0.005986511707305908,0.9925627884194087,0.11890641813181135,0.018420953498035783,0.018470606773286633
1681501365914276000,5.671276123046875,-0.03261223062872887,-0.014683172106742859,-0.021557925269007683,0.03210805356502533,-0.236500546336174,-0.9711006879806519,-0.005847670137882233,-0.007670700550079346,0.00801175832748413,0.9925794204771475,0.11879477450047185,0.018369808385511065,0.018346481242808115
1681501365924274200,5.681274169921875,-0.053112227469682693,-0.020948324352502823,-0.022048944607377052,0.03198058530688286,-0.2360779494047165,-0.9712077379226685,-0.0017223991453647614,-0.01888124644756317,0.008149266242980957,0.9926084011838475,0.11858195096169336,0.018288147131176546,0.018237813715730803
1681501365934272300,5.691272216796875,-0.04868951812386513,-0.009267168119549751,-0.040429819375276566,0.0319814495742321,-0.23555636405944824,-0.9713343381881714,0.000443480908870697,-0.014092773199081421,0.008428514003753662,0.9926432350610341,0.11831850061599716,0.018263725790519967,0.01807527232574648
1681501365944270000,5.70127001953125,-0.022499708458781242,-0.031134184449911118,-0.040430281311273575,0.03179750591516495,-0.23519431054592133,-0.9714280962944031,0.003786001354455948,-0.007328972220420837,0.0061571598052978516,0.9926704270850105,0.11813867366506627,0.018143905068836858,0.017878690756443976
1681501365954268200,5.71126806640625,-0.037192102521657944,-0.015123259276151657,-0.047464221715927124,0.031737931072711945,-0.23491717875003815,-0.971497118473053,0.01783788576722145,0.0002674311399459839,-0.0050806403160095215,0.9926921341936538,0.11800210110563959,0.018081812237536063,0.017632795391887255
1681501365964266200,5.721266357421875,-0.049425430595874786,-0.006639094091951847,-0.03457758575677872,0.03175181895494461,-0.234479159116745,-0.9716024398803711,0.018510643392801285,0.012433156371116638,0.02017122507095337,0.9927223014646964,0.11778196337617317,0.01806031488160683,0.017430234806507447
1681501365974264000,5.73126416015625,-0.010659661144018173,-0.004391918890178204,-0.023430660367012024,0.0317038968205452,-0.23411749303340912,-0.9716912508010864,-0.017482690513134003,0.0010699033737182617,0.005901455879211426,0.9927469929780112,0.1176000349571456,0.018016932872864707,0.017298533831668166
1681501365984262100,5.74126220703125,0.022625990211963654,-0.0076167406514286995,-0.016755180433392525,0.03162114694714546,-0.23419269919395447,-0.9716758131980896,-0.017460979521274567,-0.01208426058292389,-0.0003090500831604004,0.9927447844240677,0.11764085728455008,0.017964418377322808,0.01720073644167236
1681501365994260200,5.75126025390625,0.012208503670990467,-0.0030656643211841583,-0.022302012890577316,0.031582050025463104,-0.23440225422382355,-0.9716265797615051,-0.0032922476530075073,-0.004764094948768616,-0.001655280590057373,0.9927339925091412,0.11774987771668473,0.017935672563472567,0.017106821417368356
1681501366004258000,5.761258056640625,-0.0260913148522377,-0.003977930173277855,-0.030141424387693405,0.031604550778865814,-0.23437054455280304,-0.9716334939002991,0.004223093390464783,0.008006319403648376,0.0006251931190490723,0.9927377680756592,0.11773574768285983,0.017932086636892917,0.016983659224895677
1681501366014257200,5.771257080078125,-0.054084066301584244,-0.00831648614257574,-0.031173666939139366,0.03161466494202614,-0.23399239778518677,-0.971724271774292,0.0032516755163669586,0.0032946765422821045,0.009825527667999268,0.9927632948826338,0.11754538272634571,0.017914926832437846,0.016827117277887695
1681501366024255200,5.781255126953125,-0.06536177545785904,-0.010723119601607323,-0.024410901591181755,0.03160093352198601,-0.23340117931365967,-0.9718669056892395,0.0007782317698001862,-0.005887240171432495,0.013401329517364502,0.9928016076019848,0.11724606147043537,0.01788603309676824,0.016689827690453393
1681501366034253000,5.791253173828125,-0.06151111051440239,-0.011648301035165787,-0.02473554201424122,0.03165528550744057,-0.23277036845684052,-0.9720163941383362,0.0029058828949928284,-0.007067382335662842,0.009598851203918457,0.9928415314539926,0.11692597373621091,0.01789158740886395,0.016556354483736928
1681501366044251100,5.801251220703125,-0.040113240480422974,-0.005268831271678209,-0.027915755286812782,0.03176465258002281,-0.23225244879722595,-0.9721367359161377,0.002888072282075882,0.001356363296508789,0.0034782886505126953,0.9928741244986838,0.11666331200521393,0.01792510618237352,0.016415171435888515
1681501366054249200,5.811249267578125,-0.01957148127257824,-0.0038264631293714046,-0.023316210135817528,0.031692150980234146,-0.23197194933891296,-0.9722060561180115,0.002151850610971451,0.006599560379981995,0.00287628173828125,0.9928935879219252,0.11652281455850147,0.017871819459350177,0.01629499413242505
1681501366064247000,5.8212470703125,-0.021631285548210144,-0.0009814747609198093,-0.020527014508843422,0.03161822259426117,-0.23180216550827026,-0.9722489714622498,0.000898260623216629,0.0088406503200531,0.0034532546997070312,0.9929059549313625,0.11643836472677152,0.017821968034430143,0.016201071741454735
1681501366074245000,5.8312451171875,-0.035595305263996124,-0.0014432668685913086,-0.016212694346904755,0.031624384224414825,-0.23152148723602295,-0.9723156094551086,-0.00025230273604393005,0.008453160524368286,0.003931879997253418,0.9929239685849188,0.11629653124104192,0.017812872274076543,0.016119452088555433
1681501366084243200,5.8412431640625,-0.043834440410137177,-0.0056692371144890785,-0.010998424142599106,0.03165040537714958,-0.23112131655216217,-0.9724100232124329,-0.00021728873252868652,0.0042230188846588135,0.006315052509307861,0.9929487455121768,0.11609314770660602,0.017815276278715826,0.01605998316815157
1681501366094241000,5.851240966796875,-0.0510188490152359,-0.0075470320880413055,-0.012312959879636765,0.03164595365524292,-0.23065218329429626,-0.9725215435028076,0.001770809292793274,0.0006410926580429077,0.005648374557495117,0.9929776457509681,0.11585463630317745,0.017802841691217267,0.016010128109547817
1681501366104239000,5.861239013671875,-0.045383520424366,-0.0028319722041487694,-0.01034721452742815,0.031626053154468536,-0.23019097745418549,-0.9726314544677734,0.004827205091714859,-0.0005677938461303711,0.0041255950927734375,0.9930061711765609,0.11562046015974403,0.01778178763185644,0.015952182236811795
1681501366114237200,5.8712373046875,-0.03274708613753319,-0.003418666310608387,-0.008291253820061684,0.031627777963876724,-0.2298208475112915,-0.9727188944816589,0.0032385624945163727,0.0020375698804855347,0.003923177719116211,0.9930289353313853,0.11543243119686689,0.017773686080768927,0.015904497061915837
1681501366124236000,5.881236083984375,-0.024078447371721268,-0.0022159162908792496,-0.007847905158996582,0.031625475734472275,-0.2295508086681366,-0.9727827310562134,0.00043324753642082214,0.0018895715475082397,0.0024916529655456543,0.9930458391198124,0.11529543251264061,0.017764874346014082,0.01586009464248626
1681501366134234000,5.891234130859375,-0.023507464677095413,-0.0023136544041335583,-0.007280651479959488,0.031635090708732605,-0.2293158322572708,-0.9728378653526306,-0.002979069948196411,0.004279106855392456,0.00045627355575561523,0.9930601976818781,0.11517612684772505,0.017763356648193118,0.01582391589494198
1681501366144232200,5.901232177734375,-0.028302187100052834,-0.002552140038460493,-0.007706623990088701,0.031630419194698334,-0.22905151546001434,-0.9729002714157104,-0.0024708621203899384,0.00561697781085968,-0.0017853379249572754,0.993076518588462,0.11504202244911235,0.017753929602031763,0.015783803196141487
1681501366154230000,5.91122998046875,-0.022966809570789337,-0.004528206307440996,-0.007119130343198776,0.031609151512384415,-0.22880716621875763,-0.9729584455490112,-0.0014272630214691162,0.00282442569732666,0.003079354763031006,0.9930918315195711,0.11491820225102403,0.017736469100132372,0.015744827708589083
1681501366164228000,5.92122802734375,-0.020580900833010674,-0.0028732512146234512,-0.008306700736284256,0.03158140182495117,-0.2285793423652649,-0.9730129241943359,0.00009585916996002197,0.0025355368852615356,0.0059566497802734375,0.9931060551914148,0.1148027963456575,0.01771635408987949,0.01570970873101866
1681501366174226200,5.93122607421875,-0.0185819324105978,-0.0014343452639877796,-0.011806893162429333,0.03159492090344429,-0.22839516401290894,-0.9730557203292847,0.0008147582411766052,0.0019393861293792725,0.006335139274597168,0.9931176016648664,0.11470958642321515,0.01771601944145732,0.01566242444550493
1681501366184224300,5.941224365234375,-0.024925749748945236,-0.0060012671165168285,-0.00920751504600048,0.03159598261117935,-0.22818662226200104,-0.9731045961380005,0.0024311281740665436,0.0011967867612838745,0.008032023906707764,0.9931306978427554,0.11460403052783137,0.017709198520171575,0.015615132916978273
1681501366194222300,5.951222412109375,-0.02951331064105034,-0.005347194615751505,-0.0118866553530097,0.03157913312315941,-0.2279076725244522,-0.9731705188751221,0.004599466919898987,0.0012077540159225464,0.00426793098449707,0.9931481170001031,0.11446279521305514,0.017692094512921756,0.01556229623135189
1681501366204220400,5.961220458984375,-0.028145160526037216,-0.0034095454029738903,-0.016393989324569702,0.031574804335832596,-0.2276238054037094,-0.9732370972633362,0.007777620106935501,0.0010612159967422485,0.007691442966461182,0.9931660222713627,0.11431934413012217,0.017678841392164406,0.01548838909345642
1681501366214218200,5.97121826171875,-0.03093641810119152,-0.004980011377483606,-0.013175824657082558,0.0315588004887104,-0.22732758522033691,-0.9733068346977234,0.005306445062160492,0.000322490930557251,0.009271860122680664,0.9931846006763431,0.11416952327060736,0.0176606146350697,0.015423126162685942
1681501366224217000,5.981217041015625,-0.03471636027097702,-0.0028375647962093353,-0.007412943989038467,0.031531281769275665,-0.22699758410453796,-0.9733847379684448,0.0011530593037605286,0.001243695616722107,0.0064353346824646,0.9932049769618937,0.11400229584739961,0.017638013734068005,0.015372696548435691
1681501366234215200,5.991215087890625,-0.02635776437819004,-0.0036160070449113846,0.0005986437317915261,0.03150852024555206,-0.2266945242881775,-0.9734561443328857,-0.0000448860228061676,0.0026191025972366333,0.005728483200073242,0.9932232381657273,0.11384821404305762,0.01762174348847277,0.015354344470151575
1681501366244213000,6.001212890625,0.012401632964611053,-0.004499710164964199,0.005401987582445145,0.03147929161787033,-0.2266177535057068,-0.97347491979599,-0.003738798201084137,-0.002767711877822876,0.004236698150634766,0.9932278085946439,0.11380905866011239,0.01760767107831804,0.015365936972238984
1681501366254211000,6.011211181640625,0.03905561566352844,-0.00181258050724864,0.007280581630766392,0.031443770974874496,-0.22689226269721985,-0.9734121561050415,-0.0057784803211688995,-0.0036376267671585083,0.0001608133316040039,0.9932115553604808,0.11394877999539102,0.017595576139262128,0.015395022373655556
1681501366264209200,6.021209228515625,0.03849336877465248,-0.0035442342050373554,0.0057685053907334805,0.03141196072101593,-0.22729367017745972,-0.9733195304870605,-0.00003987550735473633,0.004713624715805054,-0.003731250762939453,0.9931878345441276,0.11415332000108333,0.017585854192593224,0.015418526022772919
1681501366274207200,6.031207275390625,0.029393082484602928,-0.004889663774520159,0.0022744378075003624,0.031398046761751175,-0.22761830687522888,-0.9732440710067749,0.003300447016954422,0.014727592468261719,-0.0037761330604553223,0.9931688206713392,0.11431896626911946,0.01758198970904214,0.015420536011077046
1681501366284205300,6.041205322265625,0.030203700065612793,-0.0028002136386930943,0.0043725427240133286,0.03140005096793175,-0.22789640724658966,-0.9731789231300354,0.0043665580451488495,0.013693436980247498,0.00008022785186767578,0.9931522320400036,0.11446056178264198,0.017587073542971357,0.01543426773881954
1681501366294203100,6.051203125,0.03655640408396721,-0.0014441325329244137,-0.0023101274855434895,0.0313991904258728,-0.22822900116443634,-0.973101019859314,0.002933099865913391,0.009768828749656677,0.00622791051864624,0.9931326674585363,0.1146302735000758,0.017589333416618298,0.015431754883521578
