,seconds_elapsed,rotationRateX,rotationRateY,rotationRateZ,gravityX,gravityY,gravityZ,accelerationX,accelerationY,accelerationZ,quaternionX,quaternionY,quaternionZ
0,8.0,-0.022661515173538257,-0.003921202805955209,-0.004369292719563217,0.03261748477036078,-0.22742136486870193,-0.9732500500867879,0.0029900217193015756,-0.0004304185786949544,0.00722140000856906,0.11416791856306933,0.018457247713256315,0.01770850016234681
1,8.01,-0.02276011017511161,-0.0045273495116066815,-0.0028118981583626383,0.032602308514831334,-0.2271884692173435,-0.9733049051656424,0.0022357485404072195,-0.0011533089266839345,0.0060471971856901445,0.11404961561408279,0.01844504573093432,0.017689439015290756
2,8.02,-0.014292853189590922,-0.0026044161400088296,-0.0019549020925320663,0.03257966378070944,-0.22699117166533972,-0.9733517248431647,0.002950933724598063,-0.002704153846404267,0.0042254690209689565,0.11394937025057447,0.018430412412329702,0.017678760194240306
3,8.03,-0.010141506447349919,0.00232615459048608,0.0014387904143070818,0.03257577975440131,-0.22687758467210922,-0.9733783353944615,0.002812995379788855,-0.001059209109575432,0.004290323991937474,0.11389143840856027,0.018427443368204607,0.017680023179297805
4,8.04,-0.004312649925504892,0.0021033709680986982,0.0029157251522369315,0.03259763270281764,-0.22682135881250962,-0.9733907245208705,-0.00036428065493473213,0.002455902384300138,0.004516328119351268,0.1138623902034092,0.018439124626478173,0.01769092903072759
5,8.049999999999999,0.0006330857545160384,0.0002926332687516735,0.0012225760879951153,0.032602467441613756,-0.22680637995982184,-0.9733940589252733,-0.004039351761681286,0.006261047821176411,0.0027868342857132137,0.11385446522485697,0.01844289864701613,0.017703952537265304
6,8.059999999999999,0.006775265325010875,-0.0018925790240930025,0.003739645907352627,0.032598384395117974,-0.22684925618707188,-0.973384207825941,-0.003778851803550157,0.004896312496478029,0.0006031690106821645,0.11387615467061547,0.018442647136829964,0.01771586313227751
7,8.069999999999999,0.0116331487646185,0.00041930474154309614,0.002774490084752855,0.03260244264511338,-0.2269432531743284,-0.973362129146964,0.0005820968264596336,0.0048082113241975045,-0.0004958450912114804,0.11392385398617187,0.0184469051035623,0.017726825844381768
8,8.079999999999998,0.01554305643208129,0.0015079590627682603,0.0011213540628333552,0.03262903380632891,-0.22709759573384308,-0.9733252641054472,-0.0005029713292697948,0.003909108768781235,0.003296750344947907,0.11400224348583225,0.018462508256775544,0.0177324236279222
9,8.089999999999998,0.013538093990306043,0.001131975054696405,-0.0007742222140562016,0.032638344224718376,-0.22725487318253706,-0.9732882086748793,0.0005787183527645604,0.004743775272918647,0.006074250891357465,0.11408229446017597,0.018469324300857348,0.01773700123422101
10,8.099999999999998,0.00611701760638442,-0.0017178534231905573,-0.0016888158013276342,0.03266049115979519,-0.22735509330242673,-0.9732640605346373,0.0018282732601552967,0.0033983485432991546,0.006198787030169469,0.11413343181387366,0.018480348694720226,0.01772699819444485
11,8.109999999999998,-0.0043102559826529606,-0.0033233496001960332,0.0026801112285300918,0.032645830544957954,-0.2273770532669771,-0.9732594522624024,0.003950913454789461,0.0003418781708722134,0.006678673196874426,0.114144863816817,0.018472447253765865,0.017720521951923418
12,8.119999999999997,-0.0024707967569357705,-0.0029398997615884916,-0.003639407233123323,0.032607598378022615,-0.22734964304963165,-0.9732670994812845,0.004516711681029404,-0.0031850755426457034,0.0021155518023106843,0.1141312981953387,0.0184522666761754,0.017714838160932767
13,8.129999999999997,0.0021451258827930157,-0.0025797912411240406,-0.0018563090514672662,0.03257556079808072,-0.22733324361827875,-0.9732720129283571,0.0029664147841000793,-0.0027992037136031107,0.0049548569799600095,0.11412347471191697,0.018434200316260824,0.017699436763271077
14,8.139999999999997,0.0021138567132062917,-0.0008132296168976824,-0.0006542074054853499,0.032540299406616784,-0.2273566342874252,-0.9732677245843361,0.0016113706711776198,0.0010727957447041313,0.007297459222022062,0.11413592730554763,0.018415239481934076,0.017686860576707115
15,8.149999999999997,-0.0008499187142212193,-0.00429524758541997,-0.0012196615825438347,0.03251317576802219,-0.227370230608916,-0.973265453152899,0.0004767744529703844,0.0023020267012129497,0.0068302318644439895,0.11414321782933068,0.018400808595364474,0.01767893122708872
16,8.159999999999997,0.0024853353708552935,-0.0020037025050254147,0.000273394724072801,0.03248805587817035,-0.22738101719836198,-0.9732638099528864,0.0008730799882524514,0.004060294747218165,0.0031790256002469566,0.11414912255498315,0.018387038190859052,0.01766818276215127
17,8.169999999999996,0.00933051357380208,-0.0006320596238844249,0.0005947080030402187,0.032470816649837864,-0.22743713310631333,-0.9732512327176353,0.0006358752004958219,0.004837572923929369,0.001561794666532766,0.11417782037992878,0.018379346027513718,0.017671810644899654
18,8.179999999999996,0.005365645612524614,0.0043449791438368544,-0.0005659663134426248,0.03250438961490885,-0.22751729824885142,-0.9732313925735628,-0.00026579654563770516,0.004012985462494021,0.0031005919417723526,0.11421852281802208,0.018396535276281243,0.01766721201449169
19,8.189999999999996,0.0019960632359536054,0.004371840045145006,0.0008277115159266902,0.03257008099043404,-0.22754716321020715,-0.9732221950556297,-0.0021741434838774207,0.004704380998002345,0.007168738783089242,0.11423324998666574,0.018429758715143317,0.017665872197024014
20,8.199999999999996,-0.012017836291565364,8.448828168430064e-05,0.0011056756587824346,0.0326173158403806,-0.2274997261936665,-0.9732316919362483,-0.0018546321300322267,0.002150630001667672,0.00635231133462403,0.11420856234675358,0.018453830984058894,0.017672586910573735
21,8.209999999999996,-0.011292538104106043,0.0007525941383255995,0.000925499527709737,0.03262158034543634,-0.22737769320757104,-0.973260119347792,-0.0009850948737163126,-0.003602494854454934,0.0053528144658721135,0.11414601851468001,0.01845633405687025,0.01768649509132768
22,8.219999999999995,-0.002310812022866591,-0.0011326543431248743,0.0006341900667197415,0.03262764125648301,-0.22731257278692688,-0.9732751149635432,0.003324270829327391,-0.006114375378195137,0.0046556504164203556,0.11411262575302396,0.018459538565994568,0.01769359343400036
23,8.229999999999995,0.00401543756016424,0.00048156667747244544,-0.00045680516088963865,0.0326266085304549,-0.22731767085652474,-0.9732739466895091,0.004631096479802799,-0.001612509399419198,0.0031805988353879253,0.11411520366517436,0.01845920387888855,0.0176947609933639
24,8.239999999999995,0.0082324281130992,-0.0030798847717558955,-0.0035400746397210234,0.03262927366755345,-0.22738147712102286,-0.9732589804221734,0.0010956475991396554,0.004446274171157152,0.002805125993971063,0.11414785732176096,0.018460398870192705,0.017687842102119877
25,8.249999999999995,0.011311173773237896,-0.004581863407496407,-0.006791829170828366,0.032619095662316556,-0.2274661834989762,-0.9732395377905952,0.003033642512098026,0.00706136799165333,0.002132471449255802,0.11419172360469117,0.018452519379797656,0.017656389378523266
26,8.259999999999994,0.014010341235583621,-0.0010656820946866757,-0.0043705883446151445,0.03259525901711369,-0.22758918174287157,-0.9732115657485105,0.003557066967511818,0.005600933018653855,0.0015021676470707644,0.11425521249133545,0.018438332595604085,0.017626501918938317
27,8.269999999999994,0.008339211820390484,-0.0003769647316038544,-0.003540074045054402,0.03257630627841029,-0.2277026766000384,-0.9731856380345697,0.0008732521732583948,0.004242803521555515,0.0038492164503046563,0.11431358272553295,0.01842788755366802,0.017608653534533576
28,8.279999999999994,-0.007327581791215666,0.0020133854415991985,-0.0007684723259723659,0.03258916322238394,-0.22770167061644817,-0.9731854456766036,-0.0010451653972300408,0.002764961014522427,0.005925356825058422,0.11431312311653984,0.018433375316444213,0.017600185395423625
29,8.289999999999994,-0.017500617197214755,0.0007723941844361359,0.0015962871022249094,0.032593820292468385,-0.22758719780083733,-0.9732120417176361,-0.0019511962584194942,0.0013671107211783464,0.007545547269124987,0.1142547394881322,0.01843427872399562,0.017597744409324354
30,8.299999999999994,-0.018696075179944007,-1.3459382118740032e-05,0.0041120353154146,0.032608895290415156,-0.2274139183859972,-0.9732520443549798,-0.001453137093462841,-0.003718716347658531,0.006270644261714879,0.11416602775791296,0.018441427835168566,0.01760917806777761
31,8.309999999999993,-0.014807250126505273,0.003069235206858466,0.006616403811253646,0.032644655175425454,-0.2272578887852475,-0.9732873359446556,0.0008263795463375118,-0.007137220141113985,0.006269766796110167,0.11408576212796374,0.018460308536312486,0.01763058741763106
32,8.319999999999993,-0.003485824536437412,0.0034530372555910127,0.004010549202274397,0.03266774820260217,-0.22717099515973402,-0.9733068037390538,0.0016972552720694502,-0.0032529345619730287,0.006014717874563623,0.11404084800559722,0.01847370367126532,0.017653641973857312
33,8.329999999999993,0.003772166531724738,0.0023475590323318424,0.00281521438918154,0.0326962790183226,-0.22717759133034396,-0.9733042991919358,0.00044581305958367044,0.004584651269357575,0.002523751996720828,0.11404371352718527,0.018489794945056613,0.01766809418486904
34,8.339999999999993,0.00897758229602071,-0.00027006915965723747,3.5848472006965414e-05,0.03272132349334561,-0.2272327328235662,-0.9732906006840436,0.0020186643215022292,0.007615803623907057,0.0007702172747159849,0.11407157474283094,0.018503277216747736,0.017670837417170317
35,8.349999999999993,0.004520828966583323,0.0019365766070233523,0.003774227546196285,0.03272190745212215,-0.22728953074716995,-0.9732773248808508,0.0024133377773442512,0.00788213228790466,0.0012563610448335912,0.11410045183074027,0.018504685999093776,0.017675510343890193
36,8.359999999999992,-0.0006780313160441595,0.0049202777970702265,-0.0017171051591253674,0.03274548165677531,-0.2273218854877949,-0.973268995170351,-0.0003092457731894522,0.004364122499291542,0.0023423005017780925,0.11411669981362928,0.018517336802978998,0.017679435362216705
37,8.369999999999992,-0.007439602122418928,0.005928900191234277,-0.0019092531329416565,0.03278097800876078,-0.22729890033293781,-0.9732731252836658,0.0011642168786948513,0.0015946421268748013,0.006464358325204698,0.11410480570393626,0.018534265700105017,0.017673275716887486
38,8.379999999999992,-0.020353476356998634,0.0033653863267025463,0.0003999761888549454,0.032812647207666454,-0.22717540079121354,-0.9733008881327002,0.001839469673282879,-0.0007472727077957382,0.009348278528509012,0.11404158134372841,0.018548857904225235,0.017672444690391715
39,8.389999999999992,-0.018915284757408387,-0.0007064968563137148,-0.00048542394535568004,0.03282192027308579,-0.2269904643262266,-0.9733437372252981,0.00021255436285231655,-0.003622243196287246,0.007991064329234547,0.11394709777101329,0.018552241402059706,0.01767763576434368
40,8.399999999999991,-0.00636663958071614,-0.0015166615599815879,0.000675893201841835,0.03280694138224401,-0.22688464821767715,-0.9733689418904717,0.0024606902114525193,-0.0044429437978390045,0.006036547928259099,0.11389328721497564,0.018543324796779226,0.01767504488362274
41,8.409999999999991,0.010983539470840284,-0.0004967653138371799,-0.0001682048254431273,0.03279631855164585,-0.2269063899702894,-0.9733642278809315,0.0029754952443343955,-0.0007804803001560676,0.004611024960896908,0.11390448417057182,0.018538024379462503,0.017673533731769255
42,8.419999999999991,0.023016231247737363,-0.002241433573897975,-0.0009391745189676474,0.032786055456446236,-0.22705771456763973,-0.9733292860761715,0.0032938747265056005,0.00572317503220738,0.0017575644415374456,0.11427061208270169,0.016652221521874244,0.0012956248936377389
43,8.42999999999999,0.027020923232213074,-0.00323386797535127,-0.006739208497639785,0.03278633996006276,-0.22728240245433787,-0.9732768325059744,0.0030047582594201817,0.010514766244941522,0.0017449578878853424,0.11440850738787077,0.01650093100173129,-2.487514900062844e-05
44,8.43999999999999,0.025162876734643347,-0.0016248599737983599,-0.004620494178479515,0.03277854222200645,-0.22752727570405523,-0.9732198616237607,0.0021957372521548696,0.01146331107166333,0.001212867782099596,0.11453387160173226,0.016494116505079457,-5.197452196080268e-05
45,8.44999999999999,0.016134933150847932,0.00040722782950589433,-0.002184004696325554,0.03279007196427841,-0.22773255880075693,-0.9731714748549123,0.0016691947902947963,0.007042611213953329,0.002554911441122871,0.11463895996096543,0.01649769004598458,-7.299943964103847e-05
46,8.45999999999999,0.00012452355418079639,-9.267379885249136e-05,0.0005017385359299461,0.032810348829729934,-0.22782648601908617,-0.9731487752491556,-0.0012314096052217112,0.0028942115049145384,0.005304971611289046,0.11468713688859586,0.01650642409877393,-8.657516625326908e-05
47,8.46999999999999,-0.013889621223840872,0.00019271719231843027,-0.00023519366597861272,0.03281251443970254,-0.2277419978753097,-0.9731685080130507,-0.00046472743548109895,-0.001853291098839248,0.007443549365099981,0.11464404409984968,0.0165073837585983,-8.702222368038999e-05
48,8.47999999999999,-0.01992791039243875,0.0014419959430091126,-0.0008770363040771762,0.03282477200947499,-0.22757110710802167,-0.9732080492762109,0.0015825083911175806,-0.006101769079512022,0.008962936403927316,0.11455693739391719,0.016512924527749544,-9.109640801875519e-05
49,8.48999999999999,-0.01395419371364413,0.002031805534559654,-0.001123171609393664,0.03285929348925962,-0.2274136376316299,-0.9732436861062007,0.000781305999395986,-0.007455853480079506,0.008818648116596725,0.1144766157920771,0.016530271152028264,-9.014098002167342e-05
50,8.49999999999999,-0.013166015566152137,-0.0035567959237720894,-0.0010457800752521247,0.03287708485187184,-0.22727793162573273,-0.9732748245961219,0.000593103233904658,-0.00590518672942927,0.006702971076520594,0.11440745549187376,0.01653868652942892,-9.374336724792725e-05
51,8.50999999999999,-0.008430889191889626,-0.001072306585037304,-0.004749651202063689,0.032874936578876454,-0.2271512528394939,-0.9733044286070217,0.0011118321307833506,0.00011117464106514055,0.004627551911842961,0.11434307341764895,0.0165358597709837,-0.00010788287488732069
52,8.519999999999989,-0.007385227094481126,0.0021169099990874553,-0.003261179540161252,0.03290714560114017,-0.22705452837151308,-0.973325912295871,0.0018994184870643424,0.004274760798237249,0.0025723018590021038,0.11429406062565137,0.016549934616700845,-0.0001257252169436242
53,8.529999999999989,-0.0008786181439973603,0.00045642871119246585,-0.00105667281534199,0.0329422722042204,-0.22700857185905263,-0.9733354822199611,0.0011302974992289186,0.004279140622334357,0.002476520830349538,0.11427087848423477,0.016566030168018445,-0.00013918691872359567
54,8.539999999999988,-0.003588561779677532,0.0022976990259676033,-0.0031033641478513136,0.0329467139197184,-0.22697778378343483,-0.9733424693765199,-0.0021531575734696183,0.003109899052776878,0.005506619074583609,0.11425526417832788,0.016567650641438263,-0.00014430866910401961
55,8.549999999999988,-0.004771919892639777,0.00020380365100788108,-0.004059575285029865,0.032960402614694545,-0.22695183129225435,-0.9733481067405516,-0.0004978845264089538,0.0018215160823745228,0.006465742242853156,0.11424236384330613,0.01657226193739952,-0.0001639355376623324
56,8.559999999999988,-0.008439525746590178,-0.0009252764865835827,-0.002943247733299209,0.0329708847782467,-0.22689719423096838,-0.9733604650767552,0.0014950976969097217,0.00024495973260928584,0.005838171000185183,0.11421474789738656,0.01657580590409178,-0.00017858286928536742
57,8.569999999999988,-0.0029625354357167687,0.0004072837374905227,-0.0012348314203924488,0.03298531628478733,-0.2268434270229968,-0.9733725106634943,0.000231463711815133,-0.0009530263030988343,0.0031873373104144057,0.11418759282764859,0.016581285132818823,-0.00019371868920500516
58,8.579999999999988,0.004750389145217306,-0.0015087173197083012,-0.0017488594280011768,0.03298484376748089,-0.22686492127589525,-0.9733675339175901,0.0009780587070692167,-0.0001727638056210378,0.0037794079187533814,0.11419868033380672,0.016580193965705717,-0.00020130642925196137
59,8.589999999999987,0.0068510831666614945,-0.0019616963489012076,-0.002612269041723113,0.03298270990109619,-0.22693606618152126,-0.9733510185065831,0.001072787663903478,-0.0003790943667762804,0.004702703029201352,0.11423509717063489,0.016578289742964877,-0.00020906019063928472
60,8.599999999999987,0.009775807748788409,-0.0028979424498066435,-0.0034514768514907444,0.03297908567795429,-0.22699766165803567,-0.9733367797303945,0.0006243221453955524,0.0026376901677297505,0.003420362989974195,0.11426680207342052,0.016574606952660532,-0.00022569933465970928
61,8.609999999999987,0.011197121185474453,-0.00044465450348300664,-0.003291507574553683,0.032972249872124645,-0.22710167577288742,-0.9733127314661137,0.0009804285326949973,0.0051374943543778685,0.0030833435350863508,0.11432017691777373,0.016569064407844936,-0.00024473135866524755
62,8.619999999999987,0.006315955670980029,-0.0006791140892705488,-0.0012903059192824876,0.03295600807181815,-0.22718739004241312,-0.9732932562729326,0.0009827242880727372,0.006621024820061676,0.002195918553043027,0.1143640965377794,0.016559449270043783,-0.0002578393259114359
63,8.629999999999987,-0.004915728271945623,-0.0015068835240266772,-0.0003615151883619972,0.03295196663762207,-0.22718879670155046,-0.9732930986740134,0.00047226597375482073,0.0034618739400436344,0.003836643814595717,0.11436491590231276,0.016556677450664397,-0.0002642429260385457
64,8.639999999999986,-0.016381863000593792,0.0007126273032672329,-0.0009607750438411083,0.03295969988226778,-0.22707833669080332,-0.9733186022812815,0.001648336148880149,0.0002825964382445912,0.0065744256411983375,0.11430864202537057,0.016560066472533296,-0.00026783654760315404
65,8.649999999999986,-0.028525706447769084,0.0019207488995015942,-0.002889105871812484,0.03298905497832751,-0.22685708934457607,-0.9733692197291778,0.0014536640559338833,-0.003927826405826378,0.008507465237422001,0.11419583469031008,0.01657448735945032,-0.0002693424820885765
66,8.659999999999986,-0.039442504910174876,0.0024510693946378555,0.0002763215096875751,0.03303079082967019,-0.22652609801750023,-0.9734448738245539,-0.0003976014972363463,-0.006015816061088037,0.009446933747663887,0.11402714784103729,0.01659447000347513,-0.0002758977629947078
67,8.669999999999986,-0.035268622412604644,0.0024242108745477914,-0.00015523288637618246,0.033054302787489324,-0.22616624556704576,-0.9735277522181387,-0.0005246456063887822,-0.005589065562427245,0.00979748656592953,0.11384360072231611,0.016606244907307593,-0.00027382929395774737
68,8.679999999999986,-0.01783355589859242,-0.0010268809762963948,0.003358952871785038,0.033067422993022594,-0.22589937286186962,-0.9735892658300361,0.0002889369681180067,-0.0038565779528760644,0.007599887497250369,0.11370739435589679,0.016613334311697127,-0.00026764294769771925
69,8.689999999999985,-0.001503502949806666,-0.0008129968146702794,-0.001090433930950342,0.03305821204265098,-0.2258121869635055,-0.9736097965023438,0.002946647267961223,-0.0006878742776112831,0.004211551336419228,0.11366283809158077,0.0166091806515515,-0.0002627832829047131
70,8.699999999999985,0.012898779955734694,-0.0060433301872994186,-0.0028499346780661403,0.03303197819124355,-0.22585685663058955,-0.9736003294430303,0.0039015115389016966,0.005359012573967283,0.0014192816777509423,0.11368582630109737,0.016594400672055018,-0.0002768402377180526
71,8.709999999999985,0.02443624470340446,-0.008331168731009123,-0.005688495837056708,0.03297118390330873,-0.22603899078863157,-0.9735600962946718,0.0035039644590493814,0.010314794133196466,-0.002163678107835481,0.11377900459968124,0.016561529281282787,-0.0002979275298591111
72,8.719999999999985,0.02542959359574686,-0.002196662738326309,-0.007936621382268833,0.03296264194783159,-0.22630040476822352,-0.973499648143454,0.003119611960726529,0.011560829024826667,-0.001002044201737789,0.11391307660448978,0.016552278792098685,-0.0003429569658282231
73,8.729999999999984,0.008443629455770336,-0.0009371554114910623,-0.003761487122510553,0.032964508667941504,-0.22648530613640716,-0.9734566206606151,0.0014409903525257081,0.009744534684390337,0.00259065454408685,0.11400783681176968,0.0165502475685899,-0.00037013213136972983
74,8.739999999999984,-0.01202553260452538,-0.002348622388526186,-0.005057586778531111,0.03295459319670194,-0.2264937226134577,-0.9734549875483776,-0.001970834576965225,0.004494512311411556,0.006943382450862753,0.11401253022194549,0.016542425934383896,-0.00039482952516323394
75,8.749999999999984,-0.03134412571427718,-0.0004263027456070062,-0.001638617229871066,0.0329465493300612,-0.22631837546041025,-0.9734960035132508,-0.002954655370173939,-0.005615442191553947,0.01016917775919429,0.11392331497060403,0.01653671688542362,-0.0004081301600083543
76,8.759999999999984,-0.0456365785712265,-0.0004365709879777547,-0.00019032958908038033,0.03295115217943459,-0.2259550999568672,-0.9735802667504428,-0.0016747954257233253,-0.009897793479129693,0.00977722260603408,0.1137380510994451,0.016538657426235358,-0.00040901402316475264
77,8.769999999999984,-0.0456075344039505,-0.0037997668232999018,-0.0016469320177948598,0.032952989835377935,-0.22550416333900414,-0.9736847294715375,-0.00011384003961668128,-0.009582840191853676,0.010060751585434432,0.11350810681792761,0.01653893128249781,-0.00041169636295397804
78,8.779999999999983,-0.03768278933039748,-0.002763406007737965,-0.002295673865189659,0.032947414900967795,-0.2250854101826715,-0.973781803383052,0.0029025861225069447,-0.006440129309380098,0.008008617547536012,0.11329458751701735,0.01653559590850519,-0.0004135519553441382
79,8.789999999999983,-0.020744534947208945,-0.004023250750328308,-0.00537910946342225,0.03294116318542797,-0.22479730714302237,-0.9738485962942096,0.005381077691922535,-0.0022195394336269004,0.004857778083436275,0.11314793831602303,0.016530355454925243,-0.0004300087335364916
80,8.799999999999983,0.0012857784000215346,-0.0012486496815954933,-0.0016318410520220414,0.0329397782486155,-0.2246749575997057,-0.9738768687132257,0.005485887886109674,0.006810762749360752,0.0034006090282042312,0.11308590757310981,0.01652716132608852,-0.0004511542996761352
81,8.809999999999983,0.02937034941374611,-0.00031132123415531475,0.00019248872728677333,0.0329519329106092,-0.22482563409401926,-0.9738416979848047,0.0025472813981838667,0.013374026099903867,-0.0007157065156169823,0.11316292385054354,0.0165322175187375,-0.0004614454732707366
82,8.819999999999983,0.03391833631053827,-0.0020266054521499636,0.0021438029446168394,0.032933521383405745,-0.22514414989603557,-0.9737687017168241,0.0026880161067881327,0.01228893451315797,-0.003621811343016713,0.11332520200696947,0.016523974017386547,-0.0004544867603805201
83,8.829999999999982,0.033062051505384986,0.0003779298763835256,-0.0018074031311774846,0.03290608710740183,-0.22548523336258808,-0.9736907283678539,-0.0001994599738255336,0.01261707672292124,-0.0027236495779064925,0.11349915919766293,0.016510042349533956,-0.000457725815935069
84,8.839999999999982,0.022476938707636205,0.003702563775650526,-0.001685559037273614,0.032920318324366975,-0.2257793257334982,-0.9736220997789685,0.0002228207646053127,0.010964895555474951,0.002309651597437261,0.11364932503124278,0.016516317649723573,-0.0004673882365051452
85,8.849999999999982,0.00390677156269003,0.0010444664596919052,0.0006691940579972974,0.03293988875716706,-0.2259256173415466,-0.973587464853677,-0.0017210013965368574,0.004169152260395255,0.0066343088591958276,0.11372397954731359,0.01652617799760808,-0.00046827421815604664
86,8.859999999999982,-0.020492725787202126,0.0005894387091757209,0.0005432699724473795,0.03295875275455711,-0.2258591410924168,-0.9736022566451447,-0.001790974216321242,-0.0027056232666590597,0.010352222256000153,0.11369003870464646,0.016536019482843254,-0.00046484788636147483
87,8.869999999999981,-0.03519103806825276,0.0013105845792152988,0.0017992449266613004,0.032987384138598495,-0.2255894464312749,-0.9736638068264991,0.000584111397495,-0.00889517704009559,0.01167879198899756,0.11355239950790079,0.01655106606314323,-0.0004575864061061205
88,8.879999999999981,-0.04374238896113789,-0.0007088434083928085,0.00026203289562323935,0.033014078710849486,-0.225190578930615,-0.973755247212532,0.0007231148420611725,-0.011457169865231778,0.01064207643198672,0.11334893508840008,0.0165648140565544,-0.0004523125134802359
89,8.889999999999981,-0.03144589610450927,-0.00012034232460910355,-0.0024394649322287457,0.03302788733271623,-0.22478225193414766,-0.9738491064407445,0.0020514737676089303,-0.009432582056546455,0.009039896609733866,0.11314078166481471,0.016571172769096056,-0.000454877571372353
90,8.89999999999998,-0.012430928636685233,-0.0023298557732913225,-0.0009856732507862156,0.03303760215298021,-0.22456553284880107,-0.9738987632056515,0.002105347452309424,-0.00510370735539114,0.009007341774046801,0.11303043734901118,0.016574889023649852,-0.0004638085387463989
91,8.90999999999998,-0.0005191662426851703,-0.00525639784429173,-0.004687314106002904,0.03300190528902539,-0.22449283318386745,-0.9739167588405861,0.0012248704357175559,0.002607883293503287,0.004827565533914514,0.11299345563389493,0.016555971887507084,-0.00047165164378812536
92,8.91999999999998,0.010442533966941156,-0.004512072891864075,-0.004634551644392431,0.032959681474586486,-0.22454196748034994,-0.9739068432184,0.0023192024474433352,0.008796784929259924,-0.002312558345608934,0.11301892923377772,0.016531533296525007,-0.0004999327565909712
93,8.92999999999998,0.017399011644270726,0.0006694743459406969,-0.006442798518985441,0.03293827586811128,-0.22467198107820205,-0.9738775740804605,0.004045500549931757,0.012196108099910423,-0.0018494550657607205,0.1130856321119624,0.016517835549109412,-0.0005263961014221373
94,8.93999999999998,0.014261347050739417,0.0019395468513966935,-0.004836898757027955,0.03294494113558072,-0.22483551666846083,-0.9738396273925947,0.0034058933160618344,0.011025714986635878,0.0007217494152558256,0.11316941514162272,0.01651871923025479,-0.000549108499647767
95,8.94999999999998,0.007907692652294667,0.00012836143854001204,-0.0028925595808351407,0.032974939708668,-0.22496466620125502,-0.9738087736338112,-0.000676969712815112,0.009564925452960674,0.00679518038904447,0.1132356232841029,0.01653178135853366,-0.0005677863858986603
96,8.95999999999998,8.483565514405631e-05,-0.0036273727830031586,0.0017549709930931002,0.032967961058355325,-0.22503041672063848,-0.9737938444469796,-0.0017690484938332988,0.004011365643805482,0.007108583807665907,0.11326926725249706,0.016527408670172543,-0.0005757010318336439
97,8.96999999999998,-0.010036228789572502,-0.002632424179811169,0.0031456931968750204,0.03295605333602378,-0.2249931805556257,-0.9738028581212522,0.0015908324940648686,-0.0030038190441803504,0.003780614479169861,0.11325008788806502,0.016522597250613072,-0.0005651114042904595
98,8.979999999999979,-0.013247022839571718,5.018238051713621e-05,-0.0005096663107150342,0.0329611599387122,-0.22488322731560792,-0.9738280502408624,0.002929385048835104,-0.004686222346395862,0.004040489831146204,0.11319395555831899,0.01652558073777199,-0.0005608313559292595
99,8.989999999999979,-0.014972947032254076,0.0022949802991195103,0.000334376809537693,0.032989209077373086,-0.22473793280439952,-0.9738606490452417,0.002618076009314651,-0.0035047496262035063,0.006907905756687147,0.11312000722371536,0.016538896490262696,-0.0005670396719085017
100,8.999999999999979,-0.011647312696449516,0.003344217569891632,-0.003869832603064514,0.0330279981519157,-0.22458875947818407,-0.9738937323695748,-0.0003352156431937585,-0.0022298491131129416,0.00804330767056618,0.1130440256371956,0.016558088645065434,-0.0005691094112852479
101,9.009999999999978,-0.0060446355636185126,-0.001852673095533506,-0.002603327718465544,0.03307108522627341,-0.2244714304936892,-0.9739193277627871,0.0017776211888241333,0.0026506730867939627,0.006211480925001293,0.11298446703844027,0.016578215663135432,-0.000582156238460893
102,9.019999999999978,-0.004487630678297909,-0.0038096277732900747,-0.004545558843914281,0.03305725260847104,-0.22438074504288189,-0.9739407351948969,0.0029342801789132783,0.003170426459744112,0.004173487558758484,0.11293847086665873,0.016569462819240318,-0.0005973803390370329
103,9.029999999999978,-0.00014216058545627776,-0.0024154400472449454,-0.00703170621786295,0.03304386660871472,-0.22434116759983394,-0.9739502643142172,0.00242553192637684,0.00022838365989810098,0.0015355590056423374,0.11291870878644347,0.016559689819342912,-0.0006238197002696598
104,9.039999999999978,0.0015115106316133011,-0.0024494192492564093,-0.0020696762697743377,0.03302188391464977,-0.2243429061745915,-0.9739506354341402,0.002323094721936083,0.0010698775694877956,0.0024019272409543263,0.11291998871033071,0.016545765255430018,-0.0006489919570100344
105,9.049999999999978,0.009286040821185696,0.0006487831517484055,-0.00015105088533050098,0.033030421555766964,-0.2243913287357468,-0.9739392097136719,-0.0013867455537006673,0.0023602882141986357,0.003589513676973563,0.11294481279086512,0.016549196059576214,-0.0006568708019126173
106,9.059999999999977,0.012110099914159735,0.000733480965698827,-0.0006944187700979043,0.03305835564334963,-0.22451383184439982,-0.9739099784471674,-0.0026586697660440925,0.0037915720985479007,0.004894956547569591,0.11300736401518191,0.01656302687865953,-0.0006595986708381813
107,9.069999999999977,0.016584273909021986,0.0006250166829984801,-3.515622418585006e-05,0.03307566701424178,-0.22465516880524264,-0.9738768348763245,-1.843298892847305e-05,0.0009463425681377011,0.0015761206731860974,0.11307946860468261,0.016571764328127948,-0.0006601916216187258
108,9.079999999999977,0.010894434232200134,-0.0002581045705245024,-0.0027250570366816173,0.03307777606124581,-0.22477835263601217,-0.9738483237991991,6.987961501167486e-05,0.0021035116007465313,0.0006843910721257636,0.11314245035201165,0.01657180911738407,-0.0006698060153747292
109,9.089999999999977,0.006022880684193835,-5.170379553763252e-05,0.0020087187895672007,0.03310331427766003,-0.2248481597542516,-0.9738313257213937,0.00026816906053371515,0.005492970815695155,0.004883785398229652,0.11317824875657184,0.01658353271282418,-0.000680129076740676
110,9.099999999999977,-0.005826670807714864,0.0006047691963496525,0.003578032924822427,0.0331195122047145,-0.22484823963406214,-0.9738307903937314,0.00046747843912363276,0.0027619102073424,0.005816692523289999,0.11317817176548622,0.01659259961466001,-0.0006721199482521249
111,9.109999999999976,-0.013746619327358461,-0.0004906900486324154,-0.0005220035610933788,0.033144718973359244,-0.22474260324894876,-0.9738542938322082,0.0006989723802434892,0.0006606034753178344,0.007144635493508878,0.11312426871244012,0.01660570135789716,-0.0006679312745713428
112,9.119999999999976,-0.02263350830492069,0.00037906423219411607,-0.0007241527316646738,0.03317881326610834,-0.2245524189329246,-0.9738970369094748,0.0008239064828281848,-0.0009504867021505009,0.008673871709253989,0.11302731810080319,0.0166228189340799,-0.0006672906410052678
113,9.129999999999976,-0.020276852963912028,0.0027813174093831235,-0.00041524843599627815,0.03319093178536331,-0.22432503599290043,-0.9739489855419775,0.0014666002362907428,-0.004762001577583966,0.009561497787228753,0.11291132229929224,0.016629249679130893,-0.000663123782629601
114,9.139999999999976,-0.016849218598299007,-0.0007020279117260966,0.003346488704861663,0.03318241703939217,-0.22414702024328237,-0.9739902927565145,0.0002100615177070401,-0.003626473001117378,0.008387123175192975,0.1128204789112348,0.016625331007893835,-0.0006589013365252126
115,9.149999999999975,-0.0066466622765408365,-0.0033672983574441107,0.004963570239412689,0.03314297292692608,-0.2240177150428245,-0.9740213561871867,0.0002961523640964686,-0.0021659628150613357,0.004721358169612123,0.11275420744250081,0.016607468064545574,-0.0006406234063508708
116,9.159999999999975,0.00984505274430612,-0.0009742462126617387,0.0032809684796084454,0.03311032620023032,-0.22403364141332863,-0.974018789119007,0.0004087321177881127,0.0015762610669081299,0.0008441382179739157,0.11276206137514849,0.016592534355059564,-0.0006274843755747014
117,9.169999999999975,0.01737342852088416,0.002242620846653564,0.0009204333912493632,0.03310735537782436,-0.22415792557073738,-0.9739903003198606,0.0012203307422433683,0.005446911518203178,-0.0008064255854803426,0.11282527477343281,0.016592139770376,-0.0006184958806580684
118,9.179999999999975,0.02467196684666866,0.0019304382698357514,0.0028421109795469545,0.03313490126389669,-0.2243720064848265,-0.9739400602267297,0.001185711995560615,0.00934266366833502,0.0015120414882675423,0.11293431606184612,0.016607166357052026,-0.0006095300149749396
119,9.189999999999975,0.026398729164991107,0.000979604179143063,0.0021535020503244983,0.033163230089333404,-0.22462411878132313,-0.9738809763075297,0.00027750798762026603,0.009681539145367237,0.0033444557211553374,0.11306281273451382,0.016622179729306793,-0.0006043813171495892
120,9.199999999999974,0.017333526499857307,0.0010163988088649468,0.002250937510529338,0.0331845996542381,-0.22484791882803482,-0.9738286025768492,0.00044590812321500457,0.006549408863254863,0.0013742197366602153,0.1131768076941845,0.016634149124020867,-0.0005950417972909449
121,9.209999999999974,0.00505305841337831,0.004412719121005948,0.000871767271203746,0.03321982381216227,-0.22496293691951336,-0.9738008726921649,0.0018198612821201546,0.003970726958803792,0.0031323461173097746,0.11323534924240877,0.016652997497411955,-0.000585948352339344
122,9.219999999999974,-0.005931283666654317,0.002971762685968925,-0.003306422026652421,0.03326449214063622,-0.22496095579972625,-0.9737997970839082,0.0028674700805894843,0.002104688319359618,0.0073603969995084916,0.11323442201110098,0.016675310043136257,-0.0005874768012144334
123,9.229999999999974,-0.012920831287801478,-0.0005377923942944196,-0.0002469670876905183,0.033279824670007424,-0.2248703736378591,-0.973820212179859,0.00016784449097023832,-0.002792697110830921,0.00956033228552294,0.11318827953044391,0.016682771154402344,-0.0005892006496241137
124,9.239999999999974,-0.012548948389347888,-0.003416540454479699,-0.000607216950915467,0.03326554151994572,-0.2247502432554282,-0.9738484254617388,0.0012506526702162654,-0.005099150130032275,0.008512961803926845,0.11312700064324699,0.01667552333337451,-0.0005889839200868848
125,9.249999999999973,-0.011577474061743183,-0.005583885559284222,-0.0007214135891403319,0.03323197429895346,-0.22462767005173417,-0.9738778245123951,0.0045381666392486685,-0.004000072302345532,0.007002574764382711,0.1130644859158744,0.01665832415736573,-0.0005909030498603685
126,9.259999999999973,0.0009697738815126825,-0.0025079581094706255,-0.0026926153356231076,0.03318808198039571,-0.22455091805174954,-0.9738970483176997,0.0047901815588500115,-0.0018087058396354144,0.003710002889688795,0.1130253736235346,0.016635673856378298,-0.0005953217738691051
127,9.269999999999973,0.016925218201217108,0.0017684971183382406,-0.0017969536260862178,0.03318705894293126,-0.22461933032926967,-0.9738813075825534,0.0002741233572643182,0.00021978977264382454,0.0029950234591451766,0.11306048915110813,0.016633581138465043,-0.0006095655503722922
128,9.279999999999973,0.02386872826968712,-0.0001945322336015143,-0.001657811117935994,0.033199504486492976,-0.22481563320253467,-0.9738355990288943,-0.0009758455144268274,0.004987958507916588,0.0020985427743943517,0.11316076048430364,0.01663887133629542,-0.0006192638834807756
129,9.289999999999973,0.02595077810101601,-0.001078425542900322,-0.0011599512655892192,0.033185457251979626,-0.22504633986825548,-0.9737827487444373,0.0001748454564619573,0.00997869815249388,0.0008879137130626221,0.11327855659279494,0.01663076587926232,-0.0006296467128035097
130,9.299999999999972,0.03376794739634678,-0.0048597546857514955,-0.003945142652403464,0.03317577815142522,-0.225346759549325,-0.9737135984860822,-0.0010107615983510716,0.010764705125640475,0.0009969933164791732,0.11343203085417565,0.016624232679981872,-0.0006459207481793184
131,9.309999999999972,0.03038581849218365,-0.00027734832609928924,-0.0015226803922772682,0.03315737105605457,-0.22567347039434466,-0.9736385957472004,0.0006599592775909243,0.005675260790841518,0.0003749459347349286,0.1135989061032383,0.016613218591379087,-0.0006630256196001548
132,9.319999999999972,0.011414604913788859,0.003702024479812869,0.00084865762056588,0.033179145352105206,-0.22588758782450277,-0.9735881692076201,2.096368927650776e-05,0.0043991899107305,0.005519637787411882,0.11370823392174585,0.016623702341763896,-0.0006684106006220077
133,9.329999999999972,-0.004437953544624278,-0.00017826217931379233,0.0007987325276176613,0.03322125566722296,-0.22592589349132428,-0.9735778295512333,-0.002253706882730125,0.004094477136341551,0.008859513328562,0.11372784460738697,0.016644772085947196,-0.0006697691789597711
134,9.339999999999971,-0.009550614379719772,-0.0059349102840179965,0.0016630729667300914,0.033213386724936456,-0.22586264285348295,-0.9735928029869886,-0.0010640830465478617,-0.0058843672623096425,0.007771775055142736,0.11369554862602878,0.016640970988132237,-0.0006680156733224291
135,9.349999999999971,-0.007898462295698204,-0.003940258539382081,4.0463824538227106e-05,0.033155303619353704,-0.22577456272124333,-0.9736152165946965,0.0008438879639641953,-0.010000166630955076,0.006695446066043914,0.1136504451501255,0.016612385493035828,-0.0006617843625420043
136,9.359999999999971,-0.007087093428301391,-0.00346664936451675,-0.0032934033958682183,0.03311385787222237,-0.22568775358526003,-0.9736367511805158,0.0038724378081288853,-0.005258826838399842,0.006296468482025034,0.11360630879187825,0.016590117946833235,-0.0006735395505445218
137,9.36999999999997,0.004240585747554292,-0.001741585525632681,-0.0051867173703550986,0.03309478900903114,-0.22566207899513901,-0.973643345044772,0.0032962447366750216,0.001022242318909964,0.0036435603373622468,0.11359349016427238,0.016578397255089073,-0.0006919343676592568
138,9.37999999999997,0.002432110280007853,-0.0022242941995572973,-0.003260225888182063,0.0330766394230594,-0.22567132405884133,-0.9736418016157565,0.0021594064850812304,0.00363196681882487,0.004165829622374582,0.11359848114339821,0.016567265512459736,-0.0007094335410708682
139,9.38999999999997,-0.0026744913285072806,0.0020629286848773782,0.004089386427669725,0.0330704548969591,-0.22567041087946113,-0.9736422570075487,0.001423163565773163,0.005535864593575154,0.0032248211000742836,0.11359800075143196,0.01656417647972969,-0.0007091975544585492
140,9.39999999999997,-0.0063339846343127,0.004903458635728851,0.0030776965247249393,0.033106625517660866,-0.22562967809392026,-0.9736504608397372,-0.00041228902790712055,0.0029722760207953683,0.006667405660892774,0.11357694510761719,0.01658460312931994,-0.0006896036383135587
141,9.40999999999997,0.004025825259330889,0.002628642757641893,0.001944956731430023,0.033118100738580444,-0.22561022580471937,-0.9736545961105948,-0.0023867512700166023,-0.0024222338798537695,0.006295790707469191,0.11356679007344923,0.01659214720643772,-0.0006740539942686166
142,9.41999999999997,0.005712793229009161,-0.0007064188593939452,-0.0018687356600213094,0.03311104927260023,-0.22566195621047294,-0.9736428545086754,-0.0018516082902849899,-0.0005778769501716338,0.0032344459847050418,0.11359307428791945,0.016589162976050474,-0.0006693728347485432
143,9.42999999999997,0.005469275432716826,-0.005000156298274212,-0.0049547889788494545,0.03309572098966269,-0.2257356152035225,-0.9736262685905843,0.002184322976585373,0.00567855938654419,0.003218442443222804,0.11363085055439268,0.016580006772442816,-0.0006823707873552229
144,9.43999999999997,0.015178776102657977,-0.00565741402620998,-0.0030232955923023734,0.033087119967897365,-0.22583503373938216,-0.9736035341442277,0.004095022585373427,0.004737507995752683,0.0033788534664048325,0.1136819189793983,0.01657305913444913,-0.0007057735385856531
145,9.449999999999969,0.01658740054929337,-0.003976183203186608,-0.004731818423869626,0.033077168185643616,-0.22600419988424209,-0.9735646148088533,0.0033914088311717606,0.0036872096753964878,0.004764918776653299,0.1137685014621528,0.016566019170536333,-0.0007243966191946136
146,9.459999999999969,0.010511167300875202,-0.0033036477908925744,-0.006616227803188534,0.0330699046497535,-0.22613850525287568,-0.9735336491103447,0.002500685832998357,0.005013423199151669,0.00459757565136345,0.11383751910185393,0.01655878662529005,-0.0007563027797288626
147,9.469999999999969,0.0017330105558923375,-0.004151344158356236,-0.005459628946930017,0.03305879937733798,-0.22618455976616744,-0.9735233305746556,0.003142657910598914,0.002818998346996916,0.0057307457051125055,0.11386156671740637,0.016549248213604918,-0.0007909687077420651
148,9.479999999999968,-0.0034140795122997065,-0.001835093386273575,-0.0056781419143954485,0.03302912445257521,-0.22616321544182405,-0.973529276472443,-0.0003151702795451375,0.00015346058664304036,0.004385624145669693,0.11385114562381142,0.016530852201953543,-0.0008210230739849003
149,9.489999999999968,-0.013157630826954356,-0.0010313727829006933,-0.007077641708955084,0.03301503022026156,-0.2260782732208929,-0.973549509018188,-0.0010188325128312847,-0.0023124332867688114,0.0054393305713726055,0.11380825573913017,0.01652063244407375,-0.0008478766502359733
150,9.499999999999968,-0.020756415876041642,0.00013354750191564178,-0.009705522125542996,0.03302616478799261,-0.22591246219647088,-0.973587604246542,-0.00202753369352151,-0.0018659618502082178,0.008300625211897136,0.11372429563725776,0.016522083822624684,-0.0008833888968789908
151,9.509999999999968,-0.03145171735707931,-0.0015453188586240718,-0.008851417976088983,0.03304853837068915,-0.22565067949912132,-0.9736475504688811,-0.0015831894337169942,3.865354736156518e-05,0.010118871323233018,0.11359155753916235,0.016528055265363273,-0.0009285025322295588
152,9.519999999999968,-0.03596783816048205,-0.00672746235947819,-0.004585119172621172,0.033065458624306106,-0.22530736022052772,-0.9737265084414047,0.00017857003232698188,-0.002804682172881415,0.009520095076780309,0.11341710460186095,0.0165322272241848,-0.0009650895226301053
153,9.529999999999967,-0.03333625474495445,-0.0038082650886283455,-0.005683776382331222,0.033051806788939174,-0.22497003141586328,-0.9738049301157147,0.0014892640992494014,-0.006483047802512619,0.003987198670588445,0.11324543465897004,0.016522674008917382,-0.0009872052047553781
154,9.539999999999967,-0.026091717981105336,-0.003150423628480109,-0.0016290045174881355,0.03302882818378592,-0.22467186671573983,-0.9738745609342875,0.0016070486031612595,-0.00507580014028813,0.0012338771123406888,0.11309372823923945,0.016508452474895144,-0.001009309648504001
155,9.549999999999967,-0.008670784751156527,-0.0031773403818537854,-0.004811817169544302,0.03302413936941247,-0.22449952164187026,-0.9739144880876535,0.0013673442954102025,0.0023208431595852274,0.0020187964752197366,0.11300614302287679,0.016503902113470165,-0.001027871649979062
156,9.559999999999967,0.004829254610301684,-0.003949124963367092,-0.0005115740273630908,0.03299482152976492,-0.2244967358828341,-0.9739160752795386,0.0019187102568938596,0.00877481188443125,0.004253903856887007,0.11300488807690476,0.016487770333534317,-0.0010399402781431527
157,9.569999999999967,0.01241905689583189,-0.0010202991616758117,-0.0008089172904046084,0.032964251956677945,-0.2245832672795455,-0.9738971676885513,0.0011822301290870907,0.011289110977194577,0.0032825787519649677,0.11304898002900132,0.01647234387966112,-0.0010405894074599974
158,9.579999999999966,0.024384207151495686,0.0010013667958217018,-0.001549607987036331,0.03296386421310416,-0.2247727459686281,-0.9738535019342592,0.0010816262739116018,0.009796789444698924,0.0026886264900388705,0.11314569134437027,0.016471466913325083,-0.0010472634553482028
159,9.589999999999966,0.02909466784937851,-0.0026457222273485485,0.0025721787296227134,0.03294686140242254,-0.22503530406922118,-0.9737933894769402,0.0006176056259617555,0.00634213803719597,0.0004297554971891904,0.11327936767529756,0.016464380167544975,-0.0010353339501039784
160,9.599999999999966,0.02963745047134048,-0.0008338867926187985,0.0011017839709499618,0.0329210181183121,-0.2253191029170089,-0.9737286705856307,0.0001398098780959657,0.004751452231906001,4.566046765079894e-05,0.11342386540373281,0.016452793128328504,-0.0010239466741858807
161,9.609999999999966,0.021286755819788866,-0.0014229596425448447,0.0018095636008973795,0.03291406600621666,-0.22558496522188143,-0.9736673718328033,0.0017003634056637475,0.0049130687090715285,0.002653715776589659,0.11355931396584425,0.016450180011075587,-0.0010172048454632674
162,9.619999999999965,0.011994034869287507,-0.002086383368695228,0.0023081888364731634,0.03289442563648756,-0.22575555594780253,-0.9736284528913111,0.000383969744224992,0.002836809032416363,0.0031632812802546194,0.11364611755978038,0.016441559009335888,-0.001006778502677727
163,9.629999999999965,0.004108483557331416,-0.0013295659864067321,0.0019546845655696965,0.032888460845049164,-0.22582538689763745,-0.9736124564906099,0.0009668980210027879,-0.00011115994548600242,0.006937188274808094,0.11368166500170955,0.01643898436750737,-0.0010033150353059056
164,9.639999999999965,0.006321938939921315,0.0009753040425626389,-1.215259062731797e-05,0.03289177478896019,-0.22586367140911773,-0.9736035013672175,0.0014619050826915469,-0.0019799949148941996,0.009881459405040326,0.11370124936660964,0.01644033867222533,-0.0010062271947964498
165,9.649999999999965,0.011380824434262478,0.00033006516073765305,-0.0017911573193520952,0.032894805011613494,-0.22592074569598117,-0.9735901571598496,0.0018747071852427532,-0.0018266266871688054,0.010143372099524088,0.11373040992622484,0.01644151671569706,-0.0010094765249573944
166,9.659999999999965,0.011570711309286826,-0.003155042282426852,-0.0009795090784647021,0.03288545508386784,-0.22603270224094268,-0.9735644419290322,0.000599446851006339,-0.0002256164632115248,0.006716670898247519,0.11378769815796312,0.016435552503310413,-0.001020892060792466
167,9.669999999999964,0.01248278202706042,-0.005444135551736633,-0.001762864806417808,0.03284078054078238,-0.2261372634835505,-0.9735417181812759,0.003708908611214988,0.0011310210010302439,0.0003661458269468617,0.11384102607929819,0.016412619385625285,-0.0010251262631287904
168,9.679999999999964,0.018200146294732454,-0.0029475487187966155,-0.0017519995514432873,0.0328216623569653,-0.22628270461682257,-0.9735085294887783,0.003238169181658368,0.001830809027198665,-0.0011184628362210592,0.11391534746333096,0.016401835971586454,-0.0010357871911786049
169,9.689999999999964,0.018416619457119008,0.001474105516086812,-0.003624317551128318,0.032820029342008665,-0.22645325927107743,-0.973468947642301,0.0008842925337669053,0.004740409055801017,0.0015402930300518621,0.11400254816599892,0.016399628573472123,-0.0010484967649252897
170,9.699999999999964,0.016967218483505717,0.0014799487050506125,-0.0010844279516529038,0.032848322741842836,-0.22661126505282914,-0.9734312186578356,-0.0008021567157233927,0.006300997232798653,0.006419689249150179,0.11408342190600587,0.01641229943753274,-0.0010627928019951525
171,9.709999999999964,0.011430135405473673,8.829744558464555e-05,0.001626434000880471,0.03285845361832105,-0.22675304281874833,-0.9733978529101149,-0.000659012168589221,0.004997861402889791,0.008620370338512533,0.1141557532409071,0.016417532970151447,-0.001062163711770036
172,9.719999999999963,0.006152466584783389,-0.0026590094854803655,0.0025607600922582046,0.032845064791905174,-0.2268540341069386,-0.9733748020959754,0.0005133235696958947,2.6846739742400656e-05,0.004444565193922266,0.11420717252696258,0.016411339495817676,-0.0010577730907460265
173,9.729999999999963,0.0019126069507892389,-0.0011836822265890187,0.002629488504134598,0.03283503613859376,-0.22691549645763665,-0.97336077696674,0.0020194586714846726,-0.0012405303700057867,0.0018904411108495085,0.11423839663101784,0.016407129795753282,-0.0010506962525231203
174,9.739999999999963,0.009011036906633262,-0.0011851385602890438,0.002267094894842285,0.032823963354088465,-0.22696637297089395,-0.9733492835942433,0.0023794040233609632,-0.0025659752380801345,0.00462280066352068,0.11426424285503874,0.016402213018561696,-0.0010451661677787667
175,9.749999999999963,0.007933896024683439,-4.9943569208437105e-06,0.002625769644855205,0.03283814393194559,-0.22704347519858703,-0.9733308611981791,0.0001709808618579776,-0.00031837065616770015,0.0073636505028305335,0.11430351555055199,0.01640993696932944,-0.0010403888829822695
176,9.759999999999962,0.014096038052498195,-0.0029385149723882118,0.0003274576001079236,0.03284274081851098,-0.2271433280816203,-0.9733073711424374,-0.0016448316706411728,0.0035267103918827135,0.006614565812920782,0.11435445916884475,0.01641229017658356,-0.0010404234903259246
177,9.769999999999962,0.021085046871355397,-0.002629960195102649,-0.00027217857713905376,0.03282509389722588,-0.22730356978638527,-0.9732705865678997,0.000947184632094636,0.0037673144133893036,0.0029159495536213043,0.1144362445901592,0.016402994631273524,-0.001044589826233931
178,9.779999999999962,0.019178189137447992,-0.002642461251786499,-0.0013414812445826537,0.03278633918181919,-0.22750818351331487,-0.9732240612496795,0.0019763645935143726,0.002629504073518067,0.0028778164119685726,0.11454057404966349,0.016383546684093246,-0.001044785010443853
179,9.789999999999962,0.010867759691935295,-0.0001799068494049384,-0.0017973948661679806,0.03276457624831228,-0.2276460790774167,-0.9731925319568049,0.0037854893391685534,0.0028608881590596537,0.002317709798436847,0.11461101697922867,0.01637182973344033,-0.001051893360032643
180,9.799999999999962,-0.003294872730493432,0.0015104391609001362,-0.0017334896078946655,0.03276244965353714,-0.22769274875961196,-0.9731817092862207,0.0008345039222752014,0.002348304187841394,0.005203295153399005,0.11463503669545648,0.01636929253553509,-0.0010647665130187058
181,9.809999999999961,-0.01849821389784838,0.00017794175895046046,-0.00046610582382150523,0.032786438388421955,-0.22758696375050538,-0.9732056230038818,-0.00031371857052867914,-0.0012181788008909086,0.007233047705411848,0.11458124077577045,0.01638035308204155,-0.0010732115474524657
182,9.819999999999961,-0.030547090558025347,0.0012586134927440155,0.0012736368539914963,0.0328121639240904,-0.22733926100148583,-0.973262681128955,0.00010741822370585784,-0.004776624513351303,0.009869087814467499,0.11445490669201921,0.016393245560539643,-0.0010728431632281094
183,9.829999999999961,-0.032497620357643656,0.0010191448991708392,0.0010114474452196575,0.03281758685461937,-0.2270275793131087,-0.9733352115490721,0.0005917968814510972,-0.007613688793943493,0.01036875670955867,0.1142957324027416,0.016397121275231033,-0.0010617600958578485
184,9.83999999999996,-0.01969040793107993,-0.0020266008297835166,0.003185338500098883,0.032803341681839224,-0.22677958222182826,-0.9733935207168544,-8.445271864615967e-05,-0.007482114398222916,0.008317108360094676,0.11416901971516698,0.016391125492160992,-0.0010506033312928564
185,9.84999999999996,-0.0069606114910594,-0.004122636224216676,0.0015872798934653827,0.032774203747669615,-0.2266593527497844,-0.9734225087369949,2.6584734430414774e-05,-0.0027019856707058663,0.004822305975483344,0.11410752402160285,0.016377246371973977,-0.0010432638726132976
186,9.85999999999996,0.00268907218157924,-0.004443920681352296,-0.003751653974769777,0.032741576506410436,-0.22664924903875922,-0.9734259401740076,0.001447975624151845,0.00440981570926088,-0.0014542162426847112,0.11410242570441433,0.016360120082246198,-0.001049300494587871
187,9.86999999999996,0.0031199693161431544,-0.0001553308548046528,-0.005112844727450648,0.03276083132907569,-0.22666010886306281,-0.9734228014995472,0.0019466101562687944,0.008421293400482553,-0.0010958221415126633,0.1141083422153675,0.016367392460376516,-0.0010704262381056346
188,9.87999999999996,0.0008074424370224224,0.000867676012968515,-0.004397009319213583,0.03278378936152625,-0.22668403812796356,-0.9734164446994044,0.0016247722840422405,0.007426246779466694,0.002745423332775447,0.11412097446352676,0.01637616156289951,-0.0010947997200204738
189,9.88999999999996,-0.013848124016079507,-0.0010545813855770449,-0.0037290856971722536,0.03279363385940198,-0.2266341052383446,-0.9734277587898938,0.0010606576593892173,0.0032403261743845953,0.006420101105979062,0.11409594728201877,0.016378211914778687,-0.0011199347091781003
190,9.89999999999996,-0.027170838256143654,-0.002570367503618924,-0.006162043064981951,0.03279480149548819,-0.22645294528493187,-0.9734698600468863,-0.0008020472060863862,-0.0010684261407251298,0.007151776874149058,0.11400391122565655,0.016376080106878473,-0.0011430097705875304
191,9.90999999999996,-0.03296134626028801,-0.002286210043264321,-0.005392266986640999,0.03279693267865069,-0.22616698852667377,-0.9735362661737181,0.0021698133651246263,-0.004731756907351861,0.006047837009749392,0.11385841165091526,0.0163746729765798,-0.00116371148939009
192,9.919999999999959,-0.040292046599905776,-0.001574567942401721,0.00010560976813032454,0.03278763557893967,-0.22581453438252377,-0.9736183860553358,0.002483199533743103,-0.008732661293757134,0.006904793454577362,0.11367877891959338,0.016368797350735823,-0.0011730135502179238
193,9.929999999999959,-0.040992858597764685,0.0006423874319662862,-0.0008152623758706571,0.03278335539394799,-0.2254223322567654,-0.973709396620419,-0.00055237708458731,-0.006386888139348998,0.006903425802582272,0.11347870177059889,0.016366869156613933,-0.001169809996890753
194,9.939999999999959,-0.027859697321530326,-0.0022048091809909447,-0.005294678913389034,0.032799147793045394,-0.22507776062198495,-0.9737885919788526,-0.0001849308309814614,-0.0007197197493742083,0.006451488443529606,0.11330323577291532,0.016373098853451337,-0.0011838089491386674
195,9.949999999999958,-0.016615694305103037,-0.0028644271544362226,-0.0021744799594273397,0.03279713937777289,-0.2248470589058625,-0.9738419288858511,0.0015187538271611177,0.0030122136074443805,0.005328281354480343,0.11318590432922973,0.016369874120910205,-0.0012025344651194186
196,9.959999999999958,-0.004460651979522433,-0.0017829808668831054,-0.0010812699431654374,0.032795516625739866,-0.22473841168231495,-0.9738670811007969,0.0014811001194635861,0.005320493529474718,0.002543034094901341,0.11313064241360941,0.016367986809669745,-0.0012115933695864014
197,9.969999999999958,0.011547864746897164,-0.003132542331729147,-0.0038268775931029364,0.03277914331431594,-0.22477841691349953,-0.9738583852476758,0.0021487069942943264,0.006266291878209903,0.0009339368303827981,0.11315139785525705,0.016357173507924358,-0.0012342890730576942
198,9.979999999999958,0.018222515900254508,-0.0015412356840451844,-0.00804291858621093,0.03277077593533734,-0.2249221915605122,-0.9738255016480978,0.0023768438595026965,0.008956969759489264,-0.00011499649054115676,0.11322519082724887,0.016349588968815065,-0.0012642771967359017
199,9.989999999999958,0.022715610008842348,-0.004847436196079706,-0.006654895334950376,0.032768874981237206,-0.22514136453861994,-0.9737749290228771,0.001759697792071461,0.009626215164197429,0.0006670112406170619,0.1133375894485104,0.016344298129153126,-0.0013028561443999428
200,9.999999999999957,0.01395757295011949,-0.00521355706962768,-0.0068920346720682,0.03275260369481336,-0.22533387814134032,-0.9737308995449283,0.0021563407982813495,0.007278870313811666,0.0029403819344232564,0.11343636140716556,0.016331887090227894,-0.001340298401892095
201,10.009999999999957,0.006631553758333423,-0.006286505821244808,-0.003935606838453972,0.0327005081620483,-0.2254558570983553,-0.9737044282331786,0.003146880709465974,0.0025103254039079053,0.0023886191353599544,0.11349904731758013,0.01630173257460448,-0.001374965849335794
202,10.019999999999957,0.007115233019234546,-0.008192643853677203,-0.005910165684970942,0.032635846162995474,-0.22552338236599578,-0.9736910003747834,0.002303399929763834,-0.0014634279133377125,0.0057649787102521674,0.11353386834953252,0.016265664099073575,-0.0014058389283544462
203,10.029999999999957,0.005914259617350565,-0.006843085780009113,-0.006079995860357992,0.03258554520448247,-0.22558629135090863,-0.973678066173809,0.0022382679737233293,-0.006012729177506764,0.00504271245650542,0.11356645944338248,0.01623623832198838,-0.0014418428402588773
204,10.039999999999957,0.0019887135780676302,-0.003318637319999909,-0.0024598556495401534,0.03256111056782654,-0.22561471765352076,-0.9736723221335657,0.0016603951633223993,-0.0012284008438303295,0.007336421868138137,0.11358130451067654,0.016221213377472062,-0.001465728511140685
205,10.049999999999956,-0.001752120092359936,-0.0034356299530474534,-0.0028514787466876416,0.03255209721868819,-0.22559794852580095,-0.9736764875272894,-0.00012542045123901556,0.002832418814000909,0.006698939422317092,0.11357301910744771,0.01621474003372687,-0.0014826164912135186
206,10.059999999999956,-0.0031045997794631962,-0.004949247415543513,-0.0010473588544086478,0.03253297917634908,-0.22554833906699331,-0.9736886150536935,4.953894814002744e-05,0.0013159440992763403,0.0033893171665349974,0.11354795465658243,0.01620325771411599,-0.0014988002463380053
207,10.069999999999956,0.00438889691482101,-0.002554623402271095,-0.002604224362843664,0.03251320260884115,-0.22553467445016018,-0.9736924511860674,-0.0001982011929230133,-0.0006262837528320101,0.0035996602265205863,0.11354108107832118,0.016192361974758512,-0.0015069822736682769
208,10.079999999999956,0.006009368148444638,-0.0024191329035924323,-0.003678137357277565,0.03251418778696463,-0.22557811053954788,-0.9736823714522906,0.00024198144493966917,0.0021728011363631263,0.0034293861949468572,0.11356354216047222,0.01619067954842558,-0.0015260978456973343
209,10.089999999999955,0.0036679774831326084,-0.0038844637720020217,-0.0033301463844772486,0.03252636105117257,-0.22562479987394443,-0.9736711285550418,-0.000350144620101218,0.004551406092724508,0.0034397606293547055,0.11358762616259459,0.01619502365680842,-0.0015417740312875581
210,10.099999999999955,0.00873279559857727,-0.003740455996156605,-0.0010836287084990178,0.032516566255620334,-0.22568486609994612,-0.9736575755890079,0.000394403959126677,0.00418037393829889,0.0038809638286732514,0.11361850238834308,0.0161882674390708,-0.0015578186665939867
211,10.109999999999955,0.014428265457341074,-0.00408929692494065,0.0016544703093800406,0.032502133158730746,-0.22581175344494497,-0.9736286059115101,0.002299829378797427,0.0019142581817740882,0.004617742544957594,0.11368327207934928,0.016180517382084827,-0.001562220516701506
212,10.119999999999955,0.019581949961525052,-0.006857395171753428,-0.0028742174376255774,0.03246646813264326,-0.22598044221189964,-0.9735906865450581,0.0027371092581713525,0.0008398118815984364,0.001465271450566181,0.11376948026493913,0.016160902242961336,-0.001576912721506211
213,10.129999999999955,0.02197964676660373,-0.00619606727253845,-0.0018537539777386655,0.03241634575213271,-0.2261759412367247,-0.973546926677773,0.002522844876428816,0.0038262427082258682,0.0037903257304563,0.11386942751304215,0.01613342565599891,-0.0015967115510261188
214,10.139999999999954,0.020832288933788773,-0.0036756181338291377,-0.00545399950823684,0.03237994974748352,-0.22637772938761563,-0.9735012143751357,0.0012298422435537996,0.005436962557005898,0.0033239666987502875,0.11397264942617363,0.016112560623826874,-0.0016190879049478011
215,10.149999999999954,0.020330568358133495,-0.0058074394412526995,-0.005685311482392328,0.03233777653452504,-0.22659531153933435,-0.9734519971409078,0.0013188156630407147,0.004537576302296553,0.003838186915855837,0.11408395718877112,0.016088480239528018,-0.001644086646354734
216,10.159999999999954,0.019634855408135518,-0.0014013685251007312,-0.0034102194733734736,0.03231143103574078,-0.22678241511458536,-0.9734093284692518,-0.0005837808633039302,0.0039431140602568865,0.0046842031517033865,0.11417973572360461,0.016072434537132092,-0.0016684467604279123
217,10.169999999999954,0.012715102857364123,0.002095770131890257,-0.005696128126419921,0.03232049602371416,-0.22693088276509665,-0.9733744381845292,-0.0007909440409059967,0.00313809513827773,0.006252860937361941,0.11425588910255148,0.016074156868179302,-0.0016932786332653643
218,10.179999999999954,0.01050378327447786,0.00331590686983056,-0.002391228933011923,0.03234041900760624,-0.2270412661488335,-0.9733480443675243,0.00048826467381215557,0.0034884140985234815,0.0075078698433684605,0.1143125302807927,0.016082125671388826,-0.001711273526147764
219,10.189999999999953,0.005479435869296048,-0.001948880893400685,0.003759728009388635,0.032380747672153404,-0.22712540993123803,-0.9733270296121418,-0.002135913773942005,0.0004479773430083691,0.006233014598637716,0.11435550545886632,0.016102610587761933,-0.0017097769292420822
220,10.199999999999953,0.004553575541597381,-0.002960775521896887,0.004995681150083177,0.032370896471078894,-0.2271650003359916,-0.9733181329755886,-0.002029571669116476,-0.0035993005420871813,0.004514036025888214,0.11437542096898028,0.016099526646330603,-0.001693503228115716
221,10.209999999999953,0.006565673983206557,-0.005023995300404174,0.002754733283423069,0.03234203773534579,-0.22721512531806826,-0.9733073788115265,-0.0003649143890228652,-0.004048639427976277,0.0015471272321878771,0.11440075291010919,0.01608633852321187,-0.0016818840493327916
222,10.219999999999953,0.0073150452496085015,-0.003238436609332409,0.0012502347964852827,0.03229804092795871,-0.22727258534293102,-0.9732954402842265,0.0012265029089446706,-0.0012774138166999566,0.0025758560594753522,0.11442981130623145,0.016065456288823065,-0.0016709044435910519
223,10.229999999999952,0.015127398966776135,-0.0014218155235391097,-0.0035992827843189393,0.03229800443138959,-0.22738159344522557,-0.9732699953029625,0.0012865978904716858,0.0024180502408760528,0.005603922599532593,0.11448556066922239,0.01606438055187726,-0.001680153851755864
224,10.239999999999952,0.011111707151210145,-0.0010189544886072418,-0.000517706391170404,0.03229362890124315,-0.22750596457148184,-0.973241081024542,0.001173631620566162,0.00718616780062396,0.006987362355587806,0.11454918608869835,0.01606089546642595,-0.0016913643057508527
225,10.249999999999952,0.007615260824266298,-0.0006532282244688431,-0.0020675201434056795,0.032281429143879055,-0.22760070133812327,-0.9732193263929138,-0.0008582414487468598,0.006537783105737504,0.005271627500583473,0.11459764391333718,0.01605371171387513,-0.0017004575994516702
226,10.259999999999952,-0.0017199435144511482,0.002656104424944619,-0.003794477091552395,0.03230026568165847,-0.2276307827596389,-0.9732116792415777,0.0013598770392108113,0.0035225870053323307,0.006015875884899807,0.11461334900402431,0.016060890240398064,-0.0017204665313995423
227,10.269999999999952,-0.015080660631196249,0.002375364410929256,-0.0028056142711069213,0.03232027442294773,-0.22754990469637718,-0.9732299270287779,0.0004194038412434764,-0.0011694941133927762,0.006081518979943452,0.11457229337583562,0.0160697572114079,-0.0017308911412474983
228,10.279999999999951,-0.025722588771301663,-0.0025449835653555165,-0.0011887550944629556,0.03231276352810694,-0.2273410437000963,-0.9732789463056297,-0.002138279381676389,-0.004727195839548644,0.00815713845016231,0.11446579987838075,0.016065437005460446,-0.001735459114679124
229,10.289999999999951,-0.02748698539718099,-0.0015588765364156312,-0.0036275494900743074,0.032285102817093,-0.22709169833367757,-0.9733380912005328,-0.0017548150152448911,-0.007127728294638652,0.00820787600164289,0.11433873361765169,0.0160501694526732,-0.0017469723335086227
230,10.299999999999951,-0.022029931323846275,-0.004954009506856249,-0.0005817738512480788,0.032256461774361894,-0.2268626615919981,-0.9733924261845555,0.002668432017766343,-0.00693673913343509,0.007289461104336705,0.11422196977318852,0.01603485188199237,-0.0017546679871989807
231,10.30999999999995,-0.011902066580425221,-0.0033698509941134224,-0.0020098346391362416,0.032225757345708726,-0.22670362726316837,-0.9734304904192539,0.0033689354300546663,-0.0030806055188980956,0.0016781470463369565,0.11414087505988288,0.016018837267718525,-0.0017594394377082084
232,10.31999999999995,-0.00423851910364387,0.0008606257808496552,0.001838593464975992,0.03222749090077822,-0.226617264650251,-0.9734505956313769,0.0015940098163232648,0.0034819008639859583,-0.00017929539395407628,0.11409684777329399,0.01601944564193438,-0.0017617035128268772
233,10.32999999999995,-0.0022405122962923284,0.004113807575584728,0.0014520962104834691,0.032241388910521876,-0.22657712419134066,-0.9734594673293077,0.0009526610563678273,0.008335460956190926,0.0013232590659902948,0.11407624756485038,0.016027491033274915,-0.0017525617143003287
234,10.33999999999995,-0.006977786001692781,0.004754102798710052,0.0022256100506996774,0.03229535860377875,-0.22653867123846122,-0.9734666123273059,-0.0013273877549516955,0.008240109082865118,0.005255735870616093,0.11405657318989364,0.016055809132901642,-0.0017425671702678217
235,10.34999999999995,-0.016776549580513243,0.00486920523334094,0.005653744077143315,0.03233502619514268,-0.2264336208516526,-0.9734897280570748,-0.0015247327035960456,0.005965073835491105,0.007190508956801134,0.11400266498019004,0.016078617087596513,-0.0017178159008860755
236,10.35999999999995,-0.0180846575921088,0.005727534415952026,0.010329129833583691,0.03235340604776399,-0.22627629940457356,-0.9735256900618744,-0.0018105785555512593,-0.0003617271216268623,0.007999240490414679,0.11392171302060113,0.016093160636498884,-0.0016716056131290244
237,10.36999999999995,-0.020036393614695336,0.0023315002498559686,0.011048184630322047,0.0323453780285858,-0.2261021141156426,-0.9735664243279174,-0.0004006614921383872,-0.004059995430871056,0.004522227247185928,0.11383184639530905,0.016096221894087385,-0.0016094798687770404
238,10.37999999999995,-0.007695311454611864,0.001887409072776219,0.0103685590017072,0.032347462509000495,-0.22598471238973084,-0.9735936448198154,0.00010622654078933433,-0.0035508033243425636,0.003269053053035557,0.11377113761714991,0.01610317122492554,-0.0015578528943929449
239,10.389999999999949,0.008900899402144714,0.0004083397998222351,0.0044819840536535335,0.03236032929360141,-0.22599441578117713,-0.9735909276941762,0.0015816764163160812,-0.0013208659130505263,0.002576185305891454,0.11377563575562226,0.016113024120637396,-0.0015283917384661967
240,10.399999999999949,0.029580216963817615,-0.0008600584220471619,-0.0010714497588442421,0.03237041035216944,-0.2261667062837165,-0.9735506098978711,0.0033920882503430854,0.004436495269029176,0.003026850447332607,0.11386336601089099,0.01611924026385874,-0.0015187007592368919
241,10.409999999999949,0.03325472918572608,-0.0036908475058004446,0.00010068440854623479,0.032345172006350974,-0.2264766634594175,-0.9734793853427338,0.003968195501595052,0.010380788151131195,0.0044612898901511076,0.11402160371349739,0.01610530170808715,-0.001529878165561648
242,10.419999999999948,0.028242584280834628,-0.0030165334475058545,-0.002945107288993872,0.03230858143971315,-0.2267698950710562,-0.9734123598824511,0.00383121738125482,0.011108770837714244,0.001887071022346224,0.11417131742974772,0.016085388542970144,-0.001543255141763216
243,10.429999999999948,0.013674189763906655,-0.002309039329806333,-0.0022965157198789553,0.03227528589598926,-0.22696885341707895,-0.9733670467929412,0.003474715771851254,0.007591209831998665,-0.0007398677228382475,0.114273062760595,0.01606645448876353,-0.0015623841639984739
244,10.439999999999948,-0.0031015929760537884,-0.0015659618300073847,-0.0021100041853509477,0.03225998980675244,-0.22701176376163665,-0.9733575470490856,0.0042713477626809306,0.0014902511380842833,0.0042114817530002294,0.11429514642899045,0.016057148191912222,-0.001576392982490599
245,10.449999999999948,-0.011592024549094273,0.0004297533652066162,0.000627741772259592,0.03226470791893574,-0.22693372168946668,-0.9733756148074609,0.001305237463046853,-0.003960256897936645,0.010701573379397849,0.11425545783552801,0.016058803379523087,-0.0015825633383360377
246,10.459999999999948,-0.01747923876356155,8.369406506617715e-05,0.0027220052137355536,0.03227103555083418,-0.2267942634495035,-0.9734079263410103,0.00024861254418552135,-0.00566976919731566,0.013243370897753999,0.11418424319283424,0.016062530173011156,-0.001577679125609211
247,10.469999999999947,-0.017139248273400697,-0.002469613357984828,0.005365659994135478,0.03226600954730096,-0.22663386922506587,-0.9734454353145844,0.001133570752845208,-0.0039050401925183375,0.010842630303834604,0.11410202313706612,0.01606279868737254,-0.0015531317361466449
248,10.479999999999947,-0.0027630276115884825,0.001003356501341352,0.007044949412991153,0.032261753557736354,-0.2265438005091298,-0.9734665323260333,0.0011849997256352725,-0.0017583765580317773,0.0042006789871282795,0.11405564066723717,0.016063790803684405,-0.0015257191386832542
249,10.489999999999947,0.017669604032448945,0.002707783808333815,0.003515785085467135,0.03227990435168549,-0.22661245566987231,-0.9734499550268598,0.0006071730901855734,0.0012613761777660619,-0.0016349399839361099,0.11409036531221578,0.016075215701342363,-0.0015059042999436777
250,10.499999999999947,0.03559161272640146,0.004618417740951086,0.0016449593968968005,0.03233811802644279,-0.22686946173519495,-0.9733881808120218,-1.494297698072136e-06,0.008740964668162921,-0.00015267430805415857,0.11422140618902454,0.016105621252290196,-0.0014967746683397659
251,10.509999999999946,0.038702544057596946,0.004664277997910323,0.00337827038328296,0.032407672671208074,-0.22722046502806365,-0.9733039541738338,-0.0020068304380284926,0.014620066045291872,0.0028766877851734473,0.11440041294979236,0.016141972212810524,-0.0014857835105390334
252,10.519999999999946,0.02892791819370608,0.002247414060138857,0.004457980332081207,0.03245375867668594,-0.22754651197384093,-0.9732262704391444,-0.0027092515510491974,0.01241492708140691,0.003081611210029658,0.11456657440913733,0.016166933682387787,-0.0014710903743645513
253,10.529999999999946,0.017391993982880626,-9.126802459157599e-05,0.0026354109661219714,0.032456814361931555,-0.2277799008538216,-0.9731715340971437,-0.0007706060799206509,0.003939191466067943,0.004109968813532481,0.1146854464218675,0.016170026357316115,-0.001458049228315097
254,10.539999999999946,0.00979841340072286,0.0016870859267110367,0.0015744889670882903,0.03244720577730097,-0.22792762924370613,-0.9731372936535428,0.0012983287063925266,-0.0037340394446965246,0.004024104992611376,0.11476063079796227,0.016166395715764885,-0.001447853130818286
255,10.549999999999946,0.008389453386828869,-0.00036363472108299306,0.0005685884802989351,0.032454435701331,-0.22801770362222903,-0.9731159509763867,0.002510227080755444,-0.006439195123162777,0.005549465939537655,0.11480663234752153,0.016169847160012664,-0.0014496703657872205
256,10.559999999999945,0.0044542607285227055,-0.0014310427280448445,-0.0009473212601345751,0.032460512190403634,-0.22808255246052783,-0.973100561294199,0.002041261751425085,-0.0026518397694216137,0.008420778895088656,0.11483980255470384,0.01617242090934001,-0.0014539944921058594
257,10.569999999999945,0.008848571782956154,-0.009624232084777367,0.0009492757211584713,0.032408655497870774,-0.2281489619766756,-0.9730866853315947,0.0012198407367203514,0.0003481734964974905,0.004929243154486011,0.1148736474246119,0.01614593174105267,-0.001457391031984789
258,10.579999999999945,0.015461047741409564,-0.007114258277487757,-0.002477009551234181,0.03231977037179476,-0.22825965235887744,-0.9730636819841969,0.0031704074782365733,6.249991364050314e-06,0.0015673242476075093,0.11493003632868373,0.01610075463393534,-0.0014612247455770687
259,10.589999999999945,0.02295043898980126,-0.0012887559243151799,-0.004573725957950163,0.032276113673773386,-0.2284308180699094,-0.9730249662683637,0.003173475038398012,0.0009569104922389052,0.0021011007701879,0.11501765625047518,0.016076294246635155,-0.0014829259250734024
260,10.599999999999945,0.028911442035157463,-0.000783830051888444,-0.0033490455373839647,0.032257583865531195,-0.22865799560202896,-0.9729722331028477,0.0011940508742047727,0.00571661667301041,0.004641548160426591,0.115133879558366,0.016064596421709383,-0.0015037238642671826
261,10.609999999999944,0.025010908882166047,-0.0024008801053074747,-0.004359270587117124,0.032239353701087,-0.2289000786505241,-0.9729159395604441,-0.0018085173953435048,0.011012412806853288,0.005570880109748375,0.11525761076994619,0.016053716705638,-0.0015187371701814694
262,10.619999999999944,0.020549857733021044,-0.0007976749558965216,-0.002601263199814278,0.032241523449119604,-0.22912729090887798,-0.9728623766363665,0.0008269961563376065,0.006655654900833925,0.004645211121307527,0.11537386569960834,0.0160527261238573,-0.001537028017854912
263,10.629999999999944,0.01121900515169644,0.000638174948135433,-0.0035091770476427574,0.03225396185386338,-0.22929498652721345,-0.9728224699322336,0.0016720317424894658,0.001200044624469536,0.003541305940658917,0.11545967275284957,0.01605750185713508,-0.0015500746405184868
264,10.639999999999944,-0.007007645626713473,0.0006793173295444307,-0.0015569200578942903,0.032286280106919106,-0.22932471626145648,-0.9728143630218502,-0.0013663495120175314,-0.001401109165294093,0.004224244398273722,0.11547508509457517,0.0160724925079438,-0.001561160135802122
265,10.649999999999944,-0.018071456759318733,0.0006799800484291012,-0.0034466074020122464,0.03230747775780323,-0.22919466555945342,-0.9728442959940089,-0.002031865525164357,-0.004863157888742478,0.007456840609945363,0.11540895664682749,0.01608163913598892,-0.0015741316493025038
266,10.659999999999943,-0.029073908275123562,-0.0006981194325795437,-0.0005296571456029856,0.03232604184943503,-0.22897090430277534,-0.9728963885905335,-0.001328315628064625,-0.006506928005673271,0.008852562836350376,0.11529497822003218,0.016089690449344288,-0.0015850074060737073
267,10.669999999999943,-0.03342673057386985,-0.0015615092917521402,0.0022919736274807805,0.0323409150902368,-0.2286627207400411,-0.9729683346919745,0.0002187638535996728,-0.007847946340221078,0.009540833377070498,0.11513780409177982,0.016096764198563703,-0.001588220197834047
268,10.679999999999943,-0.026771578390549448,-0.0018095682948395106,-0.00150001989094915,0.032334584125662716,-0.22834263570515193,-0.9730437199080633,0.0010872775069050789,-0.0067195105649384464,0.006305084048754132,0.11497458097163717,0.016092713705837376,-0.0015952707285090848
269,10.689999999999943,-0.027464952305163517,-0.0023964161417098237,-0.0022219314328192495,0.03229962684213582,-0.22806172194823032,-0.9731107552317434,0.0018580548887488348,-0.003461396908380615,0.00613496252382602,0.11483132105621315,0.016074132994287785,-0.0016034025994290466
270,10.699999999999942,-0.029414462739725495,0.0013037746228235624,0.00017042456657759492,0.032298246430588616,-0.2277887833948221,-0.9731747499432591,-0.0010199547778043578,-1.411589490770684e-05,0.004063125278410654,0.11469202311612156,0.01607366440810477,-0.00160113445368653
271,10.709999999999942,-0.036421868385679665,0.002325527211209892,0.0033456206017970593,0.0323347028357238,-0.22745265079868715,-0.973252134448931,0.00036449312673813065,0.004306406709811752,0.006443918650781209,0.1145203249983581,0.016093979394387132,-0.001583759114990498
272,10.719999999999942,-0.025868774035901994,0.003043437261426764,0.0035170642920283727,0.0323334535124878,-0.22716003394209142,-0.9733205558904058,-0.0033047953227385725,0.0006137383775077151,0.00781374963386916,0.11437075896472552,0.016095303439457486,-0.0015664524691727283
273,10.729999999999942,-0.011235153731238427,0.0009122023700136274,-0.002105284277013984,0.03232532514853753,-0.2269915410681754,-0.9733601182969197,-0.00446148708832152,-0.0012177173377919343,0.0032846225548090824,0.11428472114936941,0.016091667257346953,-0.001562263543142476
274,10.739999999999942,0.004660005918064562,-0.0013112806341029066,-0.0010637664609157644,0.0323201846682938,-0.22699933537903483,-0.9733584761995071,0.004014826439724649,0.006401650771458593,0.004343530991898461,0.11428880592079442,0.016088295602230428,-0.0015690771304395794
275,10.749999999999941,0.012476412478284508,-0.0005848488140548443,0.0008104988162928321,0.03231871716522037,-0.22710137591231638,-0.9733347210244967,0.003797741731459553,0.008867447741692762,0.002118546069613754,0.1143410125989852,0.01608639854658046,-0.0015792782044033876
276,10.759999999999941,0.0236757289248163,-0.001630573070275154,-0.0020224617454340675,0.03230817432682414,-0.2272990079403453,-0.9732889180649059,0.003156874455757816,0.007750535523420256,-0.0001576816286534711,0.11444194192267568,0.016080255086359695,-0.0015867673975914062
277,10.769999999999941,0.027997443392233114,-0.003271147045978554,-0.002594622291591025,0.032293905297734196,-0.22755593480696787,-0.973229391150676,0.0026482960355190955,0.006854928432473892,0.0016752661997674527,0.11457328409799698,0.0160710239267724,-0.0016048228364951395
278,10.77999999999994,0.02441970279039015,0.0008858588975921237,-0.004919656178632589,0.03228582850686334,-0.22780253281436447,-0.9731719670560731,0.004213088364327886,0.004800479289307298,0.0015864300702236281,0.11469928872842064,0.016065465378264546,-0.0016180007048057666
279,10.78999999999994,0.013581461108204159,-0.002406979405399901,-0.005285036316655044,0.032290752838313334,-0.22798008297884623,-0.973130197038127,0.0015403166512085384,0.005682917323107397,0.004418978925187925,0.11479024910108965,0.016065306514135104,-0.0016410122179205254
280,10.79999999999994,0.0025780757397348524,-0.005400295829945088,-0.0012079858133022042,0.03223337305176315,-0.22805284102750933,-0.9731150709542361,0.0020382014049710453,0.000853724446970486,0.007231092532746708,0.11482750621391438,0.016034790426201605,-0.0016551431648837399
281,10.80999999999994,-0.013384327000137202,-0.0055156506859468935,0.0004048849998247554,0.03216033652377551,-0.22801133466817075,-0.973127184944943,0.0033573399408073756,-0.004254088655247398,0.006061356148055793,0.11480636073542694,0.015996843195041948,-0.0016652438238198633
282,10.81999999999994,-0.0191577712663935,-0.0045206578465101345,-0.0005196536631249592,0.03215097583868013,-0.2278364388873621,-0.9731684605448425,0.0025711630818537326,-0.005712656738292753,0.006199998956427538,0.11471711676430581,0.015992045354449418,-0.0016658213094421766
283,10.82999999999994,-0.01836729098828235,-0.0014324929149154564,-0.0035824034887375865,0.032153032088685314,-0.22762839509053173,-0.9732170999705103,0.001209900332311685,-0.00476603852019727,0.007587945011231648,0.11461125168682326,0.015991156917776077,-0.0016823275822426455
284,10.83999999999994,-0.00905670872860156,-0.0001663380572460649,-0.006193897577784983,0.03216989543001479,-0.2274698981646662,-0.9732535762097783,0.0001460111210293102,-0.001269394134158617,0.008523073909763357,0.11453076058743158,0.015997140493132497,-0.0017039511808382881
285,10.84999999999994,0.01265045240328806,-0.0012818946308151133,-0.004993266839286185,0.032190547690345885,-0.22747486439062053,-0.9732517198192829,0.0009581217150750782,0.001939910538814547,0.007105302715778519,0.11453376002220433,0.016004510405713684,-0.0017302324651673946
286,10.859999999999939,0.021928998566202697,-0.0053046187181896,-0.001236397548339234,0.03218654112704421,-0.22764604378867764,-0.9732118503123811,-0.0004245743270371975,0.004320786858712872,0.003461643980708227,0.11462138529530558,0.016000371750158372,-0.0017487101799076106
287,10.869999999999939,0.025587943847382146,-0.007208278443064168,0.0002406802745595596,0.0321357423382497,-0.22786422877263596,-0.9731624833096939,0.00022591961266024143,0.004582716094943219,-0.004646770543986595,0.11473280225931276,0.015973343177889406,-0.0017613468243789134
288,10.879999999999939,0.033090588221851194,-0.004848442874156932,-0.006495500555935773,0.03209152195640613,-0.22816195937452338,-0.9730941962576922,0.00039162264498542374,0.005964472774542117,-0.0044429241942877925,0.1148851035558171,0.01594769157615507,-0.0017907312845037713
289,10.889999999999938,0.021155467569537165,-0.002146767918696847,-0.006010207361777959,0.032081913821108345,-0.22844554254622124,-0.9730279543497445,-0.00044284357721734077,0.007020393647500683,0.0011352868978428974,0.1150302882682609,0.01593910417890336,-0.001823166509146006
290,10.899999999999938,0.001668677667109441,0.0023195978842038634,-0.005063275525249994,0.03209524793747937,-0.22857208500926732,-0.9729977714337743,-0.000939708653543983,0.006527979154682225,0.006711038901077735,0.11509539625503509,0.015942204645953438,-0.0018543762729447328
291,10.909999999999938,-0.016289268992157657,9.098454211093569e-05,-0.006149169794938209,0.03212202366906727,-0.22851223832280843,-0.9730109435751416,-0.0014692944177611732,0.0019773215274062573,0.012503235463206249,0.11506537926435985,0.01595226652991639,-0.001883905509902041
292,10.919999999999938,-0.0422780057741626,-0.0002287876600225532,-0.00021920964547316596,0.032126320510175464,-0.2282289379010911,-0.9730773394558779,0.0001039683782689412,-0.006616172303731434,0.013358899824641186,0.11492098273917858,0.015953390166481292,-0.0018929473353232241
293,10.929999999999938,-0.057703591009075544,0.001209087116713862,0.0021021515099588447,0.03213306576811159,-0.22772684617288189,-0.9731947241464164,5.469830228329876e-06,-0.012732202475327244,0.009701673942109247,0.11466468236676589,0.01595776850797,-0.0018845308304013234
294,10.939999999999937,-0.04757930448698997,-0.002343839888220347,0.0014381092028528683,0.03212351679894004,-0.22719526445505575,-0.9733192904776067,-0.0007320967103056572,-0.01322693176090106,0.008492383608233955,0.11439325237560481,0.01595454466858304,-0.0018708936600538774
295,10.949999999999937,-0.035159457930226276,-0.0034689464188554795,0.0009289451904507698,0.03209802071511333,-0.22678432117949193,-0.973415942871726,0.0009549331817897643,-0.008352591001034245,0.007634683511974673,0.11418344732759177,0.015942682244233362,-0.0018624806804339962
296,10.959999999999937,-0.01480872847759045,-0.005881419246603179,-0.0024655011460649706,0.03206123960993176,-0.2265268423737888,-0.9734771099905152,0.002567476869868116,0.000601524719724196,0.0033872997828284183,0.11405214064033947,0.015923509433837635,-0.0018682239745984048
297,10.969999999999937,0.007670075125653805,-0.004156437580487038,-0.005784899118117621,0.03201328417297355,-0.226486808381303,-0.9734879740137269,0.004901720863373449,0.009216624023015966,0.0011009458252560964,0.11403207613499611,0.015896093550154936,-0.0018967100364475661
298,10.979999999999936,0.017148316563294803,-0.0010357540658689685,-0.008232869835722058,0.032015669357535845,-0.2265985852948299,-0.9734619321546465,0.0035572962618656973,0.013605570076011379,-0.0011388663232216887,0.11408978862844193,0.0158922818504382,-0.0019403231787758072
299,10.989999999999936,0.013614588845274698,0.0018072826788557593,-0.005398770861356936,0.03203643256229637,-0.2267497823269626,-0.973426030171898,0.0009407423221036294,0.013650680667844592,-0.0007378524240309518,0.11416745259870972,0.015899171024455146,-0.00197126505788941
300,10.999999999999936,-0.008325478145471705,0.0018957897800414563,-0.0013676068620337017,0.032069674113276644,-0.2267885181410331,-0.9734159016596966,-0.0011666387630366996,0.008740638565362734,0.002733724844604945,0.11418745111529068,0.015914689651083776,-0.0019818345913447735
301,11.009999999999936,-0.03370220929982152,0.0012002287606257354,0.0021487210515473065,0.032069789594368014,-0.22660541884649982,-0.9734585449100994,-0.00029321449244238274,-0.0007977302946274144,0.00581081023535906,0.11409396117826054,0.015915437981402682,-0.001975951143273443
302,11.019999999999936,-0.04564691829140981,0.002018380041050056,-0.0016674887653377315,0.032072565180680135,-0.22622478741266608,-0.9735469896010391,-0.0009136965146114006,-0.011176624039804314,0.00838480808909459,0.1138996663022742,0.015917909775284376,-0.0019668319413591703
303,11.029999999999935,-0.039663030251718204,0.0014441630037056092,-0.001946484492927099,0.03209146298327089,-0.22581062679921146,-0.9736424711626153,0.002344138436965186,-0.01360265832863343,0.011325255284136136,0.11368847143316722,0.01592739483784007,-0.001967342986990108
304,11.039999999999935,-0.020521529294044022,-0.002509802446279635,-0.0031679803100910014,0.032104921082922726,-0.22553086768079839,-0.9737068973649031,0.0043028586804684105,-0.006057789542368265,0.012723703996214327,0.11354594996263238,0.015933293757590332,-0.0019752086417050172
305,11.049999999999935,-0.002658153739615813,-0.005409919497620628,-0.0025188204698319804,0.03209719202117306,-0.22539983581167547,-0.973737500688566,0.0001978324265512893,0.0018248734029795172,0.007538511553362593,0.1134793048884576,0.01592811404339298,-0.001986583168072479
306,11.059999999999935,0.010582833544888363,-0.006558664129068848,-0.0041802067561365714,0.03206096587882364,-0.2253963620359185,-0.9737394746181097,0.0005226830604405233,0.006956892994123691,-0.001424476190967687,0.11347780405391249,0.01590741841046648,-0.002008107757431838
307,11.069999999999935,0.02247449768914625,-0.0021630222001260612,-0.005573232815184811,0.03204569027446762,-0.22553338306754125,-0.9737082279070233,0.004572900420186783,0.01083379830601414,-0.004750482422158378,0.11354807925927479,0.015896718662296683,-0.0020343236918337324
308,11.079999999999934,0.020574271349455945,0.0006239095847085561,-0.005627827497882949,0.03205933450450293,-0.22573128902731818,-0.9736619413824703,0.0031172405498384945,0.0122647066361285,-0.0017221581047671178,0.11364957131257332,0.01589963589272871,-0.0020686567596017993
309,11.089999999999934,0.004714474414626062,0.0019182818964374368,-0.005696309662433186,0.032094357201794196,-0.22586799510430364,-0.9736290716946786,0.0011820499279694334,0.010891571005283101,0.005254132500574659,0.11371993223406732,0.015913263914182862,-0.0021034940866915793
310,11.099999999999934,-0.015112336540255004,-0.002437252058469455,-0.0018092948870038553,0.0321122705922787,-0.22584213765290923,-0.9736345190946241,0.0009871256202640148,0.0052661046564062225,0.009386739452088722,0.11370713261228169,0.015919788876809327,-0.0021253135309013873
311,11.109999999999934,-0.026165231507755043,-0.005401761839062451,0.0005147287566530899,0.03209581752046644,-0.22565949864505175,-0.9736773828031795,0.0030595830277314255,-0.005368921275464444,0.007356756623149148,0.1136140599994589,0.015910676783055515,-0.0021328053113389357
312,11.119999999999933,-0.027621549834369603,-0.0024421839130463843,0.0017757217517567496,0.032086909983428766,-0.22541476815974773,-0.9737343744379743,0.00438367959615669,-0.01338421196131018,0.00532013225904915,0.11348926478831618,0.01590601679737928,-0.0021346847288298706
313,11.129999999999933,-0.017284217138736326,-0.0013848883050799306,0.004107752408619077,0.032058121774234484,-0.22520120954241224,-0.9737847269186864,0.0019182167995857712,-0.009273666359439443,0.00732494346340491,0.11338015264098346,0.01589257624446308,-0.002125768470062711
314,11.139999999999933,-0.00437791540809529,-0.0031882060555957032,0.0056077186290575615,0.03202894567667545,-0.2250804681171552,-0.9738136366996524,-0.0015873724403808196,-0.0006201864359239844,0.0035910433706886845,0.1133181112499793,0.015880804609182873,-0.0021003573635101935
315,11.149999999999933,0.0043543991536105645,-0.003479639919934298,0.006050374965269306,0.03202154341765733,-0.22505858907942436,-0.9738189157573666,-0.00019305903243666423,0.007194837471682616,0.0018399673015917363,0.11330667465134062,0.01587900147349036,-0.0020835279952317485
316,11.159999999999933,0.015602271282238435,0.0031585300957244506,0.002356273090227627,0.0320382614039293,-0.22515138994824432,-0.973796904405816,-0.00014803298176117405,0.008888089685128378,0.0007060963742787621,0.11335370161413547,0.015889882547511745,-0.0020618344511632793
317,11.169999999999932,0.01721329556363753,0.0035469852354217952,0.001073822198348832,0.032071210588247294,-0.22529637688397097,-0.9737622882282277,-0.0018983730464187797,0.011454347154632932,0.0038155004087908387,0.11342759741305397,0.015907204914983993,-0.0020552407797696827
318,11.179999999999932,0.015518267196414597,0.0012224777096265854,-0.0004808568709333378,0.03210858830765095,-0.22544811317097774,-0.973725953475762,0.0005079779111907519,0.012239915875683545,0.0056100134363069095,0.11350500391558688,0.015926238226226103,-0.0020531684815030056
319,11.189999999999932,0.00431881504263436,0.0014788685421297748,0.003290444529560094,0.03212776205051782,-0.22554732606536784,-0.9737023145082666,0.0032912721533578035,0.005700763503855565,0.005130560386403264,0.1135555610409218,0.01593647280344008,-0.002047984827625477
320,11.199999999999932,-0.0007020859418507596,0.000889769051597276,0.002972819860717556,0.03215897221984838,-0.22559333449885008,-0.9736906244647913,0.004035169838841315,-0.0013430047110710346,0.0050487429418772664,0.1135788729332649,0.015953707841952942,-0.002034624155715623
321,11.209999999999932,0.002492305136197775,0.0007599259798166998,0.0018341746297029532,0.0321903516850941,-0.22561457536746907,-0.973684667437677,0.0032413482392435354,-0.0059667986019476624,0.0068056700995180065,0.1135896625360974,0.015970275340956706,-0.0020278799355848286
322,11.219999999999931,-3.0251794376624178e-05,0.0009003258883795773,0.005724491889456784,0.032174444668799915,-0.22563413902025556,-0.97368069419546,0.0019402789600861633,-0.005920503180075461,0.006927763555263008,0.11359927875195572,0.015964580800187318,-0.002007627265395893
323,11.229999999999931,-0.003868981650501749,0.0010582991502003218,0.0011629844250836182,0.03216554409591253,-0.22558996819715135,-0.9736911899516255,0.0022516353210455036,-0.0011612492369853563,0.003574996552096793,0.11357653489824009,0.015961552003740005,-0.0019949552108316456
324,11.239999999999931,-0.0018979036391390549,-0.000362700669926827,-0.0017842742541351157,0.0321538371018798,-0.2255400244406488,-0.9737031494755175,-4.87331627663911e-05,0.0023565355356325347,0.0049699039756747505,0.11355101499604077,0.01595588898394453,-0.001992974772725977
325,11.24999999999993,0.003537676502204471,0.0022852362691533276,-0.0017005899519901557,0.03215279547495851,-0.2255395841722805,-0.9737033259532997,5.554992103193886e-05,0.003712245937360004,0.004385651904461054,0.11355088444917416,0.015954557754038774,-0.0020000285998029426
326,11.25999999999993,0.007495129605419313,0.0016230155629671172,-0.0018462875468962315,0.03218356470232995,-0.2255877056003521,-0.973691107129231,0.001509302818067936,0.004833450415357682,0.0051844164388479535,0.11357569060938147,0.015968662654789224,-0.0020121173128937854
327,11.26999999999993,0.00031654511892595816,0.00026981448783818863,-0.0020984332857306555,0.0322299001719822,-0.2256261000596616,-0.9736806935045602,0.0010429754225048321,0.0067933859557123485,0.007091096748986826,0.11359551953945568,0.015990805781162236,-0.002022443831501411
328,11.27999999999993,-0.00883933656573048,-0.0028711268922211406,0.0006247272647755381,0.03225842658304329,-0.22558258537585066,-0.9736898531830039,0.0013949945136927928,0.0021756356950104975,0.0024960630849083136,0.11357342731975928,0.016004907310882045,-0.0020247570865714005
329,11.28999999999993,-0.011311975792224685,-9.738958553399393e-05,0.0038373866784221135,0.03225473183922508,-0.22548378196380942,-0.9737128434258637,0.0008072470319959386,-0.002234153923772512,0.0013667997081571695,0.11352287713113621,0.016004122914314446,-0.0020154150602247063
330,11.29999999999993,0.001188674600052,-0.001012180715868773,0.0012840948237367307,0.03225309728423006,-0.22543761341516583,-0.9737235747596485,0.0015612261999808012,-0.0036488427527764837,0.0059997968828000466,0.11349915224979785,0.016004581204541887,-0.0020042478823153326
331,11.30999999999993,0.0017126167392899907,0.0007315766856279208,0.000646778607230563,0.03227301307614201,-0.22544896191349528,-0.9737203170045626,0.00019265128344997493,0.00038250511453505635,0.007207630989214413,0.11350487103489512,0.016015429176837164,-0.0019970636470891525
332,11.31999999999993,0.0010037839263930017,-0.0014546584446902848,-0.004060528566703555,0.0322866046074926,-0.22545599286877666,-0.9737182042009664,-0.0010749273827857545,0.004525181251703163,0.00664226761447338,0.11350859753277899,0.016021432471123503,-0.002004397115847212
333,11.329999999999929,0.0046173994396025335,-0.0023297244325087836,-0.0014793121623118202,0.03228184036077802,-0.22547025509999713,-0.9737150639274472,0.0013047751674151562,0.006667482066144266,0.003930978861093537,0.11351612687103907,0.016017123126573246,-0.0020211061433321634
334,11.339999999999929,0.0043652643029631925,-0.0012921582985109309,-0.0004971172891156413,0.032288639314623974,-0.22551088193025753,-0.9737054639861416,0.002735652877136838,0.0012748269078996458,0.0010542943506246937,0.11353680626123876,0.01602089271693902,-0.0020180343671871914
335,11.349999999999929,0.0022592794983616322,-0.0003741389221467265,-0.0014428682346863825,0.03228725210209883,-0.22553463907583784,-0.97369996282325,0.0031219878135516034,-0.0007040423697004209,0.004221116123662277,0.11354905099844194,0.01601928179621382,-0.002026007633144631
336,11.359999999999928,-0.004999421529411041,-0.0013681219421794958,-0.004665465160537716,0.03230263668920773,-0.22550939582397445,-0.9737053148522696,0.002048432734217039,0.001605843154696235,0.0054534800258886065,0.11353650399309162,0.0160249396087501,-0.0020442850829736534
337,11.369999999999928,-0.011426124973289074,-0.002190564513139756,-0.0021723037021169262,0.03230146599544522,-0.22543526055667223,-0.9737225171643603,0.0014909242190173366,0.0027132808876787593,0.006991038252108956,0.1134990267774828,0.016022028507471506,-0.0020646850517966834
338,11.379999999999928,-0.013901429859162472,-0.004440722305831266,-0.0025194258202732005,0.03230081460580391,-0.22531510177584277,-0.97375035494956,0.0013921543971091473,0.00021298300577869385,0.008035046109039061,0.11343799652270369,0.0160199955962076,-0.0020797473411141593
339,11.389999999999928,-0.018035384649372786,-0.0038228646497112722,-0.0008397332541966885,0.03227163542912344,-0.2251619219369575,-0.9737867517814304,0.0020648559106208886,-0.0023968616822847865,0.006783360047255947,0.11335992813448426,0.016004480911235176,-0.002087132037033347
340,11.399999999999928,-0.016178297248420473,-0.0006752528634747148,-0.0038916770368084925,0.032240004534275536,-0.22496836956359764,-0.973832558307341,0.0017924312961471072,-0.0033970596913903317,0.004270949536001058,0.11326133353902679,0.01598735285468213,-0.0020979317134188088
341,11.409999999999927,-0.009445294009809573,0.00011933655912330012,0.0004809051126530503,0.032259458251618175,-0.22482952568880274,-0.9738639834573268,0.0010172474059102759,-0.0001720237482415593,0.004634691971040187,0.11319077184600258,0.015995846034263496,-0.002109515750595388
342,11.419999999999927,-0.004551585593459577,-0.004097406503001552,0.002856495646762685,0.03225801466287569,-0.22474656094714962,-0.9738831422418138,-0.0023262910236251603,0.0022632530958457717,0.003729495868125355,0.11314829783986845,0.015996371124115012,-0.0020986487896929975
343,11.429999999999927,-0.0036361916072587953,-0.0008538551743231021,9.580379725383868e-06,0.032261460326055716,-0.22472330851288935,-0.9738884352667743,-0.0005379743993016049,0.0039021726753509806,-0.0002744499397999301,0.11313646877640358,0.015997878349872794,-0.002100662360398818
344,11.439999999999927,-2.717250453577102e-05,-0.0009892168311992945,0.0008742708077251068,0.032263749702079424,-0.22470444394848646,-0.9738926813923352,0.0014270314392453866,0.004660573764148281,0.0009262916002590743,0.11312689214004204,0.01599871075878998,-0.0021034845572923443
345,11.449999999999926,-0.0009472011076295593,0.003471175432798062,-0.0011920510988896378,0.032281922935146895,-0.224697780349474,-0.9738936284529696,-0.001293694332998885,0.005612277538072163,0.004552398803361545,0.11312357728254392,0.01600760309238688,-0.002105754265963784
346,11.459999999999926,-0.002878930259718495,0.003961491603522578,0.0006649121490429513,0.03232470130037944,-0.22467645057897667,-0.9738971047432515,0.0010688728535028637,0.0029769425053608176,0.00628065283537743,0.1131128748726347,0.01602847747903767,-0.0021115802735332716
347,11.469999999999926,-0.005260886229867177,0.0015425111728833729,-0.001695052847022662,0.03235399684737557,-0.2246508931365971,-0.9739020307822883,-0.000740117969151697,0.0014826638206096323,0.005620566360667745,0.11309999509297784,0.016042616083012974,-0.0021169770378500065
348,11.479999999999926,-0.002896580999171483,-0.0038267990711192855,4.961010736638516e-05,0.032352547390387974,-0.22462109234463748,-0.9739089744560536,0.0016676595327712387,-0.0008535138428394917,0.005180933037140353,0.113084911655257,0.01604106148404257,-0.0021242606748832923
349,11.489999999999926,0.0011208458436487508,-0.0023402083011045743,-0.0026002089905770263,0.0323338247979369,-0.22462243109534666,-0.9739093148898433,0.0009722473753817366,-0.0009624279053201146,0.002649344880330526,0.1130857094778056,0.016030564045273317,-0.0021336744620153725
350,11.499999999999925,0.0015748099881001923,-0.0016127733190855688,-0.0011673469085385156,0.03230202728895188,-0.22464017908962672,-0.9739062646434838,0.002360765647200048,0.0016851512655706403,0.0009843629711686647,0.11309493906165886,0.01601280694409745,-0.002149021321188837
351,11.509999999999925,0.00042487782383597854,-0.0005191396207181646,-0.004294163516653475,0.03229978314640358,-0.22465254408024457,-0.9739034582896611,0.003481155868413163,0.004368325984650689,0.0022355027701937108,0.11310147256948518,0.01601008628243875,-0.0021629874605702645
352,11.519999999999925,-0.004695712788306462,7.058584649510238e-05,-0.00529260519929639,0.03233204395480207,-0.2246360227106856,-0.9739062376007436,0.0005773961404895501,0.0059848493891029135,0.006633729428095375,0.1130935585085721,0.016023171269336167,-0.002190721662022546
353,11.529999999999925,-0.0066951684663345695,-0.001987557467700115,-0.004102946295510628,0.03232741600892068,-0.22457606451025544,-0.9739202048462235,0.0004948988044549898,0.002067062412444854,0.008426208664969818,0.1130632309850162,0.01601909853544988,-0.0022061416553094755
354,11.539999999999925,-0.009277576781116039,-0.0031791675264849,-0.002980192081541099,0.03231525041627268,-0.22450917616885394,-0.9739360382929982,0.0014241976704516624,-0.0025542332897969446,0.006315148442644649,0.11302931377414142,0.016011447363779675,-0.0022196728540652814
355,11.549999999999924,-0.012093179385908408,-0.0016653998940043574,-0.002376974019448843,0.0322861016972534,-0.22440485236273724,-0.973961008312338,0.002489679780033403,-0.0029329538686629977,0.0030892119574174445,0.1129761855952463,0.015995930324538273,-0.002227286554681119
356,11.559999999999924,-0.008570816910193384,0.001480369177104077,-0.003115462074559577,0.03229077266180606,-0.22431012993839708,-0.9739826965606241,0.0013703742216720364,3.997928603069294e-05,0.00365297712893142,0.11292819099018983,0.015996229223006687,-0.002245515506584649
357,11.569999999999924,-0.007854992974275337,-0.001156385739140507,-0.003348545527350362,0.03230349019587159,-0.22422664679357882,-0.9740015149177645,0.001236763408574526,0.0019709172127827254,0.004026132545050025,0.11288594021206434,0.016000633566470534,-0.002263270742797973
358,11.579999999999924,-0.003294842739508067,-0.00014955113774493497,-0.0019377022193350609,0.032300734947836966,-0.22415721970641636,-0.9740175871021827,0.0006207483110603372,0.002891818478836616,0.0058386939012185345,0.1128506276170326,0.01599853315182281,-0.002269663439864448
359,11.589999999999923,0.007683816001096213,0.0001283132828487527,-0.0014566857062242046,0.03233522832725463,-0.22416977700654533,-0.9740135043926434,0.0004876297026224037,0.0015016032121333116,0.007108651955943738,0.11285728092734656,0.016014653658337732,-0.002280597224244548
360,11.599999999999923,0.010614282514791988,-0.0042383191561113556,0.0004948348753833975,0.03232111367544494,-0.224246180689841,-0.9739963844274074,0.002323148537643959,0.0015442905103814626,0.0022126045753831716,0.11289624287915906,0.016007303372089672,-0.0022825994941778394
361,11.609999999999923,0.014040982386521537,-0.0040064630969947074,-0.0026730872266645125,0.03228683115230053,-0.2243800132362004,-0.9739667370603945,0.001838780598637685,0.002777729301319311,-0.0017677679480061375,0.11296457289036743,0.015988867874252632,-0.002292666621904254
362,11.619999999999923,0.018369484400864725,-0.002418520937071681,-0.0011212049921673886,0.03227202093687547,-0.22455950879385653,-0.973925862793905,0.0017863675341752154,0.006813848769931451,0.00031146278461660127,0.11305624019938398,0.01598005787754849,-0.0023041755620102507
363,11.629999999999923,0.020316440448048773,0.0004171609953955847,-0.0006570878497666782,0.032278312138214575,-0.22475940561164565,-0.9738795481277275,0.0016436631792941315,0.006564834934733837,0.0034877215017894625,0.11315836245864111,0.015981946283316475,-0.002314979740742084
364,11.639999999999922,0.008342414341287338,0.0027865483545568997,-0.0019038491463314925,0.03231753396837162,-0.22490228954100738,-0.9738452373874084,-0.0014273282656505524,0.007003048180362971,0.006809584751100254,0.11323146164069804,0.016000518554810977,-0.002324943922624738
365,11.649999999999922,-0.004818199730734732,-0.0022587704918704075,0.0015448938889909794,0.03232704083917168,-0.22490924274689697,-0.9738432948542518,-0.0015340741688474474,0.004043294123791057,0.006802880263615272,0.11323500942456728,0.016005483160007383,-0.0023233687209996984
366,11.659999999999922,-0.006193830075160201,-0.001663453128942329,0.001961556137161611,0.03231069465704718,-0.22483485757622032,-0.9738610085259307,-0.0020010447344070733,-0.004089828870921495,0.007136754723618559,0.11319685147525067,0.015998557966934297,-0.002312086906434838
367,11.669999999999922,-0.010055932727791497,-0.0003154000794387266,0.0009705435601576801,0.03228887951189432,-0.2247510748867599,-0.9738810747066423,0.0005643515095806947,-0.005852012679050133,0.0066325990059968865,0.1131539219556318,0.015988741141724563,-0.0023020388197702592
368,11.679999999999922,-0.0034754144533938273,-4.674965344436341e-05,0.0012917060947064546,0.03229377470665143,-0.22467605878999958,-0.9738982165803096,0.0008001282871542564,-0.004738494675260492,0.0041997783523097095,0.11311551891236345,0.01599245801189896,-0.0022912041736705517
369,11.689999999999921,0.006454214148556131,-0.003314050477950328,-9.41408390641872e-05,0.03229118519877273,-0.22467516412553515,-0.9738985286761039,2.0529605813766373e-05,-0.0015267513817798393,0.005982646985323036,0.11311501877424716,0.015991410519466454,-0.002288968540783698
370,11.699999999999921,0.007432964623242793,-0.004207409247606259,-0.0034285651205602104,0.03226868700807296,-0.22473237710138355,-0.973886091012937,0.0003360177191641523,0.003094103988817762,0.003077854992528237,0.113144326711569,0.015978797196961773,-0.002300150070701225
371,11.709999999999921,0.005871580073410954,-0.003692343932403901,-0.004134711887318903,0.03223924750644487,-0.22479362516844212,-0.9738729223303321,0.002346216809933899,0.007190454944071379,0.0011456126951721515,0.11317587541813338,0.015961196676013117,-0.0023243954834684744
372,11.71999999999992,-0.00024400048062027738,-0.0020895985512526514,-0.004423605829848266,0.03221650119972069,-0.22480921915066976,-0.9738700679094211,0.001137320362703622,0.0064793706004348224,0.0046099217451461075,0.11318417293518346,0.015946943869065925,-0.0023489548562285424
373,11.72999999999992,-0.007717310546501137,2.0663113534955934e-05,-0.003542873927586393,0.03220979540720329,-0.2247634997191978,-0.9738808339665228,-0.0006512724638406612,0.0024538333872723443,0.00628879797250365,0.11316109779044867,0.015941800182798286,-0.002364592148434816
374,11.73999999999992,-0.020386559220168465,-0.00018795680881815286,-0.00094960742421117,0.03221091898820427,-0.22462740794266767,-0.9739122169660294,0.0006581751617230717,-0.0011070721661836026,0.008799122296025001,0.11309182796411164,0.015941554358114403,-0.0023720506132169417
375,11.74999999999992,-0.03592894061607908,-6.876776463549288e-05,-0.0005801276977701031,0.03220532515351824,-0.2243565909221215,-0.9739747935184649,-0.0007879803581031752,-0.003603008382030084,0.0076784202052027906,0.11295366549857411,0.01593920586531738,-0.002368619866591396
376,11.75999999999992,-0.04049351339264869,-0.0029935984712304593,0.0009292386526025802,0.032197636213134574,-0.22399715402022322,-0.9740578173566378,0.0011994983385897966,-0.006432312117019923,0.008550060404940617,0.1127703509670173,0.01593577580257677,-0.002365642906174552
377,11.76999999999992,-0.027086034052746677,-0.0024395062923748233,0.00017127513202037069,0.03217823992754659,-0.22366040620768649,-0.9741358390449598,0.0026741237389951203,-0.0071709500084469035,0.008061719337753941,0.11259851249308936,0.015926846099582993,-0.002359133955482272
378,11.77999999999992,-0.007097198611634537,-0.0041778734314191724,-0.00018677395763502493,0.03215641310556057,-0.22348530631324054,-0.9741767390930781,0.002725045670287101,-0.0034652641834789495,0.0038044830043353272,0.11250920812071591,0.01591590013967005,-0.0023592109156078326
379,11.78999999999992,0.01306101426863219,0.0002707545101058731,-0.0034574699601275616,0.0321712766278145,-0.22349512334313973,-0.97417399222963,0.001667192028086494,0.005395357094811034,-0.0007292445941441072,0.11251436824052043,0.015922492868453455,-0.0023670499257802216
380,11.799999999999919,0.01994220231997937,-3.765524463597374e-05,-0.004014081283775893,0.032187811567291995,-0.2236471186030129,-0.974138582464796,0.0011268234963681093,0.013809901918448747,-0.0008064858945787665,0.11259219744089788,0.015928585818569638,-0.00238633783126578
381,11.809999999999919,0.017165721864684663,-0.0013036096733374538,-0.005845450070475487,0.03218069465457192,-0.22383483013589797,-0.9740956658610027,0.00041844307068092726,0.012544719960122457,0.0007235045206216779,0.11268828203887679,0.01592208972394774,-0.002411530385484785
382,11.819999999999919,0.01362948745838324,-9.014204128925162e-05,-0.0023533042672844273,0.032191468881288036,-0.22401228741879914,-0.9740545132571168,0.0020198886807070915,0.008079690126954555,0.0015435241138512593,0.1127792290985747,0.015924312770089336,-0.002439245482696527
383,11.829999999999918,-0.003871998774478032,0.0010462515579329357,0.0027793087706802513,0.03219784657803995,-0.22407433976591876,-0.9740400325829316,0.000650810369256736,0.003517014737376048,0.004501825269461416,0.11281088583284712,0.015927436235520176,-0.002439833670392983
384,11.839999999999918,-0.011493971289424811,-0.0014672098827758974,-0.00047030717522406973,0.03221557850647978,-0.22401825504235254,-0.9740523258895467,-0.0007254805817465747,-0.001723287043775704,0.005901402017862675,0.11278220443688944,0.01593734305480756,-0.0024313558031097715
385,11.849999999999918,-0.021293183758261856,-0.000389233238751358,-0.0020302010481443714,0.03221411445297463,-0.22388362760111763,-0.9740833519829668,0.0021557890479638646,-0.006032916381951059,0.006927557029237394,0.1127136773634546,0.015935843013885963,-0.0024384696621524427
386,11.859999999999918,-0.021638122268697914,-0.004708132657595529,-0.001573871183937682,0.03220400738266605,-0.2236703411519725,-0.9741326865011833,0.0020833400236953954,-0.007082046370367882,0.006379291997409336,0.112604986341932,0.015930346093334335,-0.002442694996883682
387,11.869999999999918,-0.019864960486854027,-0.0028943904287167498,-0.004312076014183605,0.03218844687632201,-0.2234504702595159,-0.9741836418085279,0.001689261109217151,-0.004900887290919656,0.006198411953498362,0.11249314181060165,0.015920542351874026,-0.0024607248232738172
388,11.879999999999917,-0.014000751086477862,-0.003891212716686188,-0.004579269221380823,0.03217990024391546,-0.2232539711633255,-0.9742289939809758,0.0011494473416331944,0.0005245444162996918,0.0062267902287378935,0.11239330362810629,0.015913815212769567,-0.0024827471147592056
389,11.889999999999917,-0.015082704170729119,-0.002435940120775161,-0.007999030872912512,0.03217266593792502,-0.22309476694135583,-0.9742657232110468,-0.002028253020026281,0.00369474496147676,0.0042943412055766895,0.1123126507608035,0.01590654517925014,-0.0025153389241912984
390,11.899999999999917,-0.01662874202269802,-0.00036369594303363277,-0.00925285752233445,0.03218613136375954,-0.22293266399233677,-0.9743023872285246,-0.0016259316932303101,0.0050719556029066885,0.003316550610024102,0.11223070748633489,0.015908755200271192,-0.0025563027522684475
391,11.909999999999917,-0.021025514015452818,-0.002548959891789198,-0.010059349130953304,0.03219768969344232,-0.22275116321858826,-0.9743434914808787,-0.0016797866275372014,0.0042043504584101206,0.004138462993408216,0.11213909082030579,0.015908466972448302,-0.0026110336719383813
392,11.919999999999916,-0.022400209251732642,-0.004040485386727792,-0.007763188055343205,0.032169148813140785,-0.22254438081461303,-0.9743916718760463,-0.00040877525846545943,0.0006129085031094865,0.00402543105914322,0.11203432916581751,0.01588919511818311,-0.00265530765579113
393,11.929999999999916,-0.01943049732122272,-0.004037272715608179,-0.005726230033001085,0.03215079053924952,-0.22236041292842337,-0.9744342760686691,0.0019524912334214837,-0.0033685515886722125,0.0041578576233627105,0.1119411033774713,0.015875911066285872,-0.002691909674373118
394,11.939999999999916,-0.028212494742655803,-0.002109211172045946,-0.008236046227722083,0.03214734673321035,-0.22214927778588042,-0.9744825289874179,0.0038514398348431537,-0.0026190175196945586,0.003918626311878198,0.11183411429781753,0.01586984784015067,-0.002731262086251781
395,11.949999999999916,-0.026309590218348756,-0.002612279340757521,-0.0035304111183415863,0.0321416200883104,-0.22189070965056465,-0.9745416589842496,0.006735364848428338,0.0014508027778776318,0.004006253222476132,0.1117028878197485,0.01586303902648154,-0.002767294064764035
396,11.959999999999916,-0.020067911033277954,-0.0009028252813762848,-0.0036900264165128653,0.032133916542590714,-0.22168345870895767,-0.9745890612736934,0.005259271113814924,0.0002995567115283233,0.0033561883836171853,0.11159772501428243,0.015855943951542408,-0.0027968910979479424
397,11.969999999999915,-0.009168106275622215,-0.005074467396877023,-0.0032397681511310266,0.03209395765818715,-0.2215422891469003,-0.9746224715691518,0.0013763869211078634,0.0006834016976366064,0.00330950173346161,0.11152586286688251,0.01583467740520663,-0.002807825426375271
398,11.979999999999915,0.007042220707491628,-0.002425030771932735,-0.004090867063495963,0.032068081372328146,-0.221513193291636,-0.9746299568516487,0.0006053794858358225,0.005952713561957211,0.002330313357438181,0.1115113129696886,0.015819312383163902,-0.0028288230616140405
399,11.989999999999915,0.013780097235073115,-0.0020218325833023165,-0.0014658566303030985,0.03204514272547407,-0.22160837009169176,-0.9746090723410858,0.0017317543994200984,0.007185755897187122,0.005505906553661261,0.11155993577743245,0.01580647582225191,-0.002839856374273167
400,11.999999999999915,0.017135277447398428,-0.0029716477705760067,-0.00024783988734187394,0.03202942753122116,-0.22176601897134204,-0.9745737376272694,-0.0008724331168730435,0.006605667248891773,0.0015414914937648683,0.1116404063535685,0.015797315101742343,-0.00285023158429173
401,12.009999999999915,0.017101305592598103,-0.004291196297913831,-0.00263557933727372,0.03202270349212211,-0.22194375066022093,-0.9745335218571763,-0.0006365950167866151,0.005458669531405164,-0.0007208514566177169,0.11173104637146405,0.015793262000952376,-0.0028552903350839353
402,12.019999999999914,0.011357978717989482,-0.0008139108136442259,-0.0016425624720757068,0.03203653513404218,-0.2220938111163996,-0.9744988566096768,-0.0003303095826100714,0.0033698552489332704,0.002984052114585732,0.11180762284090272,0.01579971038065173,-0.0028591183804004645
403,12.029999999999914,0.0035539397673026996,-0.002232660578233344,-0.002549025950397384,0.03206076386760703,-0.22217028298489588,-0.9744806534309225,-0.0027071282014112445,0.0018103519022819327,0.006614002137675483,0.11184680424492958,0.015810730565376407,-0.0028691739854560198
404,12.039999999999914,-0.006304555529514356,-0.004124112765707548,-0.0012568421691471602,0.032070370848394356,-0.22215694341096107,-0.9744833583308048,0.0006598829475042609,0.0017438791728648887,0.007089356151515557,0.11184023152440804,0.015814197440110114,-0.0028814118276064313
405,12.049999999999914,-0.014245743996339655,-0.003463763525447755,-0.0038773143256395984,0.03204854702125926,-0.22204840807699538,-0.9745088312846756,0.0028086822930406146,-0.001616207405814674,0.007208022797322594,0.11178523777683307,0.0158006242264248,-0.0029049521712535007
406,12.059999999999913,-0.013515877935560658,-0.00484143047831458,-0.003958197833440294,0.03201662017783299,-0.22189660120032628,-0.9745444350613314,0.0030928356211856432,-0.004349952891615523,0.008003755412833847,0.11170802509539862,0.015782954644786292,-0.002919972571672283
407,12.069999999999913,-0.014773917169388136,-0.003605619530853874,-0.004292970945505184,0.03199683209074498,-0.22174242777379968,-0.9745801449532291,0.0021562024242973345,-0.005062087456278289,0.006477367449481306,0.11162968940855082,0.01577103916183788,-0.002938173220731679
408,12.079999999999913,-0.01335025449721086,-0.0038682564058056604,-0.003162577516711832,0.0319726266203778,-0.22159987968941994,-0.974613362058918,0.002009339402180737,-0.0023490409793559966,0.005516223569975145,0.11155723596048434,0.015757211354108257,-0.002953603161857704
409,12.089999999999913,-0.0019229432003168845,-0.003358201916504478,-0.0029125601879664543,0.03193644114417055,-0.22152646984183255,-0.9746312451031349,0.0017104130629014924,0.002788083456351427,0.002900121915180786,0.11151991387674524,0.015737807521347316,-0.0029645957289407927
410,12.099999999999913,0.006041739207673199,-0.0004935503145137555,-0.0017564908102852923,0.031928023809181756,-0.22153888762719126,-0.9746286958706382,0.0012918354673803957,0.006103976610542516,0.004134916652563118,0.11152640793149843,0.015732224435368244,-0.0029765266344509256
411,12.109999999999912,0.011935941907495504,0.0007456348055711935,-0.0019943659748966765,0.031902425095200054,-0.22161974898785003,-0.9746111597829341,0.0023350346295653267,0.009329360667866146,0.004243337646082428,0.11156773374543119,0.015717970739475236,-0.002988262847592476
412,12.119999999999912,0.015743238274094087,-0.0009715627790811153,0.0003064189592846948,0.03192288201508944,-0.22174928878845243,-0.9745810341703448,0.001526774221634017,0.007947659842255624,0.0030879029863427106,0.11163397851781491,0.015726917453566604,-0.0029995607303171883
413,12.129999999999912,0.017208639089577166,0.004727392629439532,0.0006912562010149156,0.031949118575694824,-0.2219208278588631,-0.974541120616853,0.0012090516426416812,0.006729980242984376,0.003531508265606099,0.11172151278775282,0.015739694211167592,-0.00300240159808214
414,12.139999999999912,0.014100732975951403,0.0003026416997656857,0.0015325642828311844,0.03197644284456538,-0.22209398340104278,-0.9745007605783346,-6.1878454484696425e-06,0.005818637070164629,0.0018640551249108986,0.11180970290672061,0.015754253302353548,-0.002994282450446213
415,12.149999999999912,0.013140025381372916,-0.004539780132320383,0.0009410107148192549,0.03197352217448668,-0.22222403117307798,-0.974471225308562,0.001059099772611909,0.003343140715719612,0.0014802155922940567,0.11187589692761757,0.015753307769421725,-0.002988910887237058
416,12.159999999999911,0.01874381650302078,-0.001877853960920836,-0.002486385790494438,0.031970664036403314,-0.22237229222570415,-0.9744374938588458,0.0016583340433068581,0.0004706866205310312,0.003942246515993759,0.11195161869796104,0.015750656858070214,-0.002998850227566432
417,12.169999999999911,0.016495791515997716,-0.0004766789795430852,-0.0013492054193344244,0.031963713180021544,-0.2225314761257684,-0.9744013710405184,-8.276533414597201e-06,0.00042488466779010863,0.008007922969198548,0.11203289906958346,0.015745875193392985,-0.0030093330687749687
418,12.179999999999911,0.013884826733749047,-0.0014584983809597081,-0.003441169926543639,0.031958355519954795,-0.22267225405889257,-0.974369407946022,0.00043521456683457636,0.001143990424739959,0.004694959013071087,0.11210486807047113,0.015741491513265198,-0.0030235005362956907
419,12.18999999999991,0.0021604397317575245,-0.003909754379229242,-0.003424429451570378,0.03195367435702564,-0.22274011720505263,-0.974354054885792,0.002192511002372497,0.001837498975413356,0.003226161695932249,0.11213984671067127,0.01573629788065384,-0.003048244488668941
420,12.19999999999991,-0.005424069850611635,-0.0007871348220178649,-0.0019021384632356467,0.03193232248440174,-0.2227203100108277,-0.9743592660973375,0.0016531244063923522,0.00014280944962986224,0.001964361556268543,0.11212988762486711,0.015724206628259168,-0.0030602717203288554
421,12.20999999999991,-0.014691161124891283,-0.000475804977935635,-0.0019006653594798853,0.03194861978204753,-0.22262237242652866,-0.9743811205046952,0.00026446869490751404,-0.0018167913539881674,0.0038892096692485388,0.11208022130093245,0.015730977696386046,-0.003073548084865848
422,12.21999999999991,-0.016521227114585247,0.002873828133440184,-0.00020396870025541692,0.03195562562891594,-0.2224548661193171,-0.9744191347918112,-0.003448125808829806,-0.0005539717230330283,0.009858779454870063,0.11199497082961361,0.015733795159950135,-0.003080825437636561
423,12.22999999999991,-0.013608032044987842,-0.002076668205053902,0.0016916032505361852,0.031954122174212125,-0.2223023920105095,-0.9744540146426461,-0.002749409501667188,-0.0002170177403366344,0.010418524387209532,0.11191715233653766,0.015733845458903647,-0.003074560592759223
424,12.23999999999991,-0.006488797599466023,-0.0038268532610007612,0.003854745548004399,0.031915699380165564,-0.22219929950796258,-0.9744787612929894,0.0007658348508207753,-0.002012041907253915,0.005092207472228383,0.1118643720902228,0.015715583493900502,-0.003065599341763126
425,12.24999999999991,0.01140432141172527,0.0016765924452392979,0.00069964162712752,0.031882637799147406,-0.22221666998458234,-0.9744758623786611,0.0020979048400665964,-0.0019045392603337194,-0.0009842378525806769,0.11187296857318503,0.015700202158748195,-0.003054318911016321
426,12.25999999999991,0.02400383235903054,-0.0012524368376637318,-0.0008321408562062726,0.031875929615336224,-0.2223843723740749,-0.9744378476901965,0.003295121607345265,0.0038152332568948608,-0.0008582383738480882,0.11195844506920265,0.01569649229050868,-0.003056272226920913
427,12.269999999999909,0.024918577746771076,0.0007625688026411514,-0.001728184882511944,0.03188747686973807,-0.22260557264700684,-0.9743869404095094,0.0012702801303030205,0.011971638797125735,0.0012267926494082767,0.11207136137886661,0.01570115498781611,-0.0030651649363830787
428,12.279999999999909,0.0174802634865719,-0.0014508566818930402,-0.0012746236752759115,0.03190559521317463,-0.22281035780906483,-0.9743395447731023,-0.0009455010294713256,0.012254253029820753,0.0027362108230453265,0.11217593278290995,0.015709088815369726,-0.0030744740757283158
429,12.289999999999909,0.005466609156404565,1.4332610233382286e-05,-0.0023315114592186506,0.0318989302367366,-0.22292055409349967,-0.9743145700601609,-0.0002514431061453041,0.006610022829118806,0.005671612982408081,0.11223231180476365,0.01570413550678742,-0.003087982235374375
430,12.299999999999908,-0.0012075119864716848,-0.003993728178390916,-0.0017809613489291603,0.03187999341771478,-0.2229305375854523,-0.9743129052577447,0.0031842831932112708,-0.001924669608937821,0.0067222844322252,0.11223757551082321,0.01569299909896811,-0.003102121583272954
431,12.309999999999908,-0.0028673468114449197,-0.004359571792721935,-0.001150813149101313,0.03182229671006628,-0.2228992638307095,-0.97432196073918,0.002219715159964582,-0.005921462415262475,0.005891018139618652,0.11222166997333713,0.01566270534543228,-0.0031133878616255613
