,seconds_elapsed,rotationRateX,rotationRateY,rotationRateZ,gravityX,gravityY,gravityZ,accelerationX,accelerationY,accelerationZ,quaternionW,quaternionX,quaternionY,quaternionZ
0,0.0,-0.3785490718300763,-0.2768593650399667,0.03470828187651459,0.15340025153417403,-0.34808105463119154,-0.9249671953277948,-0.06841778761445355,-0.16118354245038713,0.13031377027269544,0.9810701052557559,0.17652322446643137,0.0800219710165721,0.010683700487817893
1,0.01,-0.3496969010111424,-0.2495803702621749,-0.007199127824047358,0.15381458480638238,-0.34619201373038927,-0.9255741986827816,-0.0649636078520485,-0.13012195467989457,0.11523433253830914,0.981223654820146,0.17565188313983984,0.07997235608973101,0.009243402254334518
2,0.02,-0.3208447301922085,-0.222301375484383,-0.049106537524609306,0.15422891807859074,-0.344302972829587,-0.9261812020377683,-0.06150942808964342,-0.09906036690940202,0.10015489480392281,0.981377204384536,0.1747805418132483,0.07992274116288992,0.00780310402085114
3,0.03,-0.2919925593732746,-0.19502238070659111,-0.09101394722517125,0.1546432513507991,-0.3424139319287847,-0.9267882053927552,-0.05805524832723835,-0.06799877913890949,0.08507545706953651,0.9815307539489261,0.1739092004866568,0.07987312623604882,0.006362805787367766
4,0.04,-0.26314038855434074,-0.16774338592879925,-0.1329213569257332,0.15505758462300745,-0.34052489102798245,-0.927395208747742,-0.05460106856483329,-0.03693719136841693,0.06999601933515019,0.9816843035133163,0.17303785916006528,0.07982351130920773,0.00492250755388439
5,0.05,-0.23428821773540687,-0.14046439115100737,-0.17482876662629515,0.1554719178952158,-0.33863585012718017,-0.9280022121027287,-0.051146888802428216,-0.005875603597924384,0.054916581600763875,0.9818378530777063,0.17216651783347378,0.07977389638236664,0.0034822093204010143
6,0.06,-0.205436046916473,-0.11318539637321551,-0.21673617632685707,0.15588625116742416,-0.3367468092263779,-0.9286092154577155,-0.04769270904002315,0.025185984172568142,0.039837143866377565,0.9819914026420964,0.17129517650688225,0.07972428145552554,0.00204191108691764
7,0.07,-0.1765838760975391,-0.08590640159542362,-0.25864358602741905,0.15630058443963252,-0.33485776832557557,-0.9292162188127023,-0.04423852927761808,0.056247571943060716,0.02475770613199124,0.9821449522064865,0.17042383518029075,0.07967466652868445,0.0006016128534342634
8,0.08,-0.1477317052786052,-0.05862740681763176,-0.300550995727981,0.15671491771184087,-0.3329687274247733,-0.9298232221676891,-0.040784349515213016,0.08730915971355324,0.009678268397604934,0.9822985017708766,0.16955249385369922,0.07962505160184334,-0.0008386853800491111
9,0.09,-0.09260659617065586,-0.037178060204708915,-0.3372789648037154,0.15734113082956971,-0.3313385653471484,-0.9302998437863762,-0.035355934991263244,0.11494658416528288,-0.0038430933677346523,0.9824171629834372,0.16882882121795154,0.07966684349080323,-0.0023973235787309753
10,0.1,-0.027425504613660938,-0.024190764263464677,-0.3513905610510356,0.15820549527124128,-0.3302567650042635,-0.9305380621029794,-0.027209517518285726,0.13592535019800459,-0.0081740705910588,0.9824720556592433,0.1684074388770506,0.0798114944295536,-0.004098994882621346
11,0.11,-0.008189520996608413,-0.003946449063508328,-0.34290203454063684,0.15922771504294123,-0.3295885675829103,-0.9306006295102273,-0.01270312247954516,0.14605884261466748,0.0038399631497327046,0.9824793169755737,0.1682070154304976,0.0800379031791446,-0.005816249534104794
12,0.12,-0.06011865422241913,0.0017789910455146656,-0.31894073730110734,0.1603198390657212,-0.3287869352351241,-0.9306965794311121,0.0005195171824995517,0.13671994101951138,0.019536867842287583,0.9825115809862531,0.16755758304518742,0.0810875926574847,-0.002916524801820867
13,0.13,-0.1494545272960005,-0.010650812410031851,-0.2871849799135357,0.1612703152215555,-0.3273517045989835,-0.9310379504711894,0.005301885002489941,0.11235956887342878,0.035373177707133024,0.9826076401939907,0.16663608069264912,0.08193449643697948,-0.0007559726914908188
14,0.14,-0.2306355785746136,-0.023705228038339767,-0.25960841269650853,0.1620061292262718,-0.3251478126770524,-0.9316818233201606,0.01214610263137389,0.088138939195816,0.05066281007449537,0.9827696985367378,0.16559478318809923,0.08207970360981398,-0.002041071315245565
15,0.15,-0.29111091297927544,-0.04386214780732911,-0.23514384716841052,0.16250079598392908,-0.3223177495280451,-0.9325782152169051,0.014307619526731674,0.07307062386505833,0.05317601624115213,0.9829947510920161,0.16421246787680038,0.08212544506280937,-0.0031783654144070094
16,0.16,-0.3330231618909289,-0.06410628525994598,-0.22802470867766556,0.16273267726754923,-0.31903599004049604,-0.9336652175097245,0.015194461762252698,0.06686875742361259,0.04617835155601677,0.9832672144417492,0.16258523490284366,0.08205291369959562,-0.004224591648556128
17,0.17,-0.3571341635778691,-0.07374390064295629,-0.23833630325724778,0.1628292346105558,-0.31541819050401737,-0.9348764866402427,0.02413695480168155,0.06039623976043123,0.03873606918940263,0.9835700025548106,0.16078357659801323,0.08191160419495824,-0.005282540166217716
18,0.18,-0.35287073629591914,-0.08036551777570182,-0.2482255158684683,0.16286798038792677,-0.3116871899809384,-0.936120327870078,0.0321642890879266,0.053619160584856176,0.03450150220473646,0.9838795431695925,0.15892817539589757,0.0817362112982701,-0.006392482014236349
19,0.19,-0.3228468680538884,-0.08793911682795132,-0.2551531487754102,0.16285101086033624,-0.3081117666561028,-0.9373064451300285,0.036244352973724685,0.05116314964790234,0.03803918565414163,0.9841726258996158,0.15715949353691247,0.08152873676255765,-0.007557200348115375
20,0.2,-0.30010269376197074,-0.09502035745230004,-0.2552316246533369,0.16277096624322537,-0.3047860654547552,-0.9384072722928524,0.03789180785549196,0.04414623706388576,0.048883735991804234,0.9844422334212467,0.155524630270631,0.081288501933034,-0.008758394247683021
21,0.21,-0.3061987050656176,-0.10201085164523441,-0.2443173546076845,0.16260567343821816,-0.3015434633793161,-0.9394827874361501,0.03827697613299523,0.025237651230823072,0.06475189678668793,0.9847040436380414,0.15393176656741298,0.0810119873481337,-0.009942715319823327
22,0.22,-0.32598052748198647,-0.10970336215443979,-0.22238084588959375,0.16232350646689966,-0.29819396213926735,-0.9405998781656176,0.03635062521703318,-0.001975670955279514,0.08471857310064781,0.9849758986511302,0.1522761936228637,0.08069243550829008,-0.011046536354547009
23,0.23,-0.32983075959996144,-0.11419231444145174,-0.19118337795538698,0.16187188564209212,-0.2947613986104743,-0.9417588847706485,0.03020319188296162,-0.02740696257093453,0.1040966509557553,0.9852587893861987,0.15056513711338615,0.08031129379677715,-0.012014426214219024
24,0.24,-0.31147168189946217,-0.11556568220400629,-0.15424777269703407,0.16128654712245719,-0.29144600783357527,-0.9428907006195535,0.024321137298038004,-0.03939729910740399,0.12143524591791438,0.9855358389927225,0.1489008360511922,0.07989046234531777,-0.012818444916146825
25,0.25,-0.28452909655185826,-0.12289934023266465,-0.10320520381145787,0.16054998782957172,-0.288430591116171,-0.9439433006822272,0.016183604714268742,-0.038156918851873584,0.13653322228135004,0.9857948127903177,0.14737481210079242,0.07942548649958646,-0.01342135634355966
26,0.26,-0.2722413129080111,-0.12813691721995796,-0.0438913501756294,0.15957851743704482,-0.28569818214506104,-0.9449385804217555,0.0037748705149883398,-0.034713465530447976,0.15157112717839685,0.9860424712167553,0.14597243128709195,0.07888090349601881,-0.013765906451018807
27,0.27,-0.2878051578923326,-0.1213427217714403,0.008096185463735719,0.15844939612859585,-0.2830395171678418,-0.945928084460799,-0.007602695057899882,-0.0381137528726011,0.16626289738216007,0.9862923434959585,0.14458499495573965,0.07829773122327999,-0.013834494792825447
28,0.28,-0.3093364139031465,-0.10552717795447197,0.057071976466639474,0.1572872920198827,-0.28027112647358327,-0.9469457024556179,-0.020537635738550497,-0.04606762511204842,0.17488085205623297,0.9865529583894146,0.14312033055588008,0.07773721162199652,-0.013636621278047087
29,0.29,-0.32388681022652904,-0.08163590309862283,0.10311316410050428,0.15617756196930055,-0.277401905879098,-0.9479736887998672,-0.03126707139573549,-0.04833453022326391,0.17813923550255073,0.9868195982912865,0.14158538140567944,0.07724039695506076,-0.013181044650051632
30,0.3,-0.3345012545012761,-0.06231127154650046,0.139961417158462,0.1551602370369741,-0.27447629037409593,-0.9489917885151357,-0.0354300994739029,-0.04214983501947473,0.17405890496655185,0.9870863389225198,0.14000647364159644,0.07682201771224224,-0.01249841025518948
31,0.31,-0.3390571149595762,-0.05375147771951936,0.16201222694235246,0.15419597908274665,-0.2715216433246393,-0.9499983862337217,-0.03465174259970353,-0.030426970323978147,0.1650415637190632,0.9873515536026573,0.13840256592420414,0.07645167527514662,-0.011654180763229926
32,0.32,-0.34186465523921294,-0.04587695332156739,0.16869221397086548,0.15326833398946,-0.26854565362283606,-0.9509938580852179,-0.029022449331008865,-0.02185049451612931,0.1563052800003569,0.9876139453449526,0.1367844339823648,0.07610776103891173,-0.010737487655046403
33,0.33,-0.33638406674838756,-0.03968480114508598,0.16338821638556353,0.15240814463027466,-0.26557752365626175,-0.9519652207152357,-0.023373193410993715,-0.020720040381533404,0.14570475619973486,0.9878694029021025,0.1351724269644183,0.075796773344878,-0.009812801278410494
34,0.34,-0.31649534966281395,-0.036701786279702886,0.1498027327549827,0.15163039462118677,-0.2627141144320342,-0.9528836522283377,-0.01856583711681292,-0.019776884780542812,0.1331698858620466,0.9881101363613966,0.13362092435276657,0.07551849143812997,-0.008938115136993989
35,0.35000000000000003,-0.2933751893980052,-0.040484267752018584,0.13400511152991135,0.15090021196123235,-0.26001481759783407,-0.9537397142151323,-0.013117058106198697,-0.01959234653299119,0.12133267606701849,0.988333549191866,0.13216268101901757,0.07525067376599655,-0.008149804872455348
36,0.36,-0.2704400004779251,-0.04780187660276671,0.11922101638343152,0.15015933499572054,-0.2575116151021522,-0.954535612773548,-0.008808283476719558,-0.02041069613209047,0.11390559664484363,0.9885403952150417,0.13081350586604132,0.07496390758499023,-0.00745051260714898
37,0.37,-0.26065984119193963,-0.04747754330656294,0.10670417230821772,0.14941752914398707,-0.2551610876521183,-0.9552830081040536,-0.008682895416790817,-0.02866687861810402,0.11020230457456877,0.9887339186915386,0.1295499309485629,0.07466530888743195,-0.006827322058059407
38,0.38,-0.26988743153590594,-0.052118894747159986,0.09995138527120198,0.14867944721168677,-0.2528025683847446,-0.9560248534424791,-0.010880484476830128,-0.050872560021946664,0.10550882228369848,0.988925311256063,0.12828698822647897,0.07436112126424338,-0.006251349333946325
39,0.39,-0.2823785665615165,-0.06704084769898898,0.09535237394906712,0.14787232240147655,-0.2503165695693768,-0.9568037378803329,-0.013463818090701385,-0.0717259342932624,0.10228189417561509,0.9891254957565669,0.1269613005147343,0.07401660179421281,-0.005704862427489866
40,0.4,-0.2885927185085293,-0.08149562903468852,0.09983360369437203,0.14691997357163994,-0.24772762133830326,-0.9576238285499604,-0.019670504605300496,-0.08524723331797067,0.10363064094705576,0.9893356929584419,0.12558343935622374,0.07359584750951169,-0.00516650255875541
41,0.41000000000000003,-0.27939326269712605,-0.0961532261459693,0.10926257703122169,0.14580198571420855,-0.24515222560098385,-0.9584571542198886,-0.030467265719632236,-0.09499428417967487,0.10331203919127413,0.9895490435495046,0.12421077502732623,0.0730930734821815,-0.004602290645238857
42,0.42,-0.2619910552945462,-0.10105141837424998,0.11623262632041002,0.14457542023279196,-0.2427238062990136,-0.9592608334858965,-0.04496401930055847,-0.10232907595527346,0.10361654451439029,0.9897546364168587,0.12291240248416217,0.07253751154379028,-0.004012795332908666
43,0.43,-0.22843328406959013,-0.09671245292098536,0.11927386423316075,0.1433434221847709,-0.24054533213379162,-0.9599944166028117,-0.06007222615125794,-0.10905803557353969,0.10629349524999757,0.9899421950165869,0.12174233190647757,0.07198103220131653,-0.0034048675379634136
44,0.44,-0.18956184886902497,-0.09904430363946048,0.11716074764910842,0.14213448911265067,-0.23870526619969365,-0.9606334261342466,-0.07178536267369642,-0.11047726845059523,0.1061485382001093,0.9901054402867513,0.12074771909048262,0.07143551087064476,-0.002803019738093974
45,0.45,-0.16072121871493944,-0.0984904488410704,0.11012297708255696,0.14091195654510014,-0.23719765817099717,-0.9611869230379985,-0.08161749528580241,-0.10658281291735655,0.10164323010863245,0.9902465812621942,0.11992738017513443,0.07087859280786685,-0.0022398781544548884
46,0.46,-0.14949256642064176,-0.08804164013947838,0.09842335458318595,0.13975964744601743,-0.23587941007860283,-0.9616794980860067,-0.09245072671845621,-0.10522625316587654,0.09524935367335775,0.9903719960057386,0.11920910097842294,0.07035109402807846,-0.0017281316947530948
47,0.47000000000000003,-0.15462208777110495,-0.07355680900492675,0.08499584623395154,0.1387558876892984,-0.2345582585290243,-0.9621478956493317,-0.10762109677341221,-0.1127611360684398,0.08205211570146223,0.9904909499955882,0.11849469206562564,0.0698920515701093,-0.001269571039108272
48,0.48,-0.15301103280449485,-0.05766746132319648,0.06671242236308451,0.1379375528492019,-0.233175645235169,-0.9626015574466927,-0.12188044358864451,-0.12067060653844758,0.06401757323631681,0.9906058871541494,0.11775474410641554,0.06951901954512932,-0.0008728341115863109
49,0.49,-0.12665197124975983,-0.02210999571239059,0.03756476446027748,0.13740310225816604,-0.231895583486094,-0.962987269226787,-0.1264106067081967,-0.11738211141700304,0.04413829829218319,0.9907033982359815,0.11707657697810463,0.06927737109335844,-0.0005825283339656053
50,0.5,-0.06663080600954654,0.032790258870775094,0.0018623730355738569,0.13737271658494238,-0.23113882562273178,-0.9631736791043022,-0.12077179854081328,-0.10201521882476015,0.01715580511627876,0.9907505061833762,0.11667876306192601,0.06927637419121971,-0.000435004833335386
51,0.51,0.01031159624176346,0.046124121191304726,-0.027985784191938163,0.13775311715741398,-0.23138799244171493,-0.9630594187920246,-0.10911511831084274,-0.07845626145631648,-0.020954472087817227,0.9907216678256394,0.11680840746170448,0.06946963581274072,-0.0004406763868505291
52,0.52,0.09158659727918422,0.03502809066076865,-0.055388085395553524,0.1381218493648797,-0.23249432000911988,-0.9627399257741412,-0.09223144763133909,-0.056115832850772734,-0.06556511756699723,0.9906409644367713,0.11738826098385102,0.06964112534997688,-0.0006092658983645734
53,0.53,0.1600874694525649,0.026417741586172168,-0.08434478138838339,0.13846920546861963,-0.23417469278114647,-0.9622825023231156,-0.053768007170169586,-0.039056923548015904,-0.10679933647496989,0.9905252476295129,0.11827514183700276,0.06978189407650333,-0.0009619226731664428
54,0.54,0.19968518168472002,0.0064180026497199765,-0.09270120375941655,0.1387589901256743,-0.23614297518112842,-0.9617595132406872,-0.005433446028850734,-0.028795519671258846,-0.14925215135957953,0.9903925777638359,0.11931934957873867,0.06987744106843612,-0.0014521581279115475
55,0.55,0.1781861290571092,-0.02294790763171973,-0.057051804424294944,0.13880873639128416,-0.23808527565452056,-0.9612736128312941,0.03865018909686152,-0.03513053926045641,-0.17484658656638324,0.9902691490420307,0.12034664996352942,0.06985505330008535,-0.0019029013669765581
56,0.56,0.0796002474969514,-0.06233221778164178,0.02580128126308073,0.13844413273670306,-0.2393448151359974,-0.9610135651891062,0.07862194640959486,-0.05364174487392556,-0.19021781238490318,0.9902031859539636,0.12100134017521011,0.06965521001828673,-0.002060019586657664
57,0.5700000000000001,-0.07009501716758704,-0.10943114242730066,0.11138891410534288,0.1374550123858988,-0.2394979310582142,-0.9611171618237444,0.11525128814347409,-0.07643738849190164,-0.19609640662064057,0.9902299069449504,0.12105344952940719,0.06919055689354499,-0.001758752081174928
58,0.58,-0.1948786214912688,-0.16115575392594889,0.13996398562004853,0.13584464234887686,-0.23836145584408225,-0.9616279758744449,0.16123599066064465,-0.09642552739786867,-0.1924782065063426,0.990359815261486,0.12042029203510751,0.06844386863880657,-0.001147344621285216
59,0.59,-0.2193263582265939,-0.19160289412285114,0.10074776024965564,0.1338356338531604,-0.23647634779141458,-0.9623747595455439,0.22314104848231087,-0.08940502301234997,-0.1870859908417637,0.9905488207750655,0.11940568584571973,0.06748684205227364,-0.0005759200311229891
60,0.6,-0.1614714851468177,-0.18105627043679676,0.05148761527322904,0.13183316791974306,-0.2347285187233419,-0.9630791842966405,0.2843137251247373,-0.05455684625115133,-0.19063568768634154,0.990726738875596,0.11847988580385505,0.0665032099887618,-0.0002538747224796963
61,0.61,-0.09612874629575537,-0.1354138888409633,0.03143724360497423,0.13019156217224978,-0.23355628739273732,-0.963587655311568,0.3141653094136722,-0.022570969996119725,-0.19635372306008886,0.9908551046170334,0.11786312010045599,0.06568369151084137,-0.00010826621000256098
62,0.62,-0.059532834537836095,-0.0799334540689755,0.026208684978119866,0.12907462277725923,-0.23286852026386726,-0.9639044762508343,0.3059711938422024,-0.017059446368499383,-0.1855646824496479,0.9909350238585535,0.11749922785335054,0.06512799859011986,2.5792065733786354e-06
63,0.63,-0.05341675921170404,-0.017354852768057594,0.02648787083428079,0.12854339554679844,-0.23237450557206024,-0.964094725534096,0.27836201695391183,-0.04115111470600046,-0.15919019318718325,0.9909830092273092,0.11723654373430852,0.06487078408690762,0.00012074774410884877
64,0.64,-0.06891902835142719,0.04228272150637995,0.03688814938187744,0.12858240419549413,-0.23182611450198123,-0.9642214879989277,0.24901343107457885,-0.0690501369316197,-0.126485470676686,0.9910149714890135,0.11694401117051997,0.06491004066765331,0.00030474252386649596
65,0.65,-0.08863537730505117,0.1132631663701674,0.04470285114766824,0.12921847539652187,-0.23113433017265977,-0.9643023970859067,0.23012545332176956,-0.07103199073874611,-0.09276908615260954,0.991035229273152,0.11657467656351424,0.06526128151662554,0.0005748982438477722
66,0.66,-0.10215967448160551,0.191732659300151,0.044133537344648574,0.1305833169513695,-0.23027619694008197,-0.9643235785941708,0.22228760522570132,-0.05779897233028325,-0.07507391288948143,0.9910403078107229,0.11611779974022092,0.06598951462937429,0.0009184116617090951
67,0.67,-0.09985220796970545,0.26633448449084457,0.05270183633709198,0.13268536852439533,-0.22935772226077103,-0.964255287318414,0.21128505304190617,-0.04694201274275739,-0.07649940820325626,0.9910225630950228,0.1156278369455276,0.06709830620434291,0.001325616984095519
68,0.68,-0.05014918868683094,0.3209319261718433,0.07048741981585695,0.1353890216993139,-0.22868509358408795,-0.9640390212100776,0.19034814991949647,-0.04012255270005223,-0.08973837426960783,0.9909672435277234,0.11525890301791337,0.06852302150152878,0.0018180050011095477
69,0.6900000000000001,0.052296447001660376,0.34920853534514457,0.12105594906594312,0.13843189969043992,-0.22881500442702213,-0.9635758080875989,0.16226010833152565,-0.022127909283469964,-0.10468797688489977,0.990848951374791,0.1152887737931861,0.07014313486531487,0.002473617252428737
70,0.7000000000000001,0.1171646669486768,0.34079528430739797,0.19940203978697849,0.14142318753468375,-0.22992381406963794,-0.9628773733573468,0.14852637133736812,0.0009172552830966115,-0.10965578528513989,0.9906698026742612,0.11579660015586914,0.07177737662401837,0.0034188525529888518
71,0.71,0.053842517402755544,0.3034111904915973,0.321619622623632,0.14395070230855814,-0.23120259552849007,-0.9621968623119166,0.15418860322931263,0.006066963686728649,-0.09457506030766874,0.990491949994009,0.11635259347282408,0.07323512919170629,0.004841815622534491
72,0.72,-0.1020983304409048,0.24883969929066604,0.47183320571609894,0.14569941186932678,-0.23161112300447276,-0.9618355808376797,0.15747901307605466,-0.00817808961889679,-0.06193709808046132,0.9903878017252231,0.11640593440815324,0.07437533539326663,0.006966849826639057
73,0.73,-0.2821202294282933,0.1743633712617549,0.6306547659826948,0.14647509197479405,-0.23058194182023783,-0.9619647414436207,0.1504613879788931,-0.028144005993931062,-0.026844623274078536,0.9903950820551003,0.11565875118506697,0.07510225488320098,0.009892605214175702
74,0.74,-0.433092617313694,0.07975908365127755,0.7789106146528303,0.14607618663460015,-0.2281642974135511,-0.9626009301045566,0.15028803405939656,-0.03684136279723019,0.00372209100613306,0.9905113491286133,0.11414171054185056,0.07530298000038549,0.013594742210064239
75,0.75,-0.5478561420789367,-0.021110899159456596,0.8986541416489804,0.1444560736920467,-0.2246462644919334,-0.9636713579881858,0.15954956557735772,-0.023048184084966783,0.018544492083776433,0.9907116258960447,0.1120187231199078,0.074933778063756,0.017957241568462318
76,0.76,-0.6234797451256614,-0.12277278045433773,0.986789254967916,0.14165341509641052,-0.22035066653082355,-0.9650772347420975,0.17345761362484846,0.008730093281013596,0.02088586829136339,0.9909660366667463,0.10947694595640911,0.07399146726352725,0.022821346107133333
77,0.77,-0.6604193670146992,-0.21168784572469787,1.022689764572235,0.13783165101759273,-0.21554311544398977,-0.9667142418595366,0.1864712830676148,0.04315731217755102,0.01587939577210526,0.9912471969822092,0.1066785351949364,0.07253168513657897,0.02796388424537175
78,0.78,-0.6685780736633952,-0.2869504865739319,1.0330232206078047,0.13323956456331312,-0.21049318355465538,-0.9684688099561763,0.19537412217035388,0.07084275057141,0.0056738761575970435,0.9915292471517911,0.10378380231095581,0.07065863603297855,0.03316868539582767
79,0.79,-0.6525786852638713,-0.3532433114873377,1.0165057395252908,0.1279995288161274,-0.20542743793101634,-0.970261512968814,0.19433857716206415,0.10179605178889937,0.0011986205798486971,0.9917955685268729,0.10092118238189046,0.0684269371355291,0.03832333834653533
80,0.8,-0.6496416975402235,-0.3849641918169572,0.9856653677481692,0.12237587411234314,-0.20039198223785287,-0.9720384114896348,0.18452053160118428,0.11705924962250801,0.012231965293542079,0.99203779844768,0.09812132827661359,0.06596227140596976,0.043323177556123485
81,0.81,-0.6832342208081358,-0.39544172544756667,0.9547368043565777,0.11665164882673919,-0.19509950522508332,-0.9738170057864293,0.15958280638552857,0.10551281157088124,0.03082077707793791,0.9922628311243735,0.09523435860783223,0.06340177004523752,0.048167831761323436
82,0.8200000000000001,-0.7412734465193196,-0.3923995758840675,0.9186678516633888,0.11099789192127274,-0.1892391708997532,-0.9756323402627893,0.1273050715844927,0.08032231980689762,0.05931591024578672,0.9924816894085945,0.09209883353958016,0.06082220044342961,0.05285479413249822
83,0.8300000000000001,-0.8030115548643088,-0.3904895913581535,0.8832192627854736,0.10550725077585611,-0.1827000726777482,-0.977485865607008,0.09941987798204226,0.039214022448375886,0.08808748592933263,0.9926976684946102,0.08865608995218521,0.05826372617566936,0.057374319992464465
84,0.84,-0.8515389877447955,-0.402459289962058,0.8622000480604918,0.1000709990389592,-0.17551167679435373,-0.9793725895267711,0.08030928175896324,-0.00676187752203246,0.10190204405551405,0.992909011354332,0.08492037279452387,0.05567400535656224,0.06177150966348445
85,0.85,-0.8744049047208526,-0.40628824718296513,0.8370313056493269,0.0946576243763771,-0.16788220618245672,-0.9812464917617515,0.06820601626995557,-0.040220734670902744,0.11127309388182685,0.9931047232776753,0.08099682633084915,0.05304346885910858,0.06606143074979036
86,0.86,-0.8767462609473857,-0.4260012143905014,0.8134748891673799,0.0892409628475167,-0.160025420570609,-0.9830653650913199,0.05676507163194059,-0.06144649193614619,0.12396968446215857,0.9932776796947822,0.07699529129906348,0.05036358308760067,0.0702152641891747
87,0.87,-0.8332652477470219,-0.44301165948923427,0.7793105336556323,0.08371639131601323,-0.15227474034314276,-0.9847816016904233,0.04109007061380591,-0.06360540387996573,0.14043348543297104,0.9934185623578223,0.07308706624177982,0.0475945693357122,0.07422068185834148
88,0.88,-0.7478645427424175,-0.4685369198673723,0.7501743801030536,0.07809612492380555,-0.14508720235109515,-0.9863279764057551,0.03419743217425688,-0.05008347656859296,0.16381403466532032,0.9935155926803835,0.0695025220892568,0.04476071312042927,0.07803419878108098
89,0.89,-0.6603797208591027,-0.49810145700517755,0.7347894521438001,0.07227384180885152,-0.13871058933214445,-0.9876887742584582,0.029776019505473924,-0.02502907052022043,0.19163616645001103,0.993562070597195,0.06636555572860237,0.041828369896024786,0.08171586263664732
90,0.9,-0.594299877660414,-0.515821178970224,0.7213760324054345,0.06627110652312684,-0.13304197050667568,-0.988889244767241,0.016044334441609895,-0.006569772440806456,0.22201800301524197,0.9935632055432703,0.06362100305755405,0.03881122962599782,0.08529678264450397
91,0.91,-0.5521258088889127,-0.5256388158532723,0.7047726264341587,0.06018782017924721,-0.12783906153495647,-0.9899642431751328,-0.011377563471368798,-0.006766816444780122,0.2538339827136563,0.9935278388234606,0.06114162539889398,0.035753332903660194,0.08878910074636354
92,0.92,-0.5167567454971773,-0.5238136691952451,0.6750958949178465,0.05412294793210196,-0.12296727290178557,-0.9909313919850793,-0.04342436735891645,-0.009026732764825986,0.27694374971711266,0.9934654330625136,0.058855947792413356,0.032698026206377,0.09214834749887241
93,0.93,-0.49752196320180003,-0.5072102423418584,0.6489482558556589,0.04820468459585601,-0.11829397328607755,-0.9918057508761225,-0.06681751339319784,-0.003372807956877798,0.2926085255387236,0.9933818089879564,0.056690032600453535,0.029704686259128282,0.09536572349198202
94,0.9400000000000001,-0.5089847609888644,-0.4718729395430477,0.6264041146894457,0.042599445220344825,-0.11362850757440116,-0.9926077336545261,-0.08317786271932463,-0.0007296493326005681,0.30888625439450385,0.9932818519479453,0.054537628625506276,0.026849355206920028,0.09845988376151772
95,0.9500000000000001,-0.5200111071071014,-0.4334625448348335,0.6070171131082718,0.03740381327059744,-0.10874598218508306,-0.9933640349201476,-0.10123846109184306,-0.009664433819133553,0.3190368416398873,0.9931690172184454,0.052277827172391426,0.024171340848812957,0.10147308721967717
96,0.96,-0.5185983647118612,-0.3882716572181103,0.59098123390879,0.03268694537907435,-0.10379857923598593,-0.9940597590879048,-0.12212129622927156,-0.013738681978486957,0.32399235036850255,0.9930406845070994,0.04998075005712553,0.021712142842078987,0.10440016408015734
97,0.97,-0.5117880303808153,-0.33859135093625237,0.5728880689318429,0.028462660211622557,-0.09886525154766931,-0.9946926393475233,-0.13461723869253153,-0.017406888099993932,0.319370461434081,0.9928947295207471,0.04768175842489908,0.019483969033164534,0.10726488440688134
98,0.98,-0.49737983403012137,-0.2826141671433414,0.5434452595409737,0.02485316765342874,-0.0939723552428853,-0.9952637410648215,-0.14526148940171663,-0.026547928690233258,0.3171989255047303,0.9927381153966206,0.045385629700326974,0.0175466465395874,0.11001184975048595
99,0.99,-0.47955421095828854,-0.23153179503480215,0.5132727003734654,0.021812313348391177,-0.08925255350534383,-0.9957694832840196,-0.1706881610757704,-0.030527122848771765,0.30578429349831393,0.9925727365209304,0.043158011758336355,0.015884454999268785,0.11262292710333241
100,1.0,-0.46662907112385205,-0.17428293136049344,0.4694980407181308,0.01934665761335188,-0.08463032317749229,-0.9962240974415087,-0.19101065399866723,-0.04573521673839923,0.27882255126285366,0.9924069028460791,0.040958223195308785,0.01449612816357844,0.11506674925053195
101,1.01,-0.44455307722887344,-0.1155238589996369,0.41883873909857205,0.017514757750584396,-0.0801773714972859,-0.9966263874494719,-0.1867211366693057,-0.0732176394150799,0.244216749819791,0.9922505774343326,0.03881660972749743,0.013413104232381883,0.11726776350173751
102,1.02,-0.44907138699299065,-0.04851204709769402,0.3872088326365879,0.016410914607884335,-0.07582787077520677,-0.9969855327113866,-0.17369518356110167,-0.11450147589072845,0.20208687455164395,0.9921018384716224,0.03669112480359515,0.012681826339742328,0.1192749867290532
103,1.03,-0.45497505179949943,-0.02544047337429045,0.36511466040056384,0.015770245762878676,-0.07136595039934751,-0.9973252493233651,-0.16454537823464224,-0.1532918716868509,0.17183944239472393,0.9919583113424306,0.0344867598335891,0.012161457004652959,0.12116632132351965
104,1.04,-0.4529021441505403,-0.018031693234353576,0.35107054766994,0.015323065107750824,-0.0669069399381946,-0.9976413867121959,-0.15659417417536448,-0.18801011672801815,0.15737556526736893,0.9918173613328918,0.0322757652591297,0.011725997958307354,0.12295879260461315
105,1.05,-0.4398628481441327,-0.02661426665731556,0.34443264783296745,0.014865433429593804,-0.06248808952355836,-0.9979348677107431,-0.1371829589821612,-0.22761160622667365,0.14124941149961587,0.9916735447907191,0.030088087191090334,0.011278674946036918,0.12470360250089563
106,1.06,-0.4030532979928753,-0.01601408802660444,0.327453459924943,0.014455095223409268,-0.058333468594568845,-0.99819245909457,-0.11613267571236058,-0.25028381611723416,0.13361211346853094,0.9915251861864595,0.028031414216948287,0.01086242485105706,0.12638828078929995
107,1.07,-0.3544835572426347,-0.025053138971999497,0.32099157428426667,0.014075985325596228,-0.05459273321588102,-0.9984094804575865,-0.1001236784587203,-0.2677370192373799,0.11675170129145364,0.9913732611756692,0.026180862181747963,0.01047950451995435,0.12799853834525243
108,1.08,-0.3271279382668361,-0.054685158472720874,0.32754170234358254,0.01353312726727626,-0.05127200133157638,-0.9985929962741018,-0.09148029534102817,-0.2835574514344898,0.09272463969479934,0.9912095080266714,0.024550871380871635,0.010036956082179853,0.12961554758342503
109,1.09,-0.30085649947742,-0.03692208041464214,0.31774142844779035,0.01285564989138792,-0.04816788613190809,-0.9987564501334301,-0.0702885301265328,-0.29685034196988214,0.05943565362923612,0.991037920103473,0.023038896492964887,0.009536720952096707,0.13123254138465298
110,1.1,-0.28574634374870567,-0.07407383665027661,0.3188010891776267,0.012233204031313545,-0.045276821529766954,-0.9988994762464566,-0.050926867407255744,-0.31990468756672674,0.023950814923029147,0.9908642900381065,0.021631181852686462,0.009072214952642998,0.1328068320294526
111,1.11,-0.24083145384360286,-0.1427496813769334,0.3543679856863415,0.010959003455349167,-0.04268085661497942,-0.999028586285207,-0.051409723217264475,-0.3420064859106702,-0.018166147742456482,0.9906710942893774,0.020414407430636702,0.008302242689001397,0.13448039056142047
112,1.12,-0.1982067535621566,-0.19451263927040321,0.381691863337174,0.00914447829510655,-0.04053225029555834,-0.9991362529556326,-0.04652600221970035,-0.33925869651457935,-0.03072542481736868,0.9904497708357223,0.019457851147046054,0.0072939121863200874,0.13629808466337534
113,1.1300000000000001,-0.17077545094999536,-0.2502685178708077,0.39276880439107675,0.006740096173600369,-0.038736387355343085,-0.9992265702378954,-0.04096551182518443,-0.34333533780938963,-0.06147897771971836,0.9902084190129737,0.01872011821288092,0.006016096097060317,0.13820409335003642
114,1.1400000000000001,-0.15927007079523753,-0.2850645627594787,0.3751064030512066,0.003933956377531229,-0.03711503646376959,-0.9993030682160579,-0.036836045978789644,-0.3573095415542934,-0.08487551689402595,0.9899619448645653,0.01810209065393396,0.004548602055043135,0.14009559437909114
115,1.1500000000000001,-0.13742452096755053,-0.32534727716179174,0.3664663943209198,0.0007529574622094121,-0.03565356868807759,-0.9993636721919594,-0.036023427045183846,-0.36189672802970846,-0.11012157099428868,0.9897194876764354,0.017595825689386897,0.002903201789429164,0.14190489388374036
116,1.16,-0.12141924947438752,-0.3509251418214796,0.34907206977521543,-0.0027515403016364426,-0.03436021530121956,-0.9994053691535182,-0.059837992306848005,-0.3572335730934972,-0.13037619717221852,0.9894771028508746,0.01720223770330683,0.001107062785877213,0.14365795294158232
117,1.17,-0.10394322249363064,-0.3674040927662642,0.30354397915754405,-0.006465492939764751,-0.03320646498445248,-0.9994272010652101,-0.07553595463787881,-0.3547496390650603,-0.15213761879224336,0.9892513307763866,0.016899307619528653,-0.0007867649973953446,0.14524185514548002
118,1.18,-0.0999798550181936,-0.4017029849613563,0.24032930414611078,-0.010364490803952237,-0.03220052490108773,-0.9994272183205373,-0.08180080216854814,-0.3634929690486706,-0.17805892971208784,0.9890571909998483,0.01668851934599493,-0.0027667208480970686,0.14655816536494048
119,1.19,-0.08452965060960513,-0.46603880674988685,0.1566210859554067,-0.014781568459075006,-0.031227944538003375,-0.999402324606969,-0.07983939710706389,-0.37869725831257867,-0.21313361178375861,0.988910296697442,0.016536070121061088,-0.005007197851075593,0.14750449877717448
120,1.2,-0.04656393536298248,-0.49758879751541363,0.06309201174405672,-0.019633169473266404,-0.0305709984241039,-0.9993389264849403,-0.07385278061680453,-0.3846005677838331,-0.22175879958555683,0.9888211262620112,0.016572976405716193,-0.007447154309184803,0.14799359965339898
121,1.21,-0.008590562853047067,-0.5282245769236408,-0.0035577304908100474,-0.024780534625710126,-0.030275210776336364,-0.9992333843552209,-0.087464581226131,-0.3943728912158188,-0.22659293712205308,0.9887797927524966,0.016809112516568043,-0.010013336306221055,0.14809162173983598
122,1.22,0.03388123355109662,-0.5298035420144646,-0.028366895223271536,-0.03007671686522302,-0.03043850352987647,-0.9990829222815708,-0.12966522986087428,-0.39716853789912837,-0.2224279289396063,0.9887612380456849,0.017281200469400668,-0.01262328751680778,0.14796140649013312
123,1.23,0.05816325970298945,-0.5036916065132737,-0.03507283818025354,-0.03524336081456944,-0.03095092736242456,-0.9988982216790256,-0.16593720347975294,-0.4014042876083974,-0.20503223588134373,0.988745430663816,0.01791481306811581,-0.015145144976810543,0.1477549313754739
124,1.24,0.03515441007154415,-0.5142440791587017,-0.009364151549487939,-0.040289014821829595,-0.03147751638764623,-0.9986909766198131,-0.201285519794912,-0.40941925968607157,-0.17650632524879264,0.9887172604393918,0.018546474333467577,-0.017605840712063534,0.14759267764599204
125,1.25,-0.016879124360263134,-0.5358121386763741,0.022143666385497873,-0.04554589326017594,-0.03158379479145415,-0.9984615461281968,-0.23647712519582814,-0.39737266542329913,-0.12290154088657748,0.9886611773366953,0.01898826870375823,-0.0201997233830042,0.14757943193434542
126,1.26,-0.06429202607202925,-0.529580453442842,0.03303351399626316,-0.05088750393223514,-0.031176468218656293,-0.9982162251411019,-0.26921385863074304,-0.37224749422734166,-0.04750056973701859,0.9885846211441093,0.0191848856346639,-0.02287169688530224,0.14767680593704213
127,1.27,-0.08371299393973317,-0.5123555442284363,-0.009652658422387196,-0.05610332776730108,-0.03041259222055252,-0.9979602142911276,-0.30872927887042123,-0.3517076116629726,0.006370038039349636,0.9885169705180369,0.019194393001812853,-0.025509668646365002,0.14769634164700382
128,1.28,-0.04304777410516581,-0.48998699953333724,-0.10988444683447807,-0.06109718211376023,-0.029782060081595105,-0.997686027352147,-0.3461544486259549,-0.3230059540469658,0.044791902713327676,0.9884971448468787,0.019243679504348632,-0.028035252733286734,0.1473642614737034
129,1.29,0.050723443829054235,-0.4459918969122152,-0.2810197369076464,-0.06572656736869681,-0.02992192497226257,-0.9973877562300874,-0.3825152170813476,-0.283613436945902,0.07606287679055858,0.9885687396173345,0.01962564916209112,-0.030337418202987763,0.1463743143056693
130,1.3,0.22046410039934888,-0.34791192183344855,-0.5032321040666845,-0.06961281979755624,-0.03153201964513981,-0.9970745787121796,-0.43634230206046665,-0.24892497129598548,0.08927942677418294,0.9887762998118048,0.020645696625549496,-0.0321861630748206,0.14442315848165485
131,1.31,0.42937816362011755,-0.2886318886741823,-0.7219688634138487,-0.07255188728873513,-0.03521900491506073,-0.9967411606440606,-0.5145703204181223,-0.22578449746276724,0.05685981430652514,0.9891289231625017,0.02258379721065854,-0.03344698853798621,0.14139775063678173
132,1.32,0.6019059084212988,-0.29010018543718885,-0.9022290231296101,-0.07508500838698094,-0.04104437886049093,-0.9963293218923989,-0.5986836876350037,-0.20733390590310236,-0.002042370567935159,0.9895839243985396,0.025514228151449467,-0.03439595624903501,0.13742686128511375
133,1.33,0.6789560815740279,-0.35811181727289376,-1.0411254921078938,-0.07785454833470784,-0.04823507604781794,-0.9957931495132997,-0.654695252490653,-0.1768218679707167,-0.10000068372066215,0.990097288344452,0.029103824077468688,-0.03541911622408142,0.13266797546381467
134,1.34,0.6795247243992394,-0.4779934180152333,-1.1178024076875592,-0.08143349674381166,-0.055935895004477265,-0.99510294102935,-0.67912937404953,-0.13259517619804417,-0.2091969049960884,0.9906200484653044,0.03297095956806058,-0.03686622037020848,0.12735535015262323
135,1.35,0.6176761478357085,-0.6168142187749006,-1.0993291473235902,-0.08621015874259584,-0.06337424422079475,-0.9942537610969081,-0.6843303311120242,-0.11420821783403806,-0.29439805856344414,0.991097184789624,0.03676184814118083,-0.038975114997497874,0.12185640371856664
136,1.36,0.5625953815682494,-0.7702163972094744,-1.0034600214370026,-0.09239634516548632,-0.07018403119065515,-0.9932395360358831,-0.6869811846454088,-0.07124155318042272,-0.3664872686635312,0.9914711214661701,0.04031484593818758,-0.04185593125783329,0.11662309018333991
137,1.37,0.5436066009264666,-0.9294470565369495,-0.9126776335994462,-0.10013320010731373,-0.07660986651000547,-0.9920125257755641,-0.6713744715718087,0.0399592526961117,-0.417890892515346,0.9917147179272424,0.04375871030660659,-0.04555292123305317,0.11182517472400304
138,1.3800000000000001,0.5274943975014347,-1.0917174214023864,-0.8379907981503355,-0.10950225613051286,-0.08288749753582599,-0.9905144000340992,-0.6179624003273033,0.1830429284140887,-0.4688600637775442,0.9918286863339294,0.047205356983924765,-0.05009381906394483,0.10737839740587686
139,1.3900000000000001,0.47053957223602794,-1.2048807046482874,-0.7791122355623147,-0.12019530538433393,-0.08884962135943975,-0.9887541605662373,-0.5351917745534647,0.32062792755157193,-0.5369313272631292,0.9918269056990714,0.050546091262982346,-0.055334766026116755,0.10321756587201573
140,1.4000000000000001,0.30507478610560723,-1.2950016352854838,-0.7415891593007619,-0.13187208116436497,-0.09377540317202297,-0.9868079200468379,-0.44455017635447636,0.42734308098007334,-0.6208961986622181,0.9917430361201732,0.05339251847085115,-0.06114436346053241,0.09923354416246477
141,1.41,-0.028991410011376118,-1.3512999567526773,-0.7043876073645838,-0.14429062795535744,-0.096274889863094,-0.9848273314337065,-0.34429062313202824,0.4427970925885886,-0.6836460092627162,0.9916267535414539,0.0550256292836401,-0.0674656798065772,0.09532868126461531
142,1.42,-0.5224056915864654,-1.3620240628228906,-0.6399774916229725,-0.15704264588778263,-0.0947601528018326,-0.9830207756496089,-0.22241390282257273,0.3515074130599154,-0.7197274001853354,0.9915309300885565,0.054624103913888875,-0.07415012740483819,0.09151189638613476
143,1.43,-1.0201172611041087,-1.3416633135161062,-0.5687454747497495,-0.16990540231783322,-0.08843294251145081,-0.9814655902599699,-0.10367752374387512,0.22713012781908734,-0.7479596671465095,0.9914707665315572,0.051777328703794,-0.08109413917010562,0.08784253779768603
144,1.44,-1.4271557555289855,-1.3322247712285047,-0.4987057946482754,-0.18263043176752802,-0.07750997472786308,-0.9800951755652209,0.022274235353351837,0.1346107660329327,-0.7437714752450432,0.9914308392722536,0.04658206744482341,-0.08813923230322131,0.08432275249188217
145,1.45,-1.7791009776219502,-1.318481218377106,-0.4082858503346571,-0.19537988981996512,-0.06275153275028342,-0.9786818794560943,0.14720224337344978,0.0834920406178814,-0.719058833544548,0.9913467970069523,0.03943896973395117,-0.09531373735896305,0.08105933104405258
146,1.46,-2.036545821449797,-1.1997260744862581,-0.4205313459664786,-0.20754516183460528,-0.04485781215915555,-0.9771519345217677,0.24046598834923877,0.07713678554096469,-0.660156414850583,0.991217138628557,0.030657733687829022,-0.10227878980277488,0.07786259900880801
147,1.47,-2.093012043698169,-1.0050898536767034,-0.47625123488480015,-0.218178363070684,-0.025553196239653075,-0.9755291797546595,0.2665000434604465,0.05687859436323742,-0.6064950701212256,0.9910739969634604,0.021031071718021946,-0.10848684240893851,0.07439468995689466
148,1.48,-1.9956808167289046,-0.7650872555358533,-0.5224305995763302,-0.22675253091696143,-0.006733580526038251,-0.9738901665218189,0.24275970695154805,0.018144538361467996,-0.5471974003373128,0.990930462533048,0.011498722401454943,-0.11358708240338812,0.07070518280392447
149,1.49,-1.922650979366233,-0.4985297959598717,-0.5878395535985061,-0.23291856432215366,0.01099221922167742,-0.972401767483794,0.23272580514319455,-0.018656912936295747,-0.47190036426032533,0.9908251335281593,0.0023643513382601167,-0.11737160260236468,0.06680893230350175
150,1.5,-1.8947845522048368,-0.23337307868529134,-0.6630293306533046,-0.2366025921892424,0.028019842020643455,-0.9711735180883434,0.23713083528919945,-0.07021115450223041,-0.3559149439295471,0.9907914007912687,-0.006575287219040814,-0.1198087104600947,0.06257419255606245
151,1.51,-1.7903695235923158,0.05539665555735315,-0.7220444436831578,-0.23773348217528165,0.04431000845193495,-0.9702934943572461,0.24591713362239553,-0.12783304149632435,-0.18198667735499297,0.9908459218471738,-0.01528288269251694,-0.1208521343720671,0.05802549566420668
152,1.52,-1.5831818185259505,0.3658865690969122,-0.768137153803877,-0.23610123177541587,0.058943186605823955,-0.9699184509363749,0.2561812110834374,-0.15635317376887164,0.023926444491636695,0.9910180069464186,-0.023267306085827916,-0.12036400658930196,0.05327277908881338
153,1.53,-1.2510991557175246,0.6612455561201508,-0.7935499081418681,-0.2316143522336565,0.07089425628372384,-0.9702054465545684,0.26684885119026597,-0.1248376483255196,0.21096047346847135,0.9913367544498832,-0.029970772699762827,-0.118278750405139,0.04847161462548036
154,1.54,-0.905013456608293,0.9080758070021642,-0.8274748111553505,-0.2245824250476677,0.079435675306845,-0.9711997956207498,0.28354207210348886,-0.05999829314888344,0.3778760699633527,0.9918094556309454,-0.03498604869480484,-0.11475586828504665,0.0436940269658116
155,1.55,-0.6772903588009114,1.1280332211730548,-0.8692560684912413,-0.21536265487303433,0.08517652920076564,-0.9727993368726331,0.30883500546216963,-0.03459071204427953,0.5131019527327666,0.9924139819832547,-0.0386019266818449,-0.11001289370374619,0.03884750578127115
156,1.56,-0.4504050310976234,1.3090884938065432,-0.9064959975347052,-0.20423942390642424,0.08876335879732783,-0.9748725707032242,0.33573807580428877,-0.03749444820494041,0.6158151155730048,0.99311760159479,-0.04112615034608643,-0.10422930967347252,0.033886844498870555
157,1.57,-0.19550510182863193,1.4480870127646104,-0.9369052679839032,-0.19157852921757423,0.09008690657270764,-0.9773151893712602,0.3526330954036538,-0.04328660254381867,0.6822490257181173,0.993891562909263,-0.042480673950687727,-0.09761063223786454,0.028837757269468703
158,1.58,0.10191684178178256,1.527778944525463,-0.9575080208353416,-0.17782888339825087,0.08873703005585719,-0.9800298462376525,0.35718501949997744,-0.047840772985162136,0.7123991254116575,0.9947081156700067,-0.042436190306266136,-0.09040345303176768,0.02377250968948285
159,1.59,0.3571667690491485,1.5502040435618525,-0.9611574607431759,-0.16352829905086438,0.08458233411835908,-0.9828799177305765,0.3667747239873137,-0.0368892736059348,0.7345773857029484,0.9955312392141924,-0.04091097295808317,-0.08290555148553153,0.018760083704532957
160,1.6,0.5146085632990621,1.5240025125882837,-0.9254949884179249,-0.14914581511973404,0.07853617297679003,-0.9856634193009094,0.39759048637902544,-0.025663718485171468,0.7550590512992639,0.9963097263032618,-0.03835385936007309,-0.07538865744320981,0.01390762167647856
161,1.61,0.5304896192514081,1.4685647654239988,-0.8387444854225319,-0.1350323422303437,0.07197541877624099,-0.9881965470807055,0.429149360861415,-0.031138830928884427,0.7690424776905352,0.9969981937628069,-0.03544747993019132,-0.06805773258908311,0.00940597362120947
162,1.62,0.5385189305204868,1.389277455821313,-0.718771317865504,-0.12141585238391812,0.065688529396458,-0.9904010407057013,0.4377409984850373,-0.060488864984534735,0.7637972249350414,0.9975809065549885,-0.03258561855924143,-0.0610360416869011,0.005440508275836559
163,1.6300000000000001,0.6392097092865118,1.2805661519437916,-0.5788540703961802,-0.10857312648932918,0.05912535274527426,-0.9923054825726669,0.42270811391373814,-0.07950390437205161,0.7328894305712941,0.9980711397455312,-0.029498175810414706,-0.054458023092271046,0.0021553696651946397
164,1.6400000000000001,0.8093392446742794,1.1558041905405345,-0.4134747420594689,-0.09675078080387042,0.051427291229555964,-0.9939565669941618,0.40339267181677635,-0.059411983084465235,0.683030224622528,0.9984874113134553,-0.025765136183666812,-0.048443142785205374,-0.00030982362257231085
165,1.6500000000000001,1.012503068730595,1.0025457610560973,-0.21865696998092632,-0.08615124916535133,0.04205729262626874,-0.9953707032804539,0.39517701588721327,-0.009014617253972623,0.6317863850585688,0.9988401781559576,-0.02113053278447302,-0.043088870298572245,-0.0018186983773375057
166,1.6600000000000001,1.1766225854469965,0.8185162044842187,0.007163688598693374,-0.07711382965439463,0.03099843552027062,-0.9965165372551744,0.392580174403886,0.030500521036745217,0.5817148893618033,0.99912625022409,-0.015598654773600104,-0.03855628086546317,-0.0022164807765273366
167,1.67,1.2792600076767684,0.614396795030763,0.24926082770257768,-0.06993016071392988,0.01878877379408178,-0.9973519319405549,0.39870178933004485,0.045121080332747455,0.5189736023826667,0.9993365332261682,-0.009450491624020167,-0.03497344864819335,-0.0013904914194860594
168,1.68,1.344533654029605,0.38749186928369383,0.48552912157868344,-0.06487921974025522,0.0059296770498028905,-0.9978536652339923,0.41076545251266156,0.03296566029684585,0.43418250308361245,0.9994623250492387,-0.00294654811140014,-0.032455260020368124,0.000654303572418342
169,1.69,1.3970673149878823,0.1585805858650198,0.6920724086961445,-0.06217839832504325,-0.007386596896136268,-0.9980161423608173,0.41636949683860586,0.012515176844393808,0.3511396384801657,0.9994950997128663,0.0038133443003346198,-0.031084620867082177,0.0038252974366140523
170,1.7,1.4651670885222638,-0.06428016342493624,0.8568328741893207,-0.06184049155826246,-0.021171979278183525,-0.9978384722829519,0.42349131448974114,0.01929848319582074,0.27762306111548385,0.9994256805669296,0.01083718739009076,-0.03084462990513943,0.00793080190544607
171,1.71,1.5696667252441967,-0.2654468044915324,0.9914601596028879,-0.06379237994654734,-0.03574245400180319,-0.9972955372196902,0.43715772378638823,0.062072130046981054,0.21929795583015854,0.9992388613948525,0.01829178950090537,-0.03167743701525611,0.012777089776992623
172,1.72,1.6369329523353935,-0.42968006875887005,1.1436526021340092,-0.06774889259755071,-0.051121770051524046,-0.9963598558002466,0.44034132561265976,0.10744225461784435,0.17939428611378253,0.9989175135252124,0.026205029003122254,-0.033419594460083274,0.01831926190746633
173,1.73,1.501331655375022,-0.5375199812223725,1.3390851210028114,-0.07333848249013207,-0.0660052162125758,-0.9950907179405728,0.4159276213093712,0.1279402239046551,0.14806355776264665,0.9984606397318893,0.03394662952285925,-0.03587375057318494,0.024711357337019072
174,1.74,1.1274870871670122,-0.5816647848816654,1.5439230731409483,-0.08001295356305735,-0.07811368150698521,-0.9937084864257126,0.39101715097496115,0.10991992105012036,0.12573250404530395,0.9979040717274001,0.040391006195749396,-0.03878291733301451,0.032051545797534116
175,1.75,0.6600080003958331,-0.542509696419957,1.7236572655283122,-0.08700683344625726,-0.08561195261523266,-0.9925125085757774,0.3850802089143725,0.048244288940597915,0.09216830386264832,0.997304796120807,0.0446167548890889,-0.04181315824982763,0.04026969127721376
176,1.76,0.3308035234474008,-0.39649721080014505,1.8654340604605923,-0.09329793684214747,-0.08876949715786606,-0.9916685310404899,0.3554337915532451,-0.019414995414011486,0.022288233026573595,0.9966899359270148,0.04673513284825088,-0.04449319358454005,0.049220619362463636
177,1.77,0.23356411228444174,-0.17968798334800387,1.9745090223942152,-0.09789113132535386,-0.08959226226805765,-0.9911544143788987,0.2672739529766796,-0.023290106779826115,-0.08042916764054722,0.9960412334604251,0.04771153549557025,-0.04632281219831411,0.058784086286772945
178,1.78,0.3320380328835894,0.03675888190193678,2.05595763773576,-0.10038322947178518,-0.09031886157856582,-0.9908404617281448,0.15456122118042304,0.0737400770813407,-0.21914225721829206,0.9953146216150222,0.048629150145667224,-0.047060456518102804,0.06886852907283082
179,1.79,0.4705480403256203,0.19148191113656726,2.126832645560511,-0.10111073287912008,-0.09224577216558845,-0.9905885690936898,0.07131553534741567,0.21170183063878595,-0.38685408059041726,0.9944662418165755,0.050116982623793126,-0.04683089043994564,0.07939004661026883
180,1.8,0.4656316904034124,0.2804324995912355,2.206118282347098,-0.1007557279883659,-0.09483038012526009,-0.9903805701770889,0.038482468739001095,0.2804635909297158,-0.5594305348797941,0.9934788647529231,0.05190494348153511,-0.04598407203994032,0.09032818202604061
181,1.81,0.2949625204210543,0.3165404844895396,2.2710119416504653,-0.09991683722923143,-0.09643404573770648,-0.9903114283790525,0.04656630728196799,0.24601170180509452,-0.7020923571326461,0.9923692785185688,0.05318191526497987,-0.044893897561346915,0.1016178175665475
182,1.82,0.05987155730512192,0.3298611854105645,2.2905159536887916,-0.09892262299035037,-0.09593093704081151,-0.9904598491055471,0.06818340419916465,0.15378053830439783,-0.7903676093563567,0.991167639343628,0.0533875684757906,-0.04381265973633117,0.11306410073090166
183,1.83,-0.1679270760324908,0.345416754013294,2.258897810050349,-0.0977440650177623,-0.09316719908907933,-0.9908390687056625,0.0784795120883599,0.0492679259623756,-0.8333877225080388,0.9899028724599226,0.05243280486658384,-0.04278421895371559,0.12441754637523314
184,1.84,-0.41988308219292736,0.34582024329966843,2.2018436491134934,-0.09632677219455978,-0.08812894817054395,-0.9914355725227209,0.061619794484380666,-0.048399806000942514,-0.8609454874147777,0.9886013511252122,0.0503019701458755,-0.041832291174687106,0.1354803897000175
185,1.85,-0.7269574123424439,0.3076964242689561,2.157406448979425,-0.09489057028119001,-0.08041210633717949,-0.9922240094774236,0.021716176958483303,-0.13345066858643484,-0.8823413751925198,0.9872734918323431,0.0468130452349682,-0.04113555933804061,0.14620021456563292
186,1.86,-1.0909050848631645,0.21127830631524475,2.150520097509171,-0.09389304583819888,-0.06942171888444013,-0.9931386338044138,-0.026577501147985946,-0.21154421146669802,-0.8773223049548063,0.9858958485620131,0.04172238888259825,-0.041002933410504365,0.1566869693718201
187,1.87,-1.4976308105084482,0.07012811299306976,2.177649238386844,-0.09381929202171957,-0.054576682169764676,-0.9940565495430959,-0.09003094139905074,-0.28553080492588107,-0.8169651490171688,0.9844171281382513,0.034809977383177454,-0.0417645663100295,0.1671023882525433
188,1.8800000000000001,-1.8780840246654307,-0.08128311257104368,2.2090000162309815,-0.0948613603745849,-0.03574397807958888,-0.9947941440170252,-0.1791642655909656,-0.33511763369574177,-0.677354056453239,0.9827772001963325,0.02605979728766504,-0.043581050767254825,0.17753251257343136
189,1.8900000000000001,-2.1792323491939247,-0.22744020809320936,2.2180465567885324,-0.09693936903253991,-0.013632543003440037,-0.9951265297364117,-0.3032656572168773,-0.3443101261974615,-0.4708512197234479,0.9809264810603397,0.01584309890302161,-0.04640724519201679,0.18793185414341104
190,1.9000000000000001,-2.37589901253705,-0.33613596639431803,2.182842355768936,-0.09979644297697694,0.010953384419716695,-0.9948626611367483,-0.4603214810301599,-0.2997508989602258,-0.23376732858628904,0.9788454860099453,0.004548726696891118,-0.05008871994670853,0.1981558723973916
191,1.9100000000000001,-2.390971650215027,-0.3772939208750297,2.10250768092072,-0.10289165798990618,0.03679233918133798,-0.993924507504528,-0.636099205912609,-0.19831281863442124,0.0062658946143807626,0.976558778756187,-0.0072759307816059856,-0.05426283348707608,0.20801501192493124
192,1.92,-2.159822275869289,-0.3054006631734924,1.9691702204503094,-0.10538237960002164,0.06152380498126715,-0.9924555583416576,-0.8212332201968033,-0.08138480303012188,0.2285340177336685,0.9741511473426345,-0.018577884333836024,-0.0582616353892403,0.21733649977775127
193,1.93,-1.7399270238553686,-0.08628698474229457,1.7166175061251803,-0.10610239055987909,0.08264317855046138,-0.9908696823593355,-0.9726135219139644,0.020944697305942193,0.41675697651763743,0.9718242740593798,-0.028305683373351823,-0.0611844608644845,0.22577755195983065
194,1.94,-1.2572868083644804,0.20159610562687164,1.3300462147264667,-0.10422317447509107,0.09882699749534443,-0.9896066027003833,-1.0258575687478357,0.11865562489993611,0.5545612193509852,0.9698617147806408,-0.03598392667387583,-0.06237607595561339,0.23272645383615298
195,1.95,-0.8321551304558426,0.4814905950489022,0.8797694565049086,-0.09971653109429975,0.11009878078706822,-0.9888915038783558,-0.9648552483162414,0.1755204376928498,0.6365254616329976,0.9684757401625922,-0.04169669025214988,-0.061719032842035434,0.237689648258723
196,1.96,-0.538451233115691,0.7029698537113136,0.4604139439391858,-0.09306306200513756,0.11736298790242,-0.988707729661314,-0.8377348527779175,0.12316709213938734,0.6598343975832777,0.9677193119914266,-0.04585359003145072,-0.05948384074075906,0.24056662805762705
197,1.97,-0.43621632265794613,0.7842518558680681,0.1572806365169982,-0.0852968101637931,0.12228789079870335,-0.9888121735596497,-0.7034428262898077,-0.028700814202880322,0.5980015712587534,0.9674654158390922,-0.04912180795007095,-0.05635462757079774,0.24169527894596823
198,1.98,-0.5321368666492913,0.7300263445108219,-0.0390307807283762,-0.07771279849659025,0.12700326705914608,-0.9888433138366474,-0.5679626728849951,-0.2060398683398572,0.47229627494548343,0.9674902733199413,-0.05234002274625803,-0.0532334047647725,0.2416278181973176
199,1.99,-0.6764381528913369,0.6067141428210432,-0.17931003215801847,-0.07123787647530433,0.13290205747789668,-0.9885559164246049,-0.4245702302029713,-0.34459993380435,0.3661999711408561,0.967635746764572,-0.05604548749499344,-0.05075306843251849,0.24074572818964365
200,2.0,-0.7160434030507424,0.4426822762519185,-0.27608953780142387,-0.06635067167252329,0.13969067046675107,-0.9879615477977821,-0.29531623969063175,-0.42569775540217275,0.30457681299419037,0.9678401256690824,-0.060021215034704326,-0.04911652739784293,0.23930195596489065
201,2.0100000000000002,-0.6059954494535913,0.2510616409055322,-0.35037218141474274,-0.06336457434352806,0.14608641594063865,-0.987235725066333,-0.18988372489380898,-0.449710504929211,0.27488535077799064,0.968093048971008,-0.06359356843653412,-0.04832709156020087,0.23751345623358436
202,2.02,-0.33636222285263784,0.052932928694792145,-0.43484337956725955,-0.06246933980573648,0.1505617309484667,-0.9866238203861759,-0.10781364755940097,-0.4105481751335478,0.2839708754695156,0.9684379136714928,-0.06599219744017369,-0.04829626207944558,0.23545402779931843
203,2.0300000000000002,0.06306876782795867,-0.1354899540609778,-0.5483606304109315,-0.06363974458225415,0.15163789082109597,-0.9863844313277343,-0.04927797429258961,-0.3434133718850642,0.3138944469120163,0.9689547902529893,-0.06650258065899149,-0.04883542379750572,0.2330600323563628
204,2.04,0.48482376112215586,-0.3098056838873085,-0.6850902201724429,-0.0667732783371037,0.14849311507579827,-0.9866502894997455,-0.011626502463763285,-0.2937777127027887,0.3484746501579283,0.9697032057493785,-0.06474448429128785,-0.04980266896063829,0.23021319141455274
205,2.05,0.8074067004238703,-0.4688622828600642,-0.8209210369322023,-0.07172867962099125,0.141483731935669,-0.9873242100305532,0.006218874034718108,-0.25684235296417635,0.3862763969627756,0.9706694701187203,-0.060919412706626326,-0.051189009805907904,0.22684601627189596
206,2.06,0.9685222527890593,-0.6092101041647036,-0.945683058741973,-0.07828083242814617,0.1319410839614431,-0.9881411215040378,0.01160196633474881,-0.2215148591993211,0.4195612638350418,0.9717828828956051,-0.055716225218364133,-0.05306464150186597,0.22294333698043403
207,2.07,0.9925275027239763,-0.7256831145557393,-1.0628651721748688,-0.086177928270767,0.12132788230554938,-0.988840747833877,0.006596995049124491,-0.20654491425613797,0.444686890895566,0.9729712080165297,-0.04989162129828048,-0.05549634073730105,0.21849809365337267
208,2.08,0.9483995726813313,-0.8342127048481164,-1.181197109614405,-0.09520780579550792,0.11066847883512261,-0.9892614724850128,-0.012001063423960763,-0.2234923244245985,0.4544736384862268,0.9741892231749458,-0.04398408191499742,-0.05851099401324293,0.21349149499229728
209,2.09,0.8976097728831587,-0.946328423489446,-1.300065761193805,-0.10532711278998871,0.10028962857258539,-0.9893402524737673,-0.04443321724468601,-0.2475145714912913,0.4388341728584687,0.9754171237396171,-0.03817299789491661,-0.06213433040695158,0.20790006434122302
210,2.1,0.860056108382134,-1.05309903693138,-1.4092156760964931,-0.1165120201971508,0.09008175628850623,-0.989066014102776,-0.08447034084220763,-0.2504233660660206,0.3904806004337962,0.9766379822095907,-0.032420548569661,-0.06635450308123997,0.20174367837513713
211,2.11,0.8547079792953765,-1.14262009495152,-1.4964754123446071,-0.1286164487530532,0.07984974889512088,-0.9884418386216447,-0.11815470067701593,-0.22762403667608253,0.3198532962922338,0.977829201059405,-0.026656547266655846,-0.07109309070156886,0.19508701718797078
212,2.12,0.9071564091133495,-1.179575170738195,-1.511698549726508,-0.14125543759652842,0.06911956278624726,-0.9875220205197505,-0.14771399319069237,-0.18732350868594053,0.2557781713855372,0.9789503826917635,-0.020680206528115107,-0.07613054672404336,0.18816265593161488
213,2.13,0.8921255125142699,-1.1973583464807551,-1.4372077246076405,-0.1539385282216591,0.05792294749078489,-0.9863466888934512,-0.19256123181847642,-0.1441927064959836,0.22030318022057876,0.9799301745382717,-0.014526225711745194,-0.08124301748427121,0.1813829750324306
214,2.14,0.6326509537618767,-1.2177598707258914,-1.3225680015649508,-0.16658355345282846,0.04802018702731857,-0.9848300714424277,-0.24863496473549848,-0.10017220760184267,0.2100477720430809,0.9807024322968144,-0.009046064198049555,-0.08655089099262296,0.17501050444007252
215,2.15,0.19921606928070537,-1.2220404143096295,-1.2311631814562198,-0.17916947435953376,0.04168909646085864,-0.9829136270165592,-0.2941352865197773,-0.04517544947145276,0.19503661827920618,0.9812716217785357,-0.005369837504855567,-0.09222180717145759,0.16898095344585293
216,2.16,-0.1629733217928207,-1.2036465060091155,-1.2189228797524865,-0.19159309427034624,0.039326254025077764,-0.9806675933126766,-0.3507497557081561,0.019819043313610327,0.1053042150930771,0.9817050869118688,-0.0037298931443094617,-0.09820146560500384,0.16303422948258525
217,2.17,-0.41155510523091055,-1.1469671263549754,-1.3195701966930677,-0.20363667385169776,0.039710557145896955,-0.9782235092328145,-0.439953288623497,0.07964408162010403,-0.0966966532045788,0.9821129267417881,-0.0035937161148753543,-0.10424454645689794,0.15670093181116349
218,2.18,-0.4509381783420008,-1.045908554074043,-1.483408695361278,-0.21496014080207818,0.041126211722932446,-0.9757422164890556,-0.5408217068134973,0.1516146665956533,-0.3794052707778069,0.9825859007902148,-0.004185636389048216,-0.11002049536787085,0.14960745627728292
219,2.19,-0.28326294830822385,-0.8883533014296021,-1.5995981640724417,-0.2250560356966311,0.0413522522011612,-0.9734576062185001,-0.6372207602940488,0.2507644347584832,-0.6395261475771997,0.9831605301833176,-0.004437825099439789,-0.11509545103994065,0.1418065443667358
220,2.2,-0.10051983612208887,-0.7255499373723052,-1.5869379748557872,-0.23354204781857987,0.039485037521024745,-0.97153680974011,-0.7162702702794874,0.3214732086153312,-0.8282289671441333,0.9837893330006393,-0.0038549282899471003,-0.1192209986417599,0.13383963393269907
221,2.21,-0.09379226395816237,-0.5979674189712091,-1.4793324884955978,-0.24054201921345159,0.03664541650519083,-0.9699413517429493,-0.7346088272564195,0.3715093841956142,-0.9172326523157144,0.984389552158822,-0.002902306686845803,-0.12255131858970233,0.1262377106596973
222,2.22,-0.29786566249375573,-0.4894895487560796,-1.372805387140477,-0.24632037025342873,0.034974908791120744,-0.968554045100814,-0.6879350352171547,0.3834058385798068,-0.9425378531043973,0.9849246598229936,-0.002597706875973857,-0.1253582744604132,0.11912069756268197
223,2.23,-0.5387370019215904,-0.37867356429683785,-1.3314296253282487,-0.25099920482835764,0.03569710288212439,-0.9673264052058772,-0.6280286680149622,0.32603374635094373,-0.9615262890849806,0.9854226621680098,-0.0035656938974755184,-0.12775918759616542,0.1122257185007307
224,2.24,-0.6513032018465632,-0.23902302342075502,-1.3410137592335674,-0.2544940095113199,0.03814293249822367,-0.9663200427503806,-0.5624223028218023,0.2676107498658303,-0.9809312163743317,0.9859354973222805,-0.00550394120932101,-0.1296460716810369,0.10526257742435015
225,2.25,-0.6547827939048741,-0.08264763671959996,-1.3651338323377116,-0.25661256858009557,0.040990325346602775,-0.965643846104403,-0.4845796207489509,0.2561523643050519,-0.9720548255662674,0.9864950400869974,-0.007756528881324065,-0.13083111025275032,0.09817319739438236
226,2.2600000000000002,-0.6253409961401756,0.06266828328961753,-1.4016315915833921,-0.257337976199603,0.04345637274307163,-0.9653432662257123,-0.40365473273289165,0.2548783583479424,-0.9127817512548042,0.9871139649200027,-0.009922119688221275,-0.13125915307174238,0.09091583948991533
227,2.27,-0.6596897908548386,0.18204883989904666,-1.4414838011327356,-0.25683458836319417,0.045827537954780874,-0.9653672084841216,-0.30473158675423595,0.2209949250374213,-0.8232352158613773,0.987777739507237,-0.012124631449562691,-0.13102683834250214,0.08346338159012953
228,2.2800000000000002,-0.7183596349703549,0.27779679641479227,-1.4838458643756873,-0.25531061704221975,0.04870665019137705,-0.965629845840258,-0.1851621946266214,0.1611278579127339,-0.7268910580340461,0.9884640196424085,-0.014650609653945294,-0.1302636663126143,0.07576599954886505
229,2.29,-0.7030128242567193,0.3548534881492009,-1.5140075570034914,-0.2530167345728362,0.051797863948322864,-0.966072586730878,-0.07167184730222886,0.10081790081112074,-0.6260623176827029,0.9891502648532898,-0.017325221654926462,-0.1290804741447025,0.06785606016228184
230,2.3000000000000003,-0.5518520449789047,0.41020506911703214,-1.5091642572752466,-0.25011150692345435,0.054092313437587004,-0.9667035319663367,0.022912985214477974,0.06072877180482257,-0.5102696379715339,0.9898229914903072,-0.019602220860558343,-0.12752560182413175,0.059912217791542766
231,2.31,-0.34705389451076313,0.43854901661583295,-1.4476494378333375,-0.24679193982428632,0.054719796640017436,-0.9675209624691669,0.11597034629622571,0.05894404955288092,-0.36978167971087694,0.9904642427042669,-0.020989796323093907,-0.12569039440184857,0.05224951426105138
232,2.32,-0.23505009133505284,0.4434059095029131,-1.344146747165767,-0.2432795761865665,0.05402002546680031,-0.9684492499468066,0.2159314460994176,0.06929168819803963,-0.20299927130595669,0.9910505930217003,-0.021620744719783758,-0.12372185727150871,0.04510144675501928
233,2.33,-0.23815181911279523,0.4325568840655942,-1.2151063490699783,-0.23972556945853798,0.05313194897252311,-0.9693843446418251,0.3121824535301376,0.04783871268259934,-0.02133069425001858,0.9915631795926293,-0.022054903097251333,-0.12173988134680136,0.03856393652615366
234,2.34,-0.31081078298855297,0.3905005838146411,-1.0953858885352616,-0.23633222603268725,0.05300019756941413,-0.9702247010377487,0.3930595340581081,0.0011111600253537746,0.15757746790735408,0.9919887398394096,-0.02276953670625189,-0.11986827358482524,0.03262809930560994
235,2.35,-0.40871819824702466,0.32243961170680857,-0.9947349751300597,-0.23341919984222687,0.05404132707745722,-0.9708723601736347,0.45856340828697373,-0.022713575836431046,0.32170187977021725,0.9923162891013433,-0.023987462063313248,-0.11826914945466942,0.027193309004602068
236,2.36,-0.46836950921618237,0.25841976368464337,-0.9182421916468785,-0.23113749561243319,0.05609489884121267,-0.9713016469667659,0.5077582819971457,-0.003706709356977229,0.4651647283670336,0.9925499237209437,-0.025644537658232075,-0.1170071163496463,0.02216063619956414
237,2.37,-0.4781743386657912,0.22024161059352043,-0.858511408459393,-0.22933981792176614,0.058663530997914916,-0.9715760638630393,0.5305414417520159,0.0266913371118584,0.5929339784776398,0.9927133049653072,-0.027507633456944756,-0.11599350636752255,0.017447368477707642
238,2.38,-0.43647463151337235,0.19565199192206537,-0.8192391826272704,-0.22783618900797142,0.061200839904987106,-0.9717735809330963,0.5237520105222953,0.05668442831972289,0.714796601882486,0.9928315354296392,-0.029314106975356496,-0.11512298874034717,0.012992993917558905
239,2.39,-0.3461221253450052,0.1962234112840179,-0.7874584458226763,-0.22645973881261236,0.06312274667775382,-0.9719726876093836,0.5062511589659586,0.09205693637900751,0.8211842819294982,0.9929283284368798,-0.030778474951584624,-0.11430669938674191,0.008747538549657137
240,2.4,-0.20635238823632315,0.217392043163845,-0.7463474059988524,-0.22496141445401532,0.06394991401664418,-0.9722665772809422,0.49370707347318227,0.12134135507228527,0.8949288997627451,0.9930298487444418,-0.03165800281110727,-0.11342093311406404,0.004734270976749848
241,2.41,-0.05991313691775277,0.21228121864491836,-0.6753641855065671,-0.22331736255328624,0.06354988238692856,-0.9726715991957096,0.49155021689759876,0.11586601278174936,0.9297516736171197,0.993142850712932,-0.03187181943513155,-0.11246436257883045,0.0010772700658844671
242,2.42,0.04830018745960017,0.17269568706794805,-0.5604718433236272,-0.2218083836997798,0.06217687984766585,-0.9731054587480978,0.5009490573211489,0.07314847712529884,0.9133762480283857,0.993250915567843,-0.031528960524275874,-0.11159321677336866,-0.002043272877430507
243,2.43,0.14302453596822656,0.09062062183933822,-0.3963888065795321,-0.22079352065606178,0.06018513883361184,-0.9734613242198422,0.5288362916387016,0.041707740545172886,0.8707221161219149,0.993333162075882,-0.03078659409648615,-0.11100149363259693,-0.004403846238073246
244,2.44,0.252714518613076,-0.01141437205075127,-0.1774957331669628,-0.2205630399832687,0.0576213767697304,-0.97366842962504,0.5602004478656009,0.03637024848177298,0.831803466079566,0.9933786391574542,-0.029643389156394775,-0.11084535583489422,-0.005741377135261001
245,2.45,0.3947470230495534,-0.11169037011035009,0.07630960995669911,-0.2211971895252826,0.054387678746015466,-0.9737097932254293,0.5797840005388261,0.022730153084290685,0.7862734732433876,0.9933885698960673,-0.028025053372710395,-0.11117036039692962,-0.005811355642968497
246,2.46,0.6110254264483709,-0.21741313555211197,0.3252484770352008,-0.22269321908870252,0.04996018481893055,-0.9736046218104192,0.5883593845903268,0.008523907205014428,0.7363316810502576,0.99336851431317,-0.02565427298328246,-0.11197240755021774,-0.00450588500121353
247,2.47,0.7798278732559191,-0.32893047641977224,0.5458191396041415,-0.22515197456995528,0.044137115178535594,-0.9733191682573042,0.6041624874519628,0.0035208346432625843,0.6746786647735714,0.9933045938358733,-0.022433193263820584,-0.11328989160477505,-0.001901666293502048
248,2.48,0.8714700606452459,-0.4323796603923955,0.7103788185354549,-0.2286087936391228,0.03748881739341955,-0.9727911756464673,0.6351638971431223,0.015559636154433013,0.5982733884891684,0.9931715608919873,-0.01866852298990692,-0.11512075145915847,0.0017532885365588952
249,2.49,0.8983027473214324,-0.5088258579874679,0.8172439933170428,-0.23294264192725633,0.030594591608352078,-0.9720040028335643,0.669337130859122,0.036822367840944475,0.5067719681713533,0.9929558741163648,-0.014681597570779761,-0.11738532273614197,0.006110041818372431
250,2.5,0.8532002991871926,-0.5356879256101488,0.9059984827880719,-0.23783023964288158,0.024103888505708045,-0.9710032777010816,0.6838398677515752,0.049063774609341415,0.4073924593381511,0.9926621911660121,-0.010818570679829928,-0.1199107333229444,0.010930767726556188
251,2.5100000000000002,0.7425040479259217,-0.501127191224443,1.0589842953948327,-0.24270599953694816,0.01861864868132405,-0.9699187574203052,0.6693394576910364,0.06462268773837539,0.3264845674328327,0.9923148988475979,-0.007369765102535451,-0.12241171792471132,0.016290657955941625
252,2.52,0.4750037114037962,-0.4397232288350346,1.2928467824551244,-0.2470732757111245,0.015497757073135603,-0.9688717933810186,0.6203165896920343,0.07702588631534146,0.2583315841424823,0.9919288904925968,-0.004982373953977644,-0.12465415008285523,0.022500564862662067
253,2.5300000000000002,0.05481848351717937,-0.3756174919015128,1.5108697865924874,-0.2508111710233264,0.01636960523041261,-0.9678953344958147,0.5825794093105772,0.08181389851348128,0.18679471671491446,0.9914940519846585,-0.004466150278598982,-0.12661654666818103,0.029656809258576475
254,2.54,-0.3224058226441704,-0.2767126423329667,1.5965761910896323,-0.2537139367593746,0.021695002138525737,-0.9670318334052057,0.589285251347916,0.06936363565633027,0.08554696878480128,0.9910175883585315,-0.006115940286908292,-0.12823993882210744,0.03731772246419945
255,2.5500000000000003,-0.35265336601155883,-0.08127710031805743,1.5758885199870507,-0.2551024512413444,0.029296152840513928,-0.9664676965923484,0.5800947880526168,0.0852377991610758,-0.06989161793245938,0.9905583715945876,-0.00892541720646967,-0.12917402542190784,0.044955688071467576
256,2.56,0.08157543738193924,0.17893394021168135,1.5044725101214087,-0.25414799619717,0.03476460450549411,-0.9665396683950558,0.4929480942591343,0.2103978239834833,-0.28112760473461396,0.9902061804520679,-0.010722955902474508,-0.12889873589391784,0.052488036225848994
257,2.57,0.7049677327970635,0.37627952137646203,1.448162430143046,-0.25086646247137523,0.034703785487253475,-0.9673965411022339,0.33991505363464364,0.4139286263649088,-0.5639035116960353,0.9899950874487586,-0.009813285377741631,-0.12729256938717326,0.060009891656899975
258,2.58,1.2038201090028184,0.4305942718276492,1.5195491981589702,-0.2463927495005662,0.028967210788616513,-0.9687317772274092,0.19903278423740864,0.5936021083512657,-0.865985206299448,0.9898214922706089,-0.006067732515774362,-0.12487449455123564,0.067906611260712
259,2.59,1.3019797796473631,0.349883796381116,1.7128786307288362,-0.24214504021453784,0.020449586780014718,-0.97002112006905,0.1476174920220776,0.648605338374944,-1.0778594803983126,0.989506984726128,-0.0008508100832212588,-0.12241749932934519,0.07666036461821701
260,2.6,0.9082303012729244,0.21808548142220774,1.9556600448272394,-0.23907825484608944,0.01381836267184073,-0.9709016598824913,0.1922897816983142,0.5247205786356927,-1.1736019026280384,0.9889245441092247,0.003548263794984044,-0.12056582546270432,0.08641848424642791
261,2.61,0.2025729080861175,0.10511228175490385,2.179184279789043,-0.2372428864790398,0.013268484791505535,-0.9713579409041452,0.24963815357499922,0.3064706725287241,-1.184255837028467,0.9880596562859563,0.00502091611470362,-0.11956392436779956,0.09698273666229738
262,2.62,-0.4473463061946539,0.016357782995524345,2.3013571710334033,-0.23629123391317966,0.01988464248925275,-0.9714726817028367,0.23569755737715886,0.11360260426069763,-1.1512997447786155,0.986945235220315,0.0029905340628050884,-0.11938560501797643,0.10800228824092829
263,2.63,-0.817060365055455,-0.04963921651998444,2.3237091716999427,-0.23586657428289767,0.03166601138188579,-0.971261098336361,0.161267072803303,-0.023034871232235667,-1.1416827988940539,0.9856216999366004,-0.0015888356988063503,-0.11985088171025796,0.11903883419580363
264,2.64,-0.8720858300826776,-0.13342565708394857,2.293539440147808,-0.23583559023033673,0.045490128898550385,-0.9707204490268565,0.05407747639143998,-0.06948021653111872,-1.1884948980119348,0.9841121595674082,-0.007170133301655876,-0.12077263338679099,0.12990069664440573
265,2.65,-0.7356292892472223,-0.23043625950263508,2.231774356120895,-0.23641812558614136,0.05866612155838694,-0.9698734639090338,-0.07013441185515158,-0.03159682377851008,-1.2087066179802974,0.9824323970185709,-0.012388759613433767,-0.12209893166728568,0.14055239365975847
266,2.66,-0.5860144008431709,-0.3009888867994401,2.1492470698352437,-0.23757990492421546,0.07021711289691704,-0.968822976503225,-0.21077416507332933,-0.016494072209790198,-1.1509691406331073,0.9806262958340638,-0.01676103731637817,-0.12371915496665065,0.15091833979498234
267,2.67,-0.49228312771210303,-0.34444179675999925,2.0640698304104688,-0.23909931983646393,0.08031057258457384,-0.9676651692829054,-0.37043328197900094,-0.06777569195831404,-1.0021349211310586,0.9787362839120003,-0.02038981160289647,-0.1255020730465918,0.16093990527669752
268,2.68,-0.44537045396313746,-0.3515322612136638,1.9673631564612721,-0.2407502662922577,0.08961163053660627,-0.9664390463539242,-0.5397672811045455,-0.13386882592396515,-0.7730608735497465,0.9767960467999766,-0.023633270231147703,-0.1273626636102202,0.17053934732499956
269,2.69,-0.38349385639630634,-0.28722366362536716,1.8655622967886267,-0.24207091405694794,0.09825124311012279,-0.9652695057693138,-0.7055487997045472,-0.17291151763128368,-0.5024725608869428,0.9748569267555337,-0.026604456324055902,-0.12906203829931634,0.17967914690943357
270,2.7,-0.2597480696619294,-0.20294951263986163,1.702578606963068,-0.24260304340385158,0.10572126787158126,-0.9643470343838682,-0.838145281056552,-0.1729947416396715,-0.22567294294412774,0.9730082697336143,-0.0291219138595111,-0.13030047955309434,0.1882161218241739
271,2.71,-0.0668435611921674,-0.10055364959047167,1.4901923225871634,-0.24234986709781117,0.11119742266249899,-0.9637952229743634,-0.9153918747999941,-0.12843922776685154,0.04957019833573582,0.9713497021456988,-0.03082622217181386,-0.1309660851573139,0.19589587959053653
272,2.72,0.1389469066927749,0.016317928113333657,1.2472225490704296,-0.24122481460348488,0.11415635872487592,-0.9637316557099518,-0.9339247404458452,-0.06349127096386162,0.31072752754086624,0.9699614538548569,-0.031501175065767634,-0.13092673710333882,0.20258198100616456
273,2.73,0.30702668453666926,0.1345594427880548,0.9596155996117041,-0.2392258797260553,0.1146118533946871,-0.9641756930583665,-0.9094996573323217,-0.021809414378873397,0.5234075833279576,0.9689135580385289,-0.031195407715838192,-0.13014954175017857,0.20807168964957706
274,2.74,0.3976813791543323,0.22736550008540266,0.6807853407797183,-0.23654568241635626,0.11307956025993154,-0.9650174425352048,-0.8316868117067261,-0.04671698121839626,0.6941497741489264,0.9682239743816842,-0.03016740789969729,-0.12876752425936308,0.21225148936723803
275,2.75,0.39303639347985825,0.31933621854716354,0.40921927061894275,-0.23328106598428328,0.11047395550558874,-0.9661133458005529,-0.6915381200070322,-0.1324323677037421,0.8134821031192622,0.9678762064658293,-0.028861123234607253,-0.12692615061517115,0.2151097138358679
276,2.7600000000000002,0.33784370702636085,0.37217841103790894,0.1420502035523818,-0.22963684236929244,0.10754321514330493,-0.9673163848451941,-0.5316558364444377,-0.21800168517691984,0.8856747031883098,0.9678511683258209,-0.027622899614228542,-0.12481461027612366,0.21661539844826389
277,2.77,0.2897964555269898,0.3792381719028223,-0.03813259374755234,-0.22594385816800558,0.10452394247024657,-0.9685163299647777,-0.40872321442581144,-0.296937492878731,0.8929068589050769,0.9680804485821405,-0.02649876828039178,-0.12263601464143269,0.21697565524850182
278,2.7800000000000002,0.21713197494322087,0.3750748863857401,-0.15055129239440293,-0.22246429889412667,0.10161292788202825,-0.9696310503394344,-0.318917839553253,-0.4080698464226853,0.8408692866419838,0.9684520780577869,-0.02549776267763982,-0.12055836524047761,0.2166012929163805
279,2.79,0.12165999487796601,0.33503900577821677,-0.26044554821220006,-0.21917346956093212,0.09945588475533328,-0.970603690282976,-0.2474719844131958,-0.5025532400488271,0.7866881163919442,0.968912958727248,-0.024914726834890273,-0.11864828239003401,0.21566041484894177
280,2.8000000000000003,0.052913718312804475,0.19721149985552455,-0.33920635077022554,-0.21685829633650983,0.09795431747292227,-0.9712761582421122,-0.1876821970078699,-0.5086895819818601,0.7544030554650286,0.969410971805368,-0.02460721198635977,-0.1172876582427867,0.21419679493810534
281,2.81,0.03266195960604493,0.029890842964960973,-0.39315189099848924,-0.2161222362933198,0.09673842925839557,-0.9715620443560158,-0.126031623845715,-0.44444886752130475,0.7744353119992486,0.9698710467331054,-0.024300875801939504,-0.11674089926660003,0.2124404378281621
282,2.82,-0.019635526612099087,-0.11937200056381048,-0.48818945191371615,-0.21699825647203064,0.09569364165212094,-0.9714702191164983,-0.06965000047434787,-0.37783136620433216,0.8300090751820762,0.9703069197779852,-0.023946934942585138,-0.1170103338339257,0.2103315136755746
283,2.83,-0.07255737613949395,-0.2687948977271947,-0.6376106525307649,-0.2194431397982616,0.09495670033985296,-0.9709931782931664,-0.03886231784283532,-0.3285096123001953,0.8624538079909905,0.9707727830935161,-0.02365594674076808,-0.1180837523330561,0.20759741088483813
284,2.84,0.03069873675486963,-0.393566747145745,-0.8171338000691047,-0.22337288267404123,0.09364229372114806,-0.9702242462611894,-0.022212722810726716,-0.2757190968689411,0.8791062066392991,0.9713184719059005,-0.02302738471040282,-0.11982280256219066,0.20408825455654267
285,2.85,0.302006947110614,-0.4916929641873316,-1.0047166245681425,-0.22853661279563592,0.0900741446275089,-0.969358619410927,-0.020078996727934006,-0.2160782243254145,0.8746112511211172,0.9719863169293077,-0.021270503832306515,-0.12193427289343521,0.1998028219268939
286,2.86,0.7171445883863696,-0.5385147236842022,-1.1642977465912479,-0.2344749123769433,0.08263630960725245,-0.9686014877060745,-0.043060576393213035,-0.14160637110927393,0.8392703714234626,0.9727900703043246,-0.017623529981713345,-0.1240480019303674,0.19488200457652044
287,2.87,1.0467026936296442,-0.5952371297676917,-1.290467026088948,-0.2408918668259081,0.07100744886803784,-0.9679465190996427,-0.07022855315848514,-0.09008474130865081,0.7814166823225324,0.9736822911557929,-0.011935245040573129,-0.12602590117227536,0.18951133475631687
288,2.88,1.103579505884903,-0.6619069206434266,-1.4505761547669151,-0.24784852366537607,0.0570988058622538,-0.9671079938624257,-0.06596512794791196,-0.09786924679610877,0.7262096617343988,0.9746050266235795,-0.0051613974257625145,-0.12812756602020403,0.18356763477930624
289,2.89,0.9472493113730762,-0.7310623642185777,-1.5978484189020203,-0.2553529888897871,0.04320290196636135,-0.9658746491390452,-0.0507958940978972,-0.106543285546054,0.6670761235527416,0.9755416954370728,0.0015233327215073804,-0.13060403710961677,0.17678529837214138
290,2.9,0.5271432177465722,-0.8010904228251537,-1.6548895480696304,-0.26336364594470923,0.031678419945770274,-0.9641699200101596,-0.08146342080149485,-0.09469626522141347,0.5612865317247457,0.976433011699381,0.0069500485086712695,-0.13365749418729025,0.1692926499593874
291,2.91,-0.1151734288789294,-0.8817086890294654,-1.6509455624131542,-0.2719552504864716,0.02516316126560317,-0.9619766873574506,-0.15822013980922714,-0.09278677649392202,0.40566332729223464,0.9772217050614719,0.009824630753310883,-0.13752667679992134,0.16131202694931376
292,2.92,-0.7665881831901439,-0.9036879112630325,-1.6020846031749074,-0.2809436804933207,0.024985862710477032,-0.9593956140217442,-0.2826559069787543,-0.1150594976907375,0.26190662357991257,0.9778997924566863,0.009462672939647176,-0.14216547363958779,0.1529858838186472
293,2.93,-1.2682286557452698,-0.9344066580112516,-1.5161461806442522,-0.2901520742678198,0.03035964407014123,-0.956493651657723,-0.4343376660371044,-0.14125897647308827,0.10012906619215661,0.978437886862766,0.006253649184165707,-0.14734657903114348,0.14457015478457033
294,2.94,-1.5745705022940983,-0.9610223241998991,-1.4454705900866234,-0.2997195677722774,0.039741256711271725,-0.9531906339635178,-0.5686071994576419,-0.03595717149649616,-0.0749349478069174,0.9787896885471473,0.000985995878659566,-0.15296600308503824,0.13623591468631135
295,2.95,-1.5722715295387384,-1.0214062805939756,-1.4243023489514632,-0.3097960905268838,0.050507403301831504,-0.9494497186350436,-0.6557172902020848,0.2598008612784224,-0.2626194892318878,0.9789462598204933,-0.005027454064682917,-0.15888215213402793,0.12799619082482638
296,2.96,-1.4938511503903984,-1.1036904707670725,-1.5298178555025161,-0.3206545343599461,0.06031853327391587,-0.9452623402036143,-0.6822455225313312,0.5612990332248178,-0.4961929740794525,0.9789364469543421,-0.010642907038784063,-0.16507305381811846,0.11961596417273193
297,2.97,-1.5084525760833447,-1.1841712678615561,-1.7001113027368264,-0.3325108295107251,0.06912321313386416,-0.9405504064406827,-0.6351102587870203,0.7109367301636963,-0.719645975696623,0.9788025722370333,-0.015936279330837556,-0.17165048067796534,0.11051011701119166
298,2.98,-1.7193153287186154,-1.2226787462260187,-1.787523137915785,-0.34513744990434053,0.07813177613406255,-0.9352795801412476,-0.5800189464370774,0.667484733513619,-0.8785347685657996,0.97851804279733,-0.021561709168003495,-0.1785696120269679,0.10065860452059919
299,2.99,-2.156458975571425,-1.2026919309515578,-1.8138698346927153,-0.3580055552930362,0.08980305402695603,-0.9293710839583169,-0.5937608824850036,0.42723653284004576,-0.9578156258185495,0.9780255412012862,-0.02879108105560202,-0.1856724789610336,0.09022054694063632
300,3.0,-2.468047711813218,-1.1031171712801748,-1.8158094887855223,-0.37052239804463144,0.1047360986623812,-0.9228734962757573,-0.6882909436041633,0.1902438647579548,-0.9672004461760105,0.9773085163123335,-0.0379592547154,-0.19263235277582189,0.07931862716430539
301,3.0100000000000002,-2.509201828770647,-0.925724284373215,-1.7771523969537157,-0.38193720923159435,0.12098048118013106,-0.9162079709261098,-0.783307712486978,0.10195524457451774,-0.9538457416112622,0.9764355741260463,-0.048046860247580245,-0.19892494392896273,0.06828957389778659
302,3.02,-2.3995545125638955,-0.713452936633663,-1.6635268964639218,-0.39164804061383107,0.13671686184446502,-0.9098767400184292,-0.7921689752597739,0.15423936849846873,-0.950771070606474,0.9755030494739467,-0.05802684060263078,-0.20415585463424024,0.05760620340405148
303,3.0300000000000002,-2.3249771732326705,-0.5045465762578895,-1.4460045333226772,-0.39942428491286813,0.15191801235377453,-0.9040695887930911,-0.6930896309762402,0.248991373362622,-0.9054654617153778,0.9745471298148057,-0.06774450559378233,-0.20823642038051732,0.04775657561075126
304,3.04,-2.3326568934061,-0.28265764516823244,-1.1446159473871684,-0.40508460626223136,0.1675890045768574,-0.8987666452596488,-0.5070000769291955,0.22815161105606982,-0.7966383133727356,0.9735727330829153,-0.07758965671884409,-0.21114711686609683,0.03911741047914496
305,3.0500000000000003,-2.3293799896643894,-0.0880587356692546,-0.8109429300046899,-0.4085204561477153,0.18418404090706292,-0.8939496572583641,-0.2766399052452183,0.11445970276139816,-0.6519848253950704,0.9725988219457675,-0.08769984518609902,-0.2128848889548379,0.03193273762792731
306,3.06,-2.32000516628207,0.03058672682662822,-0.5339851666690619,-0.41007079545978387,0.20209429847572338,-0.8893548568829538,-0.032307930424335385,0.06400215808008383,-0.5246562237273844,0.9715900574497519,-0.09824426592881899,-0.213670860049899,0.026189576016922088
307,3.0700000000000003,-2.185300337509274,0.09864287808626981,-0.2968853091837334,-0.4103595962523719,0.22036863022901945,-0.8848688861355953,0.21041795717144718,0.1197836610270708,-0.44740521813907597,0.9705458866017596,-0.10874054927585973,-0.21383564420381662,0.021737271363606012
308,3.08,-2.1096988674957986,0.1717251325696352,-0.1459473915354883,-0.40968658547087455,0.23832740093702168,-0.8805157813323289,0.40309519946981925,0.1547012755381174,-0.4078391871761785,0.9694948007203342,-0.11887686009609247,-0.21353167307220633,0.018332400186123556
309,3.09,-2.0577211326650056,0.2742115871496116,-0.11752488603345262,-0.40805713460934395,0.2561036089044603,-0.8762708451403577,0.5019311139255168,0.09362771785049623,-0.3690183811323743,0.9684515022595612,-0.12885190635058594,-0.21271338417987795,0.015354590399286234
310,3.1,-1.8904700614770527,0.4190315519950115,-0.13854494695777544,-0.40539614913964245,0.2729090838303621,-0.8724273301740217,0.5127570027532776,0.015279858936255913,-0.28597923016283,0.9675010373450448,-0.13832861086268927,-0.21127670780482533,0.01241074566218139
311,3.11,-1.5673461025667155,0.6018291777903599,-0.19638039980846267,-0.401429548484879,0.2873503080073637,-0.8696264012605625,0.49569369942677594,-0.02396976222077074,-0.17840773818029915,0.9668107488977454,-0.14657011534287429,-0.20902917715733466,0.009420982785383114
312,3.12,-1.1600469735101346,0.7786599273016459,-0.29480901489625055,-0.396150017660177,0.29820318628495146,-0.8684000949794,0.486531571340754,-0.008120290862344951,-0.04927147176912207,0.9665188648536919,-0.15292264673097022,-0.2059302324354179,0.006300876371957341
313,3.13,-0.7895252184351029,0.913012429173803,-0.400680071320053,-0.38984447632529534,0.30521647645033645,-0.8688215280180402,0.5028204677599769,0.014376279082489745,0.09516548178172116,0.9666437174100754,-0.15725243141359127,-0.20212836981981125,0.0029627989874073573
314,3.14,-0.5266768281001311,1.009994138855127,-0.5108878143749672,-0.3828679964996321,0.3090640844113936,-0.8705634553095835,0.5543531844715992,-0.009564850009984395,0.24390423481040557,0.967098203750979,-0.15992095804249384,-0.197836965192863,-0.000657630891966536
315,3.15,-0.3462428513863721,1.0567403034417373,-0.5955218224820577,-0.3755464839371084,0.3106837704076061,-0.8731721601816057,0.6116709714057372,-0.0842047115567234,0.36333638244896194,0.9677613084277273,-0.16143393408425416,-0.19325910992390188,-0.004610082678141833
316,3.16,-0.15964735280234887,1.0579123049544072,-0.6395271581587715,-0.36822105291699636,0.3103740464342545,-0.8763959937945324,0.6468709026890834,-0.15625154445583156,0.43814736034582014,0.968565135088576,-0.1619224541549533,-0.18862502469658907,-0.008741100405586696
317,3.17,0.135045830511469,1.019193564389262,-0.6451943379282237,-0.3610806992644462,0.30806939566700475,-0.8801710898472682,0.6585604020922581,-0.18751397021927668,0.4856437778001859,0.969495020296137,-0.16129591921169179,-0.18410434226300143,-0.012731134930685572
318,3.18,0.4654594149714466,0.953912132105572,-0.6278799285537845,-0.3543005117841213,0.3030377055771544,-0.8846590016499757,0.6465814116018662,-0.18448710513351613,0.5228829763437804,0.9705977008175946,-0.1591347869611063,-0.17983966356140926,-0.01634306227544964
319,3.19,0.7230553141520286,0.8737375197130048,-0.607052631551424,-0.34803067985700575,0.2955415136220646,-0.889666425042416,0.6203381234213863,-0.16488219882601587,0.5308354507574242,0.9718280459498053,-0.15558822307933146,-0.1759367036450977,-0.01952690563911406
320,3.2,0.9546151199327414,0.7880776066651853,-0.5908435927705331,-0.3423720746675478,0.2859440094654689,-0.8949790508803462,0.5928744323872446,-0.13945974794025973,0.5214097921428538,0.9731332234383495,-0.1508789155792614,-0.172450886910677,-0.02234712320476108
321,3.21,1.1649017077054076,0.7019295642750407,-0.5552986043595722,-0.3373078844396296,0.2744480905328913,-0.9004800735939209,0.5679415257048663,-0.14312489587662705,0.5161407777228485,0.9744860895459452,-0.14512858552581334,-0.1693789170504357,-0.02480549418924409
322,3.22,1.3842533051061976,0.6315293927173347,-0.4682294700597272,-0.33267561378302596,0.26120796091892523,-0.9061189242167766,0.5491954834752071,-0.14335379685046065,0.5243145417467452,0.9758810656202221,-0.138397753454093,-0.16666125965701456,-0.02672958120299371
323,3.23,1.6451354789070773,0.5635094946412653,-0.34821080567376506,-0.32827953250246783,0.24609343488544833,-0.9119280945880638,0.5414737182470952,-0.09337003302641245,0.5532274796100966,0.9773363040705102,-0.13058618285667462,-0.16422351164852386,-0.027876697547726887
324,3.24,1.9305461586158303,0.4952170139970698,-0.21513727710880456,-0.3241047569762155,0.22880091776112876,-0.9178957939929175,0.5336965121256494,-0.03729335428007504,0.5715288642627524,0.9788543266898442,-0.1215328539877916,-0.16206053399949877,-0.0281355785803239
325,3.25,2.1928553727359477,0.3904147090703612,-0.06997446368901415,-0.3203284291478135,0.20930117026867348,-0.9238465293370599,0.5317227010755979,0.009086755493831734,0.5480541858835949,0.980393063288383,-0.11122961670631293,-0.16025457804737903,-0.027422314182655224
326,3.2600000000000002,2.3571203127648093,0.25216713198867213,0.07631348749008152,-0.3173300306773879,0.18814678109495048,-0.9294088831442654,0.5498097416194324,0.07252482153041417,0.4852707452710377,0.9818552132605982,-0.09998626528163414,-0.15896981907962104,-0.025758847272372026
327,3.27,2.4302663711038375,0.07290419870169221,0.2289172160180794,-0.31553685210678284,0.16628370000912832,-0.9341747484629448,0.5893165218226301,0.13748984834067218,0.40145560997283325,0.9831317729551693,-0.08830567700710704,-0.15838660493981344,-0.023178184000047848
328,3.2800000000000002,2.431366607012271,-0.11288962764581348,0.34697622195892575,-0.31527235467777304,0.14441487308477446,-0.937894599150468,0.6253234118861167,0.18090814907402403,0.3070625471672963,0.9841502619986041,-0.07656618399309968,-0.158624316913878,-0.019815738240492105
329,3.29,2.4200700019277885,-0.25891672687450584,0.4651515880292112,-0.3165242180915834,0.12289641965120515,-0.9405375854116615,0.642290893081531,0.21969727180789816,0.18866529714037816,0.9848931869334303,-0.06495618208249264,-0.15963550663224665,-0.01582452075414349
330,3.3000000000000003,2.349909789093163,-0.3030008204000321,0.6750706093999164,-0.31860961876695676,0.10217120443735592,-0.9423154940359698,0.615945376508947,0.2616394706047649,0.0684095149922414,0.9854085940684847,-0.05364885975244306,-0.16104937114520648,-0.011058444922227219
331,3.31,2.126771527357185,-0.30595477138536137,0.9990958301692768,-0.3207176141753706,0.08359704556232085,-0.9434420189549753,0.5005030272621899,0.28742379693983633,-0.04677173249652666,0.9857416165991759,-0.043235855866116085,-0.16244217370278255,-0.005060962903793335
332,3.3200000000000003,1.6046758456639774,-0.3432534418036135,1.3161328141861437,-0.322876215108387,0.06958846122656429,-0.9438613814053751,0.3628133383874337,0.304729274693822,-0.16685101778680478,0.9858562270295685,-0.03491396516632817,-0.16382172496747405,0.0022695795767985875
333,3.33,1.0182150960738263,-0.43318784315179004,1.5112294749881672,-0.32560126452985577,0.061887426988607656,-0.9434749355558759,0.3374474838009285,0.3167654453646159,-0.3214790551886637,0.9857045030962523,-0.029638788277634227,-0.16546742010730145,0.010426088406333314
334,3.34,0.6675490919325399,-0.4734861018209107,1.547074118781267,-0.3290085331857577,0.059186540555967865,-0.9424684166265954,0.4115968185888018,0.30602232939346047,-0.4892904523228958,0.9853260924974208,-0.0268447143188065,-0.16746099338545312,0.01874108024812466
335,3.35,0.7529981050013118,-0.39858084551998896,1.5324658446426411,-0.3322616436457403,0.05784950580696826,-0.9414100679262545,0.41855642320169373,0.2823374746099021,-0.6570643073757141,0.9848672518094485,-0.024730979311814952,-0.16935653217929525,0.026952151320107226
336,3.36,1.2347378774423396,-0.28461734178031695,1.5493652724694253,-0.33460613684872065,0.05380820502934916,-0.9408166532644029,0.2587433134170068,0.39065689334832143,-0.8164558619762815,0.9844484450707879,-0.021188818944009192,-0.17069960963911357,0.03539703307271162
337,3.37,1.8216888505693134,-0.20159242799855084,1.6181528335699629,-0.33607945339615664,0.044624410506194555,-0.9407607753057914,0.06254306864742228,0.6190621512847231,-0.9793033163043113,0.984062721344808,-0.014918667649014953,-0.17142017978222426,0.04450797059079101
338,3.38,2.0346742317946314,-0.1675949394551014,1.751201813050042,-0.3371506344591563,0.03180195327381109,-0.9408904187257218,-0.026949531117386336,0.7687875881026561,-1.111791411225503,0.983592096490112,-0.006653216592005863,-0.17173493201976078,0.054475774232973936
339,3.39,1.7269140190421022,-0.15039656919262057,1.920968053659291,-0.3381624337084854,0.02006728983165976,-0.9408596790761,-0.00945645463703279,0.7326508075466113,-1.1531464364434796,0.9829340982850041,0.0011868258300774914,-0.1719194634272569,0.06513830195242931
340,3.4,1.115561683409398,-0.12851546154435023,2.1119830547398877,-0.3391546484175262,0.01342781703770608,-0.9406322583552197,0.03231384110664196,0.5680252215418264,-1.1060244935888282,0.9820742986714744,0.006534194209646679,-0.17215389016669927,0.07626518636186719
341,3.41,0.4770235250059325,-0.0965698624521521,2.2987964329491106,-0.3399332544854657,0.01349402223234264,-0.940351852188295,0.034334226683252894,0.37366959320477955,-1.0330721269932237,0.9810400643373689,0.008555903655792554,-0.17248394338357648,0.08777341492710798
342,3.42,0.0034104795262734633,-0.06905888341559636,2.4260333651715387,-0.3403095203534497,0.019422767029912514,-0.9401051146006978,0.027873474025916087,0.25120504616187944,-0.9474392530626012,0.979849873290658,0.007656340323529329,-0.17288138678388107,0.0995643789932253
343,3.43,-0.19942995411365078,-0.060826598074486884,2.493340754010737,-0.3403012442458894,0.028872018373506565,-0.9398594489288788,0.054677792208678244,0.2155560622326432,-0.8413665386901952,0.9784985415346439,0.00500056218887711,-0.1733288697725477,0.11151503428675123
344,3.44,-0.1768279915372705,-0.05694921722094804,2.5433774496538026,-0.33989457412885055,0.039215439237095896,-0.9396320329348355,0.08817986538007466,0.207351239683229,-0.7347520234035162,0.9769797794434313,0.0019171641245702596,-0.1737183106014876,0.12365365605592471
345,3.45,-0.14037871446926478,-0.04402556898566267,2.597515159252518,-0.33914032686098666,0.0493479567816317,-0.9394276420744083,0.06605881063702318,0.17051930527673453,-0.6199603426728982,0.975276350716265,-0.001022993114705862,-0.17402050739088995,0.13605678492462348
346,3.46,-0.21106253063697952,-0.019519680960026497,2.6533649968729436,-0.3379818806717464,0.05980317385810751,-0.9392356177472464,-0.0321859334946551,0.07982597546687158,-0.45644268313877107,0.9733779888887389,-0.0041000773421975036,-0.17424947671001287,0.14870393747813834
347,3.47,-0.41462706832086055,0.042190294592756396,2.676686027155218,-0.33613889810558795,0.07166121596720298,-0.9390610604111209,-0.17272133560824499,-0.048519363254961034,-0.20958376980181742,0.9713075768566672,-0.007916558437690945,-0.17436312105769822,0.1614056711136378
348,3.48,-0.6907710725546168,0.15623430109245562,2.6566498528244926,-0.33313119092163074,0.0857838584472106,-0.9389385789396971,-0.3516763941316517,-0.18724507629806847,0.09681512359345865,0.9691247979675834,-0.01300653377209892,-0.17422300340808838,0.17386259244948124
349,3.49,-0.8793635530534443,0.3200710126186009,2.618473543101978,-0.32843567278529173,0.10197892373564359,-0.9389637343767955,-0.5905592731025013,-0.2930190148684827,0.4009313606564364,0.9668911793229352,-0.019363536165599375,-0.17358452718583844,0.18592311306659665
350,3.5,-0.8577020250502788,0.49751870442718976,2.530804654069506,-0.321734780806904,0.11863815315018209,-0.9393246396439359,-0.8513222996207498,-0.34587559458827627,0.6331218361947129,0.9646734024306951,-0.02624284786235839,-0.17215229364364898,0.19757019854104474
351,3.5100000000000002,-0.6612267839747115,0.620917948795335,2.3113673059322637,-0.3133690181571147,0.13355752215759384,-0.9401570389290572,-1.0300370119398177,-0.36069899388617854,0.7487527421073873,0.9625811689400586,-0.03258818625183546,-0.16985011585053997,0.20853612251682588
352,3.52,-0.3668763822913797,0.6625500905165361,1.9663298082115548,-0.3042927535283517,0.14501816171334198,-0.9414514183870785,-1.0403753463961982,-0.3566357203740172,0.7488537160895821,0.9607564090250382,-0.037558253828978275,-0.1669032486013412,0.21829220940507885
353,3.5300000000000002,-0.0045317096719970085,0.6373536266757005,1.6020080146721616,-0.2954681712157676,0.1520324919002195,-0.943164602637022,-0.9210094274243259,-0.3562233175443968,0.690617674359578,0.9592915594282428,-0.040612775929620475,-0.16359786626783754,0.22655487759110057
354,3.54,0.3690062276152851,0.5683379952861037,1.2983473277567632,-0.28752199583730964,0.1543995087082875,-0.9452389762963573,-0.789001097769293,-0.36910569441994967,0.6317020048867046,0.9581676546518891,-0.04154522837639268,-0.16016096022495496,0.23350262882599448
355,3.5500000000000003,0.6251087253234426,0.46790643576644153,1.061364295110974,-0.280792376857031,0.1528723424082488,-0.9475086379517664,-0.6910715575058695,-0.39768360824606064,0.5984830830743462,0.9572987228779282,-0.04062887815511463,-0.15681726567201437,0.23942750941663435
356,3.56,0.6800115808955236,0.34065605638172003,0.8530822140395915,-0.2755066582308389,0.14920522921623855,-0.94964369846359,-0.5991110615253242,-0.4545096629343299,0.5970739424532463,0.9565914029557429,-0.03866942720041399,-0.1538823822528742,0.24443661892557883
357,3.5700000000000003,0.6259219062950095,0.20118812463797475,0.6343800781325761,-0.2718395162275677,0.14499803342601264,-0.9513525691953308,-0.4868256083993225,-0.5258297777859342,0.6177960912500393,0.956005943998137,-0.0364287279260942,-0.1516393425136017,0.24844673359186278
358,3.58,0.584165252965589,0.06492547732771006,0.40109830342757397,-0.2698415583066721,0.14065338736271826,-0.9525736480736477,-0.36301373155836525,-0.5684808000615872,0.6478332609870607,0.9555669840083096,-0.034098908728306974,-0.15016218588293986,0.25135063013072495
359,3.59,0.5739832909747424,-0.05567189536563463,0.16473977704805798,-0.2694130593872338,0.135903305689274,-0.9533836637229844,-0.25378706920274174,-0.5578302945838162,0.6772659268132448,0.9553084345021619,-0.031551547821748564,-0.14936793437250392,0.25313491252945786
360,3.6,0.5629692962122137,-0.15148045244361574,-0.08512444984778199,-0.27036497685282046,0.1305733969824478,-0.9538578314039448,-0.16967811334500843,-0.507519454242089,0.7078880097622382,0.9552645061926537,-0.02872369365137501,-0.14914363421070276,0.2537689361254016
361,3.61,0.5584344044164986,-0.220754415126663,-0.3446547310578878,-0.2724408878917734,0.12464570783269997,-0.9540587077238717,-0.11069430178603284,-0.4439606388042497,0.736570880891142,0.9554712705151776,-0.025647759244851964,-0.1493661160367906,0.2531869052828368
362,3.62,0.5803644684736986,-0.25229532547317873,-0.602580451884609,-0.27529608368769437,0.11793538703114874,-0.9540900467993028,-0.07533572350542009,-0.3759963804454771,0.7607162662758583,0.9559554444660499,-0.022280140301048187,-0.14985103020135146,0.251381451709
363,3.63,0.6309894605167436,-0.24317663031789313,-0.8596226145328938,-0.27850737693773003,0.11013486346294846,-0.9540877147188047,-0.0633154553381583,-0.3127542066306725,0.7724066714845081,0.9567405501888914,-0.018524538777272823,-0.15036274575758732,0.2483701728292708
364,3.64,0.6832076854645985,-0.20515866399439084,-1.1146758239257668,-0.2816892812599983,0.10109538367232859,-0.9541513573164858,-0.07059713186715585,-0.25446473775035894,0.7627207265097985,0.9578384282660404,-0.014357228612684339,-0.1507095058046183,0.2441614463957065
365,3.65,0.7078725560750576,-0.14818622341140386,-1.3598146515938099,-0.28456890958524006,0.09093213094741655,-0.9543172093995065,-0.08866104607006171,-0.18510074749484517,0.7489593549942596,0.959238414831395,-0.009865136923004766,-0.15079353788087185,0.2387685766178966
366,3.66,0.6755632524304946,-0.07017888435554505,-1.5898623178783073,-0.2868842283812352,0.08003840766585636,-0.9545988728395857,-0.11904969641024828,-0.11861206897637039,0.7402261699017352,0.9609178892163668,-0.005265137744438084,-0.1505573069392756,0.23221185676352876
367,3.67,0.5311337819237869,0.03489529646007418,-1.7840935766213695,-0.28832041944246317,0.069330504507259,-0.9550066817743731,-0.1708896384160371,-0.086578096626751,0.7181837598532925,0.962842733892973,-0.0010288777191018502,-0.1499722344663007,0.22454164815021468
368,3.68,0.3130659793344541,0.15926405932204996,-1.904310499034539,-0.28858110427995315,0.0599343079847012,-0.9555681926360101,-0.25034733952281096,-0.06207055854679951,0.6603380439206337,0.9649495554370396,0.00229646414363983,-0.1490248468524097,0.2159507941180894
369,3.69,0.05325252432557001,0.2701034957141551,-1.9600076680276,-0.2875843855593968,0.05258436714778241,-0.9563052786206736,-0.3515314518826679,-0.011042738725404178,0.5522293497636481,0.967153337221147,0.004399245703951563,-0.14773957982720087,0.20674410178301733
370,3.7,-0.2591160469568579,0.30461956085436664,-1.9859317853590057,-0.2857664313414251,0.047880646349662326,-0.9571005116243216,-0.4638925040191808,0.049271776971149914,0.3816819333730375,0.969364415568601,0.0050707559541891874,-0.14636805355372373,0.19712259205722513
371,3.71,-0.5217319510137992,0.2423308126977984,-2.0334021664853323,-0.2840305941637087,0.045967518965898485,-0.9577123719236644,-0.575007402066696,0.13268632017533408,0.14099910199087987,0.9715026971417972,0.004337860902097208,-0.14534226253516275,0.18711303202631646
372,3.72,-0.6091659808846309,0.1239958754671219,-2.203775908390215,-0.28321646886145935,0.04552196284397018,-0.95797501345652,-0.655388873535757,0.2644498802352293,-0.14845369813871495,0.973561559579439,0.0028878779802418955,-0.1449260977720472,0.17644556048870014
373,3.73,-0.5142487113186227,-0.015887288481662043,-2.514139030530706,-0.2837584028992917,0.044317784073468355,-0.9578702126126354,-0.676401822313881,0.4282182545680686,-0.4424895948330476,0.9756084791523534,0.0017655263608323893,-0.14512615899461498,0.16456486873172751
374,3.74,-0.3328917488606903,-0.13344030786452496,-2.8264879595798855,-0.2856320456306157,0.04075566140400367,-0.9574679994917594,-0.6416547973030625,0.5852994090503592,-0.7003433114174266,0.9776626567333212,0.001702905291985954,-0.14581765521379347,0.15119056098220984
375,3.75,-0.256154838476242,-0.1934000400706839,-2.9861367382574864,-0.2883347980606645,0.03506698503397274,-0.9568809419157818,-0.6092257501778245,0.648968749798151,-0.8808922059276084,0.9796419586748891,0.002582491452893081,-0.14680680971572319,0.13669667660000634
376,3.7600000000000002,-0.41527814373357524,-0.21258290427792573,-2.9395586287251074,-0.291243773718771,0.029541930674418543,-0.9561888711339238,-0.6381449880352549,0.562176269982605,-0.9683406070821985,0.9814219701378384,0.003317788045691002,-0.14796673330147997,0.12186362048300321
377,3.77,-0.67689885576861,-0.21759552725697762,-2.746861278787991,-0.29408600432804144,0.026403421881022238,-0.9554128466048962,-0.6910248362759374,0.4156298518606169,-0.9918157709616433,0.9829093373467368,0.0028842633665619784,-0.14927948603566946,0.10745682514179863
378,3.7800000000000002,-0.8777085319340462,-0.20848479789041593,-2.4831505892493775,-0.2968202904617233,0.026163461768964363,-0.9545736551770875,-0.7016080434552492,0.31372981253782617,-1.004672572811305,0.9840787329266917,0.0010968446526619887,-0.15069819096589582,0.09399620238440078
379,3.79,-0.9270510047832601,-0.176856698748319,-2.2203558887416053,-0.29931527318160256,0.027847486040203477,-0.9537464367663091,-0.6564411185847296,0.2840782290339894,-1.042631656620849,0.9849668892058638,-0.0015209786947455804,-0.15205970000716898,0.08173523771042865
380,3.8000000000000003,-0.8492109193761339,-0.13375119135145264,-1.9954472279895792,-0.30141420139560426,0.02999803184314623,-0.9530202497382766,-0.5447427717965158,0.3290855012544753,-1.081479905045149,0.985640853363502,-0.004233624049662266,-0.1531995040163402,0.07068124102188592
381,3.81,-0.7668184584788151,-0.05066092692324051,-1.7885796426902172,-0.30293092681832545,0.03192889468222575,-0.9524769262023665,-0.3664046028444543,0.36789499908744266,-1.075628889731619,0.9861679525588412,-0.006703312433104164,-0.15399746394167688,0.0607462027049154
382,3.8200000000000003,-0.7727229715151753,0.10836872778577802,-1.6083342269807317,-0.3032909436789326,0.03400552328488814,-0.952290154568541,-0.17330644644416188,0.2859889507594582,-0.9995549576474253,0.9866337628061197,-0.009140384686688197,-0.1541741986841076,0.05178276024346312
383,3.83,-0.8262566862018136,0.3273733889187761,-1.4429557256127326,-0.30180240082716475,0.036953558274656365,-0.9526513222973804,-0.01326675855813228,0.11043344998627973,-0.8649474223352543,0.9871208433667997,-0.011934640984151949,-0.15339199614823862,0.04363163698459247
384,3.84,-0.8360508729818869,0.571602260405029,-1.3139691675214495,-0.298068581462271,0.040748314560110625,-0.9536685710288699,0.12054417960348907,-0.05252793647410627,-0.6888308068871669,0.9876806055205247,-0.015075625494642766,-0.15144026156627569,0.03618031004099348
385,3.85,-0.7976803258810043,0.8431845407429038,-1.2367282844065437,-0.29187477340941737,0.04480009504549738,-0.9553965524234654,0.24226441288490927,-0.16318986875722408,-0.477974420441312,0.9883491472525453,-0.018277109434089542,-0.14819355223404151,0.02920987737411695
386,3.86,-0.6723029477349121,1.131826242078294,-1.1589541172759616,-0.2829928084331529,0.048414176374233946,-0.9578831775673362,0.3390165758428949,-0.18859363427789422,-0.2553139169719606,0.9891509058444001,-0.02117832469616938,-0.14353051328260105,0.022641396474234226
387,3.87,-0.44665196295073817,1.4060712584401605,-1.0605900699931845,-0.2713539415211796,0.05073651619916854,-0.9611177580388021,0.39528546852873503,-0.132288862166886,-0.053592781966056866,0.9900885216645501,-0.023307341211196344,-0.13742590005867814,0.016607456398955448
388,3.88,-0.1841825290127877,1.6119771420751652,-0.9809861217856212,-0.2572922356878966,0.05107171689930151,-0.964952626106933,0.41945405207545217,-0.06301675364203464,0.09669095895054178,0.991133296193688,-0.024289626625873577,-0.13007241353839685,0.011163605120543499
389,3.89,-0.006728058252301265,1.7117622139818467,-0.9516772213997776,-0.24166986388380352,0.04950671414211748,-0.9690605914853152,0.437477371375104,-0.020339295287950768,0.1941606472056478,0.9922130174604921,-0.024184258683160792,-0.1219355536189904,0.006134103808990396
390,3.9,0.08221881515854114,1.7167450689673984,-0.9973789272923165,-0.22544512148476226,0.0468359679516634,-0.9730953582586218,0.47505166571320706,-0.0034980740241827915,0.24369694570068104,0.9932472223654853,-0.023438030936785634,-0.11351875237739062,0.001131875609139741
391,3.91,0.15128571238043328,1.6304857056001993,-1.044387615444591,-0.209534356099309,0.04347083726084051,-0.9768040840255403,0.5339772933084997,0.017478575178431533,0.24726688309780595,0.9941724049578786,-0.022285589093022928,-0.10529305668119099,-0.004080119234393882
392,3.92,0.19138597385835832,1.4817862310441512,-1.0403110087677354,-0.19471474965041166,0.03962639682793263,-0.9800341683354356,0.5951924967993786,0.044366750511845535,0.2586297134234795,0.9949487749005531,-0.020824692559934473,-0.09765860645297599,-0.009364187194050766
393,3.93,0.1694454040094145,1.30827668619018,-0.9673648618780303,-0.1813927851260186,0.0358775485358425,-0.9827370796963757,0.6360022099975047,0.053745284788488557,0.3194985231963542,0.9955675892690922,-0.01932928796419226,-0.09082201336200615,-0.014439097296832737
394,3.94,0.12950656538918479,1.126730120750916,-0.8198351735478233,-0.16971324437020158,0.03277282436297867,-0.9849346466357051,0.627369880031004,0.051931846048280494,0.43726540884986886,0.9960443927348651,-0.01806156470427304,-0.0848513685305712,-0.018955221823907666
395,3.95,0.11877742646015486,0.9533028895285165,-0.6277028335630189,-0.1596853888909749,0.030244927570978852,-0.9866947739496144,0.5889568047890127,0.041687528582027865,0.5942888219526352,0.9964105531216796,-0.016983979649803364,-0.07974579675544714,-0.022615002596064315
396,3.96,0.1292802524119055,0.7894813372934817,-0.39067052823728704,-0.1512310101776921,0.028140817830761007,-0.9880912135564078,0.5516675914452441,0.013099032390766619,0.7445183005398204,0.9966996749946707,-0.016022996129242465,-0.07546144379399718,-0.02519263655203791
397,3.97,0.17005706918471178,0.6178960787367439,-0.11628147500919216,-0.14435000432998796,0.026243893115428518,-0.989174514574912,0.5215088762125918,-0.003260729429809237,0.8708249281621692,0.9969382857922958,-0.01507439728746178,-0.07199646721253755,-0.02647938714230928
398,3.98,0.23052979845220242,0.429477250541589,0.20838270881862997,-0.13914885041947983,0.024309069207223463,-0.9899709215296826,0.49388246625319004,0.011897781877823723,0.9590941081464185,0.9971442319072342,-0.014016024384575628,-0.06940464727503941,-0.02623484704122942
399,3.99,0.30544682030272435,0.25929198783063045,0.5441756460778517,-0.13567199600278707,0.022203942524259303,-0.9905037643553415,0.4722533327029913,0.04663637526270231,0.9927587636268835,0.9973264071531933,-0.012781287264208116,-0.0677056808001718,-0.024286688079179865
400,4.0,0.4743192929087327,0.10361002207749548,0.8712332770864932,-0.13374139599176568,0.019355595734476715,-0.9908255300027073,0.45057077229746345,0.09085977811981154,0.9673912480516922,0.9974877817421536,-0.01108497705616843,-0.0668074274387585,-0.020639897657302488
401,4.01,0.7313201158592864,-0.0507086862959587,1.201288894441254,-0.13329977420773328,0.014791642217745812,-0.9909613512486616,0.4080020104600773,0.15347139958840111,0.8931901564940192,0.9976161822625939,-0.008434112589604437,-0.06667512639402463,-0.0152787291335715
402,4.0200000000000005,0.9823958641383893,-0.24339773172933113,1.516424714540885,-0.134569821078976,0.008086422088065403,-0.9908636227540918,0.38219469105089693,0.24458114960110836,0.7834957667416338,0.9976726056326307,-0.004604066806503826,-0.06739633227045748,-0.008199538322658195
403,4.03,1.1092171198511136,-0.4655912114412714,1.7364193600994717,-0.138006726096904,-0.00012749882509420236,-0.9904210392000652,0.4129604582019528,0.34053595345468884,0.6530317974256029,0.9975936755216752,9.020010839000305e-05,-0.06916064817000876,0.00030757687508919723
404,4.04,1.176312758229276,-0.6582657287532954,1.8562672808055714,-0.14366974391285348,-0.008892513183933111,-0.9895720774984305,0.4839265346671797,0.41591103407183094,0.5099569642049848,0.9973329644017553,0.005164298599153322,-0.07196665286874178,0.009686526168659993
405,4.05,1.3361445110671597,-0.7927858474355692,1.9251922829082928,-0.15114726229735054,-0.018480784167040423,-0.9883197939757846,0.5531949149857205,0.4778207417521355,0.397908085729736,0.9968737026941996,0.010761140511284678,-0.07558759125092904,0.019558148632421817
406,4.0600000000000005,1.4931840653222404,-0.8300181886833051,1.9989179137679263,-0.15970710231212865,-0.02945534502643675,-0.986703530193767,0.5872299873178103,0.5139973539589862,0.3181785446079995,0.9962134089263551,0.01717594468669618,-0.07962951753183807,0.02981185453271227
407,4.07,1.459559603662258,-0.7551733761810994,2.1379026410440876,-0.16830837824316225,-0.04081986463077369,-0.9848722902545853,0.5549075093009751,0.5134621067046076,0.24381812597020663,0.9953699716632123,0.023923490786387867,-0.08355648965841166,0.040618022017321995
408,4.08,1.025324207539709,-0.6388775727774408,2.3335692056830983,-0.17618160082657014,-0.049469428752009534,-0.9831071572032838,0.47091323515590167,0.4625477538994556,0.15611139018195352,0.9943853776514293,0.029449971468729665,-0.08703565978216486,0.05218693203297934
409,4.09,0.29414782131600026,-0.5397472213669382,2.5122668845958547,-0.1831732283218669,-0.051652847819041635,-0.9817174648979933,0.39253023237643087,0.36824929481298735,0.03775297149687011,0.993316026280274,0.03185447385055413,-0.09013823536886598,0.06443832682657982
410,4.1,-0.3051249090151769,-0.4869777180091361,2.604527300674655,-0.18943177590076918,-0.04663297737244185,-0.9807752012161904,0.34198838842598783,0.3011250028476158,-0.12846995240750148,0.9921772986010773,0.030738437021515106,-0.09308219151967774,0.0770885773684378
411,4.11,-0.4535518510343043,-0.4299611448409771,2.520654776808125,-0.1950124852482266,-0.037607863207835796,-0.9800701399118575,0.30010968901144597,0.2825421067153662,-0.3754120172690465,0.9909510631333543,0.027650389578671695,-0.09590405591458992,0.08958350410869068
412,4.12,0.007379421330710623,-0.3808092506299936,2.3257908187201757,-0.19982642714202972,-0.030248759645691316,-0.9793621888482548,0.26479819079216566,0.36904197159812735,-0.69165729966594,0.9896328778490427,0.02536664270058137,-0.09836028826390257,0.10141648957498085
413,4.13,0.9407507027212058,-0.2969650568431099,2.1929759437669087,-0.20387271548997965,-0.03021002114150956,-0.9785248974695278,0.21692247345364657,0.5788277057023825,-1.0058102530185054,0.9881966644679986,0.026707032584192957,-0.1000973160300057,0.11272639342992877
414,4.14,1.8213919807223358,-0.20867165195241394,2.2412180775224235,-0.20709223321016101,-0.03939934540824763,-0.9775087639202602,0.13407217522188133,0.7774997129634843,-1.2583675492683077,0.9865497410168396,0.03267346671282151,-0.10082337461131906,0.12429139944249425
415,4.15,2.059951744537659,-0.1278626806412839,2.409986340731394,-0.20982371259553323,-0.05396320906579589,-0.9762304972098905,0.038436252492056865,0.8154329405441738,-1.3887000793403943,0.9845803623336338,0.04140041851240921,-0.10078736030780061,0.13670276389988786
416,4.16,1.6432943702296714,-0.09781355208035816,2.5975152997169966,-0.21240661998942317,-0.06716352703121964,-0.9748647611985967,0.007368048737226204,0.6061845723944383,-1.416724518500228,0.9823029348363853,0.04953634289149814,-0.10054302998254198,0.1499417361443609
417,4.17,0.762784523771865,-0.08770139259801617,2.7251149677362267,-0.21519890878747389,-0.07329145216808006,-0.9738153216778074,0.07819093935481197,0.19364883487229645,-1.3846282000449088,0.9798536368055928,0.05422370610993568,-0.10075609587993742,0.16359748010627118
418,4.18,0.14883200558306048,-0.08426676650466404,2.7603224770664805,-0.21805312102732416,-0.07152045472477637,-0.9733096364864049,0.2051570029169064,-0.17921043108493528,-1.3298523512400044,0.9773475349306021,0.055013220127291075,-0.10157924955338092,0.1772511612049707
419,4.19,-0.06997421522189311,-0.05492579747362074,2.7467550753748546,-0.22059787598561242,-0.06566539370094034,-0.9731482397392852,0.29636701825104894,-0.32394191366382374,-1.263502924110305,0.9747779536302519,0.05376034964025383,-0.10264098271980968,0.1906686760174116
420,4.2,0.0307146036480903,-0.01979282574154772,2.7355487126874944,-0.22263736601903197,-0.05928330783763465,-0.9730948283078515,0.30214494284576676,-0.2867467785398323,-1.18865025593791,0.9720660193070937,0.05222573218057721,-0.10356084308793682,0.20398036806741965
421,4.21,0.14134508986539088,0.03025843139677879,2.7316645605171432,-0.22413532525730628,-0.054068843481889235,-0.973055536264031,0.19513600026352262,-0.18847124172868024,-1.0388763301563773,0.9691655790371199,0.05124534891565991,-0.10414455942535165,0.21730006556069498
422,4.22,0.27726743201323795,0.11620073606329745,2.7082948131370537,-0.22486612491547822,-0.049952436939692466,-0.973107909325486,-0.0231233372169171,-0.1979431795353249,-0.8522187142455261,0.9661034707453452,0.050738346016281966,-0.10426715598787635,0.2305915403116703
423,4.23,0.4911799872048639,0.24547477605415768,2.6703854074258935,-0.2244230669500919,-0.047615371799736156,-0.9733276375534436,-0.2799710080762214,-0.21508188927717176,-0.6561658630697225,0.9629098565743321,0.05096134761350976,-0.10362784459012653,0.24381117828341847
424,4.24,0.6589442324584557,0.4026243064437457,2.611120943137648,-0.22253472408965722,-0.047374172437051665,-0.9737722794887108,-0.5216652071969896,-0.2041713303074247,-0.4131123875663691,0.9596180829705959,0.05199373555281066,-0.10202684200529034,0.2568977884153658
425,4.25,0.7094232623404807,0.5541422176004096,2.5032532400814125,-0.21908770934062285,-0.048517360441515646,-0.974496542017181,-0.7094591052719558,-0.21956051400033808,-0.08425080139529473,0.9563049614000092,0.053414009796588016,-0.09948488787245148,0.26964633639178315
426,4.26,0.6042810934013209,0.6805287258093422,2.3161341722824433,-0.21421588149063328,-0.04969332834203939,-0.9755191824101576,-0.8116435893062619,-0.2895810249011037,0.26909248421415377,0.9531077939817237,0.05451202878939865,-0.09626643394879174,0.2816538552498957
427,4.2700000000000005,0.47524114737232215,0.7558276225322655,2.0901836046084465,-0.2082725442388968,-0.050357028493494896,-0.9767710190808889,-0.8406569537086387,-0.347328871232503,0.5587219481994912,0.9501327611745615,0.05502973780242028,-0.0926532327648127,0.292610429419698
428,4.28,0.36833368737286726,0.7433432221528384,1.81316683543538,-0.20187345729290848,-0.050381579031100764,-0.9781126010823019,-0.8217406054144913,-0.3424138109762099,0.732989940764836,0.9474566128551244,0.05497712812485482,-0.0889934238540229,0.30228068294525284
429,4.29,0.3779063371297827,0.6756491770522252,1.481889707707751,-0.19573640881734952,-0.05067828797454735,-0.9793442356031826,-0.75757400822536,-0.2556618602411035,0.8052145460637203,0.9451375802276755,0.054897323945502084,-0.0855157173756005,0.31045412234861053
430,4.3,0.49626977821683693,0.5785773321785452,1.1209579560945344,-0.19021946838308812,-0.05241907347112226,-0.9803393342515738,-0.6667423194648127,-0.12932985288316573,0.8014858808986988,0.9432439506484528,0.05541023376226606,-0.08221226232438146,0.3169505528582821
431,4.3100000000000005,0.6293797157963452,0.42796643414631286,0.7937772733892208,-0.18577239538455512,-0.0561889686472393,-0.9809830898572836,-0.592517224120434,-0.00019063356445949559,0.7819191611208408,0.9417642773011099,0.056891404964223465,-0.07918771559932063,0.3218232768267153
432,4.32,0.6285238265238917,0.2532010137337488,0.4958752407914037,-0.18279986047124425,-0.061301741381600605,-0.9812357946047707,-0.5539824264060283,0.08915372144324722,0.7958553589887355,0.9406714452477732,0.05910986254010591,-0.07672909088478556,0.32519949089166733
433,4.33,0.48558362498196117,0.0774376113480404,0.21934361528815474,-0.18140976892620675,-0.06623203587641398,-0.9811740166081668,-0.5194575785809393,0.08092229264552825,0.8585110170031895,0.9399838399073533,0.06137898950035848,-0.07513484092625278,0.3271349141463612
434,4.34,0.2971567575445421,-0.09430564699821423,-0.04024349585176,-0.18155611506364877,-0.07001548795445452,-0.9808845044802692,-0.47947472023732374,0.018182322003886475,0.9484549030748404,0.939712115840384,0.06324913659321371,-0.07454599494787663,0.3276938604224908
435,4.3500000000000005,0.14672687869451162,-0.2529443754876844,-0.276924540900126,-0.18317203056786555,-0.07247534788250364,-0.9804052409536846,-0.4442410431020101,-0.03709677085304139,1.0365028520756518,0.9398372442620373,0.06463636621379756,-0.07496200705438408,0.3269682924807241
436,4.36,0.0335433089763444,-0.3795261531008595,-0.48627917604138526,-0.18600574590941907,-0.07405208579152307,-0.9797535081710725,-0.413358723611519,-0.0643589310593063,1.1135053901035157,0.9403152721311865,0.06571534033340679,-0.07618678844934433,0.32508952488331583
437,4.37,-0.02961445141623994,-0.47642650188945346,-0.6730760916952516,-0.18978137188652494,-0.07516469427628866,-0.9789442333178198,-0.38897027459157785,-0.05889228574288228,1.1879249530754923,0.9410872263380832,0.0666450941884477,-0.0780122854857865,0.3222203143179943
438,4.38,-0.06688423171472493,-0.5446612951385313,-0.8577318325256187,-0.19421736340743598,-0.0761772384270783,-0.9779953903280689,-0.36471335042258385,-0.04377138715702691,1.2323522751993665,0.9421240986138508,0.06754917391077613,-0.08024311608490181,0.31843113635372994
439,4.39,-0.11197694723282427,-0.5896123317285973,-1.0234256531037271,-0.19905333609439302,-0.07714267577699273,-0.9769468695888913,-0.3434579658102025,-0.05444686834236772,1.2409011925964848,0.9434128540657497,0.06840365678736575,-0.08274693705318174,0.3137575788291458
