time,seconds_elapsed,rotationRateX,rotationRateY,rotationRateZ,gravityX,gravityY,gravityZ,accelerationX,accelerationY,accelerationZ,quaternionW,quaternionX,quaternionY,quaternionZ
1681143417954177000,0.074177001953125,-0.16453231871128082,-0.07451196014881134,-0.27614831924438477,0.15647365152835846,-0.3340687155723572,-0.9294697642326355,-0.04279571771621704,0.06922200322151184,0.018459022045135498,0.9822090898895224,0.17005987573798964,0.07965394236405252,9.54269965354655e-18
1681143417964235000,0.084235107421875,-0.13551250100135803,-0.04707445949316025,-0.31829923391342163,0.1568903923034668,-0.33216869831085205,-0.9300802946090698,-0.03932146728038788,0.10046407580375671,0.0032919645309448242,0.982363531660854,0.16918347144177584,0.07960403914735331,-0.0014486671538830982
1681143417974294000,0.0942939453125,-0.060648392885923386,-0.02980678714811802,-0.3514159023761749,0.15767686069011688,-0.3307202458381653,-0.9304633736610413,-0.03240223228931427,0.12573379278182983,-0.00915759801864624,0.9824571099491592,0.1685646621472438,0.07971362292554676,-0.0031039245697201956
1681143417984353000,0.10435302734375,-0.0020804721862077713,-0.0199064202606678,-0.35137122869491577,0.15860877931118011,-0.32990318536758423,-0.9305950403213501,-0.023248106241226196,0.1437002718448639,-0.007423758506774902,0.9824834574224983,0.1682874965996441,0.0798861585112087,-0.004858112787765509
1681143417994410000,0.114409912109375,-0.012960284017026424,0.008517232723534107,-0.3362881541252136,0.1597110629081726,-0.32934287190437317,-0.9306049942970276,-0.004468187689781189,0.14790073037147522,0.012636184692382812,0.982476083560407,0.1681441649610513,0.08015640572721752,-0.006564490954300528
1681143418004469200,0.12446923828125,-0.09782145917415619,-0.0036081885918974876,-0.3050715923309326,0.1608065515756607,-0.328342467546463,-0.9307698011398315,0.004507154226303101,0.1277809739112854,0.02505391836166382,0.9825399609433453,0.16708861468462471,0.08183207044695379,-2.9819480579454873e-18
1681143418014528000,0.134528076171875,-0.1917269080877304,-0.01641666144132614,-0.2725410759449005,0.16165000200271606,-0.3265405595302582,-0.9312574863433838,0.0059525370597839355,0.09973394870758057,0.043821632862091064,0.98266304970497,0.16626558771352098,0.08201835336454237,-0.0013748932136538941
1681143418024586200,0.144586181640625,-0.263246089220047,-0.029813991859555244,-0.24876916408538818,0.1623046100139618,-0.32398051023483276,-0.9320374727249146,0.017337113618850708,0.07842081785202026,0.05639660358428955,0.9828590840855155,0.16503256202136363,0.08213112306983406,-0.0025994149389640805
1681143418034645000,0.15464501953125,-0.31501874327659607,-0.05591537058353424,-0.22345341742038727,0.1626691222190857,-0.3208911120891571,-0.9330421686172485,0.0117083340883255,0.06848019361495972,0.050412774085998535,0.983111152465891,0.16350883264818894,0.08212057337119043,-0.003675101006099498
1681143418044704300,0.164704345703125,-0.34884002804756165,-0.07130199670791626,-0.23204058408737183,0.1627885103225708,-0.3174062669277191,-0.9342125654220581,0.0182570219039917,0.06545311212539673,0.042458415031433105,0.9834043147523543,0.16177385508361067,0.0819934747367088,-0.004707318701966302
1681143418054763000,0.174762939453125,-0.3645939528942108,-0.07594016194343567,-0.2439987063407898,0.16286586225032806,-0.3136301040649414,-0.935473620891571,0.029425397515296936,0.05584806203842163,0.035388171672821045,0.9837190230397178,0.1598929148961314,0.08183796939716148,-0.005799897390231483
1681143418064821000,0.184821044921875,-0.3420787751674652,-0.08443933725357056,-0.2521165609359741,0.16286993026733398,-0.30989861488342285,-0.9367156624794006,0.034685611724853516,0.05156731605529785,0.033685266971588135,0.9840273120850106,0.15804007176850884,0.08164253654283651,-0.0069379935787427065
1681143418074880000,0.1948798828125,-0.3047255575656891,-0.09123679250478745,-0.25801438093185425,0.16283318400382996,-0.30642810463905334,-0.9378631114959717,0.037713080644607544,0.05078232288360596,0.04214167594909668,0.9843095481890763,0.15632976659149478,0.08142150864733523,-0.008140649407947663
1681143418084939000,0.20493896484375,-0.2956433892250061,-0.09867005795240402,-0.25254732370376587,0.16271094977855682,-0.3032021224498749,-0.9389321804046631,0.03806421160697937,0.03774493932723999,0.055387258529663086,0.9845702241825858,0.15474798008127988,0.0811602010637648,-0.009354282961580088
1681143418094997200,0.214997314453125,-0.3166211247444153,-0.10530958324670792,-0.2361910045146942,0.162501722574234,-0.2999056875705719,-0.9400264620780945,0.038487061858177185,0.012887835502624512,0.07399863004684448,0.984836178246518,0.15312582954785975,0.08086563970967489,-0.010523739050690893
1681143418105056000,0.225055908203125,-0.3354395031929016,-0.11414388567209244,-0.20842376351356506,0.16214339435100555,-0.2964640259742737,-0.9411793947219849,0.03419145941734314,-0.016997307538986206,0.09555256366729736,0.985117105515564,0.15141751857670976,0.08051738861909609,-0.011574895603268876
1681143418115115300,0.235115234375,-0.3240278661251068,-0.11424241960048676,-0.17334620654582977,0.16159097850322723,-0.29299983382225037,-0.9423584342002869,0.026076868176460266,-0.03817695379257202,0.11293649673461914,0.9854053777254184,0.1496832499759828,0.08009806488377419,-0.012469171429795032
1681143418125173000,0.245173095703125,-0.29817435145378113,-0.11696705222129822,-0.13402202725410461,0.16096414625644684,-0.2898004651069641,-0.943454384803772,0.022461771965026855,-0.040689677000045776,0.13043564558029175,0.9856740009175978,0.14807223905737035,0.07967060577857693,-0.013188334755326641
1681143418135232300,0.255232177734375,-0.26973816752433777,-0.12932971119880676,-0.0698009580373764,0.160101056098938,-0.2869457006454468,-0.9444732666015625,0.009378314018249512,-0.03541150689125061,0.14314275979995728,0.9859257681918785,0.14661882823015268,0.07915978667317186,-0.013673942740677866
1681143418145291000,0.265291015625,-0.2750191390514374,-0.12681323289871216,-0.01513857115060091,0.15899863839149475,-0.28431376814842224,-0.9454549551010132,-0.002443462610244751,-0.033938825130462646,0.16092437505722046,0.9861719805595345,0.14525510246585124,0.07857141728498605,-0.013867961729349041
1681143418155348200,0.27534814453125,-0.30232664942741394,-0.11512968689203262,0.03448464348912239,0.15782560408115387,-0.28159230947494507,-0.9464654326438904,-0.01346220076084137,-0.04285535216331482,0.17232602834701538,0.9864290435418578,0.1438239323719309,0.07798689718824621,-0.013796485320019375
1681143418165407500,0.285407470703125,-0.3174847960472107,-0.09436490386724472,0.0833282396197319,0.15666154026985168,-0.27873533964157104,-0.9475039839744568,-0.02876235544681549,-0.04980167746543884,0.1778506636619568,0.986697001107927,0.14230244052629532,0.07744696885896189,-0.013450790026570196
1681143418175466200,0.29546630859375,-0.3315068781375885,-0.06648506969213486,0.12666238844394684,0.15560150146484375,-0.2758147716522217,-0.94853276014328,-0.034248337149620056,-0.046588242053985596,0.17848271131515503,0.9869655209394934,0.14073189388717497,0.07699452247053877,-0.01285997724373369
1681143418185525500,0.305525390625,-0.33815062046051025,-0.05722449719905853,0.15616947412490845,0.15462245047092438,-0.2728450298309326,-0.9495512247085571,-0.036870360374450684,-0.03674057126045227,0.16866743564605713,0.9872335846194423,0.1391223750418155,0.07661177927983706,-0.012057754138618117
1681143418195583200,0.315583251953125,-0.340188205242157,-0.049417972564697266,0.16930259764194489,0.15366384387016296,-0.2698703706264496,-0.9505563378334045,-0.03188343346118927,-0.022549092769622803,0.16051733493804932,0.9874987509333613,0.13750441475055433,0.07625190342424835,-0.011150616843448613
1681143418205642500,0.325642578125,-0.34400638937950134,-0.04135315492749214,0.16791242361068726,0.15276305377483368,-0.2668532729148865,-0.9515528082847595,-0.02536742389202118,-0.020958006381988525,0.1509242057800293,0.9877611109654655,0.1358646288021981,0.07592361318584122,-0.010209698046824036
1681143418215701200,0.335701171875,-0.3264111578464508,-0.03750195726752281,0.15746882557868958,0.15194378793239594,-0.26390835642814636,-0.9525048136711121,-0.020763978362083435,-0.020408689975738525,0.13887572288513184,0.9880110901109967,0.13426676261458453,0.07563081839383745,-0.009293508733812104
1681143418225759200,0.34575927734375,-0.3032108247280121,-0.035629771649837494,0.13953222334384918,0.15121053159236908,-0.2611141502857208,-0.9533911943435669,-0.015620917081832886,-0.018930435180664062,0.1255255937576294,0.9882428317865972,0.1327556742053174,0.07536800342784274,-0.008461982984055682
1681143418235818500,0.355818603515625,-0.27987992763519287,-0.047145016491413116,0.1264214813709259,0.1504744291305542,-0.2585064470767975,-0.9542179107666016,-0.009681567549705505,-0.020500540733337402,0.11557966470718384,0.9884580205746968,0.1313490479384716,0.07508968828351072,-0.007721472061069789
1681143418245877200,0.365877197265625,-0.257171630859375,-0.04872513189911842,0.109100341796875,0.14971645176410675,-0.25611332058906555,-0.9549821615219116,-0.0075808316469192505,-0.020284414291381836,0.11155259609222412,0.9886561775888973,0.13006077016745934,0.07478711545820317,-0.007069663250330312
1681143418255935500,0.375935546875,-0.26568177342414856,-0.04568140581250191,0.10325443744659424,0.14898717403411865,-0.2537901699542999,-0.9557161331176758,-0.010269522666931152,-0.04073500633239746,0.10825830698013306,0.9888458415722999,0.12881448219568742,0.0744899455103615,-0.006478426513173402
1681143418265994200,0.385994140625,-0.2760898172855377,-0.06161272153258324,0.09508013725280762,0.14822562038898468,-0.25134608149528503,-0.9564801454544067,-0.011781513690948486,-0.06582313776016235,0.10145395994186401,0.9890425109002091,0.12750905502537346,0.07417113490608075,-0.005916462326234729
1681143418276053500,0.396053466796875,-0.29188182950019836,-0.07524357736110687,0.09576376527547836,0.14733843505382538,-0.24876081943511963,-0.9572927355766296,-0.01600603759288788,-0.08064596354961395,0.10353302955627441,0.9892508985791771,0.12613355959010633,0.07378307860377137,-0.005385102585377623
1681143418286112300,0.4061123046875,-0.283498615026474,-0.09117867052555084,0.10613688081502914,0.14627186954021454,-0.2461274266242981,-0.9581366181373596,-0.025345951318740845,-0.09237357974052429,0.1037818193435669,0.9894670206466121,0.12473142511709702,0.07330586806776204,-0.004827939597634988
1681143418296170500,0.41617041015625,-0.27287739515304565,-0.10404866188764572,0.11422356963157654,0.14505620300769806,-0.24360442161560059,-0.9589658975601196,-0.03859563171863556,-0.09915377199649811,0.1025664210319519,0.9896792273505414,0.12338441793307448,0.07275533357035273,-0.004244148744783127
1681143418306229200,0.426229248046875,-0.24428322911262512,-0.09617607295513153,0.11950057744979858,0.14379337430000305,-0.24129138886928558,-0.9597405791282654,-0.05532290041446686,-0.107494056224823,0.10532468557357788,0.98987729753678,0.1221446175690152,0.07218320011909699,-0.0036364736254003356
1681143418316288500,0.43628857421875,-0.2019999474287033,-0.09760698676109314,0.1188957691192627,0.14259302616119385,-0.23930111527442932,-0.9604177474975586,-0.06799279153347015,-0.11166632175445557,0.1079092025756836,0.9900504261130496,0.12107143037875703,0.07164387187589173,-0.0030186124651114324
1681143418326346500,0.446346435546875,-0.1682930439710617,-0.10150207579135895,0.11419390887022018,0.1413504034280777,-0.2376863807439804,-0.9610022306442261,-0.0782705545425415,-0.10844402015209198,0.10313785076141357,0.9901995130038526,0.12019418173101072,0.07107921930825868,-0.0024343621312779757
1681143418336405200,0.4564052734375,-0.1474466174840927,-0.09321059286594391,0.10298599302768707,0.1401432901620865,-0.23634085059165955,-0.9615107178688049,-0.08748520910739899,-0.10331982374191284,0.09902292490005493,0.9903290993260669,0.11945963506187227,0.07052686298065151,-0.0018989171376872992
1681143418346464500,0.466464599609375,-0.15317191183567047,-0.0787460207939148,0.09021810442209244,0.13906972110271454,-0.23504957556724548,-0.9619830250740051,-0.10138049721717834,-0.1086546927690506,0.08846312761306763,0.9904491395252324,0.11875855139979949,0.07003499880292358,-0.001420998596175865
1681143418356522200,0.476522216796875,-0.15729741752147675,-0.06398358941078186,0.07536166161298752,0.13817691802978516,-0.23365186154842377,-0.9624520540237427,-0.11913394927978516,-0.12033683061599731,0.07022488117218018,0.990568083254034,0.11800791614459455,0.06962833806105392,-0.0009902127636398919
1681143418366581500,0.48658154296875,-0.14489924907684326,-0.04571448266506195,0.05034413933753967,0.1374845653772354,-0.23227442800998688,-0.9628844857215881,-0.12707805633544922,-0.12130226194858551,0.05227053165435791,0.9906774292769512,0.11727562779857229,0.06931213933787803,-0.0006507004715682903
1681143418376640300,0.49664013671875,-0.09120778739452362,0.02374022826552391,0.012741636484861374,0.13724486529827118,-0.23115970194339752,-0.9631869196891785,-0.12511412799358368,-0.10976746678352356,0.028341948986053467,0.9907538412975233,0.11668993334040455,0.06920983597591501,-0.00045010826551005595
1681143418386698200,0.5066982421875,-0.01763399876654148,0.05083245038986206,-0.019826587289571762,0.13762760162353516,-0.23109720647335052,-0.9631472826004028,-0.11211490631103516,-0.08656029403209686,-0.005144953727722168,0.990743857281201,0.1166564939324146,0.06940902514857333,-0.0004048945466661016
1681143418396757200,0.51675732421875,0.06750459969043732,0.0364881306886673,-0.044684264808893204,0.13800999522209167,-0.23198311030864716,-0.9628795981407166,-0.10297580063343048,-0.06187067925930023,-0.05330997705459595,0.9906762552442262,0.11711931123748723,0.06959368061922001,-0.0005139069231286734
1681143418406816300,0.526816162109375,0.14220738410949707,0.031959060579538345,-0.07788770645856857,0.13835696876049042,-0.23356889188289642,-0.9624463319778442,-0.06964662671089172,-0.04401904344558716,-0.09132564067840576,0.9905667825324397,0.11795359812951674,0.06974085501704524,-0.0008097121586878327
1681143418416875300,0.536875244140625,0.19869808852672577,0.014451704919338226,-0.09828832000494003,0.1387115716934204,-0.23548287153244019,-0.9619287252426147,-0.01947939395904541,-0.028341621160507202,-0.14021354913711548,0.9904355563173959,0.11896948984302341,0.06987051465417388,-0.00129060914646094
1681143418426933200,0.546933349609375,0.20187538862228394,-0.011407539248466492,-0.08030425757169724,0.138864204287529,-0.23760764300823212,-0.9613840579986572,0.025732338428497314,-0.029802650213241577,-0.1693074107170105,0.9902972150056085,0.12009563418179972,0.0698928097096296,-0.0018106103135680242
1681143418436992500,0.556992431640625,0.12417099624872208,-0.04926171153783798,-0.004032657016068697,0.1386822611093521,-0.23917435109615326,-0.9610217809677124,0.06810486316680908,-0.04727894067764282,-0.1874767541885376,0.9902051543550766,0.12091900431465769,0.06976896291510354,-0.002113339075811442
1681143418447051300,0.56705126953125,-0.024896251037716866,-0.09297613054513931,0.0957472026348114,0.13788583874702454,-0.23974446952342987,-0.960994303226471,0.10327933728694916,-0.06855939328670502,-0.19664424657821655,0.9901985710208565,0.12119437729871678,0.06938851538675324,-0.0019350115920365037
1681143418457109500,0.577109619140625,-0.179072767496109,-0.14910545945167542,0.14910230040550232,0.1364162564277649,-0.23890350759029388,-0.9614133834838867,0.1441165953874588,-0.095431849360466,-0.1947755217552185,0.990305460301925,0.12071366168621614,0.06871326352703436,-0.001333776653471707
1681143418467168300,0.587168212890625,-0.23407751321792603,-0.1910407692193985,0.11730074882507324,0.1344270259141922,-0.23701715469360352,-0.9621601700782776,0.2036924958229065,-0.09888987243175507,-0.18678081035614014,0.990494616846727,0.11969272836197649,0.06777576294463862,-0.0006849887722247264
1681143418477227500,0.5972275390625,-0.18167714774608612,-0.19303759932518005,0.05849974974989891,0.13232623040676117,-0.2350960522890091,-0.9629224538803101,0.2727793753147125,-0.0651969462633133,-0.18786489963531494,0.9906871648646016,0.11867307039169246,0.06674943243958524,-0.00029754508400900583
1681143418487285200,0.60728515625,-0.1083773523569107,-0.14957310259342194,0.0330619290471077,0.13053755462169647,-0.23376275599002838,-0.9634910225868225,0.3146223723888397,-0.0265980064868927,-0.1979164481163025,0.9908307269425277,0.1179722574046769,0.06585621474989516,-0.00013912273339609232
1681143418497344300,0.61734423828125,-0.062993623316288,-0.09711015969514847,0.027042118832468987,0.12925557792186737,-0.23299774527549744,-0.9638490676879883,0.31292885541915894,-0.011676967144012451,-0.19212621450424194,0.9909210514879402,0.11756788013772461,0.06521697891396963,-0.000024792654542035937
1681143418507403300,0.6274033203125,-0.04988538473844528,-0.03205090016126633,0.023885367438197136,0.12857018411159515,-0.23250828683376312,-0.9640589356422424,0.28657570481300354,-0.032063886523246765,-0.16727346181869507,0.9909739738646647,0.11730784967065538,0.06487995305413725,0.00007888223253983526
1681143418517462300,0.637462158203125,-0.0635649785399437,0.024877630174160004,0.03396676480770111,0.1284664124250412,-0.2319900542497635,-0.96419757604599,0.2547580897808075,-0.06726536154747009,-0.13596105575561523,0.9910089744265594,0.11703162967409425,0.0648444349440558,0.00024105795105772891
1681143418527520500,0.6475205078125,-0.08478493988513947,0.09386005997657776,0.04554522782564163,0.1289261281490326,-0.23134030401706696,-0.9642923474311829,0.2319900095462799,-0.07433904707431793,-0.09840601682662964,0.9910327428706236,0.11668436707392542,0.06510445324193888,0.0004934620602592433
1681143418537579300,0.657579345703125,-0.10040544718503952,0.17257484793663025,0.04212786257266998,0.13011212646961212,-0.23050470650196075,-0.9643331170082092,0.22442585229873657,-0.06092293560504913,-0.0755380392074585,0.9910428297424801,0.11623937310785118,0.06574067633620513,0.0008238334860206419
1681143418547638500,0.667638427734375,-0.10769517719745636,0.25218555331230164,0.05046248808503151,0.1320701688528061,-0.2295551300048828,-0.9642934799194336,0.2155403196811676,-0.047941237688064575,-0.0736093521118164,0.9910323497997411,0.11573417231177466,0.06677472932210099,0.001216855169804501
1681143418557696300,0.6776962890625,-0.07429222017526627,0.31244540214538574,0.059999801218509674,0.1346902847290039,-0.22871437668800354,-0.9641308188438416,0.1974172741174698,-0.04368557035923004,-0.08591800928115845,0.9909906685349542,0.11528129336178214,0.06815283299394251,0.0016800682850063166
1681143418567755500,0.687755615234375,0.03113013319671154,0.34950244426727295,0.10579477250576019,0.13774137198925018,-0.22858650982379913,-0.963729977607727,0.166549414396286,-0.028127387166023254,-0.10259991884231567,0.9908883814882254,0.11518352425003744,0.06976928880976256,0.0022823792762740446
1681143418577814300,0.697814208984375,0.1259905844926834,0.3481852412223816,0.17419034242630005,0.14083608984947205,-0.22961054742336273,-0.9630390405654907,0.14732615649700165,-0.0012397021055221558,-0.11195790767669678,0.990711668698766,0.11565521805812251,0.07144474377427434,0.003139444936839195
1681143418587872300,0.707872314453125,0.08537736535072327,0.3141797184944153,0.29020413756370544,0.14353767037391663,-0.23105207085609436,-0.9622951149940491,0.15284904837608337,0.008685722947120667,-0.10136449337005615,0.9905190185839946,0.11630579994832316,0.07297538245893373,0.004425163128522046
1681143418597931300,0.71793115234375,-0.0637066587805748,0.26327046751976013,0.4387238621711731,0.14549031853675842,-0.23176369071006775,-0.9618306159973145,0.15918192267417908,-0.0036947131156921387,-0.06926679611206055,0.9903910492235819,0.11652702083219743,0.07420336009943443,0.006394927833721029
1681143418607990300,0.727990234375,-0.25037336349487305,0.19310566782951355,0.5997070074081421,0.14650696516036987,-0.23102188110351562,-0.9618547558784485,0.15090209245681763,-0.02549363672733307,-0.03362858295440674,0.990375259345439,0.11593827846218704,0.07503953263383091,0.009175707861123724
1681143418618048500,0.738048583984375,-0.409258097410202,0.09930539131164551,0.7545924186706543,0.14634744822978973,-0.2288201004266739,-0.9624052047729492,0.14869648218154907,-0.038758039474487305,0.00032335519790649414,0.9904744668059998,0.11453931778555096,0.07535344103419511,0.012763591005971894
1681143418628107300,0.748107177734375,-0.5321133732795715,-0.0014462508261203766,0.8799408078193665,0.14494922757148743,-0.22543975710868835,-0.9634140729904175,0.15690015256404877,-0.028878509998321533,0.01784217357635498,0.9906645771139784,0.11248984719372636,0.07509333912090153,0.017047768362234646
1681143418638166500,0.75816650390625,-0.6157776713371277,-0.10595321655273438,0.9793920516967773,0.1423283815383911,-0.22122277319431305,-0.9647814035415649,0.17098034918308258,0.0021065175533294678,0.02157461643218994,0.990914615933465,0.10998607765760578,0.07424535843760918,0.021881126354779467
1681143418648225300,0.768225341796875,-0.6580324172973633,-0.1982278972864151,1.0199742317199707,0.13862541317939758,-0.21643826365470886,-0.966404378414154,0.18457099795341492,0.038444459438323975,0.017796039581298828,0.9911967178817908,0.1071929038598694,0.0728524729165244,0.027039314639297842
1681143418658283500,0.778283447265625,-0.6715607643127441,-0.2745139002799988,1.0353648662567139,0.1341266632080078,-0.21136489510536194,-0.9681605696678162,0.1953411102294922,0.06515516340732574,0.0069332122802734375,0.9914828147285423,0.10427765275821739,0.07103436658027575,0.0322794327616026
1681143418668342300,0.78834228515625,-0.6540824770927429,-0.34739112854003906,1.021643042564392,0.12892834842205048,-0.20625674724578857,-0.9699668288230896,0.19553455710411072,0.09848389029502869,-0.0004463791847229004,0.9917549043701682,0.10138373549500855,0.06883262084294246,0.037490369724013
1681143418678401500,0.798401611328125,-0.6449571847915649,-0.3829032778739929,0.9904689192771912,0.12329209595918655,-0.20122434198856354,-0.9717550277709961,0.18827712535858154,0.11858271062374115,0.009535789489746094,0.9920016621387546,0.09857687600755606,0.06637085562990111,0.042544980350491306
1681143418688459500,0.80845947265625,-0.6744344830513,-0.3958715796470642,0.9602425694465637,0.11752676963806152,-0.19598671793937683,-0.9735382199287415,0.16463875770568848,0.10899633169174194,0.026501476764678955,0.9922290498764669,0.095710341736648,0.06379983924479363,0.04744178656408974
1681143418698518300,0.818518310546875,-0.7318921685218811,-0.39306485652923584,0.924292802810669,0.11181268841028214,-0.19019368290901184,-0.9753585457801819,0.13162603974342346,0.08625076711177826,0.054704248905181885,0.9924496237584011,0.09260242083485136,0.06120065555368288,0.05218248199534573
1681143418708577300,0.828577392578125,-0.7955809831619263,-0.3885483145713806,0.8861054182052612,0.1062810942530632,-0.18371357023715973,-0.9772173166275024,0.1022913008928299,0.04600296914577484,0.08601248264312744,0.9926673151275338,0.08918360328010426,0.05863135131037242,0.056746760241342835
1681143418718635300,0.83863525390625,-0.8481152653694153,-0.40227317810058594,0.8657002449035645,0.10081000626087189,-0.17654812335968018,-0.9791159629821777,0.08199028670787811,-0.0019950121641159058,0.10068279504776001,0.9928819140057634,0.08545407409351119,0.056032234668127644,0.06118361952861901
1681143418728694500,0.848694580078125,-0.873350977897644,-0.40364497900009155,0.8399008512496948,0.09536290168762207,-0.16890864074230194,-0.9810075163841248,0.06959986686706543,-0.03713081777095795,0.10966968536376953,0.9930816442478151,0.0815202467907969,0.05339178344729969,0.06551686411303098
1681143418738753300,0.858753173828125,-0.8814717531204224,-0.42401203513145447,0.8177902698516846,0.08992855995893478,-0.16099970042705536,-0.9828488826751709,0.058859892189502716,-0.06093941628932953,0.12202435731887817,0.9932594740645789,0.07748715852637791,0.05070793062637752,0.06971288906805075
1681143418748811300,0.868811279296875,-0.8433513641357422,-0.4400586783885956,0.7829782366752625,0.08438173681497574,-0.15314021706581116,-0.9845952391624451,0.04196104407310486,-0.06502997875213623,0.13771724700927734,0.9934063382809714,0.07351928188042144,0.047930090426156764,0.07376553254564351
1681143418758870300,0.878870361328125,-0.7580015659332275,-0.46504712104797363,0.7519417405128479,0.07875151187181473,-0.14581646025180817,-0.9861722588539124,0.03459077328443527,-0.05297507345676422,0.16070234775543213,0.9935097797298136,0.0698618268088852,0.045090874987977654,0.07761705482573832
1681143418768929300,0.88892919921875,-0.6677367091178894,-0.49612194299697876,0.7362043261528015,0.07291563600301743,-0.13932280242443085,-0.9875588417053223,0.03108827769756317,-0.027226924896240234,0.18841028213500977,0.993561540995521,0.06666240736790616,0.04215095730808593,0.08133150222233951
1681143418778988300,0.89898828125,-0.5986253023147583,-0.5147174596786499,0.7229130268096924,0.06688663363456726,-0.13357168436050415,-0.9887794256210327,0.01876094937324524,-0.006580322980880737,0.21871417760849,0.9935665160635045,0.06387378875354399,0.03912057733732854,0.08494217659313552
1681143418789046300,0.90904638671875,-0.5556236505508423,-0.5256901979446411,0.707632839679718,0.06076730787754059,-0.12830547988414764,-0.9898712038993835,-0.008246555924415588,-0.006475433707237244,0.2515594959259033,0.9935336041878757,0.06136069389268753,0.036045165413727945,0.08846752893490131
1681143418799105300,0.919105224609375,-0.5187279582023621,-0.5251482129096985,0.6774629354476929,0.0546547956764698,-0.12338563799858093,-0.9908525943756104,-0.041272833943367004,-0.009548977017402649,0.27555108070373535,0.9934727903682997,0.05904993070457003,0.03296687784401471,0.09185951055396323
1681143418809164300,0.929164306640625,-0.4965675473213196,-0.5101452469825745,0.650852620601654,0.04867575317621231,-0.1186823695898056,-0.9917384386062622,-0.06546041369438171,-0.0036778971552848816,0.291207492351532,0.9933900793961313,0.056869171101110866,0.02994444259873546,0.09510662100530008
1681143418819222500,0.939222412109375,-0.5080545544624329,-0.4748205840587616,0.6279323697090149,0.04300614073872566,-0.11400777101516724,-0.9925485849380493,-0.08179397881031036,-0.000005953013896942139,0.3080698251724243,0.9932905397303443,0.05471312437307183,0.027058821307723684,0.09822508558208222
1681143418829281300,0.94928125,-0.5200876593589783,-0.43669000267982483,0.6081629395484924,0.037745147943496704,-0.10910163819789886,-0.993313729763031,-0.0996958315372467,-0.009367652237415314,0.318631112575531,0.9931781550136635,0.05244292019867745,0.02434917835035883,0.10126242303606073
1681143418839340500,0.959340576171875,-0.5190162658691406,-0.39151984453201294,0.5921264290809631,0.03296796977519989,-0.1041240245103836,-0.9940177798271179,-0.1212858334183693,-0.013521283864974976,0.3243095278739929,0.9930502662309282,0.05013234684199943,0.02186023861659783,0.10421079136403234
1681143418849398300,0.969398193359375,-0.5126423835754395,-0.3419780731201172,0.5746597647666931,0.02868174947798252,-0.09916029125452042,-0.9946580529212952,-0.13402841985225677,-0.016837067902088165,0.31947189569473267,0.9929041245445701,0.047820173147196096,0.019601462782804068,0.10709912842937386
1681143418859457300,0.979457275390625,-0.4983620345592499,-0.2853696644306183,0.5450462102890015,0.02501971460878849,-0.09422875940799713,-0.9952361583709717,-0.14387041330337524,-0.026361502707004547,0.3177764415740967,0.9927470885317705,0.04550659773621085,0.017637577398363535,0.10986970765260572
1681143418869516300,0.989516357421875,-0.4801575243473053,-0.23429813981056213,0.5153735280036926,0.02193286456167698,-0.08947645872831345,-0.9957473874092102,-0.16965319216251373,-0.029816798865795135,0.3070725202560425,0.9925807767393979,0.04326452620472832,0.015952227311412142,0.11250422799307447
1681143418879575300,0.9995751953125,-0.4676097631454468,-0.17676347494125366,0.47168034315109253,0.019425630569458008,-0.08481965959072113,-0.9962069392204285,-0.191178560256958,-0.04459017515182495,0.28027987480163574,0.9924135556182031,0.04104923003824921,0.01454269322124704,0.11497294179506372
1681143418889633500,1.009633544921875,-0.44438934326171875,-0.11803019046783447,0.42000868916511536,0.01755574159324169,-0.08033663034439087,-0.9966132044792175,-0.18720294535160065,-0.07170199602842331,0.24577397108078003,0.9922560340327203,0.03889440766910985,0.013440145054070452,0.11719407590876303
1681143418899692300,1.0196923828125,-0.44888368248939514,-0.0492338128387928,0.3878946900367737,0.016430774703621864,-0.07596512883901596,-0.9969750642776489,-0.17397776246070862,-0.11330494284629822,0.20302975177764893,0.9921062556781716,0.03675892932642445,0.01269790062076703,0.11921672915202883
1681143418909751300,1.029751220703125,-0.455021470785141,-0.025632645934820175,0.36546769738197327,0.01578136533498764,-0.07147689908742905,-0.997317373752594,-0.16473765671253204,-0.15243062376976013,0.17219841480255127,0.9919618165297327,0.03454177524302167,0.012172284388626256,0.12112170568455442
1681143418919809300,1.039809326171875,-0.45314475893974304,-0.017863141372799873,0.35119447112083435,0.015331802889704704,-0.06699126213788986,-0.9976357817649841,-0.15696386992931366,-0.18725073337554932,0.15768522024154663,0.9918201023918771,0.03231751141789943,0.011734535060923182,0.12292550852468209
1681143418929868500,1.04986865234375,-0.4403451979160309,-0.026755385100841522,0.34465667605400085,0.014870826154947281,-0.06254269927740097,-0.9979314804077148,-0.13745993375778198,-0.2273133099079132,0.14134883880615234,0.9916754931045794,0.030115120918810922,0.011284145510248887,0.12468146748166481
1681143418939927300,1.05992724609375,-0.40340688824653625,-0.015948545187711716,0.3275006115436554,0.014457851648330688,-0.058360688388347626,-0.9981908798217773,-0.11624922603368759,-0.25015681982040405,0.13373470306396484,0.9915262913740177,0.028044880059914127,0.010865210109636609,0.1263765656086339
1681143418949985300,1.0699853515625,-0.354523628950119,-0.02500973269343376,0.3209819793701172,0.014076780527830124,-0.05459759756922722,-0.9984092116355896,-0.10013633966445923,-0.26771384477615356,0.1167868971824646,0.991373501048446,0.026183249863585296,0.01048015278426751,0.12799616967937627
1681143418960044300,1.080044189453125,-0.3270070552825928,-0.054816100746393204,0.3275706470012665,0.013530728407204151,-0.05125732719898224,-0.998593807220459,-0.09144210070371628,-0.28362736105918884,0.09261846542358398,0.9912087844104611,0.02454366854066271,0.010035000484835214,0.12962269305881835
1681143418970103300,1.090103271484375,-0.30058524012565613,-0.036736465990543365,0.31763947010040283,0.012848647311329842,-0.04813583940267563,-0.9987581372261047,-0.07006910443305969,-0.29698750376701355,0.05909144878387451,0.9910361477303925,0.02302328751343688,0.009531552305431823,0.13124924031895327
1681143418980161500,1.10016162109375,-0.285504013299942,-0.07468358427286148,0.318820059299469,0.012223153375089169,-0.04523013159632683,-0.9989017844200134,-0.050614260137081146,-0.32027894258499146,0.023376941680908203,0.9908614834714565,0.021608447709868465,0.009064713624780991,0.13283226868515854
1681143418990220300,1.11022021484375,-0.23983153700828552,-0.14427322149276733,0.35516366362571716,0.010930707678198814,-0.042623795568943024,-0.9990314245223999,-0.05142752826213837,-0.34249281883239746,-0.019096016883850098,0.9906668327617026,0.020387680934734545,0.008285176115373116,0.13451728087688009
1681143419000279600,1.120279541015625,-0.19701696932315826,-0.19594866037368774,0.382450133562088,0.009093421511352062,-0.04047246649861336,-0.9991392493247986,-0.04638589918613434,-0.3391662538051605,-0.03105783462524414,0.990443566434473,0.019431273307241294,0.007265578340427583,0.1363489863642974
1681143419010338300,1.13033837890625,-0.16986195743083954,-0.25215944647789,0.39312800765037537,0.006658174563199282,-0.038675952702760696,-0.9992296099662781,-0.040776822715997696,-0.3434804677963257,-0.06253796815872192,0.9902002332958771,0.018695362192266092,0.0059726003695881194,0.13826867148094774
1681143419020396500,1.140396484375,-0.15883541107177734,-0.28641489148139954,0.3743668496608734,0.003822162514552474,-0.03705098107457161,-0.9993060827255249,-0.03667432814836502,-0.35787704586982727,-0.0857921838760376,0.9899521662116001,0.01807774454340051,0.004490165372806841,0.14017056589540453
1681143419030455300,1.150455322265625,-0.13640938699245453,-0.32719314098358154,0.3660918176174164,0.0006074401899240911,-0.03558731451630592,-0.9993664026260376,-0.035992566496133804,-0.36208730936050415,-0.1112750768661499,0.9897084559124512,0.017572976933470336,0.00282796060875506,0.14198712191145668
1681143419040514600,1.1605146484375,-0.12061098217964172,-0.3522047698497772,0.34815436601638794,-0.0029326563235372305,-0.03429405018687248,-0.9994074702262878,-0.06112373620271683,-0.3569718599319458,-0.13140612840652466,0.989464628307997,0.01718224746677573,0.0010142720809117117,0.14374804404815628
1681143419050572300,1.170572265625,-0.10293763130903244,-0.36832109093666077,0.30085256695747375,-0.006678634323179722,-0.03314084932208061,-0.999428391456604,-0.07640546560287476,-0.35461556911468506,-0.1533883810043335,0.9892384622132728,0.016882237430041743,-0.0008954242919375981,0.14533197903130649
1681143419060631300,1.18063134765625,-0.09978178143501282,-0.4039384722709656,0.23627623915672302,-0.010611321777105331,-0.03213755413889885,-0.9994271397590637,-0.08216211199760437,-0.36408746242523193,-0.17971104383468628,0.9890450517995709,0.016675546615382144,-0.002892036077386204,0.14664027945906677
1681143419070690300,1.190690185546875,-0.08340603113174438,-0.4706137180328369,0.15075291693210602,-0.015088789165019989,-0.031160933896899223,-0.9994004964828491,-0.07966828346252441,-0.3797735571861267,-0.21559584140777588,0.9889003693332443,0.01652579493344854,-0.0051630211255380455,0.14756816553102586
1681143419080748300,1.200748291015625,-0.04360269382596016,-0.49975696206092834,0.056046128273010254,-0.01999843120574951,-0.03052358143031597,-0.9993339776992798,-0.07338535040616989,-0.38498854637145996,-0.22225415706634521,0.9888147569752167,0.016576768690941667,-0.007630745115255153,0.14802779459177454
1681143419090807600,1.2108076171875,-0.005534219555556774,-0.5307096242904663,-0.008760780096054077,-0.025197982788085938,-0.03025352954864502,-0.9992246031761169,-0.08869361132383347,-0.39519208669662476,-0.22697168588638306,0.9887767405912944,0.016829394700897785,-0.010221321836230722,0.148097193456574
1681143419100866300,1.2208662109375,0.03759540617465973,-0.5297181606292725,-0.030214406549930573,-0.03053644672036171,-0.0304559338837862,-0.9990695714950562,-0.1335260421037674,-0.39735478162765503,-0.22199976444244385,0.9887597772193857,0.017323774751421554,-0.01284962806272003,0.14794861109661
1681143419110925300,1.23092529296875,0.060246873646974564,-0.5010550022125244,-0.03556501865386963,-0.03572019189596176,-0.031001072376966476,-0.9988808631896973,-0.16922059655189514,-0.4018145203590393,-0.20331335067749023,0.9887439772946935,0.01797468784680374,-0.01537769092742546,0.14773531076863372
1681143419120983300,1.2409833984375,0.03243521600961685,-0.5156733393669128,-0.006524843163788319,-0.04078412428498268,-0.03152914717793465,-0.9986703991889954,-0.20476029813289642,-0.41024336218833923,-0.17360132932662964,0.9887143652149325,0.01860843709828557,-0.017847298536452172,0.14757722092772468
1681143419131042300,1.251042236328125,-0.022579409182071686,-0.5381399989128113,0.025457482784986496,-0.0460963100194931,-0.031590111553668976,-0.9984374046325684,-0.2401432991027832,-0.3958849310874939,-0.11704111099243164,0.9886550293064724,0.019032173748807623,-0.020471642089544172,0.14757968750640393
1681143419141101300,1.261101318359375,-0.06942041218280792,-0.528528094291687,0.03396495431661606,-0.05147656053304672,-0.031125612556934357,-0.9981890320777893,-0.2727879583835602,-0.3693413734436035,-0.03895086050033569,0.9885759647646042,0.01920366090154405,-0.023166773257809546,0.14768874622868342
1681143419151159300,1.2711591796875,-0.08557480573654175,-0.5102488398551941,-0.015334472060203552,-0.056706029921770096,-0.030319711193442345,-0.9979304075241089,-0.313411146402359,-0.3494105637073517,0.012273728847503662,0.9885092856794213,0.01919318572622441,-0.025814864051036213,0.1476973310581313
1681143419161218300,1.28121826171875,-0.03718756511807442,-0.4871949255466461,-0.12291339784860611,-0.06170228123664856,-0.029707971960306168,-0.9976523518562317,-0.35066646337509155,-0.3193674087524414,0.049272894859313965,0.9884954718447141,0.01925063752801042,-0.028341221459798175,0.14731836461005893
1681143419171277600,1.291277587890625,0.06351294368505478,-0.4399975836277008,-0.304021418094635,-0.0663120299577713,-0.02995305135846138,-0.9973492622375488,-0.3871486485004425,-0.278411865234375,0.07996034622192383,0.9885793987848109,0.01968020673454447,-0.030627829589062606,0.14623697165226734
1681143419181335600,1.30133544921875,0.24449418485164642,-0.3338131010532379,-0.5337323546409607,-0.07011818885803223,-0.03177376836538315,-0.9970325231552124,-0.4438741207122803,-0.24441036581993103,0.0907062292098999,0.9888064464408993,0.020793518432692566,-0.032424752493666276,0.14414545371933923
1681143419191394600,1.31139453125,0.45913463830947876,-0.28136011958122253,-0.7522649168968201,-0.07294358313083649,-0.03577350452542305,-0.9966942667961121,-0.5259486436843872,-0.22278672456741333,0.051412343978881836,0.9891808247413633,0.022871936753621102,-0.03361151410251584,0.1409555167678731
1681143419201453600,1.32145361328125,0.626022458076477,-0.2915765345096588,-0.927560567855835,-0.0754467323422432,-0.041934721171855927,-0.9962676763534546,-0.6109699010848999,-0.20472365617752075,-0.01107180118560791,0.9896520149386789,0.025960557105792176,-0.0345284621654097,0.13683081002704678
1681143419211511300,1.33151123046875,0.6883161664009094,-0.36987704038619995,-1.0612068176269531,-0.07828031480312347,-0.04934914782643318,-0.995709240436554,-0.6624270677566528,-0.1718880832195282,-0.11572569608688354,0.9901760246291383,0.029659638010928,-0.03557660775762367,0.1319318746254897
1681143419221570600,1.341570556640625,0.6778981685638428,-0.49799665808677673,-1.1282734870910645,-0.08201688528060913,-0.05715454742312431,-0.9949907660484314,-0.6822195649147034,-0.12532536685466766,-0.2264905571937561,0.9907021998986681,0.033583606435389705,-0.03710481910293098,0.12650862073260746
1681143419231629300,1.35162939453125,0.6060353517532349,-0.6397814154624939,-1.0937342643737793,-0.08702071011066437,-0.06457649916410446,-0.9941112995147705,-0.6847383379936218,-0.11205929517745972,-0.3075244426727295,0.9911735345785498,0.037376195902192565,-0.0393366394508341,0.12095713948038478
1681143419241688600,1.3616884765625,0.5538328886032104,-0.796527087688446,-0.9852503538131714,-0.09348069131374359,-0.07131515443325043,-0.9930636882781982,-0.6874336004257202,-0.06300800293684006,-0.3783809542655945,0.9915311492009534,0.04090761568820042,-0.04236411016867753,0.1157488474913269
1681143419251746300,1.371746337890625,0.5414579510688782,-0.9573749303817749,-0.897429347038269,-0.10153096169233322,-0.07772234082221985,-0.9917916655540466,-0.6680002808570862,0.06159374862909317,-0.42619234323501587,0.9917532876340672,0.04435775506648968,-0.04622292374578606,0.11100077009162548
1681143419261805600,1.3818056640625,0.5244395732879639,-1.1211076974868774,-0.8249873518943787,-0.11124614626169205,-0.08401748538017273,-0.9902349710464478,-0.6070155501365662,0.20961251854896545,-0.47819453477859497,0.99184518140253,0.04782833044449062,-0.05094065971153561,0.10658592636781394
1681143419271864300,1.3918642578125,0.45827701687812805,-1.2239395380020142,-0.7686753869056702,-0.12223128974437714,-0.08994895964860916,-0.9884172677993774,-0.5188514590263367,0.3458845615386963,-0.5502942800521851,0.991822747873079,0.0511643972339632,-0.056334450086959996,0.10245124479151545
1681143419281922600,1.401922607421875,0.26887062191963196,-1.3117947578430176,-0.7351882457733154,-0.13415035605430603,-0.09467965364456177,-0.9864276051521301,-0.4269915819168091,0.4465930461883545,-0.6375805735588074,0.9917241989441399,0.05391905954456652,-0.06228102375992263,0.09847314947834018
1681143419291981600,1.411981689453125,-0.1020682156085968,-1.3609920740127563,-0.6968310475349426,-0.1467784196138382,-0.09666626155376434,-0.9844347238540649,-0.3240009546279907,0.44186580181121826,-0.6949476003646851,0.991602846504017,0.055297112631745304,-0.0687376717404051,0.09455722445667203
1681143419302040600,1.42204052734375,-0.629374623298645,-1.3622866868972778,-0.6255092024803162,-0.15965472161769867,-0.0942750796675682,-0.9826609492301941,-0.19656167924404144,0.32851269841194153,-0.7260334491729736,0.9915126285509254,0.054452834332430367,-0.07552750780380701,0.09073691078757345
1681143419312099600,1.432099609375,-1.1231902837753296,-1.3362231254577637,-0.5537719130516052,-0.17260940372943878,-0.08689185976982117,-0.9811502695083618,-0.07917584478855133,0.2003866732120514,-0.7537435293197632,0.9914597238542194,0.05107156376893506,-0.08256254692883731,0.08707903838927451
1681143419322157300,1.4421572265625,-1.5101544857025146,-1.3311330080032349,-0.48366981744766235,-0.1853667050600052,-0.07494822144508362,-0.9798070788383484,0.049975499510765076,0.11665044724941254,-0.7410485744476318,0.9914229522461026,0.04535619632245473,-0.08966196382262988,0.08357013993967709
1681143419332216600,1.452216552734375,-1.8551115989685059,-1.3149055242538452,-0.3869805634021759,-0.19820985198020935,-0.059304460883140564,-0.9783638715744019,0.17468081414699554,0.07412069290876389,-0.7128440141677856,0.9913252737403526,0.037766621950455145,-0.09691106184957363,0.08034971723620256
1681143419342275300,1.462275390625,-2.089585781097412,-1.1660548448562622,-0.4303394854068756,-0.21027421951293945,-0.04063452035188675,-0.9767976403236389,0.25969743728637695,0.07801850140094757,-0.6447538733482361,0.9911855267204633,0.028579541704902733,-0.10384797598024229,0.07713552200748072
1681143419352333600,1.47233349609375,-2.0940470695495605,-0.9564645886421204,-0.490120530128479,-0.22056609392166138,-0.020997339859604836,-0.9751459956169128,0.26855501532554626,0.05049252510070801,-0.5949376225471497,0.9910403053889524,0.01875078486168178,-0.10988817886043914,0.07356672305615192
1681143419362392300,1.482392333984375,-1.9649856090545654,-0.705367922782898,-0.5325129628181458,-0.2286830097436905,-0.0022825717460364103,-0.9734982848167419,0.23471027612686157,0.00805034302175045,-0.5323000550270081,0.990896186049225,0.00923571494817934,-0.11474132594893809,0.06981223863057326
1681143419372451600,1.49245166015625,-1.9090081453323364,-0.43187376856803894,-0.6056692004203796,-0.23428352177143097,0.015270177274942398,-0.9720484018325806,0.23208628594875336,-0.027263641357421875,-0.45243585109710693,0.9908022360147116,0.00014997332180332248,-0.11821924029543335,0.06584108139575004
1681143419382509600,1.502509521484375,-1.890055775642395,-0.16737952828407288,-0.6820992827415466,-0.23737359046936035,0.032258596271276474,-0.9708826541900635,0.23880794644355774,-0.08448948711156845,-0.3238255977630615,0.99078779851228,-0.008811167712583178,-0.12033714579946195,0.061488082510679595
1681143419392568600,1.512568603515625,-1.756185531616211,0.1317901313304901,-0.7357422709465027,-0.2378568947315216,0.04844262823462486,-0.9700914621353149,0.2483549863100052,-0.14269623160362244,-0.13334786891937256,0.990865853257702,-0.01750213608399325,-0.12102873209614325,0.056838119887284815
1681143419402627600,1.522627685546875,-1.522009015083313,0.44866129755973816,-0.7795917391777039,-0.2354804426431656,0.06265610456466675,-0.9698572754859924,0.25894850492477417,-0.16118216514587402,0.07953745126724243,0.9910718073390614,-0.02530582656053954,-0.12012896468154777,0.0520121015693828
1681143419412685300,1.532685302734375,-1.152422547340393,0.7386775612831116,-0.7986340522766113,-0.23020616173744202,0.0738949328660965,-0.9703322649002075,0.2697264850139618,-0.11159946769475937,0.258830189704895,0.9914332591779002,-0.0316699395900273,-0.11760482561704029,0.04718202241777827
1681143419422744600,1.54274462890625,-0.8121803402900696,0.9716376066207886,-0.8382964730262756,-0.22247228026390076,0.08151467889547348,-0.9715253114700317,0.28872597217559814,-0.040636442601680756,0.42254459857940674,0.9919506124856943,-0.036230322869762695,-0.1136868793218521,0.042385257403013035
1681143419432803300,1.55280322265625,-0.6251735687255859,1.188459038734436,-0.8812177777290344,-0.2126157432794571,0.08659134060144424,-0.9732915759086609,0.3166044354438782,-0.03225485235452652,0.5480901598930359,0.9925930118160492,-0.03951823178213191,-0.10859339364091924,0.03748064178904962
1681143419442862600,1.562862548828125,-0.3808901011943817,1.3570693731307983,-0.9165505170822144,-0.20090770721435547,0.08962728828191757,-0.9755014181137085,0.34334856271743774,-0.03957851976156235,0.642753005027771,0.9933262594126793,-0.04176570680047164,-0.10249347669571593,0.032457396326425116
1681143419452920300,1.57292041015625,-0.119651660323143,1.4853284358978271,-0.9452337622642517,-0.1877613365650177,0.09027496725320816,-0.978057324886322,0.3564320206642151,-0.04480382800102234,0.6984094977378845,0.9941228664983218,-0.042773214982016146,-0.09561273295943752,0.027356720074349524
1681143419462979600,1.5829794921875,0.19516541063785553,1.5456445217132568,-0.9626737236976624,-0.17364874482154846,0.08808977901935577,-0.9808599948883057,0.35750192403793335,-0.04911889135837555,0.7182867527008057,0.994954421652876,-0.04229435124347382,-0.08821109313669633,0.02226407105451114
1681143419473038300,1.593038330078125,0.4272775948047638,1.5521773099899292,-0.9605012536048889,-0.15914838016033173,0.08306438475847244,-0.9837540984153748,0.3707877993583679,-0.03159654885530472,0.7416276335716248,0.995780873883499,-0.04031227554670177,-0.08060942316974559,0.017243630700969327
1681143419483096600,1.6030966796875,0.5534549951553345,1.511469841003418,-0.9099235534667969,-0.14469648897647858,0.07652194052934647,-0.9865127205848694,0.40951281785964966,-0.02302468568086624,0.7610335946083069,0.9965449696521053,-0.03748271957710994,-0.07306636417737179,0.012423703090939806
1681143419493155600,1.613155517578125,0.5199921131134033,1.4489527940750122,-0.8062084317207336,-0.13061484694480896,0.06989719718694687,-0.9889662265777588,0.43812525272369385,-0.034847818315029144,0.7727033495903015,0.9972053631513633,-0.03451716897968841,-0.0657682799338764,0.008026565168943955
1681143419503214600,1.623214599609375,0.5472202897071838,1.3612501621246338,-0.6777053475379944,-0.11709542572498322,0.06371187418699265,-0.9910749197006226,0.4375605285167694,-0.07253151386976242,0.7596143484115601,0.9977572853670282,-0.03167844094604283,-0.058813484847310644,0.004225933240646945
1681143419513273600,1.633273681640625,0.6835908889770508,1.2416393756866455,-0.5311623215675354,-0.10446146130561829,0.05691254138946533,-0.9928991794586182,0.4155424237251282,-0.08286780118942261,0.7199957370758057,0.9982225618072498,-0.028446285938733502,-0.05235668870327666,0.0011564063656862343
1681143419523331300,1.643331298828125,0.8716177940368652,1.113293170928955,-0.35518839955329895,-0.09293196350336075,0.048710647970438004,-0.9944802522659302,0.39737534523010254,-0.04779517650604248,0.6647225618362427,0.998618581561801,-0.024437261028213954,-0.04650490700239974,-0.0010359935688460217
1681143419533390600,1.653390625,1.084134578704834,0.9462375044822693,-0.14923912286758423,-0.08270367234945297,0.03867447003722191,-0.9958234429359436,0.39405930042266846,0.010702915489673615,0.6150403618812561,0.9989528464151427,-0.019449264549105387,-0.04135202542422668,-0.0022166557040931762
1681143419543449300,1.663449462890625,1.224892497062683,0.7518578767776489,0.08879102766513824,-0.0741964653134346,0.026992278173565865,-0.9968782663345337,0.3918082118034363,0.04083298146724701,0.5643221735954285,0.9992167504611104,-0.013589004008303691,-0.03709716905729372,-0.002216389481034734
1681143419553507600,1.673507568359375,1.3083717823028564,0.5407915115356445,0.3351864218711853,-0.06764571368694305,0.014396103098988533,-0.997605562210083,0.40239304304122925,0.04741719737648964,0.4946911334991455,0.9994006724302824,-0.0072344725630459315,-0.03383627556043876,-0.0009482538044039074
1681143419563566300,1.68356640625,1.3643980026245117,0.30328169465065,0.5681149959564209,-0.06335953623056412,0.00127892114687711,-0.9979899525642395,0.4153645634651184,0.02502717822790146,0.4009440541267395,0.9994961919111088,-0.0005911162161780026,-0.031696644030846474,0.0015346163675381387
1681143419573625600,1.69362548828125,1.4154772758483887,0.07703795284032822,0.761925458908081,-0.06151279807090759,-0.012269829399883747,-0.9980309009552002,0.4169358015060425,0.005464356392621994,0.3230736255645752,0.9994944842322994,0.0062953661077957265,-0.030739730764551103,0.005116152547261493
1681143419583683600,1.70368359375,1.4938809871673584,-0.14594265818595886,0.9116763472557068,-0.06202985346317291,-0.0263162013143301,-0.9977272748947144,0.4272795021533966,0.027292711660265923,0.25135886669158936,0.999385921482169,0.013461737352069656,-0.030905247225445708,0.009557283311661781
1681143419593742300,1.713742431640625,1.6145693063735962,-0.33625227212905884,1.038731575012207,-0.06483666598796844,-0.041327450424432755,-0.9970397353172302,0.44301050901412964,0.08267872035503387,0.20030206441879272,0.9991517292025799,0.021153565528638184,-0.03213495469027179,0.014684805195478162
1681143419603801600,1.723801513671875,1.6505190134048462,-0.4864380657672882,1.2073928117752075,-0.0695180892944336,-0.057071883231401443,-0.9959468245506287,0.438719779253006,0.12248626351356506,0.16669267416000366,0.9987752259705992,0.029273826075464044,-0.03420002151543568,0.020527218111374423
1681143419613859300,1.733859375,1.4084428548812866,-0.5693252086639404,1.4210809469223022,-0.07571718096733093,-0.07156739383935928,-0.9945576786994934,0.4017364978790283,0.1313360333442688,0.13646447658538818,0.9982647683205879,0.036856065770699886,-0.03691586759019637,0.02731653567720546
1681143419623918600,1.743918701171875,0.9481923580169678,-0.5895394086837769,1.6223160028457642,-0.08275434374809265,-0.08229126036167145,-0.9931665658950806,0.38417649269104004,0.09625301510095596,0.11888378858566284,0.9976738895940805,0.0426468637324253,-0.03997439377313765,0.035073239795681395
1681143419633977300,1.753977294921875,0.471529483795166,-0.5117512941360474,1.7899365425109863,-0.0897880494594574,-0.08778375387191772,-0.9920847415924072,0.3856712579727173,0.016845591366291046,0.07469582557678223,0.9970634013730012,0.045905104354471205,-0.04301574816069352,0.04366827777549345
1681143419644036600,1.76403662109375,0.23648421466350555,-0.3192500174045563,1.9160350561141968,-0.09565038233995438,-0.08943017572164536,-0.9913895726203918,0.33516761660575867,-0.04371806979179382,-0.012837111949920654,0.9964396267258337,0.04729144608008657,-0.04548342758826455,0.052941986900627534
1681143419654094300,1.77409423828125,0.23155927658081055,-0.08386978507041931,2.014655113220215,-0.09942954778671265,-0.08970354497432709,-0.9909929633140564,0.22066064178943634,-0.009265013039112091,-0.1268354058265686,0.9957677111865815,0.047999953554100624,-0.046899103032283354,0.06279505847647475
1681143419664153600,1.784153564453125,0.40270546078681946,0.12159788608551025,2.08500599861145,-0.10105396062135696,-0.09075161814689636,-0.9907332062721252,0.10807302594184875,0.13211815059185028,-0.28406232595443726,0.9949959604789766,0.049071668608351174,-0.047173937578633904,0.07314004437898239
1681143419674212400,1.79421240234375,0.5194291472434998,0.24183389544487,2.1569690704345703,-0.10115163773298264,-0.09332232177257538,-0.990484356880188,0.04483147710561752,0.2690424919128418,-0.46091634035110474,0.9940845753948495,0.050870139512858036,-0.046583722304858785,0.08389322189312753
1681143419684270300,1.804270263671875,0.42593830823898315,0.3089117109775543,2.242382049560547,-0.1004636138677597,-0.09594307094812393,-0.9903039932250977,0.0337979793548584,0.28889042139053345,-0.6321172714233398,0.9930319532183776,0.05266845298192036,-0.04554163203387914,0.09507608920923402
1681143419694329600,1.81432958984375,0.1959926187992096,0.3223050534725189,2.2926456928253174,-0.09950367361307144,-0.09680504351854324,-0.9903170466423035,0.056214503943920135,0.21361103653907776,-0.754967987537384,0.9918685382600827,0.05356990538504376,-0.044404446662890056,0.10656097708287095
1681143419704388400,1.824388427734375,-0.04547486826777458,0.33570900559425354,2.288867712020874,-0.09847293794155121,-0.09525445103645325,-0.9905703663825989,0.0774463415145874,0.10747668892145157,-0.8177639842033386,0.9906252016434957,0.05324645481248984,-0.04335466567773769,0.11809697972742916
1681143419714447600,1.834447509765625,-0.2649778425693512,0.35311073064804077,2.235144853591919,-0.09716638922691345,-0.09151292592287064,-0.9910520315170288,0.07929836213588715,0.0031339675188064575,-0.8457704782485962,0.9893303829782106,0.0517879381681036,-0.042332105489651724,0.12942697698750388
1681143419724505300,1.84450537109375,-0.5455754399299622,0.33990463614463806,2.1748225688934326,-0.0956454947590828,-0.08538313955068588,-0.9917467832565308,0.04727514833211899,-0.0902150571346283,-0.8732587099075317,0.9880098041078779,0.049096234144371934,-0.0414267345916349,0.1403922165564887
1681143419734564600,1.854564697265625,-0.8776416182518005,0.2809392511844635,2.1429378986358643,-0.09426341205835342,-0.07628238946199417,-0.9926204681396484,0.000482901930809021,-0.1693689227104187,-0.8898868560791016,0.9866617958128072,0.044916271795035836,-0.040893663678374215,0.15102524516978133
1681143419744623400,1.864623291015625,-1.2723078727722168,0.15202441811561584,2.1569695472717285,-0.09357801079750061,-0.06358600407838821,-0.9935793876647949,-0.049595192074775696,-0.24741868674755096,-0.8666348457336426,0.9852443306583932,0.03900565885013069,-0.041095878697184014,0.16150285542554174
1681143419754681600,1.874681640625,-1.693825364112854,-0.0011811340227723122,2.195655584335327,-0.09402938187122345,-0.04673203080892563,-0.9944720268249512,-0.12523940205574036,-0.31871601939201355,-0.7737164497375488,0.9836968613477941,0.03115668819413467,-0.04234681003994484,0.17197804740391148
1681143419764740400,1.884740234375,-2.0423130989074707,-0.1526777148246765,2.2208938598632812,-0.09560289978981018,-0.025950366631150246,-0.9950812458992004,-0.22722730040550232,-0.3497363328933716,-0.5914666056632996,0.9819575095556432,0.021516956953474522,-0.044681125040182276,0.18248318718467788
1681143419774799600,1.894799560546875,-2.3041718006134033,-0.2956613302230835,2.2154483795166016,-0.09815890341997147,-0.002392471767961979,-0.9951678514480591,-0.37265101075172424,-0.33935868740081787,-0.36078912019729614,0.9799856627726881,0.01066567709584347,-0.04798233784263485,0.19290378803413383
1681143419784857600,1.904857666015625,-2.4428985118865967,-0.3739428222179413,2.1523854732513428,-0.10132604837417603,0.023419583216309547,-0.9945775866508484,-0.5422133803367615,-0.26275375485420227,-0.11511784791946411,0.977780461032325,-0.0011650408298891973,-0.05205626535418958,0.203061779283253
1681143419794916400,1.914916259765625,-2.341327667236328,-0.38049769401550293,2.0548226833343506,-0.10438843816518784,0.04957718402147293,-0.9933001399040222,-0.7258574962615967,-0.1367049217224121,0.12231320142745972,0.9753908057231627,-0.013118165551473361,-0.056372393497138004,0.21275048387600515
1681143419804975600,1.9249755859375,-1.9821783304214478,-0.23190128803253174,1.8853399753570557,-0.10635517537593842,0.0732162669301033,-0.9916289448738098,-0.9145798683166504,-0.027241595089435577,0.3324950337409973,0.9729378621390056,-0.023921450044087016,-0.060110684506132515,0.22182495024490737
1681143419815034400,1.935034423828125,-1.4971930980682373,0.05961741507053375,1.5475589036941528,-0.10584910213947296,0.09208887070417404,-0.9901089072227478,-1.030762791633606,0.06922698765993118,0.5011867880821228,0.970708467461228,-0.03269865108388492,-0.06226037642743776,0.2297380281485301
1681143419825092600,1.945092529296875,-1.011246919631958,0.34720471501350403,1.1069724559783936,-0.10255567729473114,0.10573739558458328,-0.9890914559364319,-1.0208269357681274,0.16934798657894135,0.6093002557754517,0.9689933134745605,-0.039353195739789786,-0.06249473353259445,0.2357912835435195
1681143419835151400,1.9551513671875,-0.644162654876709,0.6224503517150879,0.6412746906280518,-0.09673628211021423,0.11467692255973816,-0.9886816143989563,-0.9061018228530884,0.18199965357780457,0.6651037335395813,0.9679324439642671,-0.04415665414503092,-0.06090478058738178,0.23968235983977842
1681143419845210600,1.965210693359375,-0.4248460531234741,0.789501965045929,0.2660478353500366,-0.08911555260419846,0.12024962902069092,-0.9887357950210571,-0.7642627358436584,0.05994134396314621,0.6541715860366821,0.9674902648768073,-0.04767724071744562,-0.05795679546651606,0.2415169269787521
1681143419855268400,1.975268310546875,-0.44872379302978516,0.7784766554832458,0.03763505443930626,-0.08109613507986069,0.12453000992536545,-0.9888961911201477,-0.6365399956703186,-0.12620854377746582,0.5362136960029602,0.9674380815175927,-0.050710853997520705,-0.05459221838378123,0.24189146883741733
1681143419865327600,1.98532763671875,-0.6260556578636169,0.6754738092422485,-0.12535253167152405,-0.07390333712100983,0.12978802621364594,-0.9887837767601013,-0.49074816703796387,-0.2959257960319519,0.4003285765647888,0.9675490385802915,-0.054174382192878276,-0.05170345116103652,0.24133096126174908
1681143419875386400,1.995386474609375,-0.7345209717750549,0.5274454355239868,-0.24151425063610077,-0.06816503405570984,0.1364920288324356,-0.9882932305335999,-0.34827783703804016,-0.4007132947444916,0.32685524225234985,0.9677357071925049,-0.05820256745531165,-0.04965743178609292,0.24007104968249243
1681143419885445600,2.005445556640625,-0.6942334771156311,0.3426324129104614,-0.3169003427028656,-0.06420909613370895,0.14346617460250854,-0.98757004737854,-0.23280322551727295,-0.4551880657672882,0.2782805562019348,0.9679633756092881,-0.06216784858809142,-0.04847807301990384,0.2383941592050289
1681143419895503600,2.015503662109375,-0.49936720728874207,0.1404060572385788,-0.39082008600234985,-0.06234404072165489,0.1492527574300766,-0.9868317246437073,-0.1380191147327423,-0.44309133291244507,0.2707825303077698,0.9682497483327478,-0.06531643107622555,-0.048144643152477344,0.2364492006943041
1681143419905562400,2.025562255859375,-0.13471469283103943,-0.05527689307928085,-0.48930299282073975,-0.06262434273958206,0.152181014418602,-0.9863666296005249,-0.07044756412506104,-0.37029021978378296,0.3002856969833374,0.9686706861595542,-0.0668281633993327,-0.048483824332424826,0.23422293565258123
1681143419915621600,2.03562158203125,0.3136140704154968,-0.23710110783576965,-0.6231728196144104,-0.06492602080106735,0.1509498804807663,-0.9864069819450378,-0.022461064159870148,-0.30936670303344727,0.33113354444503784,0.9693146835717678,-0.06609014361332415,-0.04928081793751523,0.23158690635654314
1681143419925679400,2.045679443359375,0.7069075703620911,-0.4041140675544739,-0.76540607213974,-0.06916943937540054,0.14530633389949799,-0.9869658946990967,0.002427496016025543,-0.27355653047561646,0.3709685802459717,0.9702071753834679,-0.06299896891220184,-0.05047958545171182,0.22843128382586522
1681143419935738600,2.055738525390625,0.9408887624740601,-0.5548602938652039,-0.8946555256843567,-0.07512784004211426,0.13640658557415009,-0.987800121307373,0.011254549026489258,-0.23464272916316986,0.40660810470581055,0.9712834859266033,-0.05815736441527457,-0.052131261003590064,0.22474047782718515
1681143419945797400,2.06579736328125,1.006115198135376,-0.6831482648849487,-1.0151015520095825,-0.08257020264863968,0.12586615979671478,-0.9886050224304199,0.012074597179889679,-0.20365554094314575,0.4371829032897949,0.9724622687693328,-0.05239526896686999,-0.0543344239889505,0.22049848412755818
1681143419955855400,2.07585546875,0.9735959768295288,-0.7849462628364563,-1.1294134855270386,-0.09120451658964157,0.1150047704577446,-0.989169180393219,-0.001034863293170929,-0.21057063341140747,0.455142080783844,0.9736803051993326,-0.046403327718435645,-0.05711522137471482,0.21571098054004262
1681143419965914400,2.085914306640625,0.9124439358711243,-0.9045166373252869,-1.2550930976867676,-0.10092055797576904,0.10448052734136581,-0.9893931746482849,-0.02764999121427536,-0.2419317662715912,0.4535197615623474,0.9749154565608571,-0.04053178281106909,-0.06050278195906907,0.21032425669151214
1681143419975973400,2.095973388671875,0.8759218454360962,-1.0074583292007446,-1.3658169507980347,-0.11176960915327072,0.09416242688894272,-0.9892628788948059,-0.06897072494029999,-0.2556767761707306,0.4173634648323059,0.9761505740451276,-0.03472439373934417,-0.0645196961598256,0.2043558328363214
1681143419986032400,2.106032470703125,0.8362868428230286,-1.1214756965637207,-1.4742335081100464,-0.12361686676740646,0.08396829664707184,-0.9887710809707642,-0.10769110172986984,-0.2425529658794403,0.35020601749420166,0.9773681931072878,-0.028969041245481324,-0.06910332041109056,0.1978302772606402
1681143419996090400,2.11609033203125,0.8829852342605591,-1.1750776767730713,-1.5306177139282227,-0.1362910270690918,0.07352759689092636,-0.9879364371299744,-0.1342167854309082,-0.20470747351646423,0.27326053380966187,0.9785368685490063,-0.023106767265684978,-0.07414747564195853,0.19087599228040755
1681143420006149600,2.126149658203125,0.9451761245727539,-1.1866494417190552,-1.4819399118423462,-0.14906413853168488,0.06218600645661354,-0.9868701696395874,-0.16894423961639404,-0.15997964143753052,0.22827953100204468,0.979600814048196,-0.0168633813489817,-0.07924979097823558,0.18389475101780617
1681143420016208400,2.13620849609375,0.8065838813781738,-1.2146259546279907,-1.3650791645050049,-0.16179825365543365,0.05104896426200867,-0.9855026006698608,-0.23064252734184265,-0.11873701214790344,0.20744168758392334,0.980461252926619,-0.010757671539217863,-0.08445700201591112,0.17733285371430843
1681143420026266600,2.1462666015625,0.3451744318008423,-1.2229396104812622,-1.252305507659912,-0.1744927018880844,0.043014220893383026,-0.9837185144424438,-0.2783728837966919,-0.0694882795214653,0.21435511112213135,0.9811010538083518,-0.006217117821159426,-0.09001167285059063,0.17117212316698288
1681143420036325400,2.156325439453125,-0.04807893559336662,-1.2205169200897217,-1.1953420639038086,-0.18709325790405273,0.039443958550691605,-0.9815499186515808,-0.3208412826061249,-0.0039825960993766785,0.16230559349060059,0.9815606124625204,-0.003934303518776825,-0.09596640370031874,0.16526848834614363
1681143420046384600,2.166384521484375,-0.36260145902633667,-1.1743342876434326,-1.2598943710327148,-0.1994115263223648,0.03912174329161644,-0.9791345596313477,-0.4027155041694641,0.061174213886260986,0.006264746189117432,0.9819561101877249,-0.003374731646555531,-0.10208486895823066,0.1591522214073139
1681143420056443400,2.176443359375,-0.49879831075668335,-1.0981944799423218,-1.4259220361709595,-0.21116656064987183,0.040759917348623276,-0.9765998721122742,-0.5063169598579407,0.11256033182144165,-0.28019028902053833,0.9823923988529933,-0.003983981364919171,-0.10809343622290729,0.15233234277600896
1681143420066501400,2.18650146484375,-0.3634508550167084,-0.9503309726715088,-1.5884931087493896,-0.22189472615718842,0.04179579019546509,-0.974174439907074,-0.6038956642150879,0.22300517559051514,-0.560768187046051,0.9829396182935242,-0.0045542575650887145,-0.1135431192716584,0.14462642061960418
1681143420076560400,2.196560302734375,-0.13289803266525269,-0.7721354365348816,-1.6204218864440918,-0.23098398745059967,0.040520548820495605,-0.9721134305000305,-0.6997105479240417,0.3028174042701721,-0.787209689617157,0.9835747746627762,-0.004219495944907262,-0.1180063168421398,0.1365188336346473
1681143420086619400,2.206619384765625,-0.03821093961596489,-0.6359003782272339,-1.5225012302398682,-0.23846480250358582,0.0374922901391983,-0.9704271554946899,-0.7481379508972168,0.3573746085166931,-0.9071668386459351,0.9842022310213987,-0.0031533509722572635,-0.12155854336694263,0.12868375760940284
1681143420096677600,2.216677734375,-0.20358213782310486,-0.523038387298584,-1.3940612077713013,-0.2446451485157013,0.03497258573770523,-0.9689817428588867,-0.7078847289085388,0.3994298279285431,-0.9371156692504883,0.9847595678843075,-0.0024064185309584586,-0.12451234898566726,0.12140603042799751
1681143420106736400,2.226736328125,-0.4890378415584564,-0.4214648902416229,-1.3297064304351807,-0.2497171014547348,0.03497961908578873,-0.9676868319511414,-0.6474844217300415,0.3509151041507721,-0.9535320401191711,0.985259405323598,-0.00298556901704283,-0.12707349901208806,0.11448688624435584
1681143420116795600,2.236795654296875,-0.6422211527824402,-0.28957298398017883,-1.3350176811218262,-0.25366881489753723,0.037191055715084076,-0.9665759205818176,-0.5875176787376404,0.27422550320625305,-0.9781720042228699,0.9857625974062055,-0.0047736364503514145,-0.1291869360804409,0.10751748958512594
1681143420126854400,2.2468544921875,-0.6707308292388916,-0.1308903992176056,-1.3538401126861572,-0.2562592029571533,0.040179114788770676,-0.9657726883888245,-0.5087401866912842,0.25346097350120544,-0.9868335127830505,0.9863053516494209,-0.007066153507441486,-0.13062821957607182,0.10043904113285017
1681143420136912600,2.25691259765625,-0.6197352409362793,0.02337111346423626,-1.3899530172348022,-0.2573891282081604,0.0427730493247509,-0.965360701084137,-0.4314841330051422,0.2620669901371002,-0.939577043056488,0.9869119011877073,-0.009273704318774768,-0.13127698471871405,0.09319375780955032
1681143420146971400,2.266971435546875,-0.6379989385604858,0.1514023244380951,-1.428002119064331,-0.2572224736213684,0.04499933496117592,-0.965303897857666,-0.3408152163028717,0.2386462390422821,-0.8522772789001465,0.9875702301323779,-0.01138625861551419,-0.13121888874473983,0.08577224012116877
1681143420157030700,2.27703076171875,-0.7100447416305542,0.2531942129135132,-1.4727813005447388,-0.25593411922454834,0.04775019735097885,-0.9655141830444336,-0.22096404433250427,0.18001769483089447,-0.7558145523071289,0.9882594690499367,-0.013838751632950931,-0.1305809965461587,0.07810340513089026
1681143420167088400,2.28708837890625,-0.7382095456123352,0.33652985095977783,-1.510259985923767,-0.2538221478462219,0.05098996311426163,-0.9659059643745422,-0.09969344735145569,0.1160326823592186,-0.6578428149223328,0.9889523375096855,-0.01658873543766101,-0.12950611278517415,0.07018597704693155
1681143420177147600,2.297147705078125,-0.6166087985038757,0.3998359739780426,-1.523207426071167,-0.2510395348072052,0.0537811703979969,-0.966481626033783,-0.002881944179534912,0.06346730887889862,-0.548044741153717,0.9896361544087737,-0.01913321318459964,-0.1280355787500113,0.06213637404523583
1681143420187206400,2.307206298828125,-0.3882446587085724,0.43640249967575073,-1.473684310913086,-0.24776685237884521,0.054878413677215576,-0.9672641754150391,0.0880836546421051,0.05380988121032715,-0.41483116149902344,0.9902950337855759,-0.02078716475949461,-0.12623714946419137,0.05429290595894436
1681143420197264600,2.3172646484375,-0.2399427890777588,0.4441307485103607,-1.3799492120742798,-0.24425680935382843,0.05430733412504196,-0.9681887030601501,0.1884859800338745,0.07229477167129517,-0.25263649225234985,0.990904247998732,-0.021516712761655524,-0.1242686305606296,0.046935945846955915
1681143420207323600,2.32732373046875,-0.2219502031803131,0.44146519899368286,-1.2482879161834717,-0.2406630963087082,0.05325077474117279,-0.9691468477249146,0.2894149422645569,0.06125112250447273,-0.07009875774383545,0.9914424225467807,-0.021899283695143677,-0.12225790643903375,0.04018969168897876
1681143420217382700,2.337382568359375,-0.2828444540500641,0.40798303484916687,-1.1235740184783936,-0.23713937401771545,0.052804164588451385,-0.9700394868850708,0.37498730421066284,0.010840184986591339,0.1131974458694458,0.99189629146176,-0.02248418380335751,-0.12031089386604846,0.03407924300593226
1681143420227441700,2.347441650390625,-0.39032217860221863,0.34079602360725403,-1.0152438879013062,-0.23403741419315338,0.053557541221380234,-0.9707512855529785,0.44444090127944946,-0.02654954418540001,0.283754825592041,0.992251580898932,-0.023580826868841658,-0.11860985470673897,0.02850233574535211
1681143420237499600,2.357499755859375,-0.4626457989215851,0.2686281204223633,-0.9346134662628174,-0.23160691559314728,0.055459536612033844,-0.9712272882461548,0.49996328353881836,-0.011468503624200821,0.4329429864883423,0.9925059800327181,-0.025179505821207496,-0.11727037813695586,0.023355920661335194
1681143420247558700,2.36755859375,-0.48567309975624084,0.2275584489107132,-0.8687494993209839,-0.2297183722257614,0.05801568925380707,-0.9715264439582825,0.5313236713409424,0.019758298993110657,0.56257563829422,0.9926827717423742,-0.027050395062224362,-0.11621123851202284,0.01854712121700094
1681143420257617700,2.37761767578125,-0.45477670431137085,0.19741161167621613,-0.8265665173530579,-0.22815865278244019,0.0606849268078804,-0.9717308878898621,0.5281007289886475,0.04832380264997482,0.6876580715179443,0.9928085747275026,-0.02893430869615152,-0.1153141385302529,0.01401591998056494
1681143420267675600,2.387675537109375,-0.377507746219635,0.18998272716999054,-0.795631468296051,-0.22679725289344788,0.06286304444074631,-0.9719111323356628,0.5097410082817078,0.08362127095460892,0.8022333979606628,0.9929055118094783,-0.0305377673668226,-0.11450712911287785,0.009697259904969668
1681143420277734400,2.397734375,-0.24169018864631653,0.21698854863643646,-0.7602636814117432,-0.2253367006778717,0.0639868751168251,-0.9721775054931641,0.4946390986442566,0.12012561410665512,0.8842411041259766,0.9930042480625574,-0.031579400934702004,-0.11363979320840098,0.00558745320817025
1681143420287793700,2.407793701171875,-0.08479111641645432,0.218780055642128,-0.69847571849823,-0.22367043793201447,0.06382276862859726,-0.9725729823112488,0.49050092697143555,0.12552347779273987,0.9316946864128113,0.9931179145383853,-0.031928391571935576,-0.11266805910635751,0.0017993424882115888
1681143420297852400,2.417852294921875,0.02862846478819847,0.18915162980556488,-0.5931094288825989,-0.22206075489521027,0.06257867068052292,-0.9730225801467896,0.49528467655181885,0.0814947560429573,0.922836422920227,0.9932315994328557,-0.031670477215808276,-0.11173939949209243,-0.0014926110140428227
1681143420307910700,2.42791064453125,0.12075706571340561,0.11208349466323853,-0.4402577877044678,-0.22087882459163666,0.06069696322083473,-0.9734107255935669,0.5218126773834229,0.04240661859512329,0.8785315752029419,0.99332206270958,-0.03100771193509436,-0.11105478180098198,-0.004071526338552285
1681143420317969700,2.4379697265625,0.22796252369880676,0.00875172484666109,-0.2290530949831009,-0.22046813368797302,0.05823281407356262,-0.9736543297767639,0.5556274652481079,0.0390419103205204,0.8409333825111389,0.9933754999718344,-0.02994315278735745,-0.11079822897160627,-0.005671461428534134
1681143420328028700,2.448028564453125,0.3505944311618805,-0.09115969389677048,0.02638399787247181,-0.22093833982944489,0.05520349368453026,-0.9737241864204407,0.578283965587616,0.025805361568927765,0.7956998944282532,0.9933910528321903,-0.02845799629874608,-0.1110317154908859,-0.0060178535681271236
1681143420338086700,2.458086669921875,0.575857400894165,-0.19590555131435394,0.28110045194625854,-0.22225897014141083,0.05104127153754234,-0.9736507534980774,0.5859370231628418,0.010115895420312881,0.7476070523262024,0.9933783850919552,-0.026249156340007573,-0.11173907064124987,-0.004964317776092037
1681143420348145700,2.468145751953125,0.7607486844062805,-0.3089788556098938,0.5132029056549072,-0.22454197704792023,0.0453575998544693,-0.9734082221984863,0.5986722707748413,0.0017462261021137238,0.6883282661437988,0.9933264907666385,-0.023121635086493914,-0.1129658088476167,-0.0025541675667589614
1681143420358204700,2.47820458984375,0.8642485737800598,-0.41721147298812866,0.6901379227638245,-0.22785106301307678,0.038736771792173386,-0.9729251265525818,0.6284553408622742,0.011373039335012436,0.6142825484275818,0.993207705322998,-0.019387008156150385,-0.11472387779793662,0.0009854907557496904
1681143420368263700,2.488263671875,0.9047081470489502,-0.5021937489509583,0.8035408854484558,-0.2320963740348816,0.03174490109086037,-0.9721746444702148,0.6660411357879639,0.034829139709472656,0.5245885848999023,0.9930052001766149,-0.015361576306876233,-0.116947428054894,0.005287204675372514
1681143420378321700,2.49832177734375,0.8676033020019531,-0.5406118631362915,0.8829194903373718,-0.23699858784675598,0.02508145198225975,-0.9711861610412598,0.6851339936256409,0.04637540131807327,0.42138147354125977,0.9927194669046547,-0.011422633116536395,-0.11948404012998565,0.01005369013899837
1681143420388380400,2.50838037109375,0.7812774777412415,-0.5110997557640076,1.0212457180023193,-0.24198317527770996,0.019222328439354897,-0.9700900316238403,0.6773775219917297,0.062488432973623276,0.33753693103790283,0.9923761790908517,-0.007802125058302082,-0.12204146805403315,0.015310541551187084
1681143420398439700,2.518439697265625,0.5404602289199829,-0.4491613209247589,1.2556356191635132,-0.2464725524187088,0.015472943894565105,-0.9690262675285339,0.6274540424346924,0.07574404031038284,0.26889199018478394,0.9919955746496723,-0.005116787817203915,-0.1243410468031364,0.02139793018927795
1681143420408497700,2.52849755859375,0.11852122843265533,-0.38832247257232666,1.4955023527145386,-0.2503448724746704,0.01563289202749729,-0.9680305123329163,0.5814453363418579,0.08400694280862808,0.20081859827041626,0.9915657221666426,-0.004250343141357826,-0.12635934062485094,0.028505619226894978
1681143420418556700,2.538556640625,-0.30797868967056274,-0.3032606244087219,1.598389744758606,-0.25346681475639343,0.020565303042531013,-0.9671254754066467,0.5890381336212158,0.06932416558265686,0.10692650079727173,0.9910858790015288,-0.005695205940937018,-0.12808137562603503,0.03621301794079486
1681143420428615700,2.54861572265625,-0.4085244834423065,-0.11824202537536621,1.585750699043274,-0.25518906116485596,0.028438419103622437,-0.966472864151001,0.590760350227356,0.06959924101829529,-0.04207205772399902,0.9906099468173655,-0.00862739412136806,-0.12918643665522597,0.04391194144778321
1681143420438674700,2.5586748046875,-0.002527696778997779,0.1503697633743286,1.5140855312347412,-0.2545596957206726,0.03467128425836563,-0.9664353132247925,0.5132572650909424,0.1832394301891327,-0.24422752857208252,0.9902351668651787,-0.010793028539772855,-0.12909624835978148,0.05149650024655404
1681143420448732700,2.568732666015625,0.635791540145874,0.36716386675834656,1.4411253929138184,-0.2514350116252899,0.035379558801651,-0.9672273397445679,0.3591163456439972,0.3893640339374542,-0.5242887735366821,0.9900151681067172,-0.010261196845082728,-0.1275971840531894,0.059021980670101754
1681143420458791400,2.57879150390625,1.1848434209823608,0.4395148754119873,1.4969784021377563,-0.24692243337631226,0.030015941709280014,-0.9685702919960022,0.20671556890010834,0.5843333601951599,-0.8387112021446228,0.9898557877968445,-0.006706120681352693,-0.1251794555125358,0.06686303645262606
1681143420468850700,2.5888505859375,1.3427984714508057,0.3652630150318146,1.684849500656128,-0.2425135374069214,0.02128668688237667,-0.969914436340332,0.14276686310768127,0.6614830493927002,-1.065730094909668,0.989570324307561,-0.0013924097322311675,-0.12264107136556879,0.07554937367338446
1681143420478908400,2.598908447265625,0.9856175780296326,0.23068831861019135,1.9301162958145142,-0.2392890304327011,0.01396170537918806,-0.9708479642868042,0.1852119266986847,0.548797607421875,-1.1718673706054688,0.9890160760628085,0.0033468172729228442,-0.12068472107323594,0.08527101639944251
1681143420488967700,2.6089677734375,0.27244648337364197,0.11454546451568604,2.165517568588257,-0.2373466044664383,0.012640714645385742,-0.9713428020477295,0.2504386901855469,0.326913058757782,-1.187852144241333,0.9881725531186102,0.005203270202578433,-0.11958902529136765,0.0958456345384146
1681143420499026400,2.6190263671875,-0.4084407687187195,0.022623248398303986,2.2986936569213867,-0.23633591830730438,0.018758058547973633,-0.9714903235435486,0.24263781309127808,0.1277109980583191,-1.1528077125549316,0.9870724231504588,0.003426309838235471,-0.11934442783370369,0.10692619449678234
1681143420509085700,2.629085693359375,-0.8104028701782227,-0.04210994392633438,2.3262124061584473,-0.2358742505311966,0.03039763681590557,-0.9713080525398254,0.1709328591823578,-0.018053332343697548,-1.1372277736663818,0.985758349859156,-0.0010760144534021118,-0.11976986001113425,0.11804412091103397
1681143420519143700,2.639143798828125,-0.8836406469345093,-0.12493797391653061,2.2986748218536377,-0.23578980565071106,0.044350773096084595,-0.9707915186882019,0.06460146605968475,-0.07285425066947937,-1.1862366199493408,0.9842550912451522,-0.00671745895758646,-0.12066116360539371,0.12898676387657595
1681143420529202700,2.64920263671875,-0.7478921413421631,-0.22465312480926514,2.2383432388305664,-0.23632769286632538,0.057736173272132874,-0.9699565768241882,-0.059036657214164734,-0.03321536257863045,-1.2127673625946045,0.9825758987573472,-0.012035575766827407,-0.12197073488094273,0.13972384513330832
1681143420539261700,2.65926171875,-0.5931909680366516,-0.2976098656654358,2.1554739475250244,-0.23746854066848755,0.06946787238121033,-0.9689080715179443,-0.19903962314128876,-0.0127967968583107,-1.1615393161773682,0.9807655623700036,-0.016491142468565676,-0.1235879926858734,0.1501763424960771
1681143420549319400,2.6693193359375,-0.4954244792461395,-0.34364232420921326,2.0706450939178467,-0.23898565769195557,0.07967478781938553,-0.9677488207817078,-0.35889947414398193,-0.0631648376584053,-1.0175416469573975,0.9788683321403169,-0.020167924264359982,-0.12537481851884227,0.16028458347679417
1681143420559378700,2.679378662109375,-0.44899940490722656,-0.35545748472213745,1.9734712839126587,-0.24066543579101562,0.08907085657119751,-0.9665125608444214,-0.5293540954589844,-0.13130724430084229,-0.7898503541946411,0.9769168317273601,-0.02344712943283957,-0.12725547429605408,0.169969384094232
1681143420569437400,2.6894375,-0.3902503252029419,-0.2919120490550995,1.874586820602417,-0.242038756608963,0.09782544523477554,-0.9653224349021912,-0.6979331374168396,-0.17277668416500092,-0.5180454850196838,0.9749614447752477,-0.02646056245095184,-0.12899076189250266,0.17919651771735695
1681143420579496700,2.69949658203125,-0.2694256603717804,-0.2080705314874649,1.713202953338623,-0.24261382222175598,0.10543990880250931,-0.964375913143158,-0.8341225981712341,-0.175187885761261,-0.23955780267715454,0.9730923686258318,-0.029033789603571204,-0.1302653845112264,0.18782728506629054
1681143420589554400,2.709554443359375,-0.07607565820217133,-0.10575694590806961,1.500937581062317,-0.2423984706401825,0.1110612228512764,-0.9637989401817322,-0.9144923686981201,-0.13137073814868927,0.03784984350204468,0.9714121445411161,-0.030794437019650865,-0.1309665534927169,0.19559591160097675
1681143420599613700,2.71961376953125,0.13235726952552795,0.01171780377626419,1.2583420276641846,-0.24130114912986755,0.11413620412349701,-0.9637150168418884,-0.9348005056381226,-0.06518606841564178,0.3024601340293884,0.970002383435158,-0.03151204996462292,-0.13095597989073862,0.20236828479211616
1681143420609672400,2.72967236328125,0.3039710819721222,0.13151876628398895,0.9687576293945312,-0.23931317031383514,0.1146610900759697,-0.9641483426094055,-0.9119929671287537,-0.02104848623275757,0.5177677273750305,0.9689364550480509,-0.031228835152463077,-0.1301944104590887,0.2079335717825045
1681143420619730700,2.739730712890625,0.39777716994285583,0.22486662864685059,0.6881000399589539,-0.23663337528705597,0.11314953863620758,-0.9649879932403564,-0.8354490995407104,-0.044408753514289856,0.6909096240997314,0.9682335236804684,-0.030202622811550207,-0.12881695446923214,0.21217374913386117
1681143420629789700,2.749789794921875,0.3941989541053772,0.3182106912136078,0.4148631989955902,-0.23335765302181244,0.11053553223609924,-0.966088056564331,-0.6949107646942139,-0.13063141703605652,0.811943769454956,0.96787681451591,-0.028887187817749384,-0.12697051429967454,0.21507769573004668
1681143420639848700,2.7598486328125,0.3385675251483917,0.37206998467445374,0.14478713274002075,-0.22969277203083038,0.10758893191814423,-0.9672982096672058,-0.533521294593811,-0.216811403632164,0.8855568766593933,0.9678477178011885,-0.02763993242862673,-0.12484760121579494,0.21660984204589206
1681143420649907700,2.76990771484375,0.29046630859375,0.37927544116973877,-0.03709505498409271,-0.22597597539424896,0.10455083101987839,-0.9685060381889343,-0.40955257415771484,-0.29591137170791626,0.8933870196342468,0.9680770218590995,-0.026508019495026916,-0.12265519364106484,0.2169790918693214
1681143420659965400,2.77996533203125,0.217462956905365,0.3752136826515198,-0.15017031133174896,-0.22247570753097534,0.10162040591239929,-0.9696276783943176,-0.31916552782058716,-0.40774229168891907,0.8410571217536926,0.9684504802781222,-0.025499783944477522,-0.12056498710973462,0.21660455474952453
1681143420670024700,2.790024658203125,0.12142457813024521,0.3349402844905853,-0.2607165277004242,-0.2191653549671173,0.09945056587457657,-0.9706060886383057,-0.2472958117723465,-0.5027862191200256,0.7865545153617859,0.9689140951761644,-0.0249132891732663,-0.11864357246894287,0.2156580948126915
1681143420680083500,2.80008349609375,0.05234026536345482,0.19605867564678192,-0.3398633301258087,-0.2168389856815338,0.0979417935013771,-0.9712817668914795,-0.18718321621418,-0.5087389945983887,0.754133939743042,0.9694151307864294,-0.024604650044121393,-0.11727630890322034,0.21418456349443066
1681143420690142700,2.810142822265625,0.03237854316830635,0.027497613802552223,-0.3939193785190582,-0.2161119133234024,0.0967210978269577,-0.9715660810470581,-0.1251508891582489,-0.44352293014526367,0.7747277021408081,0.9698776130541652,-0.024296500698988255,-0.1167331880391289,0.21241531809024386
1681143420700200400,2.820200439453125,-0.020693199709057808,-0.12235850095748901,-0.49010637402534485,-0.2170162796974182,0.09567274898290634,-0.9714682698249817,-0.0685214251279831,-0.3764955699443817,0.8311331868171692,0.9703156494577438,-0.02393982674478932,-0.11701596941776547,0.2102891408353407
1681143420710259700,2.830259765625,-0.07393218576908112,-0.27267661690711975,-0.6415206789970398,-0.21950747072696686,0.09493771940469742,-0.9709805846214294,-0.038076117634773254,-0.327237606048584,0.8632840514183044,0.9707849007394082,-0.023648421682239518,-0.1181120569998856,0.20752605881659192
1681143420720318500,2.840318359375,0.03411859646439552,-0.3975180387496948,-0.8228737115859985,-0.22349922358989716,0.09359995275735855,-0.9701995253562927,-0.021694228053092957,-0.2740352153778076,0.8796233534812927,0.971335911669313,-0.023007086128808845,-0.11987871824830576,0.20397588998979155
1681143420730376700,2.850376708984375,0.31243038177490234,-0.4953572750091553,-1.0117920637130737,-0.2287326157093048,0.08993695676326752,-0.9693259000778198,-0.020016148686408997,-0.213823139667511,0.8744162321090698,0.9720116239526125,-0.02120293407026545,-0.12201425374923096,0.1996404494228327
1681143420740435700,2.860435791015625,0.7354720830917358,-0.5404691100120544,-1.1712039709091187,-0.23473495244979858,0.08230569958686829,-0.9685686826705933,-0.04410414397716522,-0.13833603262901306,0.8376787900924683,0.972825322270172,-0.01746143656267939,-0.12414010027634327,0.19466651826222292
1681143420750494700,2.87049462890625,1.0627985000610352,-0.5980695486068726,-1.2966349124908447,-0.24121028184890747,0.07042314112186432,-0.967914342880249,-0.07157962024211884,-0.08758934587240219,0.7785069942474365,0.9737266107208794,-0.011649448894465057,-0.1261234284885525,0.18924472590416727
1681143420760553500,2.880553466796875,1.1059540510177612,-0.6656239628791809,-1.4595396518707275,-0.2482350468635559,0.05632297322154045,-0.9670610427856445,-0.0656382143497467,-0.09846781194210052,0.7231645584106445,0.9746561739203233,-0.004783619322317001,-0.12824426042058043,0.18323707625513563
1681143420770611500,2.890611572265625,0.9369747042655945,-0.7352988719940186,-1.6068025827407837,-0.2558138072490692,0.04235350340604782,-0.9657978415489197,-0.049834996461868286,-0.1070660948753357,0.6634449362754822,0.9755990244474742,0.001931647271161715,-0.13075680997825023,0.1763676077408413
1681143420780670700,2.900670654296875,0.49786725640296936,-0.8057901859283447,-1.6583245992660522,-0.2639029622077942,0.03091585449874401,-0.9640536308288574,-0.08372277021408081,-0.09381263703107834,0.5539889335632324,0.9764925868646649,0.007308533704340165,-0.13386470208021023,0.16878725640781644
1681143420790729500,2.9107294921875,-0.16310909390449524,-0.8876450061798096,-1.650368571281433,-0.2725848853588104,0.024713339284062386,-0.961814284324646,-0.1640453338623047,-0.09270656108856201,0.394065260887146,0.9772787172084393,0.010021372646968148,-0.13781301863287077,0.16072751420176717
1681143420800787700,2.92078759765625,-0.8178581595420837,-0.9050508737564087,-1.5979825258255005,-0.28165382146835327,0.025009015575051308,-0.9591901302337646,-0.29273274540901184,-0.11695854365825653,0.25067877769470215,0.9779525573558447,0.00941520730033883,-0.14253524662630626,0.1523281755173739
1681143420810846500,2.930846435546875,-1.3096086978912354,-0.9371038675308228,-1.5086270570755005,-0.29093289375305176,0.03085125982761383,-0.9562458992004395,-0.44734832644462585,-0.1434917002916336,0.08629655838012695,0.9784824789388907,0.005963165217749078,-0.14778864426270036,0.14385734782319282
1681143420820905700,2.94090576171875,-1.600788950920105,-0.9633890986442566,-1.4392211437225342,-0.30058902502059937,0.04062093794345856,-0.9528883099555969,-0.5806059837341309,-0.02531643584370613,-0.0908890962600708,0.9788200874921941,0.0004934959920667503,-0.15347831208220789,0.1354817601257844
1681143420830964500,2.950964599609375,-1.569246768951416,-1.0275599956512451,-1.422719955444336,-0.3107726573944092,0.05155603215098381,-0.949084997177124,-0.6636841297149658,0.2900424301624298,-0.280834436416626,0.9789596425552346,-0.00561304530425918,-0.15945532185334976,0.12720221809172366
1681143420841022500,2.9610224609375,-1.4853192567825317,-1.1123055219650269,-1.541937232017517,-0.3217727839946747,0.06131011247634888,-0.9448297619819641,-0.6843459606170654,0.5919948816299438,-0.5205633044242859,0.9789338221015619,-0.011212094559230243,-0.1657087657116701,0.11875749106044203
1681143420851081700,2.971081787109375,-1.5112401247024536,-1.192831039428711,-1.719171166419983,-0.33380475640296936,0.07006468623876572,-0.9400347471237183,-0.6291773915290833,0.7252691388130188,-0.7436352968215942,0.978786756721159,-0.01650554025553539,-0.17236645313025648,0.10951631426964338
1681143420861140700,2.981140625,-1.7459278106689453,-1.2264962196350098,-1.7962652444839478,-0.3465868830680847,0.07916354387998581,-0.9346714019775391,-0.5737316608428955,0.6600942015647888,-0.8957881927490234,0.9784836747212226,-0.022208384991569807,-0.17936298601381231,0.09952571777451975
1681143420871199500,2.991199462890625,-2.212040424346924,-1.1994690895080566,-1.8162533044815063,-0.3595515191555023,0.09124352782964706,-0.9286534786224365,-0.5964726209640503,0.39571014046669006,-0.9662134647369385,0.9779635149120598,-0.029682306412816026,-0.18652671559159165,0.0889607281491114
1681143420881257500,3.001257568359375,-2.5046303272247314,-1.0893487930297852,-1.8157460689544678,-0.37209010124206543,0.10666414350271225,-0.9220475554466248,-0.7014114856719971,0.16088339686393738,-0.9673414826393127,0.977214919125683,-0.03914200392356183,-0.19350482863056628,0.0779408020423054
1681143420891316700,3.011316650390625,-2.50989031791687,-0.9010816812515259,-1.771340012550354,-0.3834202289581299,0.12313658744096756,-0.9153285026550293,-0.7956416606903076,0.09308039397001266,-0.9518132209777832,0.9763182011867562,-0.049387972542126714,-0.19974123820705603,0.06683605457629287
1681143420901375500,3.02137548828125,-2.3820767402648926,-0.6837315559387207,-1.6464487314224243,-0.3929513692855835,0.138868048787117,-0.9090131521224976,-0.7916188836097717,0.16392727196216583,-0.9506059885025024,0.975373925152245,-0.05939528277241969,-0.20485515311178282,0.056144146398838635
1681143420911433700,3.031433837890625,-2.3154842853546143,-0.47475680708885193,-1.4126803874969482,-0.40050041675567627,0.1540875881910324,-0.9032477140426636,-0.676708996295929,0.2631334066390991,-0.8979607820510864,0.9744096738612085,-0.06913257629609396,-0.20879856108904013,0.04636212950198064
1681143420921492500,3.041492431640625,-2.335648775100708,-0.2491893470287323,-1.0979126691818237,-0.4058832824230194,0.1699412763118744,-0.8979859352111816,-0.4774326980113983,0.22205694019794464,-0.7789855003356934,0.9734269178528383,-0.07906308370388895,-0.21155629181594005,0.03785520603343609
1681143420931551700,3.0515517578125,-2.3282365798950195,-0.058668941259384155,-0.7586004137992859,-0.4090014696121216,0.1867818832397461,-0.8932134509086609,-0.24001583456993103,0.09483425319194794,-0.6288202404975891,0.9724477794575951,-0.08927516748015378,-0.21312722153482572,0.030852495162710526
1681143420941610500,3.061610595703125,-2.3184359073638916,0.04760266840457916,-0.4911639094352722,-0.4102746546268463,0.20501349866390228,-0.8886192440986633,0.007290065288543701,0.05812424421310425,-0.5047981142997742,0.9714265390100992,-0.0999541590760229,-0.21377450076438112,0.025300624519847624
1681143420951668500,3.07166845703125,-2.158822774887085,0.10879358649253845,-0.25824782252311707,-0.41037648916244507,0.22342240810394287,-0.8841230273246765,0.25081536173820496,0.13204628229141235,-0.435991108417511,0.9703707453580208,-0.11048795755295066,-0.21384780420920338,0.02102860345132395
1681143420961727700,3.081727783203125,-2.0995116233825684,0.18477578461170197,-0.12265869230031967,-0.409543514251709,0.24141837656497955,-0.8797677159309387,0.43467476963996887,0.15939943492412567,-0.4020010828971863,0.9693131486016884,-0.12061653844391551,-0.2134661142590865,0.017773265493870743
1681143420971786500,3.091786376953125,-2.048696517944336,0.29352515935897827,-0.11641624569892883,-0.4077361524105072,0.2592748701572418,-0.8755156993865967,0.5164550542831421,0.07942438125610352,-0.3618957996368408,0.968265430592786,-0.13063032582268452,-0.21255083287126983,0.014832279928930108
1681143420981845500,3.101845458984375,-1.8549193143844604,0.44723066687583923,-0.1435168832540512,-0.4048703908920288,0.275972455739975,-0.8717334270477295,0.5119261145591736,0.000867694616317749,-0.2689220905303955,0.9673292914080097,-0.14005828231343367,-0.21099043394764108,0.011866668810463301
1681143420991903500,3.111903564453125,-1.5002161264419556,0.6379180550575256,-0.20872065424919128,-0.4006263315677643,0.2900063097476959,-0.8691345453262329,0.49190446734428406,-0.029767721891403198,-0.1572784185409546,0.9666897023436744,-0.1480902124097451,-0.20857134897272883,0.008850071317536384
1681143421001962800,3.121962646484375,-1.0775870084762573,0.8127769827842712,-0.31567758321762085,-0.39506492018699646,0.30019018054008484,-0.8682220578193665,0.48522913455963135,-0.002872765064239502,-0.02308964729309082,0.9664774523583818,-0.15409407089369145,-0.20529000278660933,0.005682929317483864
1681143421012021500,3.132021484375,-0.717074453830719,0.9382227659225464,-0.42205914855003357,-0.38853147625923157,0.30648064613342285,-0.8689723014831543,0.507244884967804,0.018714606761932373,0.1249079704284668,0.9666855349316581,-0.1580467944373382,-0.20133318373903944,0.002278655761714535
1681143421022079700,3.142079833984375,-0.47704410552978516,1.0287034511566162,-0.5340436100959778,-0.38139164447784424,0.30973753333091736,-0.8709782361984253,0.5666333436965942,-0.01693671941757202,0.274924099445343,0.9672057779759422,-0.16040951372646942,-0.19692557333867466,-0.0014230600842159854
1681143421032138500,3.152138427734375,-0.31092679500579834,1.0643101930618286,-0.6121208071708679,-0.37396830320358276,0.3109392523765564,-0.8737645149230957,0.623831033706665,-0.10236692428588867,0.3872075080871582,0.967911300451006,-0.16171052537039948,-0.19226917271327357,-0.0054705719016614985
1681143421042197800,3.16219775390625,-0.11735619604587555,1.0561237335205078,-0.6471887826919556,-0.36661437153816223,0.3102160394191742,-0.8771316409111023,0.6533118486404419,-0.17131534218788147,0.4523879289627075,0.9687479188346523,-0.16198170023173833,-0.1876062793021545,-0.0096553980234349
1681143421052256500,3.172256591796875,0.20804639160633087,1.0085124969482422,-0.64461749792099,-0.35948023200035095,0.30744853615760803,-0.881050169467926,0.6600784063339233,-0.1921989917755127,0.49526214599609375,0.9697110994878418,-0.1610975753238299,-0.1830915002812475,-0.013620709880110436
1681143421062314500,3.182314453125,0.5423984527587891,0.9375924468040466,-0.6228771805763245,-0.35275232791900635,0.3017193377017975,-0.8857376575469971,0.6425472497940063,-0.18218207359313965,0.5311386585235596,0.9708627000484819,-0.15854812259566767,-0.17886771122972392,-0.01715675526998935
1681143421072373500,3.19237353515625,0.7788477540016174,0.8540171384811401,-0.6021655201911926,-0.34657248854637146,0.2936336100101471,-0.89087975025177,0.6134792566299438,-0.15953946113586426,0.530741810798645,0.9721261746935368,-0.15467411434051898,-0.1750315176305572,-0.02025888155679615
1681143421082432500,3.2024326171875,1.0106797218322754,0.7670448422431946,-0.587232232093811,-0.3410322666168213,0.28349125385284424,-0.8962866067886353,0.5863021016120911,-0.1330549120903015,0.518433153629303,0.9734544422645648,-0.14966835919097893,-0.1716277418792126,-0.023013210655312474
1681143421092491500,3.212491455078125,1.2156771421432495,0.6804912686347961,-0.5447849035263062,-0.33608168363571167,0.2714707553386688,-0.9018607139587402,0.561896562576294,-0.1464402973651886,0.5153860449790955,0.9748257450016973,-0.1436339284651276,-0.16863852289061937,-0.02539557850540666
1681143421102549500,3.222549560546875,1.441494107246399,0.6149041652679443,-0.44223472476005554,-0.33151906728744507,0.2577231824398041,-0.9075648188591003,0.5448827743530273,-0.14230576157569885,0.5273462533950806,0.9762394045315945,-0.13661978643603973,-0.1659898709414063,-0.027182547880636423
1681143421112608800,3.23260888671875,1.716443657875061,0.545512855052948,-0.31528687477111816,-0.32714515924453735,0.2420210987329483,-0.9134559631347656,0.5402799844741821,-0.07623443007469177,0.5622901916503906,0.9777204004257501,-0.12847342315391574,-0.16360499359616817,-0.028119764800160988
1681143421122667500,3.24266748046875,2.0078165531158447,0.4770650565624237,-0.17899291217327118,-0.3230074644088745,0.22402970492839813,-0.9194981455802917,0.5313205122947693,-0.0232393741607666,0.5748631358146667,0.9792635649260036,-0.11902797657783372,-0.16150313274584194,-0.028141285832819808
1681143421132725800,3.252725830078125,2.2616426944732666,0.35820284485816956,-0.029447361826896667,-0.3193325102329254,0.203825905919075,-0.9254630208015442,0.5318722128868103,0.021103844046592712,0.5380880832672119,0.9808129490583761,-0.10833061264539749,-0.15979043363743237,-0.02715503981114004
1681143421142784500,3.262784423828125,2.393667459487915,0.21157853305339813,0.11679687350988388,-0.31656351685523987,0.18214508891105652,-0.9309192895889282,0.556675910949707,0.09220786392688751,0.4650532007217407,0.9822541735971092,-0.09679219642163386,-0.15865570231399473,-0.02522440941687127
1681143421152843800,3.27284375,2.444690465927124,0.018250886350870132,0.273105263710022,-0.3151322305202484,0.16003252565860748,-0.9354577660560608,0.6021806001663208,0.15533605217933655,0.3763909935951233,0.9834776459824974,-0.08496103217068687,-0.15828055025483756,-0.022371740634960557
1681143421162902800,3.28290283203125,2.425961971282959,-0.16608493030071259,0.37694093585014343,-0.3153291940689087,0.13807979226112366,-0.9388830661773682,0.634710967540741,0.19128111004829407,0.27894043922424316,0.984423099213107,-0.07316093205425214,-0.1587637610178624,-0.018778931865279774
1681143421172960800,3.292960693359375,2.417612075805664,-0.29764294624328613,0.5019500255584717,-0.31702274084091187,0.11656244099140167,-0.9412277936935425,0.6454529762268066,0.23155151307582855,0.15100562572479248,0.9850892912947774,-0.06153344376438017,-0.1599991687948073,-0.01459204247603038
1681143421183019800,3.303019775390625,2.320866346359253,-0.3052992820739746,0.7493371963500977,-0.3192903697490692,0.09599754214286804,-0.9427821040153503,0.6032869815826416,0.2745468318462372,0.03297680616378784,0.9855455710049111,-0.05026647083545089,-0.16149989495029393,-0.009542575323400039
1681143421193078800,3.313078857421875,2.0411596298217773,-0.306243896484375,1.109260082244873,-0.3213471472263336,0.07812739908695221,-0.9437330961227417,0.4551667869091034,0.2931036055088043,-0.0819474458694458,0.9858280889502401,-0.040134772120242544,-0.16285779670819106,-0.0030842004882201406
1681143421203137800,3.3231376953125,1.4067962169647217,-0.36003169417381287,1.4099184274673462,-0.3235694169998169,0.06571733951568604,-0.9439195394515991,0.32094496488571167,0.3099997639656067,-0.20534199476242065,0.9858689834088246,-0.032547115860472785,-0.16425872119267798,0.0046967121527487716
1681143421213195800,3.33319580078125,0.8372514247894287,-0.46725693345069885,1.558410406112671,-0.3265475034713745,0.060103822499513626,-0.9432678818702698,0.3451327681541443,0.3199162483215332,-0.3755645155906677,0.9856279040037671,-0.028284369320065065,-0.16603031568124568,0.013094280207935172
1681143421223254800,3.3432548828125,0.5863696336746216,-0.4764659106731415,1.5416512489318848,-0.33018580079078674,0.05874774605035782,-0.9420859813690186,0.443390816450119,0.299375981092453,-0.5436928272247314,0.9851817167886798,-0.0261560354355349,-0.16814537785450576,0.021442305154325388
1681143421233313800,3.353313720703125,0.8348588347434998,-0.3603177070617676,1.5279532670974731,-0.3332814574241638,0.05740822106599808,-0.9410780072212219,0.4063558578491211,0.27396684885025024,-0.7127611041069031,0.9847127624087278,-0.024030882063832856,-0.1699515444006058,0.029659011824239277
1681143421243371800,3.363371826171875,1.4363930225372314,-0.24644237756729126,1.560163140296936,-0.3352741599082947,0.0519927516579628,-0.9406848549842834,0.18430373072624207,0.449502557516098,-0.868748128414154,0.9843151523861461,-0.019755593919439703,-0.17107685172510448,0.03829066185507753
1681143421253430800,3.3734306640625,2.021113395690918,-0.178378626704216,1.648167610168457,-0.3364962637424469,0.04081064462661743,-0.9408000707626343,-0.0004788041114807129,0.7068241834640503,-1.0365253686904907,0.9839320660354824,-0.012415132050944955,-0.17159788230749776,0.047725975760566794
1681143421263489800,3.38348974609375,2.0418779850006104,-0.1618664562702179,1.8059353828430176,-0.3374982476234436,0.027016378939151764,-0.940938413143158,-0.04101124405860901,0.8017036318778992,-1.1517740488052368,0.9834114987243352,-0.0035923863716225356,-0.17180773522278922,0.058061385180074865
1681143421273548800,3.393548828125,1.5552228689193726,-0.1441441774368286,1.9836739301681519,-0.3385244905948639,0.016279246658086777,-0.9408167600631714,0.007744491100311279,0.695009171962738,-1.1538945436477661,0.9826738607995875,0.003792039531566619,-0.1719803679941264,0.06899602572813406
1681143421283606800,3.403606689453125,0.8697580695152283,-0.11977783590555191,2.1837174892425537,-0.33950695395469666,0.011833653785288334,-0.9405291080474854,0.04604995250701904,0.49703165888786316,-1.0792615413665771,0.9817390984247814,0.008067264564599821,-0.17225090208977759,0.08032919294838525
1681143421293665800,3.413665771484375,0.25183892250061035,-0.08326296508312225,2.3647799491882324,-0.3401776850223541,0.014446037821471691,-0.9402502179145813,0.0276167094707489,0.30293673276901245,-1.0065882205963135,0.9806392548967114,0.008836077633501378,-0.17261756369237063,0.09204175391250226
1681143421303724800,3.423724853515625,-0.14267827570438385,-0.06070614978671074,2.4620535373687744,-0.3403870463371277,0.022349340841174126,-0.9400197863578796,0.02802446484565735,0.22078414261341095,-0.9126566052436829,0.9793856761365414,0.006962593854527903,-0.1730365283875494,0.10398807106709662
1681143421313783800,3.43378369140625,-0.23364920914173126,-0.06089922413229942,2.5122058391571045,-0.34024950861930847,0.03280496224761009,-0.9397627711296082,0.07074880599975586,0.21240371465682983,-0.7983811497688293,0.9779636307436776,0.003817526482762914,-0.17350514128889613,0.1160535269132228
1681143421323841800,3.443841796875,-0.14171139895915985,-0.054508037865161896,2.5626420974731445,-0.3396752178668976,0.04317723587155342,-0.9395512342453003,0.09895259141921997,0.2042287141084671,-0.6954280138015747,0.9763717406381262,0.0007427040637533471,-0.17385005328874478,0.12835068033483313
1681143421333900800,3.45390087890625,-0.13953453302383423,-0.03738550841808319,2.619605302810669,-0.3388015031814575,0.05325676500797272,-0.939349353313446,0.04522243142127991,0.1491662710905075,-0.572155773639679,0.9745824821715657,-0.002141463996303559,-0.17412848057690633,0.1409381732506488
1681143421343959800,3.463959716796875,-0.25750046968460083,-0.007920695468783379,2.6752827167510986,-0.3374497592449188,0.06405328214168549,-0.9391617774963379,-0.08244156837463379,0.03480835258960724,-0.3813185691833496,0.9725959987937038,-0.005371662878065685,-0.17432803072021447,0.15374568473639078
1681143421354018800,3.474018798828125,-0.5191685557365417,0.07553078234195709,2.677619695663452,-0.33526673913002014,0.07672302424907684,-0.9389940500259399,-0.23278743028640747,-0.10396002978086472,-0.09532296657562256,0.9704503474194757,-0.009609761049024041,-0.17438646781188444,0.1665021116680155
1681143421364076800,3.484076904296875,-0.807738721370697,0.2112434059381485,2.6423563957214355,-0.33167555928230286,0.09195990115404129,-0.9389007687568665,-0.43271344900131226,-0.24401380121707916,0.22778022289276123,0.9682212774035951,-0.01532184083371905,-0.17411158285708672,0.1788796408420565
1681143421374135800,3.4941357421875,-0.9293748736381531,0.3960587978363037,2.601797580718994,-0.32617345452308655,0.10897460579872131,-0.9390076994895935,-0.7007735371589661,-0.3272364139556885,0.5218324065208435,0.965962451674183,-0.022185609407512224,-0.17321651584784972,0.19084114692685383
1681143421384194800,3.50419482421875,-0.8064329624176025,0.5700950622558594,2.4800219535827637,-0.3185597062110901,0.12555068731307983,-0.9395513534545898,-0.9590129256248474,-0.3592085838317871,0.7127294540405273,0.9637513189959902,-0.029145073971066554,-0.171391033613983,0.2023836275516622
1681143421394253800,3.51425390625,-0.5548228621482849,0.6581598520278931,2.1877808570861816,-0.30956539511680603,0.13942475616931915,-0.9406008720397949,-1.082081913948059,-0.36179113388061523,0.7751498222351074,0.9617237084902921,-0.03511122386560097,-0.16872096490806252,0.21304453669266096
1681143421404311600,3.5243115234375,-0.22585263848304749,0.6658442616462708,1.8001662492752075,-0.30033648014068604,0.14921511709690094,-0.9420896172523499,-1.009081244468689,-0.3527674078941345,0.7291226983070374,0.9600306056363409,-0.039394358058806804,-0.16553934352075414,0.22222974764867595
1681143421414370800,3.534370849609375,0.1655244529247284,0.6154623031616211,1.4497493505477905,-0.2917275130748749,0.15419727563858032,-0.9439905881881714,-0.8533377647399902,-0.3588787317276001,0.6610316038131714,0.9587236991594198,-0.041548970570872666,-0.1621060951408435,0.22987817378677522
1681143421424429800,3.544429931640625,0.5291388034820557,0.531252920627594,1.1791995763778687,-0.2842124104499817,0.15455865859985352,-0.9462214112281799,-0.7383705377578735,-0.3771539330482483,0.6086207032203674,0.9577300683401772,-0.04154228340875438,-0.1586302115131192,0.23635493991098533
1681143421434487800,3.55448779296875,0.7024314999580383,0.41686829924583435,0.9664246439933777,-0.27803686261177063,0.15151368081569672,-0.9485457539558411,-0.652962863445282,-0.4142243266105652,0.5903152227401733,0.9569511886992274,-0.03989294936386317,-0.15535657882339785,0.24190307253970428
1681143421444546800,3.564546875,0.6615179777145386,0.2777905762195587,0.7595890164375305,-0.2734195590019226,0.14730104804039001,-0.9505493640899658,-0.5546901226043701,-0.4877399802207947,0.6026490330696106,0.956294625132789,-0.03766017585963646,-0.15266635616865815,0.24652647488671492
1681143421454605800,3.574605712890625,0.5958574414253235,0.1364896446466446,0.5286285281181335,-0.27050501108169556,0.14305290579795837,-0.9520309567451477,-0.42950719594955444,-0.5580004453659058,0.6305893063545227,0.9557621237256975,-0.03538864620751129,-0.1507719261184264,0.25006858533221965
1681143421464664600,3.58466455078125,0.5740547776222229,0.003042472992092371,0.29082030057907104,-0.26926785707473755,0.13857847452163696,-0.9530429244041443,-0.30551546812057495,-0.5775433778762817,0.6627444624900818,0.9553982426894405,-0.03298364625817012,-0.14963493098639297,0.2524592405819692
1681143421474722800,3.594722900390625,0.5739200115203857,-0.1076454222202301,0.05313422530889511,-0.26954159140586853,0.1335352659225464,-0.9536852836608887,-0.20799747109413147,-0.5403804183006287,0.6901202201843262,0.9552289369555843,-0.030283864823094947,-0.14913159093442935,0.2537330123658342
1681143421484781800,3.60478173828125,0.5530465245246887,-0.19120068848133087,-0.21040478348731995,-0.27111107110977173,0.12788955867290497,-0.9540141820907593,-0.13495579361915588,-0.47774314880371094,0.7239879369735718,0.9552967365455216,-0.027309975743935577,-0.14915454698466035,0.25380148772174155
1681143421494840800,3.6148408203125,0.5634325742721558,-0.24817049503326416,-0.4691942632198334,-0.27367451786994934,0.12163648754358292,-0.9541000127792358,-0.08818766474723816,-0.4126216471195221,0.7482436895370483,0.9556331802910893,-0.024105772310079314,-0.14956238211546755,0.25261677612598266
1681143421504899800,3.62489990234375,0.5964454412460327,-0.25621286034584045,-0.7292632460594177,-0.2768361568450928,0.11442028731107712,-0.9540805816650391,-0.06312966346740723,-0.34121173620224,0.7725620269775391,0.9562615130819622,-0.020546256408314208,-0.15012517212278303,0.25020820918350123
1681143421514957600,3.63495751953125,0.664567768573761,-0.2305048406124115,-0.9863376617431641,-0.28013187646865845,0.10596924275159836,-0.954094648361206,-0.06349605321884155,-0.28509223461151123,0.7722556591033936,0.9572061953537218,-0.016559340203030296,-0.15059367779341007,0.24658352054545066
1681143421525016800,3.645016845703125,0.7017528414726257,-0.1799413412809372,-1.2423615455627441,-0.2832387685775757,0.09624630212783813,-0.9542077779769897,-0.07766211032867432,-0.2239929437637329,0.7532342672348022,0.958467447057327,-0.012166312031391973,-0.15082474497389883,0.24175168549210005
1681143421535075600,3.65507568359375,0.7141059041023254,-0.11584146320819855,-1.479448676109314,-0.2859237492084503,0.08551928400993347,-0.9544286727905273,-0.09986421465873718,-0.14548638463020325,0.7446050643920898,0.9600236982581195,-0.007521232631036282,-0.1507617513214661,0.23573007612822483
1681143421545134800,3.665134765625,0.6353734135627747,-0.022564835846424103,-1.7049946784973145,-0.28788575530052185,0.07432329654693604,-0.9547763466835022,-0.13905510306358337,-0.09058923274278641,0.7356601357460022,0.9618502949790765,-0.0029126247223791825,-0.15034412527114327,0.2285432801805697
1681143421555192800,3.67519287109375,0.4198743999004364,0.09622493386268616,-1.8685191869735718,-0.28878435492515564,0.06400148570537567,-0.9552525281906128,-0.20486798882484436,-0.08229684084653854,0.6995304822921753,0.9639020060576953,0.0009817253900766432,-0.1495752996299398,0.2202705364839334
1681143421565251800,3.685251953125,0.19637411832809448,0.22813646495342255,-1.9434137344360352,-0.28835904598236084,0.055490776896476746,-0.9559130668640137,-0.3000350892543793,-0.03997265174984932,0.617518961429596,0.9660940390453919,0.0037328613029415955,-0.14842345832268777,0.21123132749675733
1681143421575310600,3.695310546875,-0.10682465136051178,0.31704235076904297,-1.9785674810409546,-0.28671795129776,0.049333635717630386,-0.9567439556121826,-0.4091285765171051,0.02131449431180954,0.4792048931121826,0.9683381302034086,0.005144576508701264,-0.14697468240670378,0.2017252754910967
1681143421585369900,3.705369873046875,-0.43350428342819214,0.29039427638053894,-1.994364619255066,-0.28467684984207153,0.04621683433651924,-0.9575088024139404,-0.5266024470329285,0.08128554373979568,0.27000880241394043,0.9705396106231305,0.004986224347749674,-0.14567340540600962,0.19185207861865808
1681143421595427800,3.715427734375,-0.6251581311225891,0.1859877109527588,-2.079164505004883,-0.28327301144599915,0.04567525535821915,-0.957951009273529,-0.6317508220672607,0.19294163584709167,-0.010234415531158447,0.9726316894688731,0.0035778073232022784,-0.14495407543763225,0.18155761500333015
1681143421605486800,3.72548681640625,-0.5899750590324402,0.049604348838329315,-2.3533122539520264,-0.2831486165523529,0.04533800855278969,-0.9580038189888,-0.6837550401687622,0.35026130080223083,-0.31431978940963745,0.97467742357265,0.0020599480329070606,-0.14489252397578722,0.1703109858858713
1681143421615545900,3.7355458984375,-0.42119452357292175,-0.09636484086513519,-2.711766481399536,-0.28450772166252136,0.04306410998106003,-0.9577060341835022,-0.6673660278320312,0.5240134596824646,-0.5999874472618103,0.9767525805560395,0.0014037345885265348,-0.1454132548015874,0.15750391464357838
1681143421625604900,3.74560498046875,-0.22177274525165558,-0.18009556829929352,-2.9708518981933594,-0.287046879529953,0.03785074129700661,-0.957168459892273,-0.6093001365661621,0.6624208092689514,-0.8266297578811646,0.9788078841438687,0.0020793776122020554,-0.1463265471598265,0.14324592310906342
1681143421635662800,3.755662841796875,-0.3004550635814667,-0.21054242551326752,-3.005830764770508,-0.2899942398071289,0.031480204313993454,-0.9565104842185974,-0.6091299057006836,0.6316362023353577,-0.9508076310157776,0.9807166369743568,0.0032307375108216398,-0.14742561262562343,0.12825818238949793
1681143421645721600,3.7657216796875,-0.5667554140090942,-0.21527475118637085,-2.852130889892578,-0.292892187833786,0.026984915137290955,-0.9557645916938782,-0.6764223575592041,0.47054311633110046,-0.9914705157279968,0.9823524620049564,0.003432627130137958,-0.14868059224656152,0.11342776611539299
1681143421655780900,3.77578076171875,-0.8257219791412354,-0.22073130309581757,-2.604623556137085,-0.2956990599632263,0.025617722421884537,-0.9549375772476196,-0.7107553482055664,0.3414323925971985,-0.9922822713851929,0.983661773682201,0.002143327667295245,-0.1500886966690008,0.09938903580301939
1681143421665839600,3.785839599609375,-0.949660062789917,-0.1915351301431656,-2.3150269985198975,-0.2983721196651459,0.026918787509202957,-0.954069972038269,-0.6889477968215942,0.27538830041885376,-1.0218212604522705,0.9846558216993435,-0.00035153095357634806,-0.15154175618331464,0.08653229875403819
1681143421675897900,3.79589794921875,-0.8949995040893555,-0.1560479700565338,-2.086146354675293,-0.30065232515335083,0.029164046049118042,-0.9532877802848816,-0.6103583574295044,0.2963974177837372,-1.0721333026885986,0.9854078708866639,-0.0031788343681901556,-0.15279395779114144,0.07493473300462974
1681143421685956600,3.80595654296875,-0.7827218174934387,-0.10137428343296051,-1.8637440204620361,-0.3025205135345459,0.031209053471684456,-0.9526317715644836,-0.4494630992412567,0.3765515089035034,-1.0950520038604736,0.9859791646639359,-0.005765272582489087,-0.1537883932439559,0.06450479194469454
1681143421696016000,3.816015869140625,-0.7431573867797852,0.024790577590465546,-1.6767498254776,-0.30354154109954834,0.032999876886606216,-0.9522465467453003,-0.24282988905906677,0.3550158143043518,-1.0467311143875122,0.9864488318317767,-0.008098931317237094,-0.15430852003771256,0.055154160834525616
1681143421706073900,3.826073974609375,-0.8177969455718994,0.23578712344169617,-1.504031777381897,-0.30290889739990234,0.035538673400878906,-0.9523566365242004,-0.06731504201889038,0.18075460195541382,-0.9276329278945923,0.9869156978334301,-0.010728124032148933,-0.15396942014643156,0.0466429186290852
1681143421716132900,3.8361328125,-0.8394715785980225,0.4704395532608032,-1.347549319267273,-0.3000739514827728,0.039163738489151,-0.9531116485595703,0.07116162776947021,0.0005853474140167236,-0.7670269012451172,0.9874412995447893,-0.013819331353800313,-0.15249000679219088,0.03892773828988119
1681143421726191900,3.84619189453125,-0.8305738568305969,0.73357754945755,-1.2602027654647827,-0.2948577105998993,0.04328543692827225,-0.9545602798461914,0.19961237907409668,-0.13756954669952393,-0.5636281967163086,0.9880637670203103,-0.01708712372696903,-0.14975947631250935,0.031781302765217685
1681143421736251000,3.8562509765625,-0.7436858415603638,1.0231035947799683,-1.1981950998306274,-0.2869783043861389,0.047286394983530045,-0.9567692875862122,0.3122774064540863,-0.20524543523788452,-0.33737438917160034,0.9888175967631326,-0.020230462046290715,-0.1456230996051732,0.024988901882788676
1681143421746308900,3.866308837890625,-0.5521801710128784,1.3147841691970825,-1.0929195880889893,-0.2762860357761383,0.05031200125813484,-0.9597576260566711,0.3840131163597107,-0.16057206690311432,-0.11722296476364136,0.9897117966993777,-0.02277338322283759,-0.14000911948463363,0.01869102611330332
1681143421756367600,3.87636767578125,-0.26460376381874084,1.563551902770996,-1.0048179626464844,-0.262845516204834,0.051468852907419205,-0.9634641408920288,0.41473156213760376,-0.08349710702896118,0.05617654323577881,0.99073841521185,-0.02422847966297068,-0.13296955181687858,0.013013060917136698
1681143421766427000,3.886427001953125,-0.04188591614365578,1.6976603269577026,-0.9388182759284973,-0.2474663108587265,0.0503690280020237,-0.96758633852005,0.4278099834918976,-0.026778999716043472,0.16837680339813232,0.9918319950676551,-0.024397819514596603,-0.12494624300599759,0.007891194591889281
1681143421776485600,3.896485595703125,0.05708939954638481,1.7373595237731934,-0.9750183820724487,-0.23114833235740662,0.04794146865606308,-0.9717366099357605,0.455025315284729,-0.008650142699480057,0.2409626841545105,0.9929046375401445,-0.02379660965773602,-0.11647064322843093,0.0029446868873844487
1681143421786543900,3.9065439453125,0.12901067733764648,1.6783602237701416,-1.0390150547027588,-0.21482554078102112,0.044777486473321915,-0.9756253957748413,0.5123414397239685,0.006095260381698608,0.2487882375717163,0.9938851274476972,-0.02277034465430198,-0.10802222703030619,-0.0022436432169852935
1681143421796602600,3.9166025390625,0.19384053349494934,1.5390249490737915,-1.0546514987945557,-0.19942593574523926,0.04097457975149155,-0.9790558815002441,0.575311005115509,0.039225563406944275,0.24436044692993164,0.9947212275762275,-0.021359499138288097,-0.10007917684780131,-0.007588572004583078
1681143421806662000,3.926661865234375,0.18657298386096954,1.3695504665374756,-1.012191653251648,-0.1854768842458725,0.03698283061385155,-0.981952428817749,0.6341768503189087,0.054447777569293976,0.286609411239624,0.9953949579875658,-0.019776024328867107,-0.09291226379965595,-0.012845878173858924
1681143421816720600,3.936720703125,0.134962260723114,1.1849135160446167,-0.8771145939826965,-0.17317022383213043,0.03365227207541466,-0.9843168258666992,0.6396772265434265,0.052330948412418365,0.3857145309448242,0.995915149710682,-0.018429868769665243,-0.08661368936232654,-0.017646742730696795
1681143421826779000,3.94677880859375,0.11822880804538727,1.0064561367034912,-0.7014298439025879,-0.162567138671875,0.030954871326684952,-0.9862117767333984,0.6019287109375,0.05110684037208557,0.5438289642333984,0.9963115578487327,-0.017300223825797822,-0.08120838161763785,-0.021660048394939478
1681143421836838000,3.956837890625,0.11994202435016632,0.8404700756072998,-0.47119638323783875,-0.1535680592060089,0.02873787097632885,-0.9877200722694397,0.5614202618598938,0.021692372858524323,0.7014041543006897,0.9966206986124097,-0.016312661862835764,-0.07664104635221607,-0.024642163219461666
1681143421846897000,3.96689697265625,0.14964814484119415,0.6782682538032532,-0.2150331437587738,-0.14613360166549683,0.02683856710791588,-0.9889007210731506,0.5303957462310791,-0.005644163116812706,0.8385558724403381,0.9968719327771657,-0.01539119741290452,-0.07288857688003153,-0.026393290632124585
1681143421856955600,3.97695556640625,0.21580453217029572,0.48256930708885193,0.10507454723119736,-0.14035199582576752,0.024910906329751015,-0.9897882342338562,0.5015885829925537,0.0020818375051021576,0.9431573748588562,0.9970870188686972,-0.014364276471264922,-0.06999676584142035,-0.026672376093935135
1681143421867013600,3.987013671875,0.2644534111022949,0.3071654140949249,0.4463808536529541,-0.13637708127498627,0.0229225754737854,-0.9903917908668518,0.47612935304641724,0.03451145067811012,0.9958086609840393,0.9972760375344268,-0.013213732007157097,-0.06804054285042105,-0.025226881153007353
1681143421877073000,3.997072998046875,0.4025380611419678,0.14590570330619812,0.7757986783981323,-0.13400202989578247,0.020501889288425446,-0.9907689690589905,0.46307313442230225,0.07535377144813538,0.985535204410553,0.9974457055692565,-0.011757059284485151,-0.06691257350310109,-0.022059878600611
1681143421887131600,4.007131591796875,0.6492130756378174,0.0005572950467467308,1.1037580966949463,-0.13310636579990387,0.016562670469284058,-0.990963339805603,0.42010897397994995,0.12863990664482117,0.923183798789978,0.9975902996407688,-0.009447459834435342,-0.06655124079387509,-0.017180137599333938
1681143421897191000,4.01719091796875,0.9371572732925415,-0.1792292594909668,1.4457924365997314,-0.13378463685512543,0.010351786389946938,-0.9909563660621643,0.3776506185531616,0.21572238206863403,0.8179979920387268,0.9976810683587071,-0.005893715130310059,-0.06698569975914571,-0.010512018353882243
1681143421907248600,4.02724853515625,1.0991291999816895,-0.40897759795188904,1.698683738708496,-0.13659590482711792,0.002240892266854644,-0.9906243085861206,0.3939201831817627,0.31904810667037964,0.6944664716720581,0.9976507684748686,-0.0012762675075468936,-0.0684559254619093,-0.0022324314108704744
1681143421917308000,4.037307861328125,1.1360105276107788,-0.6159563660621643,1.8366447687149048,-0.14175385236740112,-0.006417920347303152,-0.989881157875061,0.4635312259197235,0.3976074457168579,0.542981743812561,0.9974420372459045,0.0037195235465294165,-0.07103238417901847,0.007053811837255908
1681143421927366700,4.04736669921875,1.2865947484970093,-0.7740399837493896,1.9099618196487427,-0.14891234040260315,-0.01566392555832863,-0.9887263178825378,0.539735734462738,0.46599650382995605,0.4195888042449951,0.9970345002683235,0.009117744000247561,-0.07452316175091353,0.01689061814614903
1681143421937426000,4.057426025390625,1.475877046585083,-0.8456500172615051,1.9681428670883179,-0.1574498414993286,-0.026424450799822807,-0.9871733784675598,0.5911504030227661,0.5111656188964844,0.3367674946784973,0.9964202463793348,0.015395591807058854,-0.07858932981035556,0.027080703314506394
1681143421947484000,4.06748388671875,1.5435045957565308,-0.7845683097839355,2.0883970260620117,-0.16627013683319092,-0.03826773539185524,-0.9853374361991882,0.5758312940597534,0.5222306847572327,0.26413077116012573,0.9956120245686169,0.022352359101226627,-0.08265388577752919,0.03775273563324063
1681143421957542700,4.077542724609375,1.2079119682312012,-0.6670541763305664,2.286309003829956,-0.17441855370998383,-0.04847055673599243,-0.9834778904914856,0.4921828508377075,0.48717594146728516,0.1829255223274231,0.9946443531388118,0.028633379532075454,-0.08626228695123771,0.04920748668219607
1681143421967601700,4.0876015625,0.4604903757572174,-0.5517134666442871,2.4797682762145996,-0.18163557350635529,-0.05255943164229393,-0.9819602966308594,0.40511584281921387,0.38636064529418945,0.07316207885742188,0.9935842389753101,0.03197609233705251,-0.08942808267970598,0.061403823284047254
