time,seconds_elapsed,rotationRateX,rotationRateY,rotationRateZ,gravityX,gravityY,gravityZ,accelerationX,accelerationY,accelerationZ,quaternionW,quaternionX,quaternionY,quaternionZ
1681239814908792600,0.10479248046875,0.14681605994701385,-0.038039110600948334,0.08410380035638809,-0.03056447207927704,-0.3226081430912018,-0.9460390210151672,0.0016185399144887924,0.06442934274673462,0.009881794452667236,0.9864175187348143,0.16352514496657392,-0.015492665022322574,6.4781609201600924e-18
1681239814918768400,0.114768310546875,0.34426575899124146,0.001438257284462452,0.0765175148844719,-0.031002437695860863,-0.3249411880970001,-0.9452259540557861,0.002407461404800415,0.09155791997909546,0.027226686477661133,0.9862113507569196,0.1647489665432894,-0.015646293735582958,0.00042893289202425164
1681239814928744400,0.124744384765625,0.44014641642570496,0.03091800957918167,0.021636126562952995,-0.031013427302241325,-0.3286057710647583,-0.9439578652381897,0.00472252257168293,0.07703402638435364,0.0314822793006897,0.9858897354847801,0.16666577937150315,-0.015607417273890955,0.0007171314826886644
1681239814938719500,0.134719482421875,0.521236777305603,0.06880653649568558,0.013418145477771759,-0.03058231808245182,-0.3330937922000885,-0.9423975944519043,-0.011867642402648926,0.07424360513687134,0.03875690698623657,0.9854937657759625,0.16901196765877813,-0.015367241554743328,0.000868802092690249
1681239814948694000,0.144694091796875,0.570555567741394,0.10123094916343689,0.05396197736263275,-0.029890021309256554,-0.3382147252559662,-0.9405941963195801,-0.021471071988344193,0.0473058819770813,0.04418611526489258,0.985036735400511,0.17167620061036246,-0.015172033397630916,1.4794720825551938e-18
1681239814958669800,0.154669921875,0.5526614785194397,0.10501716285943985,0.07981088012456894,-0.029140325263142586,-0.3434765338897705,-0.9387090802192688,-0.021946098655462265,0.02131769061088562,0.0367315411567688,0.9845580400537128,0.17443876539812467,-0.014716592619596435,0.0004633325713930679
1681239814968646100,0.164646240234375,0.41881877183914185,0.08020273596048355,0.15159940719604492,-0.02867789752781391,-0.3479959964752197,-0.9370573163032532,-0.02094368264079094,0.002201288938522339,0.031280338764190674,0.9841379185197285,0.17681900254744562,-0.014366458322544256,0.0011332053253353023
1681239814978622000,0.1746220703125,0.24548748135566711,0.05103126913309097,0.20540457963943481,-0.028709053993225098,-0.35102379322052,-0.9359263181686401,-0.018944142386317253,-0.016682535409927368,0.03664964437484741,0.9838490148775323,0.17842374596019056,-0.014205512591705853,0.002121058858412272
1681239814988598000,0.184597900390625,0.10895100235939026,0.028982851654291153,0.20383107662200928,-0.02907959185540676,-0.3525639772415161,-0.9353358149528503,-0.01736816205084324,-0.044652849435806274,0.04954785108566284,0.9836961262923527,0.17924967183762905,-0.014200570545490171,0.003184102767808134
1681239814998574000,0.194573974609375,0.018612856045365334,0.002945392392575741,0.15871526300907135,-0.029580524191260338,-0.352985680103302,-0.9351609945297241,-0.02170426771044731,-0.052821844816207886,0.050837934017181396,0.9836482246813159,0.17948628739337855,-0.014288685574575218,0.0040962553587140784
1681239815008548900,0.204548828125,0.06542234122753143,-0.006462862715125084,0.08936350792646408,-0.030033782124519348,-0.3532908856868744,-0.9350312948226929,-0.022059721872210503,-0.02872815728187561,0.047656476497650146,0.9836125022435223,0.179657435422495,-0.014406837497468501,0.0047097702399088994
1681239815018525200,0.214525146484375,0.11115600913763046,-0.010277309454977512,0.024838045239448547,-0.030320312827825546,-0.35407182574272156,-0.9347265958786011,-0.014647344127297401,-0.02076035737991333,0.04243844747543335,0.9835336512435113,0.18007342028121479,-0.014500333714400576,0.004990134790024191
1681239815028501000,0.2245009765625,0.13212226331233978,-0.008260657079517841,-0.04115894436836243,-0.03037717007100582,-0.35519441962242126,-0.9342987537384033,-0.007556183263659477,-0.016006171703338623,0.034091293811798096,0.9834252076191249,0.18066358305110022,-0.01453568701705222,0.00494745018706721
1681239815038477000,0.23447705078125,0.10323310643434525,-0.013161671347916126,-0.06056459993124008,-0.030270356684923172,-0.3563289940357208,-0.9338700771331787,-0.007952911779284477,-0.010400772094726562,0.04109358787536621,0.9833173977095392,0.18125644167879865,-0.014527729622530548,0.0046884346660176785
1681239815048453000,0.244453125,0.013642864301800728,-0.031358037143945694,-0.0511639267206192,-0.030278312042355537,-0.3569048345088959,-0.9336499571800232,-0.006831066682934761,-0.009489238262176514,0.03829473257064819,0.9832628814057567,0.1815552876979035,-0.014584630100049905,0.004398826424260881
1681239815058429000,0.254428955078125,-0.06450945883989334,-0.04846698418259621,-0.023919522762298584,-0.030524082481861115,-0.35662001371383667,-0.9337507486343384,-0.0018550660461187363,-0.011147350072860718,0.03645765781402588,0.9832894246260055,0.1814027981340595,-0.014753119586129265,0.004164515620618858
1681239815068405000,0.264405029296875,-0.06879428774118423,-0.04861665517091751,0.02885071374475956,-0.030990593135356903,-0.3559142053127289,-0.9340046048164368,0.0014800969511270523,-0.010739266872406006,0.030272364616394043,0.9833541644865399,0.18103229751656688,-0.014999665429956871,0.004117018773929663
1681239815078380000,0.274380126953125,-0.05750967562198639,-0.03962742164731026,0.10490021109580994,-0.03162971884012222,-0.3553116023540497,-0.9342126250267029,0.005094695836305618,-0.016392529010772705,0.019631385803222656,0.9834059391131665,0.18072187216581062,-0.015273626179994016,0.004397284244583125
1681239815088356000,0.284356201171875,-0.08814558386802673,-0.03599049896001816,0.15940028429031372,-0.03246821463108063,-0.35458970069885254,-0.9344581365585327,0.0078100115060806274,-0.013162404298782349,0.008875250816345215,0.9834653461181202,0.18035519468823677,-0.015586621006178707,0.005019017503419022
1681239815098332000,0.294331787109375,-0.1409587264060974,-0.041096583008766174,0.1748673915863037,-0.033547334372997284,-0.35373666882514954,-0.9347432851791382,0.0072869472205638885,-0.0034868717193603516,0.007771849632263184,0.9835334829366702,0.17992386066603958,-0.015992992381451403,0.005802587097372693
1681239815108308000,0.304307861328125,-0.21117499470710754,-0.03743276372551918,0.18691964447498322,-0.034578800201416016,-0.35227370262145996,-0.9352580308914185,0.00018548592925071716,-0.007314950227737427,0.017197728157043457,0.9836590764776434,0.17917341843681117,-0.016366832895953736,0.006641703429830885
1681239815118284000,0.314283935546875,-0.2194204032421112,-0.04603557288646698,0.18127906322479248,-0.03564218804240227,-0.35043516755104065,-0.9359085559844971,-0.0029778070747852325,-0.004774212837219238,0.020243942737579346,0.9838182168983249,0.1782272395194318,-0.01675603143562568,0.007497200338982322
1681239815128259800,0.324259765625,-0.18391065299510956,-0.050230905413627625,0.14367488026618958,-0.03666970506310463,-0.3487642705440521,-0.9364928603172302,0.001833893358707428,-0.011007487773895264,0.013275086879730225,0.983960831458927,0.17736812778899508,-0.01715015801679272,0.008230167339768404
1681239815138235100,0.334235107421875,-0.10639242827892303,-0.04488780349493027,0.09003829210996628,-0.037424441426992416,-0.3477257192134857,-0.9368491172790527,0.002100341022014618,-0.00243300199508667,0.006688594818115234,0.9840468915198043,0.17683657412770742,-0.017443268708972306,0.008749468846565885
1681239815148211000,0.3442109375,-0.08125707507133484,-0.04359617084264755,0.03946993499994278,-0.03789686784148216,-0.3472047746181488,-0.9370233416557312,0.003778204321861267,0.01738598942756653,0.005214869976043701,0.9840888611673462,0.1765705228354055,-0.017640637301765964,0.008996283166857862
1681239815158187000,0.35418701171875,-0.07700055837631226,-0.045599400997161865,-0.001097997184842825,-0.03814259544014931,-0.3468671441078186,-0.9371383786201477,0.002818495035171509,0.024097919464111328,0.007786571979522705,0.9841179863826096,0.17639513840598334,-0.017764073359277602,0.009010187566584973
1681239815168163000,0.3641630859375,-0.06860397011041641,-0.03563305363059044,-0.02830510027706623,-0.038204126060009,-0.3465171754360199,-0.9372653365135193,-0.00035483017563819885,0.01331096887588501,0.012964189052581787,0.9841515652728904,0.176209159554099,-0.017823111482991844,0.008861176681084182
1681239815178139000,0.374138916015625,-0.04512474313378334,-0.016123533248901367,-0.03053922764956951,-0.03812088817358017,-0.34618493914604187,-0.937391459941864,-0.008281100541353226,0.004632174968719482,0.01861405372619629,0.9841854471956434,0.1760305638152633,-0.01781845882247165,0.008656313332358603
1681239815188115200,0.384115234375,0.029223723337054253,0.009163979440927505,0.026477154344320297,-0.038052164018154144,-0.346324622631073,-0.9373427033424377,-0.010821737349033356,0.004680275917053223,0.028773367404937744,0.984173477112355,0.17610259149371682,-0.017791321839950813,0.008610519911943053
1681239815198091000,0.394091064453125,0.014255691319704056,0.040154919028282166,0.12232033163309097,-0.03805764764547348,-0.34686264395713806,-0.9371435046195984,-0.006650608032941818,0.011733829975128174,0.03470820188522339,0.9841192797615994,0.17639230613879658,-0.017720098387684638,0.009014750492358333
1681239815208066000,0.404066162109375,-0.15115047991275787,0.018495377153158188,0.14987285435199738,-0.03818850591778755,-0.3463820815086365,-0.9373158812522888,-0.0013928040862083435,0.008796602487564087,0.04116719961166382,0.9841564365789935,0.1761533139469533,-0.017665261220550753,0.009701049727130606
1681239815218041900,0.414041748046875,-0.2633260190486908,0.025294426828622818,0.2043059915304184,-0.03855583444237709,-0.34440168738365173,-0.9380303621292114,-0.004504472017288208,-0.005100905895233154,0.060497403144836426,0.9843291994428824,0.17513210501632376,-0.017708007838216026,0.010548652130439526
1681239815228018000,0.424017822265625,-0.35637548565864563,0.02889251708984375,0.26745396852493286,-0.03907530754804611,-0.3413119316101074,-0.9391375184059143,-0.011232923716306686,-0.033291369676589966,0.0822802186012268,0.9845971734554029,0.17353717066059135,-0.01777895620897806,0.011712435483565606
1681239815237994000,0.433993896484375,-0.4054844379425049,0.025984345003962517,0.2748863101005554,-0.03973206877708435,-0.3374563157558441,-0.9405023455619812,-0.009294431656599045,-0.06693217158317566,0.0640527606010437,0.9849270150124964,0.17154731652071378,-0.017898472089900086,0.013042147717530221
1681239815247970000,0.443969970703125,-0.38878363370895386,0.023180995136499405,0.25896337628364563,-0.04037100076675415,-0.33360153436660767,-0.9418493509292603,0.000103045254945755,-0.07899615168571472,0.053101181983947754,0.9852509016323145,0.16956002862322148,-0.018019841195553738,0.014339671797089422
1681239815257946000,0.453946044921875,-0.3373923599720001,-0.001074010506272316,0.2299884557723999,-0.04113294184207916,-0.3302040696144104,-0.9430128931999207,0.010233882814645767,-0.06673809885978699,0.03836512565612793,0.9855279747379097,0.16781363638797717,-0.01822435277637136,0.01552830426403173
1681239815267921000,0.4639208984375,-0.31339606642723083,-0.033835578709840775,0.17373786866664886,-0.04203649237751961,-0.3272615075111389,-0.9439983367919922,0.02625890076160431,-0.04975268244743347,0.019987106323242188,0.9857623783942489,0.16630417089582233,-0.018540749092099913,0.016484690890383027
1681239815277897200,0.473897216796875,-0.34278324246406555,-0.07442055642604828,0.12081499397754669,-0.04304452985525131,-0.3242954909801483,-0.9449759721755981,0.04615732282400131,-0.034301310777664185,0.01214522123336792,0.9859994446045692,0.164779593851811,-0.018965437471836398,0.017128059615398462
1681239815287873000,0.483873046875,-0.36604753136634827,-0.11007873713970184,0.09058433771133423,-0.04422473534941673,-0.32113662362098694,-0.9459996819496155,0.056691158562898636,-0.03089892864227295,0.015839219093322754,0.9862520161144414,0.16315338511474156,-0.019522226774267123,0.017520515469200887
1681239815297848800,0.493848876953125,-0.36330658197402954,-0.12359268963336945,0.08416531980037689,-0.045571181923151016,-0.3181050419807434,-0.9469596147537231,0.06259998679161072,-0.03362533450126648,0.024260640144348145,0.9864903401143699,0.16159486396392125,-0.020181723767112004,0.01780078658210604
1681239815307825200,0.5038251953125,-0.38430988788604736,-0.14291232824325562,0.08903463929891586,-0.047118108719587326,-0.3145158290863037,-0.9480820894241333,0.07198993116617203,-0.04124283790588379,0.038231074810028076,0.9867696849653531,0.15975014970708673,-0.020948390794088185,0.01807708191077399
1681239815317801000,0.513801025390625,-0.45139917731285095,-0.1319369077682495,0.11455518007278442,-0.048742957413196564,-0.31052809953689575,-0.9493136405944824,0.07790249586105347,-0.029666602611541748,0.0592837929725647,0.9870752211493258,0.15770299437308063,-0.02174705013895801,0.018423899291788698
1681239815327777000,0.523777099609375,-0.5530539155006409,-0.1281070113182068,0.16889351606369019,-0.05039529502391815,-0.3056493401527405,-0.9508095383644104,0.08127908408641815,-0.03048655390739441,0.08540737628936768,0.9874442748016156,0.15520021699984268,-0.02254141329896013,0.01893849714414932
1681239815337752000,0.533751953125,-0.6105502247810364,-0.09695121645927429,0.3194902241230011,-0.052184462547302246,-0.29996925592422485,-0.9525204300880432,0.08512818813323975,-0.06766077876091003,0.11533176898956299,0.9878573094927317,0.1522996222301144,-0.023336567673706045,0.019954297085769495
1681239815347728100,0.54372802734375,-0.6134200096130371,-0.03675871714949608,0.7655060291290283,-0.05430566892027855,-0.2937163710594177,-0.9543488025665283,0.09117089956998825,-0.09722909331321716,0.13693547248840332,0.9882711593473721,0.14914389404573705,-0.02411860613593876,0.022241020386710053
1681239815357704000,0.553703857421875,-0.5250241160392761,0.12025220692157745,1.094809651374817,-0.056380730122327805,-0.2876654267311096,-0.9560700058937073,0.101165272295475,-0.12551212310791016,0.15280157327651978,0.9885887402244452,0.14616212329747766,-0.024528300287045467,0.026969799101687016
1681239815367680000,0.563679931640625,-0.44005492329597473,0.23377695679664612,1.34583580493927,-0.05826142057776451,-0.28240957856178284,-0.9575231075286865,0.09057952463626862,-0.08757033944129944,0.16800284385681152,0.9887733663498015,0.14363132349670604,-0.024667757530762894,0.03300037629974094
1681239815377656000,0.573656005859375,-0.3400372564792633,0.34854188561439514,1.5443246364593506,-0.05952609330415726,-0.27772200107574463,-0.9588155150413513,0.06672823429107666,-0.03474751114845276,0.16831868886947632,0.9888268730226596,0.14142304663300903,-0.02432647818784583,0.04036380416650847
1681239815387631900,0.5836318359375,-0.3417404294013977,0.3117237389087677,1.2674787044525146,-0.060153529047966,-0.2738856375217438,-0.9598792791366577,0.0886111706495285,-0.012476086616516113,0.19388806819915771,0.9887695542428502,0.13964052083707548,-0.023683111069351896,0.04769121100932041
1681239815397608000,0.59360791015625,-0.8652792572975159,0.101439468562603,0.9727884531021118,-0.061158135533332825,-0.26768866181373596,-0.9615625143051147,0.11157317459583282,-0.012066006660461426,0.20857179164886475,0.9889165238553452,0.13661179194485967,-0.023578853090835673,0.05315463543014296
1681239815407583000,0.6035830078125,-1.533112645149231,-0.07190466672182083,1.1164231300354004,-0.06372546404600143,-0.25544312596321106,-0.9647216796875,0.21017932891845703,-0.15422487258911133,0.2474365234375,0.9894388706369849,0.13052516000304068,-0.024542851370935113,0.05806606146424319
1681239815417558800,0.613558837890625,-1.9872758388519287,-0.21317550539970398,1.3811397552490234,-0.06819850951433182,-0.23746298253536224,-0.9689996242523193,0.3234322667121887,-0.23778727650642395,0.3350427746772766,0.9901572383896396,0.12162848855236061,-0.026583615349738073,0.06394305746325982
1681239815427535000,0.62353515625,-2.210515260696411,-0.3651767671108246,1.5187857151031494,-0.07428694516420364,-0.21594181656837463,-0.9735761880874634,0.34128522872924805,-0.20385801792144775,0.3598524332046509,0.9908534512711017,0.11107668374250962,-0.029561428224579942,0.07069377165192797
1681239815437511000,0.633510986328125,-2.196171283721924,-0.5768418312072754,1.5736196041107178,-0.08199197053909302,-0.193119615316391,-0.97774338722229,0.3147647976875305,-0.1329454779624939,0.34500718116760254,0.9913765384111282,0.10002751290698017,-0.03350823118247765,0.07774571490891974
1681239815447487200,0.6434873046875,-1.9504228830337524,-0.7836112380027771,1.6643775701522827,-0.09158371388912201,-0.17133231461048126,-0.9809473156929016,0.3301701247692108,-0.005715414881706238,0.3050593137741089,0.9915867025998631,0.08969338918875452,-0.03848937455654686,0.08502638160848171
1681239815457463000,0.653463134765625,-1.6246986389160156,-0.9053563475608826,1.8299790620803833,-0.10272864252328873,-0.15212233364582062,-0.9830084443092346,0.39736059308052063,0.14403516054153442,0.24605470895767212,0.9913992374743862,0.08086613760117613,-0.04423166115742781,0.09290769466327091
1681239815467438000,0.66343798828125,-1.3751609325408936,-0.9482489228248596,2.047135829925537,-0.11464269459247589,-0.13539308309555054,-0.9841370582580566,0.4379611611366272,0.27203553915023804,0.21306467056274414,0.990813860232841,0.07349102708108937,-0.050304409567231485,0.10176810580444687
1681239815477414000,0.673413818359375,-1.3365334272384644,-0.9644963145256042,2.2950196266174316,-0.12678653001785278,-0.11960562318563461,-0.9846926927566528,0.4101117253303528,0.3740153908729553,0.23736298084259033,0.989873370888696,0.06679521295689508,-0.056498307445831834,0.1117908301813583
1681239815487390000,0.683389892578125,-1.5438125133514404,-1.0078409910202026,2.581724166870117,-0.13915814459323883,-0.10236512869596481,-0.9849651455879211,0.38302409648895264,0.442605584859848,0.3256481885910034,0.9886015891571897,0.05961131660560298,-0.06295954092664302,0.12308347644596676
1681239815497366000,0.693365966796875,-1.9813883304595947,-1.057977318763733,2.832289934158325,-0.15182039141654968,-0.08124040812253952,-0.9850637316703796,0.4094650149345398,0.4334743022918701,0.43614405393600464,0.9869903716921175,0.050762805612966845,-0.06993759567976854,0.13558079627759498
1681239815507342000,0.703342041015625,-2.668868064880371,-1.0619370937347412,2.973247528076172,-0.16426301002502441,-0.053892962634563446,-0.9849432706832886,0.4585134983062744,0.34467971324920654,0.5028570890426636,0.9850529331816699,0.03905923038226569,-0.07747740653127404,0.14880374583530923
1681239815517318000,0.71331787109375,-3.4324326515197754,-1.0040982961654663,3.037449836730957,-0.1755724400281906,-0.018779663369059563,-0.9842873811721802,0.4656114876270294,0.2203482687473297,0.5326882600784302,0.9827770908216417,0.023648571054205512,-0.08542279739330419,0.1621515842824037
1681239815527294000,0.7232939453125,-4.136905193328857,-0.9600800275802612,3.1380956172943115,-0.18507768213748932,0.023992745205760002,-0.9824309945106506,0.4187355041503906,0.08512286096811295,0.5441070199012756,0.9800094174599004,0.004522947396481048,-0.0936165538632425,0.17549144237557393
1681239815537269000,0.73326904296875,-4.728644371032715,-0.9337496757507324,3.26580548286438,-0.19280266761779785,0.07342959195375443,-0.978486180305481,0.36090874671936035,-0.09801149368286133,0.5165416598320007,0.9764895790665895,-0.017825968890283518,-0.10217209629454847,0.18897450705669402
1681239815547245000,0.7432451171875,-5.329076290130615,-0.8816302418708801,3.3776328563690186,-0.19830802083015442,0.1288236379623413,-0.971636950969696,0.33780384063720703,-0.2743161916732788,0.42216795682907104,0.9719962318912952,-0.04313229390166022,-0.11100053697729897,0.2025881491902825
1681239815557220900,0.753220947265625,-5.943453788757324,-0.810658872127533,3.4262917041778564,-0.20104143023490906,0.18998342752456665,-0.960983157157898,0.34574049711227417,-0.33527761697769165,0.3636016249656677,0.9663390659113458,-0.07147026123336755,-0.1200017322833866,0.21605695057393495
1681239815567197200,0.763197265625,-6.491443634033203,-0.7272608876228333,3.4053449630737305,-0.20075617730617523,0.256066232919693,-0.945582926273346,0.36777883768081665,-0.2689293622970581,0.36869388818740845,0.95936420378473,-0.10264294536560511,-0.12912384777785404,0.22893644459255397
1681239815577173000,0.773173095703125,-6.9701056480407715,-0.6171106696128845,3.379499912261963,-0.19719655811786652,0.3256493806838989,-0.9246978163719177,0.3975291848182678,-0.15409475564956665,0.3826445937156677,0.9509263309898561,-0.1361986348222335,-0.13820647191839636,0.24101488134979598
1681239815587148800,0.783148681640625,-7.365992069244385,-0.529127836227417,3.3402373790740967,-0.19027628004550934,0.39741042256355286,-0.8976970314979553,0.39691078662872314,-0.05996224284172058,0.3920360207557678,0.9408719534060307,-0.17174669378696064,-0.1471549097005084,0.2522074105732655
1681239815597125000,0.793125,-7.665463447570801,-0.4736403226852417,3.3315508365631104,-0.18024837970733643,0.4697079360485077,-0.8642250895500183,0.3559228181838989,0.020969003438949585,0.3871285319328308,0.9290778696275005,-0.20870491852181086,-0.15597986659711238,0.26253934133447504
1681239815607100000,0.803099853515625,-7.916936874389648,-0.4491933286190033,3.334030866622925,-0.16729937493801117,0.541163980960846,-0.8241071105003357,0.3003712296485901,0.11304140090942383,0.3671521544456482,0.9154105010636477,-0.24661548775658002,-0.164703548529061,0.2721713633079813
1681239815617075500,0.813075439453125,-8.10949993133545,-0.45078936219215393,3.322577953338623,-0.15174445509910583,0.6105541586875916,-0.7773013114929199,0.24802741408348083,0.21664011478424072,0.3123660683631897,0.8998065516501413,-0.28511213734208024,-0.1733794301725585,0.28106736437104424
1681239815627051300,0.82305126953125,-8.232605934143066,-0.5032133460044861,3.355848789215088,-0.13382995128631592,0.6765597462654114,-0.7241246104240417,0.21627317368984222,0.3249204158782959,0.22215628623962402,0.8822286888937663,-0.32373185974172997,-0.18203126458545463,0.28936981533726464
1681239815637027300,0.83302734375,-8.219555854797363,-0.6642370820045471,3.410537004470825,-0.11395653337240219,0.737888753414154,-0.6652324795722961,0.2093544602394104,0.4094196557998657,0.11733520030975342,0.8626450335199942,-0.36189702805698715,-0.19082533008775476,0.29742232855688394
1681239815647003400,0.84300341796875,-7.94642448425293,-0.8915549516677856,3.4699151515960693,-0.09255658835172653,0.7926857471466064,-0.6025633215904236,0.19620952010154724,0.46502000093460083,0.02063894271850586,0.8413519152956593,-0.39851138412206133,-0.19976737760919758,0.30562833938433726
1681239815656979200,0.852979248046875,-7.434858798980713,-1.0892235040664673,3.5841572284698486,-0.06948723644018173,0.8394111394882202,-0.5390368700027466,0.17077507078647614,0.48497557640075684,-0.07973748445510864,0.8189243338982076,-0.43245449084270954,-0.20848186496184629,0.31445448330287773
1681239815666954200,0.862954345703125,-6.928236961364746,-1.1853410005569458,3.7187767028808594,-0.04397599771618843,0.8778214454650879,-0.4769652187824249,0.15296952426433563,0.46753084659576416,-0.1845794916152954,0.7958812983485942,-0.463374412224575,-0.21633665356958193,0.32412298738379175
1681239815676930300,0.872930419921875,-6.711172103881836,-1.2593814134597778,3.8644585609436035,-0.015579337254166603,0.9092693328857422,-0.4159167408943176,0.11373913288116455,0.46675312519073486,-0.2602458596229553,0.7720979494479678,-0.4921441302633772,-0.2232393149277934,0.33439990180225476
1681239815686906400,0.88290625,-6.729183197021484,-1.414282202720642,4.013640403747559,0.015591451898217201,0.9350623488426208,-0.3541406989097595,0.021304305642843246,0.4537927508354187,-0.2572025656700134,0.7469785076255516,-0.5197774573257478,-0.22969772201643676,0.3450995903778718
1681239815696882200,0.892882080078125,-6.7525811195373535,-1.7056725025177002,4.179816722869873,0.04925979673862457,0.9554641842842102,-0.2909672260284424,-0.10731947422027588,0.41508036851882935,-0.25647222995758057,0.720061437065546,-0.5465259600450656,-0.2362747438104876,0.35636409539777264
1681239815706858500,0.9028583984375,-6.599603176116943,-2.133659839630127,4.36082649230957,0.08535846322774887,0.969915509223938,-0.22798693180084229,-0.24134904146194458,0.37658119201660156,-0.30240845680236816,0.6913863724860022,-0.5717181042257216,-0.24319733402925156,0.36875263034741396
1681239815716834300,0.912834228515625,-6.052921772003174,-2.5774483680725098,4.515702247619629,0.12373991310596466,0.9778503179550171,-0.16881242394447327,-0.36238735914230347,0.34624654054641724,-0.30494236946105957,0.6615613760349915,-0.5940292865357093,-0.2504455980942026,0.38307048986480385
1681239815726810400,0.922810302734375,-5.3417792320251465,-2.078782558441162,4.304800987243652,0.1637825071811676,0.9796061515808105,-0.11639319360256195,-0.4606269598007202,0.3534170389175415,-0.2920539379119873,0.6327696329364269,-0.6135165625746517,-0.2557358588256129,0.3972397066523786
1681239815736785400,0.932785400390625,-4.589707851409912,-2.3111469745635986,3.9044456481933594,0.20185595750808716,0.9767634272575378,-0.0720272958278656,-0.5273716449737549,0.49009472131729126,-0.30585646629333496,0.6064198160646862,-0.6297702055417754,-0.2595685664683808,0.41020597033847533
1681239815746761200,0.94276123046875,-3.688899278640747,-2.7201168537139893,3.840350866317749,0.23802433907985687,0.9705424904823303,-0.037308208644390106,-0.5419030785560608,0.8361287117004395,-0.31367433071136475,0.581766541141636,-0.6417290412311618,-0.2636849141362688,0.4245019488536445
1681239815756737300,0.9527373046875,-3.2040743827819824,-2.5341286659240723,3.6351215839385986,0.27353909611701965,0.9617968797683716,-0.011107129976153374,-0.44512414932250977,1.0584211349487305,-0.33763235807418823,0.5592146634824791,-0.650741327571661,-0.2664247728602893,0.43912715216368964
1681239815766713300,0.96271337890625,-3.106255054473877,-2.403529405593872,3.257120132446289,0.30656006932258606,0.951779305934906,0.011720824986696243,-0.4352526366710663,1.0347778797149658,-0.28132832050323486,0.5380005997729197,-0.6584731991698901,-0.2688372338966939,0.45243242272004675
1681239815776689400,0.972689453125,-3.2791571617126465,-2.3035573959350586,2.787911891937256,0.33561503887176514,0.9413805603981018,0.03414108604192734,-0.5607736706733704,0.9656935334205627,-0.2973703145980835,0.517433511188546,-0.6655106769226886,-0.2723345024260046,0.46388814382198423
1681239815786665500,0.98266552734375,-3.6685099601745605,-2.036381721496582,2.4686288833618164,0.36109459400177,0.9306676983833313,0.05889717489480972,-0.6556501984596252,0.8065914511680603,-0.3166179656982422,0.49676765296613784,-0.6727639086437068,-0.2771954371233434,0.4730471205850689
1681239815796641300,0.992641357421875,-4.0124831199646,-1.6912174224853516,2.144819974899292,0.38382020592689514,0.9192441701889038,0.08759307116270065,-0.7618566751480103,0.6441409587860107,-0.2889631986618042,0.4756253966385134,-0.6809275310533499,-0.2830799077201932,0.4795665998230568
1681239815806616300,1.0026162109375,-3.9679064750671387,-1.5216742753982544,1.6899775266647339,0.4029691219329834,0.9075787663459778,0.11796948313713074,-0.8268735408782959,0.5353381037712097,-0.26343145966529846,0.4549576524749985,-0.6891511079864192,-0.28992325462502866,0.4837652594687275
1681239815816592400,1.01259228515625,-3.375115156173706,-1.377420425415039,1.2756937742233276,0.41819557547569275,0.8966470956802368,0.14538414776325226,-0.8751353025436401,0.4626973867416382,-0.22596563398838043,0.4364478613701035,-0.6960454993559141,-0.2970062868932106,0.48664282084415816
1681239815826568400,1.022568359375,-2.3747973442077637,-1.1447820663452148,0.8858833312988281,0.4298258125782013,0.8875789046287537,0.16569244861602783,-0.9167031049728394,0.42978888750076294,-0.20190130174160004,0.4218389479072229,-0.7007453973202913,-0.3029886342370921,0.4890867940592698
1681239815836544300,1.032544189453125,-1.179031491279602,-0.6460534334182739,0.4836392104625702,0.4374173879623413,0.8815664649009705,0.17750246822834015,-0.9479763507843018,0.42165642976760864,-0.20748589932918549,0.41255169843473777,-0.70328427843554,-0.30682642434322555,0.49096854333335943
1681239815846520300,1.042520263671875,-0.1539323478937149,-0.2623239755630493,0.12420240044593811,0.4408429265022278,0.8790960907936096,0.18123915791511536,-1.0173962116241455,0.4226769804954529,-0.2389325052499771,0.4089166618769036,-0.70401283292506,-0.30819719020969316,0.4921052839151242
1681239815856496400,1.052496337890625,0.46530210971832275,-0.1126474142074585,-0.17340025305747986,0.44095101952552795,0.8795206546783447,0.178901806473732,-1.1046777963638306,0.38523465394973755,-0.2443465143442154,0.4093067779893377,-0.7031658820448066,-0.3082347255455378,0.4929677020718998
1681239815866471200,1.06247119140625,0.7343711256980896,0.1516084223985672,-0.4248464107513428,0.4383004307746887,0.8819436430931091,0.17340333759784698,-1.1350319385528564,0.30459529161453247,-0.20352397859096527,0.41225741372352875,-0.7014303125179523,-0.3077290749219566,0.49329748670351903
1681239815876447500,1.072447509765625,0.8902158141136169,0.8026972413063049,-0.48960092663764954,0.43325936794281006,0.8854203224182129,0.1682775467634201,-1.1135724782943726,0.1776289939880371,-0.20743145048618317,0.41682531553973917,-0.7000566975244911,-0.30669104357821936,0.4920548306180962
1681239815886423300,1.08242333984375,1.3771804571151733,1.8259491920471191,-0.6084951162338257,0.4261045455932617,0.8896118998527527,0.16439613699913025,-1.0611599683761597,0.048330843448638916,-0.2485177367925644,0.4242702195044704,-0.7003593457463911,-0.3028115800383079,0.4876442479849742
1681239815896399400,1.0923994140625,1.478354811668396,1.0052260160446167,-0.9927642345428467,0.41675272583961487,0.8952980041503906,0.15735065937042236,-0.9702651500701904,0.018841028213500977,-0.31726253032684326,0.4334630740605944,-0.6994993743093856,-0.2989581119014254,0.48315077666558154
1681239815906375400,1.10237548828125,1.397447943687439,0.4997082054615021,-1.1964024305343628,0.4056980609893799,0.9020236730575562,0.14752145111560822,-0.8315250873565674,0.020858466625213623,-0.4513542652130127,0.4421756480266877,-0.6964668537210174,-0.29781646053641053,0.48033329938771074
1681239815916351200,1.112351318359375,1.0504436492919922,0.2174447923898697,-1.576837420463562,0.3929920792579651,0.9091888070106506,0.13759835064411163,-0.7155628204345703,-0.051888883113861084,-0.38038086891174316,0.45035751362782966,-0.6925622928348052,-0.2985911058639504,0.47789027254444516
1681239815926327300,1.122327392578125,0.2726706564426422,-0.10325954854488373,-2.445020914077759,0.3742617666721344,0.9179710745811462,0.13136735558509827,-0.7035006284713745,-0.12181323766708374,-0.33250856399536133,0.45735708696180405,-0.6877752103042409,-0.3043828839702516,0.4744901310384945
1681239815936302300,1.13230224609375,-0.29566895961761475,-0.5042376518249512,-2.844363212585449,0.3498516082763672,0.9275954961776733,0.13103805482387543,-0.7328623533248901,-0.05549442768096924,-0.22799216210842133,0.4629816610256447,-0.6831168048377064,-0.31443672649767224,0.46917926069851545
1681239815946278400,1.1422783203125,0.08843714743852615,0.18718384206295013,-2.6044516563415527,0.32453596591949463,0.9366626739501953,0.13168008625507355,-0.7556425333023071,0.18859678506851196,-0.11196555197238922,0.4685874691860246,-0.6786028870878514,-0.32455841967789845,0.4632341002190021
1681239815956254200,1.152254150390625,0.6993279457092285,0.8125033974647522,-2.568218946456909,0.29983192682266235,0.9451376795768738,0.129675030708313,-0.6930204033851624,0.5770485997200012,-0.11316491663455963,0.47667513830642744,-0.6747472497593876,-0.3309889157154158,0.4560080199633549
1681239815966230300,1.162230224609375,1.4574627876281738,0.7610776424407959,-2.784843921661377,0.2734312117099762,0.954145610332489,0.12182576954364777,-0.6237425208091736,1.0538499355316162,-0.16572514176368713,0.4876558829770162,-0.6695336539742137,-0.33561521020905677,0.4486411348623751
1681239815976206300,1.172206298828125,1.9359798431396484,0.4161894619464874,-2.926020622253418,0.24549847841262817,0.9634940028190613,0.10681735724210739,-0.5632017254829407,1.5050119161605835,-0.16798973083496094,0.5007086213581816,-0.6617726243387615,-0.33980240180053967,0.442585903077355
1681239815986182400,1.182182373046875,2.2292208671569824,0.31366175413131714,-3.169525146484375,0.21577240526676178,0.9725126028060913,0.08753182739019394,-0.4060342311859131,1.6791293621063232,-0.2320324182510376,0.5148133591613924,-0.6520908994340744,-0.34430128011634853,0.4372658811610459
1681239815996158500,1.192158447265625,2.4572060108184814,0.2531065344810486,-3.342123508453369,0.18369674682617188,0.9808202981948853,0.06517104059457779,-0.2539024353027344,1.7073512077331543,-0.27275145053863525,0.5299844271333907,-0.640926441530827,-0.34899687276290386,0.43189243751797796
1681239816006133200,1.20213330078125,2.5127241611480713,0.13772925734519958,-3.259793758392334,0.15094849467277527,0.9876944422721863,0.04091661050915718,-0.16629883646965027,1.684363603591919,-0.2954484224319458,0.5453642479508667,-0.6287995903294961,-0.3536514949331651,0.4267546141081364
1681239816016109300,1.212109375,2.295102119445801,0.20579752326011658,-2.855900526046753,0.1202273741364479,0.9926016926765442,0.01695249415934086,-0.030368350446224213,1.5507638454437256,-0.24154651165008545,0.5598364527038205,-0.6168916041953842,-0.35766044748914844,0.42202720972110275
1681239816026085400,1.22208544921875,1.7348065376281738,0.1919330507516861,-2.334562301635742,0.09444597363471985,0.9955254197120667,-0.0030386645812541246,0.16649457812309265,1.2815284729003906,-0.060407280921936035,0.5718798532786138,-0.6069266261069208,-0.360722522518683,0.41769946884057846
1681239816036061200,1.232061279296875,0.8997675776481628,0.1265529841184616,-1.8293886184692383,0.07375650107860565,0.9971463680267334,-0.01610288769006729,0.33426353335380554,0.9163363575935364,0.08923840522766113,0.5804717390655274,-0.599667971304757,-0.36379510800828974,0.41364728687244195
1681239816046037500,1.24203759765625,0.12468402832746506,0.16271892189979553,-1.4165925979614258,0.05773184075951576,0.9981109499931335,-0.021013494580984116,0.44097116589546204,0.5744293332099915,0.24359357357025146,0.5855395310899447,-0.5955570444588835,-0.3671580847786663,0.4094511107599782
1681239816056013300,1.252013427734375,-0.2880529463291168,0.33056890964508057,-1.1683881282806396,0.04494769126176834,0.9987932443618774,-0.019803820177912712,0.47787946462631226,0.3320479393005371,0.2966136932373047,0.5882688549624507,-0.5939890879539681,-0.37050648242585,0.40477388490314364
1681239816065989400,1.2619892578125,-0.13166333734989166,0.604402482509613,-0.8696933388710022,0.03479534387588501,0.9992469549179077,-0.017184875905513763,0.4192299246788025,0.2037561535835266,0.2111700177192688,0.5904589136591498,-0.5937268602106053,-0.37268750593662475,0.3999386711798024
1681239816075964400,1.27196435546875,0.421396404504776,0.8864941000938416,-0.4811519682407379,0.028169682249426842,0.9994372129440308,-0.01822185516357422,0.3086680769920349,0.1807692050933838,0.08256828784942627,0.5935757366420995,-0.5935792680147678,-0.3722267113809341,0.395953157555242
1681239816085940500,1.2819404296875,1.0581071376800537,1.0782132148742676,-0.09184285998344421,0.025505924597382545,0.9993517398834229,-0.025413284078240395,0.2274085134267807,0.1373518705368042,-0.0677109956741333,0.5981782939627144,-0.5927643558842876,-0.368678418860246,0.3935600836007303
1681239816095916300,1.291916259765625,1.4482676982879639,1.2587130069732666,0.3318575322628021,0.027046728879213333,0.9989199638366699,-0.03778684884309769,0.18961283564567566,-0.016314804553985596,-0.15906667709350586,0.603837759024758,-0.5914592614361898,-0.3623292944871741,0.3927767956549352
1681239816105892400,1.301892333984375,1.579357385635376,1.3897546529769897,0.7968420386314392,0.0332450307905674,0.9980617165565491,-0.05261087417602539,0.1826058179140091,-0.265685498714447,-0.12938058376312256,0.6096160372871877,-0.5904451973106203,-0.3536510041765597,0.3932860146056209
1681239816115868400,1.311868408203125,1.614139437675476,1.4279297590255737,1.2848305702209473,0.04443001374602318,0.9966943860054016,-0.06801790744066238,0.19549918174743652,-0.5539910793304443,-0.053609780967235565,0.6147465500133154,-0.5901288288679916,-0.3431311850583242,0.39508952548768045
1681239816125844200,1.32184423828125,1.5342352390289307,1.4691147804260254,1.849941372871399,0.060997847467660904,0.9946844577789307,-0.0829588770866394,0.2260199785232544,-0.8423406481742859,0.031063862144947052,0.6187429850317697,-0.5907416773276777,-0.3309755773828704,0.39829209563468526
1681239816135819500,1.331819580078125,1.405076503753662,1.5010881423950195,2.5228395462036133,0.08395424485206604,0.9917854070663452,-0.09650641679763794,0.25419577956199646,-1.1103460788726807,0.14965291321277618,0.6211412894154333,-0.5926780366738149,-0.3169850742358735,0.40303440711394667
1681239816145795300,1.34179541015625,1.0959874391555786,1.4484907388687134,3.120816230773926,0.11341917514801025,0.9877051711082458,-0.10758716613054276,0.25987187027931213,-1.3454625606536865,0.2540717124938965,0.6214535525463307,-0.5961099886007167,-0.3014287595595462,0.4093767356489727
1681239816155771100,1.351771240234375,0.6211074590682983,1.3451515436172485,3.5698466300964355,0.147902712225914,0.9823791980743408,-0.11426509916782379,0.2634742856025696,-1.5039701461791992,0.28693366050720215,0.6191741010107508,-0.6012171159148201,-0.28531636728794574,0.41684086799188186
1681239816165747500,1.36174755859375,0.2428903728723526,1.2186561822891235,3.930373430252075,0.1860172003507614,0.9756336212158203,-0.11634836345911026,0.27864348888397217,-1.5392168760299683,0.3502657413482666,0.6143692033013951,-0.6077656481428093,-0.26915931538920457,0.42511746973576603
1681239816175723300,1.37172314453125,0.01382416021078825,1.0176857709884644,4.255241870880127,0.2269628643989563,0.967060387134552,-0.11524855345487595,0.3047143816947937,-1.5040628910064697,0.4206991195678711,0.6074697965983806,-0.6151335223165277,-0.25295547520199485,0.4342865980092779
1681239816185699300,1.38169921875,0.05610400438308716,0.8702857494354248,4.485727310180664,0.27004262804985046,0.9561847448348999,-0.11308372765779495,0.3274763524532318,-1.4413530826568604,0.4196023941040039,0.5990202909707486,-0.6224592708772483,-0.23664866534998277,0.44465344857551015
1681239816195675400,1.39167529296875,0.3080712854862213,0.941765308380127,4.660514831542969,0.3143461346626282,0.9426584839820862,-0.11216774582862854,0.3289338946342468,-1.3794260025024414,0.3780675530433655,0.5903708328225882,-0.6291545664548944,-0.219273023167953,0.4555724236092157
1681239816205650400,1.401650390625,0.476073682308197,0.9458168745040894,4.7567291259765625,0.35945990681648254,0.9263162016868591,-0.1128147765994072,0.30869200825691223,-1.3774268627166748,0.27161312103271484,0.5817780273834332,-0.6350754527666422,-0.20067830259342298,0.46684244221205207
1681239816215626200,1.411626220703125,0.15831196308135986,0.951081395149231,4.646402835845947,0.40363162755966187,0.9079899191856384,-0.11240974813699722,0.302590936422348,-1.3801730871200562,0.17083579301834106,0.5726995614260078,-0.640797889328915,-0.1821350921568163,0.4777239530203993
1681239816225602300,1.421602294921875,-0.4764918386936188,0.8933175802230835,4.533534049987793,0.4457229673862457,0.8887388110160828,-0.10711996257305145,0.28148046135902405,-1.3273067474365234,0.21644926071166992,0.5619734431990933,-0.6474260992000649,-0.1651649663685229,0.4875920325620494
1681239816235578400,1.431578369140625,-1.0936305522918701,0.7151910066604614,4.6000261306762695,0.48648372292518616,0.8683504462242126,-0.09644372016191483,0.2688721716403961,-1.1709320545196533,0.30986857414245605,0.5488615621016862,-0.6551806949212816,-0.15005464229658608,0.4969638075624416
1681239816245554400,1.441554443359375,-1.733967661857605,0.6059322357177734,4.688788890838623,0.5268739461898804,0.8460618853569031,-0.08113925904035568,0.3080565333366394,-1.0235214233398438,0.37395554780960083,0.5330571803140615,-0.6639265517853593,-0.13649873973780577,0.506379212683077
1681239816255530200,1.4515302734375,-2.5336556434631348,0.46265339851379395,4.601766109466553,0.5660067796707153,0.8221772909164429,-0.06050701066851616,0.35580724477767944,-0.9496185779571533,0.3971007466316223,0.5144495033856924,-0.6738903588661672,-0.12497311337334878,0.5153594175153219
1681239816265506300,1.46150634765625,-3.1039271354675293,0.03710746392607689,4.40756893157959,0.6026135087013245,0.7972255349159241,-0.03589935973286629,0.3864917755126953,-0.8148493766784668,0.42138224840164185,0.493241852794198,-0.68447176715034,-0.11639897237685067,0.5240824096049687
1681239816275481300,1.4714814453125,-3.039823532104492,-0.890497088432312,3.9386613368988037,0.6354175806045532,0.7720416188240051,-0.014024688862264156,0.46042299270629883,-0.534614622592926,0.46386921405792236,0.4712240400605813,-0.6932778842690538,-0.11114598859231706,0.533816904275168
1681239816285457400,1.48145751953125,-2.5486226081848145,-1.8244563341140747,3.1328046321868896,0.6622225642204285,0.7493054270744324,-0.0017603494925424457,0.6362699866294861,-0.10701709985733032,0.32829856872558594,0.45121375656984,-0.6979381484123015,-0.10955439860868062,0.5452399268037816
1681239816295433200,1.49143310546875,-1.8513977527618408,-1.9452687501907349,2.5679681301116943,0.6830692887306213,0.7303523421287537,0.0014479956589639187,0.8857327103614807,0.6148015856742859,0.015504717826843262,0.4346696128031101,-0.6989983633609008,-0.11011487579598637,0.5570803231281549
1681239816305409500,1.501409423828125,-1.367272973060608,-1.5152113437652588,2.312790870666504,0.7005901336669922,0.7135636806488037,0.0008184635662473738,1.1150380373001099,1.5676101446151733,-0.2575017213821411,0.42143125109155655,-0.6988316978855081,-0.10974283490277324,0.567438647940804
1681239816315385300,1.51138525390625,-1.9842174053192139,-1.3512729406356812,2.0657172203063965,0.7160735726356506,0.6980218291282654,0.002154958201572299,1.2767548561096191,2.325995683670044,-0.4347262382507324,0.4088815358986286,-0.6993501378904171,-0.10948453673661313,0.5759675662775718
1681239816325361200,1.521361083984375,-3.4362292289733887,-1.8373675346374512,1.5102646350860596,0.7286861538887024,0.6847842335700989,0.009336844086647034,1.3871586322784424,2.576324224472046,-0.4190199375152588,0.39330033369081263,-0.7011696384710913,-0.11414709792001329,0.5836492797676763
1681239816335337500,1.53133740234375,-4.64723539352417,-2.2194833755493164,0.7850208282470703,0.7366903424263,0.6758711338043213,0.02204255200922489,1.3663370609283447,2.314012289047241,-0.026208043098449707,0.3745118384221099,-0.7036661722193713,-0.1259968033993769,0.5905250148225205
1681239816345312300,1.541312255859375,-5.511952877044678,-1.9234647750854492,0.43229109048843384,0.7413799166679382,0.6698886156082153,0.04006745666265488,1.2495564222335815,1.9078702926635742,0.30005109310150146,0.35328259334810636,-0.7068059324318013,-0.14303531967722852,0.5959512175456227
1681239816355288300,1.551288330078125,-5.546367168426514,-2.424504041671753,0.29347407817840576,0.7448475956916809,0.6644036173820496,0.06140141934156418,1.0482432842254639,1.6473640203475952,0.40914928913116455,0.33090173319964733,-0.710248979028123,-0.16200955790821883,0.5998361892572208
1681239816365264400,1.561264404296875,-5.122480392456055,-2.841655969619751,0.019131788983941078,0.7478938102722168,0.6593405604362488,0.07697521150112152,0.8622747659683228,1.580253005027771,0.3930720090866089,0.30903407839572283,-0.7109508677781637,-0.18175937090034458,0.6049879858850604
1681239816375240400,1.571240478515625,-4.06307315826416,-2.4265642166137695,-0.4877929091453552,0.7484208345413208,0.6573691368103027,0.08793430775403976,0.7560958862304688,1.6278328895568848,0.2898275852203369,0.2908670422303158,-0.7097426260521879,-0.20058055135019906,0.6094500749036145
1681239816385216300,1.58121630859375,-2.626568078994751,-2.1351449489593506,-0.7668720483779907,0.7462328672409058,0.6592286825180054,0.09248862415552139,0.45185673236846924,1.6606107950210571,0.15870164334774017,0.27868026576393723,-0.70671500668697,-0.21632894376421355,0.6132642230244822
1681239816395192300,1.5911923828125,-1.1898244619369507,-1.622982144355774,-0.8960081934928894,0.7425693869590759,0.6635485291481018,0.09107330441474915,0.17401093244552612,1.7434492111206055,-0.0693904235959053,0.2723156657097424,-0.7026201868603548,-0.22773125951131162,0.6166908954682749
1681239816405168400,1.60116845703125,-0.2913138270378113,-1.2029093503952026,-1.0852575302124023,0.7371684312820435,0.6702722311019897,0.0855458602309227,-0.03558450937271118,1.7191627025604248,-0.07414735108613968,0.2713327267728896,-0.6981636437485647,-0.23524552596116707,0.6193591154677814
1681239816415143200,1.61114306640625,0.28905820846557617,-1.307732105255127,-1.2084980010986328,0.7303925156593323,0.6787286400794983,0.07651352882385254,-0.36993408203125,1.3632025718688965,-0.033987171947956085,0.27349812109681876,-0.6929924766240081,-0.24086965455158155,0.6220466788154679
1681239816425119500,1.621119384765625,0.5315110683441162,-1.3335223197937012,-1.189150333404541,0.7231284976005554,0.6877663135528564,0.06374101340770721,-0.5809469819068909,0.9757621884346008,-0.10890686511993408,0.27714878034840984,-0.6867432763589214,-0.24546726976015665,0.6255542828709812
1681239816435095300,1.63109521484375,0.628798246383667,-1.1733720302581787,-1.1869148015975952,0.7156792879104614,0.6965796947479248,0.05079365521669388,-0.6542931795120239,0.6682426929473877,-0.12748420238494873,0.28121437582341524,-0.6805501766255515,-0.24949605981268277,0.6289051876487446
1681239816445071400,1.6410712890625,0.6623917818069458,-1.123388409614563,-1.2199898958206177,0.7077687978744507,0.7054216265678406,0.037995345890522,-0.7289479970932007,0.4502332806587219,-0.03189171105623245,0.2858142688926141,-0.6744946895173528,-0.2530900759803191,0.6319118018805603
1681239816455047400,1.65104736328125,0.5406901240348816,-1.1341429948806763,-1.2485389709472656,0.6993863582611084,0.714277446269989,0.025820044800639153,-0.7911373972892761,0.32722651958465576,0.012586472555994987,0.29030642995435507,-0.6685029612826545,-0.2569315347435613,0.634674920427579
1681239816465023200,1.661023193359375,0.214412122964859,-1.214475154876709,-1.2704964876174927,0.6905890703201294,0.7230945229530334,0.014878079295158386,-0.8205023407936096,0.2213788628578186,-0.014771223068237305,0.29411055562667504,-0.6625906052354599,-0.26155827167692663,0.6372284401379629
1681239816474999600,1.67099951171875,-0.25794076919555664,-1.3257732391357422,-1.285578966140747,0.6814203858375549,0.7318652272224426,0.006313283462077379,-0.8361596465110779,0.08689099550247192,-0.07537448406219482,0.29645074946853706,-0.6568772953733507,-0.26771040431697196,0.6395001614420525
1681239816484974300,1.680974365234375,-0.6985579133033752,-1.4195034503936768,-1.2105177640914917,0.672238826751709,0.7403343319892883,0.0005626776837743819,-0.8528875708580017,-0.08184117078781128,-0.13342082500457764,0.29703046706424174,-0.6514934546621548,-0.27538630571720424,0.641476180891316
1681239816494950400,1.690950439453125,-1.132609248161316,-1.4531633853912354,-1.0296257734298706,0.6638711094856262,0.7478439807891846,-0.0021877249237149954,-0.873908281326294,-0.2721359133720398,-0.1895235776901245,0.2956679064434827,-0.6466840354975186,-0.28408783105403845,0.6431752945362305
1681239816504926500,1.700926513671875,-1.6310102939605713,-1.558975100517273,-0.808127760887146,0.656992495059967,0.7538952827453613,-0.0017475299537181854,-0.8804726600646973,-0.4611095190048218,-0.22072547674179077,0.2920146524222491,-0.6425697205692543,-0.29365011365052635,0.6446714975254259
1681239816514902300,1.71090234375,-1.9554674625396729,-1.7426066398620605,-0.6824734210968018,0.6514085531234741,0.7587266564369202,0.001183407031930983,-0.8682814240455627,-0.5885146260261536,-0.18810343742370605,0.2861308049018635,-0.6387723040605153,-0.3042394568320243,0.6461716322735354
1681239816524878300,1.72087841796875,-1.9901870489120483,-1.809308409690857,-0.7049237489700317,0.6462570428848267,0.7631055116653442,0.004715294577181339,-0.8621230721473694,-0.6328563690185547,-0.10932934284210205,0.27926277785221215,-0.6347500520717128,-0.31535697034249904,0.6478077214968914
1681239816534854400,1.7308544921875,-1.7803057432174683,-1.7113637924194336,-0.8814578056335449,0.6403464078903198,0.7680462598800659,0.007857145741581917,-0.8666951656341553,-0.5508372783660889,-0.03442251682281494,0.2729932104927209,-0.6303793322176253,-0.3264206953433748,0.6492659558568183
1681239816544830200,1.740830322265625,-1.4555635452270508,-1.5459485054016113,-1.083294153213501,0.632908821105957,0.7741623520851135,0.009960265830159187,-0.8599748611450195,-0.3255844712257385,0.00809097196906805,0.26841865233271367,-0.6256513496156225,-0.33695774454264854,0.650362475321794
1681239816554805200,1.75080517578125,-1.150612711906433,-1.4204694032669067,-1.280813455581665,0.623873770236969,0.7814517021179199,0.010721107944846153,-0.8432493209838867,-0.12495756149291992,0.010320900939404964,0.2657047938398453,-0.620544838499568,-0.3468207856147352,0.6511839344810398
1681239816564781300,1.76078125,-1.0086474418640137,-1.253602385520935,-1.4638570547103882,0.6132257580757141,0.7898346185684204,0.010754487477242947,-0.8215997219085693,-0.07491451501846313,-0.03001093864440918,0.2645555532220538,-0.6151725997721673,-0.35628628412798413,0.6516388772516675
1681239816574757400,1.77075732421875,-1.1451224088668823,-1.095274567604065,-1.6414285898208618,0.6010195016860962,0.7991436123847961,0.012055824510753155,-0.7984986901283264,-0.15679430961608887,-0.08033883571624756,0.26426255989627,-0.6099560948627164,-0.36603479985689286,0.6512584368127222
1681239816584733200,1.780733154296875,-1.4887200593948364,-1.037867546081543,-1.8242019414901733,0.5872181057929993,0.809266209602356,0.016227466985583305,-0.795759916305542,-0.3137674927711487,-0.1266552209854126,0.2639703678073759,-0.6049987094239179,-0.37694866382441006,0.649773809432404
1681239816594709500,1.79070947265625,-1.601662278175354,-0.9584577083587646,-1.9279119968414307,0.5719526410102844,0.8199554085731506,0.023319141939282417,-0.8056103587150574,-0.48684054613113403,-0.15863394737243652,0.26344995668450255,-0.6002106708789853,-0.38911016607264626,0.6472516967455363
1681239816604685300,1.800685302734375,-1.236526608467102,-0.7537124156951904,-1.8569411039352417,0.5560802817344666,0.8305885195732117,0.029956722632050514,-0.8310436606407166,-0.6572791934013367,-0.20939993858337402,0.26375832958796724,-0.5953340996354304,-0.40069398658300037,0.6445565688469796
1681239816614661400,1.810661376953125,-0.6650979518890381,-0.04901793971657753,-2.019132375717163,0.5401246547698975,0.8408268094062805,0.03572230413556099,-0.8800293803215027,-0.750555694103241,-0.32052743434906006,0.26628840137206006,-0.5913948741371502,-0.41001616478986164,0.6412718298096108
1681239816624637400,1.820637451171875,-0.15019357204437256,0.4330313503742218,-2.4055137634277344,0.5213503241539001,0.8523972630500793,0.04016432166099548,-1.0002778768539429,-0.7039443850517273,-0.38568413257598877,0.2726984453779863,-0.5880789653837296,-0.4174269894694402,0.6368309071688633
1681239816634613200,1.83061328125,0.07166239619255066,0.23078638315200806,-2.6186234951019287,0.4994734227657318,0.8653064966201782,0.04208766669034958,-1.1807324886322021,-0.6553454399108887,-0.3951301574707031,0.28121689256771104,-0.5837520857426983,-0.42459078581244536,0.6323554459063387
1681239816644589300,1.84058935546875,0.2734249234199524,0.4453771114349365,-2.6371042728424072,0.4764704406261444,0.8781900405883789,0.04193703457713127,-1.2854303121566772,-0.7141273021697998,-0.38289451599121094,0.29064861771743145,-0.5788061736637096,-0.4312214411864951,0.628136245897172
1681239816654565400,1.8505654296875,0.3141630291938782,0.9202716946601868,-2.6455442905426025,0.45285770297050476,0.8905580043792725,0.04273694381117821,-1.3268964290618896,-0.8458192348480225,-0.3147399425506592,0.3014014482283076,-0.574995627544805,-0.43674763972278485,0.6227268734070369
1681239816664541200,1.860541259765625,0.19430607557296753,0.8799754977226257,-2.747899055480957,0.42841318249702454,0.9024910926818848,0.04440822824835777,-1.3812482357025146,-0.8655800223350525,-0.25052380561828613,0.3124374731998118,-0.5715052351418037,-0.4422509238968862,0.6165863880588792
1681239816674517500,1.870517578125,0.1790996938943863,0.9843618273735046,-2.9916064739227295,0.40198656916618347,0.9144620895385742,0.04654131084680557,-1.4005064964294434,-0.6785611510276794,-0.20060908794403076,0.32369382844325834,-0.5675847054175577,-0.4484621022978173,0.6098784756213089
1681239816684493300,1.880493408203125,0.37107211351394653,1.9108473062515259,-3.115943670272827,0.3731647729873657,0.9264445304870605,0.04948500543832779,-1.3832507133483887,-0.41832679510116577,-0.14596617221832275,0.3368152032759101,-0.564433469463485,-0.45404554895725363,0.6015090340823024
1681239816694468400,1.89046826171875,1.4389851093292236,3.9209983348846436,-2.461944103240967,0.34508398175239563,0.937128484249115,0.05203591287136078,-1.3575351238250732,-0.06939142942428589,-0.057238928973674774,0.35407049267388463,-0.5649578709930132,-0.45479727421577026,0.5904374510175087
1681239816704444400,1.9004443359375,2.031559705734253,2.9801597595214844,-2.8298377990722656,0.3205718398094177,0.9460609555244446,0.046933434903621674,-1.239242434501648,0.40397584438323975,-0.031140446662902832,0.37502289762655616,-0.5672062967332826,-0.44915891814060943,0.5795612722259207
1681239816714420200,1.910420166015625,2.3637354373931885,2.6370835304260254,-3.59662127494812,0.2884421944618225,0.9568840265274048,0.034268781542778015,-0.9288382530212402,1.0378823280334473,-0.05273175239562988,0.3961489710047123,-0.5630359094269614,-0.44735327780700573,0.5709043284431634
1681239816724396300,1.920396240234375,3.2090442180633545,2.9524102210998535,-3.2131617069244385,0.2542906105518341,0.9670091271400452,0.015164326876401901,-0.7533292770385742,1.672379970550537,0.20413517951965332,0.42018317357440904,-0.5576936994606206,-0.4433507654082253,0.5620179023511028
1681239816734372400,1.930372314453125,3.9646575450897217,3.138807773590088,-3.221489429473877,0.22375158965587616,0.9745643734931946,-0.012641459703445435,-0.6751980781555176,2.01383900642395,0.21863526105880737,0.4454178082033426,-0.5512809055220389,-0.43562441792900963,0.5549088826978751
1681239816744348200,1.94034814453125,4.765487194061279,2.716268539428711,-3.8160533905029297,0.19064581394195557,0.9804508090019226,-0.048689816147089005,-0.3343988060951233,2.5258665084838867,0.23771584033966064,0.47348620538123887,-0.5422746511950512,-0.42613764831840295,0.5478648214434164
1681239816754323200,1.9503232421875,3.5475878715515137,1.7521381378173828,-4.414576053619385,0.15218651294708252,0.9845287799835205,-0.08684875071048737,-0.011836141347885132,2.761336326599121,0.4383350610733032,0.5008033809721429,-0.5294016745492942,-0.41989223844595713,0.5409440979913483
1681239816764299500,1.960299560546875,1.5603036880493164,-0.3438147008419037,-4.241803169250488,0.10789453983306885,0.9876048564910889,-0.1139988973736763,0.32461586594581604,2.5502524375915527,0.5199743509292603,0.5195556992324565,-0.51249908130963,-0.4246707472187711,0.5357812068191675
1681239816774275300,1.970275390625,-0.032266534864902496,1.953644037246704,-3.414250373840332,0.07123469561338425,0.9903095960617065,-0.11921754479408264,0.6236658692359924,1.759934663772583,0.8457190990447998,0.5327706742209842,-0.5048307289501024,-0.4307402514531984,0.5251326934471457
1681239816784251400,1.98025146484375,0.7458662390708923,3.3664112091064453,-3.015482187271118,0.04229592904448509,0.9918614625930786,-0.12009236961603165,0.7079024314880371,1.533010482788086,1.0679227113723755,0.5471892170684702,-0.5038233033412989,-0.43141151522447924,0.5105196463872089
1681239816794227500,1.9902275390625,1.1918703317642212,3.147480010986328,-2.8421804904937744,0.017210235819220543,0.9914531111717224,-0.12932363152503967,0.9293076992034912,2.0802478790283203,0.8453729152679443,0.56411983859237,-0.5028158310557374,-0.4272170660325475,0.4964178223152184
1681239816804203300,2.000203369140625,1.292371392250061,2.7554237842559814,-2.527794122695923,-0.005289768800139427,0.9899014234542847,-0.14165937900543213,1.4280498027801514,2.10406231880188,0.5576598644256592,0.5802876243949258,-0.5009095359914013,-0.4222084174265828,0.4838347401850579
1681239816814179300,2.010179443359375,0.4887499511241913,0.3456224501132965,-2.2401225566864014,-0.026420187205076218,0.9881168603897095,-0.1514173150062561,1.596519112586975,2.0251431465148926,0.7218977808952332,0.5922224727751257,-0.4973463858552503,-0.4206398873557911,0.4743219356317997
1681239816824155400,2.0201552734375,-0.7554925680160522,-0.05508425086736679,-1.8988155126571655,-0.04702456668019295,0.9876005053520203,-0.14978019893169403,1.3911713361740112,1.3792667388916016,0.6371460556983948,0.5958698605321651,-0.49264491083715245,-0.42709588124053055,0.4688595690349074
1681239816834130200,2.030130126953125,-0.9221845865249634,2.786929130554199,-1.792533278465271,-0.06321442127227783,0.9879265427589417,-0.14144016802310944,0.9432803392410278,0.4937782883644104,0.5994023084640503,0.6008971835738552,-0.4947244162749663,-0.42956684175706467,0.4578676300673067
1681239816844106500,2.0401064453125,-0.1407344937324524,3.2733922004699707,-1.5608516931533813,-0.07538716495037079,0.9875325560569763,-0.13819041848182678,0.3852321207523346,0.14714175462722778,0.4341042637825012,0.6101385236008402,-0.49999176134732104,-0.425338725429668,0.4436512317859915
1681239816854082300,2.050082275390625,0.48198527097702026,2.4628946781158447,-1.2363567352294922,-0.08526502549648285,0.9861156940460205,-0.1424986720085144,0.32044872641563416,0.31443673372268677,0.12962038815021515,0.6197176296469926,-0.502601864562318,-0.41969278181746544,0.43266553448175915
1681239816864058400,2.060058349609375,0.6091856360435486,2.543442964553833,-0.9561828970909119,-0.09237553179264069,0.9843214154243469,-0.1502608060836792,0.776320219039917,0.4641345143318176,0.15311431884765625,0.6285561060847712,-0.5038025278448498,-0.4135850674406457,0.42432032726197333
1681239816874034400,2.070034423828125,0.5019062757492065,2.935488224029541,-0.8296736478805542,-0.09683394432067871,0.9826267957687378,-0.15832819044589996,0.8462388515472412,0.24254721403121948,0.18442083895206451,0.6374311302077265,-0.5059865114067211,-0.4059723534010101,0.4157471351718846
1681239816884010200,2.08001025390625,0.015315564349293709,3.089293956756592,-0.6664282083511353,-0.09937508404254913,0.9814439415931702,-0.16399036347866058,0.5106146931648254,-0.22538596391677856,0.12205933034420013,0.6457509374626942,-0.5097993826805675,-0.39762973550883124,0.4062033768385502
1681239816893986300,2.089986328125,-0.388528048992157,3.0619149208068848,-0.4128210246562958,-0.09963300079107285,0.9812339544296265,-0.16508619487285614,0.32512736320495605,-0.5619680881500244,0.13606411218643188,0.6523691806369021,-0.5155447954096668,-0.3894489242951448,0.39617890806843925
1681239816903961300,2.09996142578125,-0.6563722491264343,2.9709091186523438,-0.09691769629716873,-0.0972026064991951,0.9818503260612488,-0.16285553574562073,0.314869225025177,-0.7214894890785217,0.1987748146057129,0.6573548244002155,-0.5227337136678133,-0.3812108249094047,0.3864098804909513
1681239816913937400,2.1099375,-0.6348408460617065,2.8426740169525146,0.23552575707435608,-0.09193571656942368,0.9829632639884949,-0.15915857255458832,0.3426833748817444,-0.8377909660339355,0.1774539351463318,0.660932208330142,-0.5305026222483258,-0.3728105177599572,0.37782022840701285
1681239816923913200,2.119913330078125,-0.438455730676651,2.864315986633301,0.6038283109664917,-0.08324218541383743,0.9842007160186768,-0.15626920759677887,0.36604857444763184,-0.9459772109985352,0.16241858899593353,0.6639073886170337,-0.5384268511571645,-0.36326564051197574,0.3706235136420162
1681239816933889300,2.12988916015625,-0.15944406390190125,2.866905689239502,0.7779742479324341,-0.07186771184206009,0.985207736492157,-0.15556655824184418,0.3779284954071045,-1.1107568740844727,0.15558189153671265,0.666938449469626,-0.5459361371619323,-0.352378287194901,0.36465945266335725
1681239816943865300,2.139865234375,0.09970367699861526,2.7177464962005615,0.8554385900497437,-0.05946892127394676,0.985785961151123,-0.15712900459766388,0.38849419355392456,-1.3476481437683105,0.16317160427570343,0.6702345494232093,-0.5525050339755962,-0.3408426135082187,0.3596528954078364
1681239816953841400,2.14984130859375,0.2447708547115326,2.4459962844848633,0.8808065056800842,-0.046810269355773926,0.9859559535980225,-0.16031190752983093,0.4407922029495239,-1.5631805658340454,0.1959565430879593,0.6735136401030292,-0.5579563258006961,-0.3294370721424872,0.35571821238117496
1681239816963817500,2.1598173828125,0.2072392702102661,2.018042802810669,0.8784136176109314,-0.034548450261354446,0.985922634601593,-0.16359445452690125,0.5534083247184753,-1.6607120037078857,0.2210286408662796,0.676266681578506,-0.5625311920810276,-0.3190006794634625,0.3527898701775679
1681239816973792300,2.169792236328125,0.10903546959161758,1.691896677017212,0.853052020072937,-0.0230703204870224,0.9859089851379395,-0.16568565368652344,0.6509084701538086,-1.6936724185943604,0.2647000551223755,0.6780933001712756,-0.5665728108357239,-0.31008454579650885,0.35076002343919244
1681239816983768300,2.179768310546875,-0.016069622710347176,1.4847517013549805,0.894862949848175,-0.011993872001767159,0.98594731092453,-0.16662612557411194,0.6844639778137207,-1.7358250617980957,0.3765109181404114,0.6792275054014847,-0.5704430105211215,-0.3021286336873504,0.34923233064988135
1681239816993744400,2.189744384765625,-0.30797526240348816,0.9329052567481995,0.9857332110404968,-0.0007313787355087698,0.9862485527992249,-0.16526734828948975,0.6480855345726013,-1.8247036933898926,0.4725184440612793,0.679004753851828,-0.5744710739935254,-0.2955491676454484,0.34869223103212466
1681239817003720200,2.19972021484375,-0.5576560497283936,0.5674957036972046,1.4333980083465576,0.012137509882450104,0.9869197010993958,-0.1607549637556076,0.5896843671798706,-1.9001734256744385,0.5159644484519958,0.6766958909452555,-0.5790127697712476,-0.29045951567571693,0.349943086618465
1681239817013696500,2.209696533203125,-0.5798183679580688,0.3081440329551697,1.8863654136657715,0.029280373826622963,0.9874739646911621,-0.15504267811775208,0.5395367741584778,-1.952347993850708,0.5327893495559692,0.672734730932098,-0.5840977710034366,-0.2851463795538421,0.35348201943195406
1681239817023672300,2.21967236328125,-0.766563355922699,-0.06338553130626678,1.9694278240203857,0.04871169105172157,0.9877272248268127,-0.14839957654476166,0.4720555245876312,-1.928568720817566,0.4922565221786499,0.6675259744196428,-0.5893439973215908,-0.28013187426558445,0.35862102446146016
1681239817033648000,2.229648193359375,-1.0597480535507202,-0.5012949705123901,2.1048243045806885,0.06818743050098419,0.9878461360931396,-0.13968048989772797,0.354542076587677,-1.8008801937103271,0.4237229824066162,0.6608169306776009,-0.5946121108585255,-0.2767601681290247,0.36491271821668686
1681239817043623400,2.23962353515625,-1.6758261919021606,-0.7350673079490662,2.4135608673095703,0.08957403898239136,0.9878450036048889,-0.12704020738601685,0.23247797787189484,-1.6396087408065796,0.37923765182495117,0.6518946172646372,-0.6009656904045213,-0.27444513659941766,0.3722281151587681
1681239817053599200,2.24959912109375,-2.481353759765625,-1.1793385744094849,2.7588438987731934,0.1139620915055275,0.9876464605331421,-0.1075521856546402,0.1765652596950531,-1.458242654800415,0.32486796379089355,0.6394230066578497,-0.6093674926640159,-0.27366981467022006,0.38067639935990344
1681239817063575300,2.2595751953125,-3.0340068340301514,-1.777420163154602,3.073641300201416,0.1413038969039917,0.9865771532058716,-0.08184903860092163,0.16172043979167938,-1.2410171031951904,0.22024637460708618,0.6232894025147643,-0.6193950446172894,-0.27463659661049633,0.39042939043538716
1681239817073551400,2.26955126953125,-2.827991485595703,-2.674111843109131,3.2783362865448,0.17116114497184753,0.9836479425430298,-0.05604534223675728,0.17837198078632355,-1.0177968740463257,0.10945122689008713,0.6046528032208917,-0.6285194077808407,-0.2773818361331315,0.4030110638591796
1681239817083527400,2.27952734375,-1.8996777534484863,-3.521411418914795,3.1709043979644775,0.2016066014766693,0.9787161350250244,-0.03834211453795433,0.22965261340141296,-0.739259660243988,-0.0030548609793186188,0.5860548981793888,-0.6337894174095472,-0.2813181791561005,0.4191789786638736
1681239817093503200,2.289503173828125,-0.4155486524105072,-3.797447919845581,2.5799779891967773,0.228602796792984,0.9729005694389343,-0.034722402691841125,0.3171125650405884,-0.24160772562026978,0.011040866374969482,0.5708560068404731,-0.6334260381412067,-0.2853248195438464,0.43758982133763935
1681239817103479300,2.299479248046875,1.3326159715652466,-3.339313268661499,2.185812473297119,0.2496594935655594,0.9671342968940735,-0.04818623140454292,0.4030352830886841,0.6949753165245056,0.20867830514907837,0.5620854926457313,-0.6272893004812069,-0.2870801582465506,0.456238198196618
1681239817113454300,2.309454345703125,1.3786085844039917,-2.899484395980835,2.7960286140441895,0.27144569158554077,0.9598328471183777,-0.07098262012004852,0.5727773904800415,1.8232636451721191,0.32614022493362427,0.5566631967285123,-0.6192798585648309,-0.2846070057155044,0.4749921908163153
1681239817123430100,2.31943017578125,-0.23480285704135895,-3.178896903991699,2.825155735015869,0.2966914772987366,0.9511749148368835,-0.0850927010178566,0.9866795539855957,2.6183900833129883,0.30524665117263794,0.5473005341940214,-0.6145420391653048,-0.28247430527329076,0.49295908620389817
1681239817133406500,2.329406494140625,-1.7662498950958252,-3.3520238399505615,1.7473218441009521,0.3159199059009552,0.944921612739563,-0.08554574847221375,1.4548015594482422,2.989053726196289,0.3251394033432007,0.5336098407972307,-0.612316071118733,-0.286873063611483,0.5079700769376271
1681239817143382300,2.33938232421875,-2.7106947898864746,-2.8372812271118164,0.6066500544548035,0.3240663409233093,0.9431223273277283,-0.07417316734790802,1.5258177518844604,2.7913901805877686,0.23359709978103638,0.5192039027197156,-0.6118988914933604,-0.29747800273380637,0.5172176500519402
1681239817153358300,2.3493583984375,-2.871319532394409,-1.8403176069259644,0.2506999373435974,0.32616886496543884,0.943713903427124,-0.054939523339271545,1.2924683094024658,2.359081745147705,-0.1337963342666626,0.5059486578948427,-0.6137020518322839,-0.30967729841535513,0.5210431487182092
1681239817163334400,2.35933447265625,-2.5577950477600098,-2.236663579940796,0.24623744189739227,0.3276364207267761,0.9441558122634888,-0.034993939101696014,1.0517581701278687,2.136563301086426,-0.46927839517593384,0.4940584432323757,-0.6162184965798653,-0.3205897606402346,0.5228799350196275
1681239817173310200,2.369310302734375,-2.3669931888580322,-3.2961292266845703,-0.08131618797779083,0.32806190848350525,0.9443840384483337,-0.022679634392261505,0.8713704943656921,2.0725531578063965,-0.592020571231842,0.48067695294407825,-0.6137086180519968,-0.33469675106355673,0.5294238211038731
1681239817183285200,2.37928515625,-0.652649462223053,-1.8539286851882935,-0.9589642286300659,0.3226252794265747,0.9464052319526672,-0.015174753032624722,0.7021092176437378,2.01509690284729,-0.2600783705711365,0.47325563036810864,-0.610444384538207,-0.3460784258548384,0.5325566371149463
1681239817193261300,2.38926123046875,0.031535014510154724,-1.2703462839126587,-0.6194623112678528,0.3141566216945648,0.949185311794281,-0.018787087872624397,0.19177907705307007,1.7567472457885742,-0.1541864275932312,0.47233194603464407,-0.605057885284624,-0.3528617458996315,0.5350664597885388
1681239817203237400,2.3992373046875,0.46161025762557983,-3.3077890872955322,-0.4209582209587097,0.30968862771987915,0.9504531621932983,-0.027059806510806084,-0.09043499827384949,1.0689257383346558,-0.5073486566543579,0.4703026326930667,-0.5982571140550108,-0.35855058492299674,0.5406899431242423
1681239817213213400,2.40921337890625,1.5373268127441406,-3.790526866912842,-0.5884504914283752,0.3022575080394745,0.9520106315612793,-0.048129815608263016,0.1851235330104828,0.8120123147964478,-0.13517385721206665,0.4681529806108718,-0.5844558744676943,-0.36653297756992376,0.5521755768203979
1681239817223189200,2.419189208984375,2.233691692352295,-2.6310501098632812,-0.010976743884384632,0.2971777021884918,0.951749324798584,-0.07654301822185516,0.22763311862945557,0.9243341088294983,0.1886647343635559,0.4684755354854463,-0.5700332872167359,-0.3698520527471653,0.5646257787042186
1681239817233165300,2.429165283203125,2.7308201789855957,-1.4411176443099976,0.3343505561351776,0.2973777651786804,0.9488317370414734,-0.1062309667468071,-0.13323891162872314,1.106435775756836,-0.023285508155822754,0.4715257162201081,-0.5590428201908111,-0.36654555423645224,0.5751339990832676
1681239817243141400,2.439141357421875,2.1966915130615234,-2.3247244358062744,0.07248362898826599,0.2973356246948242,0.9452195763587952,-0.1347293257713318,-0.25236791372299194,0.6071335673332214,-0.050100281834602356,0.4744515715042306,-0.548510532152338,-0.3630034920689237,0.5850304903405656
1681239817253116400,2.449116455078125,1.1387964487075806,-2.631359338760376,0.3443414866924286,0.2956278324127197,0.9422972202301025,-0.1571003496646881,-0.14529818296432495,0.07084083557128906,0.11725978553295135,0.47359913873307274,-0.5377462894833597,-0.3637014667154596,0.5951926113016407
1681239817263092200,2.45909228515625,1.0024126768112183,-2.514909505844116,0.5350974202156067,0.29546964168548584,0.9392444491386414,-0.17469340562820435,-0.08556970953941345,0.03126043081283569,0.3555712103843689,0.47046395233205074,-0.5283387932357165,-0.365392141609203,0.6049880544308067
1681239817273068500,2.469068603515625,0.3279314339160919,-2.4477245807647705,0.7864415049552917,0.29725322127342224,0.936049222946167,-0.18828855454921722,-0.20191624760627747,-0.013350129127502441,0.5002087950706482,0.46573051801392623,-0.5205124342210049,-0.36731802200379415,0.6141982309048358
1681239817283044400,2.47904443359375,-0.3881319761276245,-2.413156747817993,0.9705502986907959,0.30075976252555847,0.9334650039672852,-0.19541428983211517,-0.4109892249107361,-0.23738950490951538,0.4873303174972534,0.4584257147621092,-0.5145986256247919,-0.3707844532451939,0.6225376203676926
1681239817293020200,2.489020263671875,-1.2899318933486938,-2.29310941696167,0.994530975818634,0.30585891008377075,0.9320830702781677,-0.1940920054912567,-0.5178186893463135,-0.4082944989204407,0.6833499073982239,0.44875837442744315,-0.511409767468962,-0.37605058934453994,0.6290167413711635
1681239817302996500,2.49899658203125,-1.9538980722427368,-2.3361027240753174,0.942804217338562,0.3101809620857239,0.932224690914154,-0.1864006072282791,-0.6391909122467041,-0.6364482045173645,0.71174556016922,0.4372762877891114,-0.5093579694078023,-0.3838673679618344,0.6340267509072175
1681239817312972300,2.50897216796875,-2.69313383102417,-1.922086477279663,0.9475371837615967,0.3151092231273651,0.9334264397621155,-0.17152707278728485,-0.7686614394187927,-0.8133548498153687,0.6732667088508606,0.4242475448760393,-0.5093612103113989,-0.39343057547435745,0.6370068286380628
1681239817322948400,2.5189482421875,-3.3100414276123047,-1.4917339086532593,0.9556587934494019,0.32126036286354065,0.9352293014526367,-0.1487898826599121,-0.8686541318893433,-0.8856533169746399,0.5803543329238892,0.4100687809870654,-0.5120774066000786,-0.40420512980667456,0.6373686501100543
1681239817332923400,2.52892333984375,-3.575770616531372,-1.4270594120025635,0.6883900761604309,0.3272048234939575,0.937190592288971,-0.12087628990411758,-0.9013319611549377,-0.8958086371421814,0.5199242234230042,0.39547879653251977,-0.5162232754585997,-0.4160232992950365,0.6356373582358802
1681239817342899200,2.538899169921875,-3.3063266277313232,-0.9799604415893555,0.30490362644195557,0.33060407638549805,0.9392597079277039,-0.0921529233455658,-0.891364574432373,-0.9005939364433289,0.45790618658065796,0.38250936437831906,-0.5203539257757415,-0.42796650442397133,0.632268190672429
1681239817352875300,2.548875244140625,-2.581542491912842,-0.48352059721946716,-0.023289436474442482,0.33144497871398926,0.9411318898200989,-0.06644774228334427,-0.929513156414032,-0.8851777911186218,0.3364216089248657,0.3727296962562012,-0.5240875770616287,-0.4383016527135313,0.6279304192457684
1681239817362851300,2.558851318359375,-1.6719610691070557,-0.1476445496082306,-0.2771560251712799,0.32987919449806213,0.9428391456604004,-0.04726933315396309,-1.0037835836410522,-0.8368362188339233,0.17762529850006104,0.36694287352377136,-0.5268080193616774,-0.4459132700875297,0.6236888576520804
1681239817372827400,2.568827392578125,-0.6187160611152649,-0.050364330410957336,-0.5745767951011658,0.3258388340473175,0.9447180032730103,-0.036566052585840225,-1.0479152202606201,-0.754669725894928,-0.033151205629110336,0.36493407194325106,-0.5276704607473692,-0.450866785355706,0.6205692695667508
1681239817382803500,2.578803466796875,0.4174480140209198,-0.2435377836227417,-0.8598013520240784,0.3185386061668396,0.9472212195396423,-0.03612794727087021,-1.0089987516403198,-0.5689557790756226,-0.25142377614974976,0.36672737409193396,-0.5256626909823889,-0.45344763992531756,0.6193343594355957
1681239817392779300,2.588779296875,1.1786918640136719,-0.5298994779586792,-1.0663188695907593,0.3091724216938019,0.9499405026435852,-0.04500604793429375,-0.877760648727417,-0.3379257321357727,-0.2847362160682678,0.37101811109030947,-0.5208044530010385,-0.4541582302437859,0.6203616936673533
1681239817402754300,2.59875439453125,1.8836901187896729,-0.7338632941246033,-1.2924891710281372,0.297574520111084,0.9527204036712646,-0.06143048778176308,-0.8096441626548767,-0.18447065353393555,-0.23256045579910278,0.3771480610610093,-0.513258205580136,-0.4537078026520725,0.6232774832964569
1681239817412730400,2.60873046875,2.4389688968658447,-0.43372052907943726,-1.4071555137634277,0.2841506898403168,0.9550880193710327,-0.08405806124210358,-0.8620772361755371,-0.1960393190383911,-0.12230164557695389,0.38556105848795474,-0.5040892431372972,-0.4515141254684873,0.6271937166648079
1681239817422706400,2.61870654296875,2.272826671600342,0.06671930849552155,-1.5846787691116333,0.2698768973350525,0.9568703174591064,-0.10754511505365372,-0.9686683416366577,-0.3708106279373169,-0.03632992506027222,0.39582709025845275,-0.49552739375226074,-0.4479732646599991,0.6301536512335139
1681239817432682200,2.62868212890625,1.2253820896148682,0.2478661984205246,-2.171381950378418,0.2523108422756195,0.9596339464187622,-0.1242671012878418,-1.0041418075561523,-0.45160770416259766,0.03645288944244385,0.4064975927040379,-0.4883565392896308,-0.4465135374547323,0.6299948340173626
1681239817442658300,2.638658203125,-0.26018550992012024,0.2535373866558075,-2.8295021057128906,0.22845254838466644,0.9650538563728333,-0.12837737798690796,-0.9398172497749329,-0.2858392596244812,0.12447124719619751,0.41612180412868277,-0.4824954142071036,-0.45056574302512326,0.6253251156971827
1681239817452634400,2.64863427734375,-1.5428911447525024,0.4402502775192261,-3.1388769149780273,0.19978348910808563,0.9726315140724182,-0.11863741278648376,-0.8530274629592896,-0.03958696126937866,0.22656291723251343,0.4239600500251438,-0.47865638141108985,-0.45996669539845314,0.6160980184962966
1681239817462610200,2.658610107421875,-2.217888593673706,0.79238361120224,-3.185274600982666,0.16941708326339722,0.9805822372436523,-0.09877488017082214,-0.8047167658805847,0.12868601083755493,0.2802325487136841,0.4304738444957559,-0.47720379227897375,-0.472111321167438,0.6033902522890195
1681239817472585500,2.66858544921875,-2.2557294368743896,1.3100571632385254,-3.134761333465576,0.13923929631710052,0.987417459487915,-0.07496429234743118,-0.8565701842308044,0.19062232971191406,0.27371013164520264,0.4369673375908062,-0.47763081240950267,-0.4841349614621828,0.5886781351077599
1681239817482561300,2.678561279296875,-1.8435167074203491,2.0189156532287598,-3.17936635017395,0.1091155931353569,0.99266117811203,-0.052134305238723755,-0.9793853163719177,0.22361713647842407,0.3420514464378357,0.44514955411087714,-0.47937389676724973,-0.4940986894172897,0.5726336136918984
1681239817492537300,2.688537353515625,-0.5672013759613037,2.64216947555542,-3.1380245685577393,0.07878832519054413,0.9961802959442139,-0.0376502126455307,-1.0905985832214355,0.4148610830307007,0.42829060554504395,0.45689822569561245,-0.4809185391918053,-0.4998922402269102,0.556838667912144
1681239817502513400,2.698513427734375,0.9275010228157043,3.0413830280303955,-3.215697765350342,0.04824274405837059,0.9981296062469482,-0.0375562347471714,-1.1597234010696411,0.8554320335388184,0.38399189710617065,0.47316083026857897,-0.48043035962266445,-0.5004083847933888,0.5430444059994463
1681239817512489200,2.7084892578125,2.143690824508667,3.199537515640259,-3.2171003818511963,0.01720629446208477,0.9984952211380005,-0.052074093371629715,-1.0850926637649536,1.3019047975540161,0.22990012168884277,0.49338563985279277,-0.4769530766622637,-0.4964662278839891,0.5316088034239708
1681239817522465300,2.71846533203125,2.7821245193481445,3.4451897144317627,-3.174672842025757,-0.01237759180366993,0.9969307780265808,-0.0773053765296936,-0.8203861117362976,1.5203423500061035,0.17314594984054565,0.5159876206605676,-0.4714944985826228,-0.48891742682536704,0.5219287707676932
1681239817532441300,2.72844140625,2.256814479827881,3.3855409622192383,-3.474329710006714,-0.04259144142270088,0.9937220811843872,-0.10345474630594254,-0.4318501055240631,1.4004583358764648,0.3044130802154541,0.5388510025062064,-0.46553192476140226,-0.48119918222267366,0.5112408588149543
1681239817542416400,2.73841650390625,1.9471819400787354,3.3257484436035156,-3.4176571369171143,-0.07329700142145157,0.9893215298652649,-0.1259792596101761,-0.11336377263069153,1.304791808128357,0.5991391539573669,0.5604626589515365,-0.4599657853226054,-0.4748071639514746,0.4988701183014764
1681239817552392200,2.74839208984375,1.6879311800003052,3.517486095428467,-3.1652140617370605,-0.10100914537906647,0.9839642643928528,-0.1470094919204712,0.08131004124879837,1.3045642375946045,0.7921969890594482,0.5807681921349919,-0.4554127385024635,-0.4680753051414586,0.4860177533360571
1681239817562368500,2.758368408203125,1.6265321969985962,3.6876418590545654,-2.988590717315674,-0.12557263672351837,0.9779263138771057,-0.16700869798660278,0.2821125388145447,1.2120609283447266,0.7078413367271423,0.6001973596547205,-0.4521080702059947,-0.4605365814690761,0.4725120656818073
1681239817572344300,2.76834423828125,2.0140573978424072,3.99896502494812,-2.3134641647338867,-0.1444573551416397,0.9710978865623474,-0.19000273942947388,0.360323429107666,1.3295308351516724,0.6368259787559509,0.619315530273921,-0.4495696983628871,-0.45042837079652703,0.45983661624071154
1681239817582320400,2.7783203125,2.57189679145813,4.241680145263672,-1.7516746520996094,-0.15550357103347778,0.9634277820587158,-0.21823298931121826,0.4444592595100403,1.4867675304412842,0.5731372833251953,0.6381039821443578,-0.4472767609345077,-0.43683750439908625,0.44937717789089954
1681239817592296400,2.78829638671875,2.183856964111328,2.475207567214966,-2.165388345718384,-0.16556447744369507,0.9546872973442078,-0.24730727076530457,0.5991124510765076,1.571023941040039,0.47470909357070923,0.6551779588552054,-0.4429477573118844,-0.42443333046235404,0.44090329288165425
1681239817602272300,2.798272216796875,1.2791746854782104,1.6487864255905151,-2.3246653079986572,-0.18261541426181793,0.946195662021637,-0.26714321970939636,0.6444073915481567,1.5893726348876953,0.4724808633327484,0.667972625174388,-0.43640082922579454,-0.41950293645883097,0.4328790449287267
1681239817612246800,2.808246826171875,0.5814681649208069,2.5911056995391846,-1.6481783390045166,-0.19575898349285126,0.9399431347846985,-0.2796168327331543,0.48820894956588745,1.3428480625152588,0.7182766199111938,0.6786413463013513,-0.43372577894711906,-0.4148174710575755,0.4233845551957844
1681239817622222800,2.818222900390625,0.0219865832477808,2.6408677101135254,-1.2452337741851807,-0.20139974355697632,0.9363397359848022,-0.2875864803791046,0.3467549681663513,0.7262884378433228,0.6684612035751343,0.6876979079585297,-0.4354416097947451,-0.40816340563086106,0.4133579474532151
1681239817632199000,2.828198974609375,-0.2156565934419632,2.2051069736480713,-1.038910984992981,-0.20511631667613983,0.9342795610427856,-0.29163214564323425,0.5009536743164062,0.4801340699195862,0.5341401696205139,0.6947535670022285,-0.43839708481038187,-0.4024822042511122,0.4038981850651557
1681239817642174700,2.8381748046875,-0.33500778675079346,2.1963696479797363,-0.709460437297821,-0.2070857137441635,0.9333289861679077,-0.29327934980392456,0.7358179688453674,0.3185632824897766,0.5183008313179016,0.7001068947027638,-0.44190699348008944,-0.3975909039164068,0.39558839773062493
1681239817652150800,2.84815087890625,0.16894590854644775,2.1247754096984863,-0.40639299154281616,-0.2056678980588913,0.9326104521751404,-0.2965448498725891,0.7884010076522827,0.036002397537231445,0.41690629720687866,0.7051640480256122,-0.4455834352425295,-0.39138597667588265,0.3886081823195718
1681239817662126800,2.858126953125,0.9516848921775818,1.9828416109085083,-0.1427425891160965,-0.20213967561721802,0.9302646517753601,-0.30618223547935486,0.6496188640594482,-0.25105005502700806,0.2628321647644043,0.7110216467912245,-0.4469471757904626,-0.3835975749799918,0.38410880407998266
1681239817672103000,2.86810302734375,0.8404965400695801,1.8066903352737427,0.2283603847026825,-0.19561344385147095,0.9273845553398132,-0.3188941776752472,0.44079163670539856,-0.5229197144508362,0.08737266063690186,0.7166131030837443,-0.447233982475502,-0.3748795531724119,0.3819854639348557
1681239817682078700,2.87807861328125,0.07287496328353882,1.8871264457702637,0.19593757390975952,-0.18765537440776825,0.926337480545044,-0.32662591338157654,0.31146514415740967,-0.8115149736404419,-0.0163457989692688,0.7205944579453172,-0.44947813176261164,-0.36695565590712675,0.3795480039755451
1681239817692053800,2.8880537109375,-0.49417805671691895,1.9646862745285034,0.374215692281723,-0.17902079224586487,0.9275453686714172,-0.32804134488105774,0.34311380982398987,-1.1793153285980225,0.09218636155128479,0.7231188125746022,-0.4544095722506875,-0.3598489503751062,0.37565922941125657
1681239817702029800,2.89802978515625,-0.9519054889678955,1.7448437213897705,1.0659120082855225,-0.16651873290538788,0.9310370683670044,-0.32471761107444763,0.4640040993690491,-1.4882268905639648,0.2878372371196747,0.7235887017724023,-0.46172461175285145,-0.35277695786055124,0.3725295290172555
1681239817712006000,2.908005859375,-1.4985970258712769,1.3713138103485107,1.482120394706726,-0.1493677943944931,0.9370151162147522,-0.3157408833503723,0.691222608089447,-1.6391327381134033,0.389212042093277,0.7209757779604892,-0.47126625577201636,-0.3464645296735282,0.37157048877101156
1681239817721981700,2.917981689453125,-1.6804075241088867,1.450501799583435,1.5252392292022705,-0.13084495067596436,0.9441683888435364,-0.3023669421672821,0.9270180463790894,-1.688293695449829,0.44561654329299927,0.7166658056760797,-0.482292273816458,-0.34089689102390036,0.3709092519231987
1681239817731958000,2.9279580078125,-1.3846781253814697,2.023057222366333,1.4380388259887695,-0.11192914098501205,0.9504832029342651,-0.2899199426174164,1.014211893081665,-1.7508372068405151,0.43854066729545593,0.7132030424879887,-0.4934913475922222,-0.333925609145729,0.36919023856781447
1681239817741933800,2.937933837890625,-1.1133474111557007,1.4772636890411377,1.731080174446106,-0.09181514382362366,0.955618143081665,-0.279936283826828,1.0248442888259888,-1.806020736694336,0.34792953729629517,0.7100683235723055,-0.5037146450069753,-0.32604204834092165,0.3684716317369178
1681239817751909600,2.94790966796875,-1.213658332824707,0.6696364283561707,1.869801640510559,-0.07197072356939316,0.9601112604141235,-0.2701978087425232,1.0405681133270264,-1.7966437339782715,0.32937151193618774,0.705690531738673,-0.5124340400762936,-0.3198631628700766,0.37027017844542626
1681239817761885000,2.957885009765625,-1.5052943229675293,0.3714433014392853,2.210012912750244,-0.05112405866384506,0.9650353789329529,-0.25708648562431335,0.9558939337730408,-1.810387372970581,0.4154423177242279,0.6990582909536717,-0.5214408850709941,-0.3155252086470077,0.3739800396528627
1681239817771860700,2.96786083984375,-1.8181114196777344,-0.33832213282585144,2.5222604274749756,-0.028344767168164253,0.9700396060943604,-0.24128827452659607,0.6592956781387329,-1.8222123384475708,0.41658133268356323,0.6903163189748084,-0.5307984053994436,-0.31242425122746964,0.379615261998947
1681239817781836800,2.9778369140625,-2.1275339126586914,-0.05578945577144623,2.9923477172851562,-0.0021990749519318342,0.9750642776489258,-0.2219122350215912,0.40413084626197815,-1.7744110822677612,0.37479013204574585,0.6794502664359832,-0.5414937414303991,-0.30956164706807077,0.38639819836009287
1681239817791812900,2.987812744140625,-1.9668281078338623,-0.18932195007801056,3.3285346031188965,0.028735309839248657,0.9790385961532593,-0.20163774490356445,0.27036747336387634,-1.6889994144439697,0.3571096658706665,0.6674815808346213,-0.5532563828351309,-0.30510408665667066,0.39406506590222
1681239817801789000,2.997788818359375,-1.189606785774231,-0.3169883191585541,3.447117567062378,0.06129404157400131,0.9806140065193176,-0.1861172467470169,0.323059618473053,-1.4745101928710938,0.34529703855514526,0.6557954916129556,-0.5630368194802597,-0.2998848348015241,0.4037216324533936
1681239817811765000,3.007764892578125,-0.7057209014892578,-0.9319009780883789,3.667182683944702,0.09497649222612381,0.9794172048568726,-0.17810498178005219,0.5388583540916443,-1.262147307395935,0.31908106803894043,0.6452243349402395,-0.5699133232969771,-0.29350691919765315,0.4156176783412128
1681239817821740800,3.01774072265625,-0.9847220778465271,-1.1801077127456665,3.5647552013397217,0.12858164310455322,0.9768294095993042,-0.17108842730522156,0.6914867162704468,-1.0882794857025146,0.2734444737434387,0.6333848763000137,-0.5754640828138822,-0.2886119802364309,0.4293808988432065
1681239817831715800,3.0277158203125,-0.7631582617759705,-1.452483892440796,3.1986231803894043,0.15935935080051422,0.9734804630279541,-0.16413602232933044,0.6929508447647095,-0.9300538301467896,0.3093998432159424,0.6215906214669661,-0.5803465334552863,-0.28483308585497685,0.44237233255297975
1681239817841691600,3.037691650390625,-0.4300820231437683,-1.8429011106491089,2.787684440612793,0.18585827946662903,0.9692420363426208,-0.16132813692092896,0.5556426048278809,-0.8419226408004761,0.3768128752708435,0.6108685855241398,-0.5827316058446101,-0.28241778615562624,0.4555258210699236
1681239817851668000,3.04766796875,-0.04392445832490921,-2.22725772857666,2.3149359226226807,0.20692391693592072,0.9647038578987122,-0.1628773808479309,0.514923632144928,-0.5589421391487122,0.32022613286972046,0.6013400579885337,-0.582291114768587,-0.28195454505496687,0.46885915187953636
1681239817861643800,3.057643798828125,-0.1072554960846901,-2.3845202922821045,2.4775257110595703,0.22564007341861725,0.9596022367477417,-0.16807879507541656,0.5308755040168762,0.0487140417098999,0.20155666768550873,0.5926335857980115,-0.580070435770838,-0.28192000968693276,0.48251950662725457
1681239817871619800,3.067619873046875,-0.09028556197881699,-2.4360461235046387,3.1733150482177734,0.24848133325576782,0.953289270401001,-0.17174623906612396,0.4915546774864197,0.8558843731880188,0.0206233412027359,0.5816874838773722,-0.5787408647803579,-0.2813998747542555,0.4975066933467329
1681239817881596000,3.077595947265625,1.0369831323623657,-1.8168041706085205,3.457505464553833,0.2763662040233612,0.943598210811615,-0.18233056366443634,0.5096598267555237,1.6448571681976318,0.0820193886756897,0.5716495683192113,-0.5764120532545266,-0.2767378892831344,0.5141811197546493
1681239817891571700,3.08757177734375,0.37395480275154114,-0.7427377104759216,2.4037046432495117,0.30212804675102234,0.9332625269889832,-0.19426828622817993,0.6301230192184448,2.0982470512390137,0.2462550699710846,0.5647967512417522,-0.5747806415877352,-0.26924536775956165,0.5273889125032621
1681239817901548000,3.097548095703125,-1.2785601615905762,-1.4606666564941406,1.2686294317245483,0.3168015480041504,0.9286770820617676,-0.19286246597766876,0.6692367196083069,2.59907865524292,0.4527350068092346,0.5573070546870902,-0.5758693749890784,-0.2682223558804285,0.5346403272526136
1681239817911522800,3.107522705078125,-2.6478562355041504,-1.9555461406707764,1.083600640296936,0.323848694562912,0.9287307858467102,-0.1805037260055542,0.7272988557815552,3.0353808403015137,0.9842605590820312,0.5461787079622337,-0.5779169900774976,-0.27524550261037,0.5403156247811334
1681239817921499000,3.117498779296875,-3.4969966411590576,-1.5848888158798218,0.6305798292160034,0.32942232489585876,0.9310237765312195,-0.15708601474761963,0.8816373348236084,2.6080846786499023,1.1858794689178467,0.5321718980327486,-0.5829199483680193,-0.2857644594356329,0.5434485174474338
1681239817931475000,3.127474853515625,-3.27830171585083,-1.8344788551330566,-0.03173205628991127,0.32952216267585754,0.9350955486297607,-0.13042886555194855,0.7806310653686523,2.0913329124450684,0.8756682276725769,0.5188958703181357,-0.5878166228704683,-0.29875941535924794,0.5440235863941857
1681239817941450800,3.13745068359375,-1.6716268062591553,-2.3698813915252686,-0.6559520363807678,0.32389068603515625,0.9392651915550232,-0.11347310990095139,0.5916672348976135,2.1645100116729736,0.5152066349983215,0.5091899648203857,-0.5881726848502863,-0.31195566917699014,0.5454011125888104
1681239817951426800,3.1474267578125,-0.3005150854587555,-1.8341188430786133,-0.8943763375282288,0.31374913454055786,0.9429431557655334,-0.11144465953111649,0.4756491184234619,2.2551770210266113,0.16453009843826294,0.5051090361593599,-0.5832990116218761,-0.32255222042195975,0.5482584438281762
1681239817961403000,3.15740283203125,0.9316216707229614,-1.2383252382278442,-0.8838335275650024,0.30368858575820923,0.9453644752502441,-0.11857301741838455,0.09514567255973816,2.0485472679138184,-0.3119840621948242,0.506105160292802,-0.5772176870838365,-0.327922601075718,0.550585373466149
1681239817971378700,3.167378662109375,1.7944976091384888,-1.5302854776382446,-0.821329653263092,0.29375797510147095,0.9460832476615906,-0.13650213181972504,-0.20547059178352356,1.7534558773040771,-0.5273008942604065,0.5102651006782997,-0.5681913322690064,-0.330011425709818,0.5548699467771443
1681239817981353700,3.177353759765625,1.635636329650879,-1.4791947603225708,-0.6544117331504822,0.28450003266334534,0.945717453956604,-0.15709331631660461,-0.030258089303970337,1.316230297088623,-0.5791889429092407,0.5145769204013109,-0.5582992222945791,-0.3312934014784341,0.5601404042682594
1681239817991329800,3.187329833984375,1.1638219356536865,-1.028943657875061,-0.20471887290477753,0.27794530987739563,0.944693922996521,-0.174068883061409,0.12308624386787415,0.888970136642456,-0.46609824895858765,0.5176405006199246,-0.5502367601918337,-0.33197148948660793,0.5648741814687381
1681239818001305900,3.197305908203125,0.7615103721618652,-1.1945356130599976,0.4566710591316223,0.2775333821773529,0.9425737261772156,-0.18582306802272797,0.14814111590385437,0.509757936000824,-0.1569197177886963,0.51817989388594,-0.5451868675619598,-0.33145096895910436,0.5695623537101833
1681239818011281700,3.20728173828125,0.4981280565261841,-2.304875612258911,0.5875769257545471,0.27934861183166504,0.939925491809845,-0.1962265968322754,0.16770344972610474,0.13971036672592163,0.08021411299705505,0.5154057702956393,-0.5396267208346325,-0.33270062447348514,0.5766025192303651
1681239818021258000,3.217258056640625,0.41372576355934143,-2.6624040603637695,0.40469250082969666,0.2791166603565216,0.9375290274620056,-0.20768576860427856,0.13641071319580078,0.04031527042388916,0.2671341300010681,0.5108260561118345,-0.5318919002782689,-0.3365235782157099,0.5855763922712635
1681239818031233800,3.22723388671875,0.33010250329971313,-2.509097099304199,0.04647498205304146,0.27549833059310913,0.9361429810523987,-0.21848861873149872,-0.07629483938217163,0.05168062448501587,0.2931041717529297,0.506818160621563,-0.5235947580733276,-0.3414735987081902,0.5936159388521953
1681239818041209900,3.2372099609375,-0.05781041458249092,-2.2494471073150635,0.020153596997261047,0.2702803313732147,0.935765266418457,-0.22647780179977417,-0.37707656621932983,-0.11504065990447998,0.18523335456848145,0.5030917746724032,-0.5160915564802283,-0.3470023150642387,0.6001147833359567
1681239818051186000,3.24718603515625,-0.8727496862411499,-1.722909927368164,0.23273590207099915,0.26686203479766846,0.9364600777626038,-0.2276567667722702,-0.5738077759742737,-0.39088183641433716,0.21155884861946106,0.49812964084008904,-0.5114272168764951,-0.3530068196624819,0.6047276513045093
1681239818061160700,3.25716064453125,-1.7526224851608276,-1.1852444410324097,0.39941108226776123,0.2666577994823456,0.9385285973548889,-0.21922123432159424,-0.5819653868675232,-0.5807556509971619,0.2419569492340088,0.4912322724453871,-0.5108705995271393,-0.3597229689789533,0.6068785902142309
1681239818071137000,3.267136962890625,-2.466337203979492,-1.0914889574050903,0.443924218416214,0.26831793785095215,0.9418812990188599,-0.20215196907520294,-0.5221326351165771,-0.6777057647705078,0.2511480450630188,0.4824622483427164,-0.5134620599771079,-0.3678052836728045,0.6068824865158713
1681239818081112800,3.27711279296875,-2.67244291305542,-1.0006881952285767,0.40576672554016113,0.270333468914032,0.9456887245178223,-0.18053561449050903,-0.4497462511062622,-0.7281134128570557,0.2184232920408249,0.4725008269399529,-0.5172315968750862,-0.3770990155355178,0.6058143770651084
1681239818091089000,3.2870888671875,-2.490577459335327,-0.8640871644020081,0.3924330770969391,0.2724786698818207,0.9490156769752502,-0.15850864350795746,-0.4158501923084259,-0.7540538907051086,0.1388707011938095,0.46279840982630177,-0.5212197692611549,-0.3861031386179733,0.6042120319056632
1681239818101065000,3.29706494140625,-1.973441481590271,-0.6361682415008545,0.3966555595397949,0.27519044280052185,0.9512631893157959,-0.13917194306850433,-0.4647045433521271,-0.7376247644424438,0.0470089316368103,0.454252924329289,-0.5249160452745398,-0.3935443778656084,0.6026942945070102
1681239818111040800,3.307040771484375,-1.2447822093963623,-0.42685258388519287,0.3854692280292511,0.27819520235061646,0.9523288011550903,-0.12520982325077057,-0.5474669933319092,-0.6822481155395508,0.010112881660461426,0.4477267330510526,-0.5277209278838163,-0.398629794597122,0.6017855373259128
1681239818121016800,3.317016845703125,-0.463187575340271,-0.2893581688404083,0.3466234803199768,0.2812778055667877,0.9523246884346008,-0.11815565824508667,-0.6090060472488403,-0.6330344080924988,-0.007027268409729004,0.44371853945557327,-0.5293034219166244,-0.40094894558669236,0.6018237789041178
1681239818130991900,3.326991943359375,0.030747583135962486,-0.09245255589485168,0.24327924847602844,0.28382912278175354,0.9517259001731873,-0.11687227338552475,-0.6425021886825562,-0.6298263669013977,-0.02512592077255249,0.44196409362125033,-0.529745959404469,-0.4011646560321271,0.6025811499055957
1681239818140968000,3.336968017578125,0.1485217809677124,0.013286927714943886,0.16587874293327332,0.28569361567497253,0.9510361552238464,-0.11793921887874603,-0.6821474432945251,-0.6936812996864319,-0.024974524974822998,0.4415410487412577,-0.5298050580748889,-0.40042101648469747,0.6033334772595188
1681239818150943700,3.34694384765625,0.1427629590034485,0.10574921220541,0.05269652232527733,0.2867695987224579,0.950566291809082,-0.11911077052354813,-0.7425800561904907,-0.7799117565155029,0.09452895820140839,0.44173060376650086,-0.5298948791496206,-0.3995698074484945,0.6036801220819779
1681239818160919800,3.356919921875,0.0317058227956295,0.3250297009944916,-0.006080438382923603,0.28685852885246277,0.9505389332771301,-0.11911379545927048,-0.8287286758422852,-0.8696978092193604,0.24631112813949585,0.4423638249515261,-0.5303499932012602,-0.39896364295149367,0.6032174079409873
1681239818170896000,3.366895751953125,-0.26036226749420166,0.8264549970626831,0.013418960385024548,0.2874264419078827,0.950687825679779,-0.11652882397174835,-0.9728512167930603,-0.960132896900177,0.3290991187095642,0.4431770959041601,-0.5322060436704282,-0.3981109346262758,0.6015468620699052
1681239818180871700,3.37687158203125,-0.7407734990119934,1.8105285167694092,0.00283887074328959,0.2889903485774994,0.9512055516242981,-0.10813301801681519,-1.1186258792877197,-0.9657166004180908,0.37629109621047974,0.4443999043929643,-0.537194574311396,-0.39668057604501195,0.597139287202447
1681239818190848000,3.386847900390625,-1.1442248821258545,2.671755790710449,-0.10099538415670395,0.2908357083797455,0.9523022174835205,-0.09238626062870026,-1.2379333972930908,-0.8988963961601257,0.4085485339164734,0.44640017450826563,-0.545969700540285,-0.3946187483183839,0.5889992343685807
1681239818200823800,3.39682373046875,-1.029116153717041,3.0871403217315674,-0.25137558579444885,0.29155826568603516,0.9537424445152283,-0.07327456772327423,-1.3196802139282227,-0.8204569220542908,0.3264942765235901,0.4495222215092963,-0.5565871839401018,-0.3918844497743666,0.578417745084582
1681239818210798800,3.406798828125,-0.6754693984985352,3.4118337631225586,-0.3773241937160492,0.29058733582496643,0.95522141456604,-0.055777378380298615,-1.289854884147644,-0.743215799331665,0.15718746185302734,0.45434252529669245,-0.5671211207057134,-0.38792389199217486,0.566975853699826
1681239818220775000,3.41677490234375,-0.27820301055908203,3.9022457599639893,-0.5619106888771057,0.287972092628479,0.9567759037017822,-0.040648579597473145,-1.168923020362854,-0.6238900423049927,0.0000756382942199707,0.4612644981145453,-0.5775535027672802,-0.38224031827975447,0.5545805306099277
1681239818230750700,3.426750732421875,0.18856577575206757,4.416863918304443,-0.89019376039505,0.28245317935943604,0.958862841129303,-0.028333088383078575,-1.0409369468688965,-0.4142916798591614,-0.020021919161081314,0.47098085110427257,-0.5876742344753356,-0.3747965450633934,0.540688299925516
1681239818240727000,3.43672705078125,0.7109315395355225,4.660770893096924,-1.1160340309143066,0.2738109529018402,0.9615784287452698,-0.019867869094014168,-0.9563822746276855,-0.16708368062973022,0.04409897327423096,0.48341414939638827,-0.5968937538721667,-0.3657648321763808,0.5255899712351273
1681239818250702800,3.446702880859375,1.2778173685073853,4.7252421379089355,-1.2267879247665405,0.26335272192955017,0.9645520448684692,-0.016882363706827164,-0.8760388493537903,0.06288337707519531,0.18413406610488892,0.4979242750383099,-0.6044849593848987,-0.355185517419407,0.5104045206199749
1681239818260678700,3.4566787109375,2.056528329849243,4.796739101409912,-1.2663315534591675,0.252132385969162,0.9674760103225708,-0.02048777975142002,-0.7682456374168396,0.32816314697265625,0.2898818254470825,0.5143052520730946,-0.6100649211893805,-0.342894884387858,0.49571582796303476
1681239818270655000,3.466655029296875,2.978668689727783,4.912464141845703,-1.1976603269577026,0.24141938984394073,0.9698594212532043,-0.033010587096214294,-0.704111635684967,0.6811721920967102,0.43575119972229004,0.533194184388233,-0.6132160241243666,-0.32781216165932964,0.4818811383134519
1681239818280629800,3.476629638671875,3.2837607860565186,4.8800458908081055,-1.1907639503479004,0.23203617334365845,0.9713000059127808,-0.0523039847612381,-0.7136492729187012,1.1242201328277588,0.5624359250068665,0.5535839415270772,-0.6143239781567561,-0.31057053678902247,0.46871839130608484
1681239818290605800,3.486605712890625,2.7709202766418457,4.748462200164795,-1.5369982719421387,0.2220296710729599,0.9724542498588562,-0.07096413522958755,-0.7270650267601013,1.7109565734863281,0.6946825385093689,0.5732586543943118,-0.6148198726379102,-0.2941333998721492,0.45481508314418667
1681239818300582000,3.496581787109375,2.2803783416748047,4.558440208435059,-2.0151419639587402,0.20832960307598114,0.9743143916130066,-0.08550263941287994,-0.6041120290756226,2.2746329307556152,0.9736863970756531,0.5916706699997073,-0.6153087586203463,-0.28043504047644474,0.4389503393613386
1681239818310558000,3.506557861328125,2.072713851928711,4.942270755767822,-2.50138258934021,0.19034036993980408,0.9768795371055603,-0.09734971821308136,-0.4202140271663666,2.4693026542663574,1.1001880168914795,0.6093789961856129,-0.6155227685478178,-0.2691781245682241,0.4211081906488722
1681239818320533800,3.51653369140625,2.194866180419922,4.779476642608643,-2.446836233139038,0.17121067643165588,0.9791892170906067,-0.10897447168827057,-0.2592233419418335,2.4633004665374756,1.0838587284088135,0.6275404396658507,-0.6159839530120081,-0.25705355954466474,0.4008494654164236
1681239818330509800,3.526509765625,1.6003834009170532,3.6596145629882812,-2.8465418815612793,0.14988596737384796,0.9812121987342834,-0.12147905677556992,-0.07997016608715057,2.6014599800109863,0.9737435579299927,0.6440330201481446,-0.6145425065692044,-0.24818940191351757,0.38204867507593127
1681239818340486000,3.53648583984375,1.1442254781723022,3.4210143089294434,-3.088324785232544,0.12494836747646332,0.9836161136627197,-0.1299518495798111,0.2979337275028229,2.6538352966308594,0.9711689949035645,0.6578070231120832,-0.6128324237412224,-0.24384523286521412,0.36368390718766563
1681239818350461700,3.546461669921875,0.993622362613678,4.172680377960205,-3.150902271270752,0.09911831468343735,0.9857782125473022,-0.1357100009918213,0.49031347036361694,2.381211042404175,1.1582627296447754,0.6710276132833475,-0.6123670170645317,-0.2390640786700249,0.3428952715994299
1681239818360437000,3.55643701171875,1.2869640588760376,4.448055744171143,-3.057051658630371,0.07459960132837296,0.9868935942649841,-0.14309534430503845,0.520462691783905,1.9973442554473877,1.0856614112854004,0.6848184945573906,-0.6121401678583407,-0.2318118657756303,0.3202679119182993
1681239818370412800,3.566412841796875,1.5801892280578613,4.15187406539917,-2.882343292236328,0.051631055772304535,0.986643373966217,-0.15449748933315277,0.6829118132591248,1.7287650108337402,0.9644798636436462,0.6986605967950776,-0.6104319771582122,-0.22388403192622253,0.29853363901621227
1681239818380388900,3.576388916015625,1.6317877769470215,4.0004072189331055,-2.6470911502838135,0.031013261526823044,0.9851597547531128,-0.16881586611270905,0.9232103824615479,1.4011625051498413,0.8872455358505249,0.7120429587162024,-0.6075414762812195,-0.21560477895871633,0.27821391942665996
1681239818390365000,3.586364990234375,1.6374053955078125,3.8694372177124023,-2.457500696182251,0.012949044816195965,0.9828503727912903,-0.18395039439201355,0.9893092513084412,0.9051654934883118,0.7717495560646057,0.7245461940873796,-0.6043093271039806,-0.20696628101581435,0.2588594060116777
1681239818400340700,3.5963408203125,1.7341324090957642,3.7339515686035156,-2.1646084785461426,-0.0024619530886411667,0.9797569513320923,-0.20017613470554352,0.905339777469635,0.43319177627563477,0.6189384460449219,0.7363268767308032,-0.6006024519153325,-0.19796116758957336,0.24064695580962978
1681239818410317000,3.606317138671875,2.0960841178894043,3.3991434574127197,-1.744446039199829,-0.01420062966644764,0.9756103754043579,-0.21904993057250977,0.8159279227256775,0.038656651973724365,0.4975534677505493,0.7477393499526608,-0.5958031529523868,-0.18839755859565954,0.22452374155114282
1681239818420292900,3.61629296875,2.3931658267974854,2.8848986625671387,-1.2337061166763306,-0.021357152611017227,0.9701443910598755,-0.2415863424539566,0.7521158456802368,-0.28972434997558594,0.43010878562927246,0.7589310311078812,-0.5893679296271261,-0.1784720487300031,0.2117003546173898
1681239818430268700,3.6262685546875,2.3500547409057617,2.190906524658203,-0.8509126901626587,-0.024989338591694832,0.9638041257858276,-0.26543816924095154,0.6805984973907471,-0.5581642985343933,0.3683587908744812,0.7692584410409153,-0.5818986345519522,-0.16933665243411106,0.20238744868713196
1681239818440243700,3.63624365234375,1.6278164386749268,1.7089954614639282,-0.45279237627983093,-0.025930803269147873,0.9580901265144348,-0.285291463136673,0.5630401968955994,-0.8122159838676453,0.36491191387176514,0.7773134057546862,-0.5754746800827168,-0.1618121254757906,0.1960352671089218
1681239818450219800,3.6462197265625,0.77388596534729,1.7917460203170776,-0.11522740125656128,-0.023816101253032684,0.9545526504516602,-0.2970893085002899,0.4392366409301758,-1.0688867568969727,0.45820698142051697,0.7823714645819565,-0.5722569813321655,-0.15484601105063225,0.1908915982480284
1681239818460195800,3.65619580078125,-0.09775812923908234,1.8037313222885132,0.34664440155029297,-0.017255274578928947,0.9535405039787292,-0.30077043175697327,0.3783392608165741,-1.302249550819397,0.615071177482605,0.7846172484504794,-0.5726968378475994,-0.1470819848132298,0.186443188539456
1681239818470172000,3.666171875,-0.8965802192687988,1.7006776332855225,0.6206605434417725,-0.007304184138774872,0.9551252722740173,-0.2961124777793884,0.39541149139404297,-1.477219820022583,0.6932225227355957,0.783942579418723,-0.5766679017163369,-0.1392763090659074,0.1830040073609194
1681239818480147700,3.676147705078125,-1.4252108335494995,1.665351152420044,0.7625172734260559,0.004247402772307396,0.9585553407669067,-0.2848754823207855,0.47548893094062805,-1.5751171112060547,0.7465912699699402,0.7810332898305433,-0.5832690829644156,-0.13175523917319457,0.18006942670821974
1681239818490123800,3.686123779296875,-1.4639023542404175,1.52755868434906,0.8107090592384338,0.01619306206703186,0.9625837802886963,-0.2705003321170807,0.549587607383728,-1.6581250429153442,0.7339251041412354,0.7770236508601756,-0.5909667954612663,-0.12453143404024726,0.17743873543721791
1681239818500099800,3.696099853515625,-1.0391379594802856,1.161057472229004,0.7873144745826721,0.027396421879529953,0.9657434225082397,-0.2580485939979553,0.605492353439331,-1.7405084371566772,0.6379925012588501,0.7733961264161563,-0.59752598289475,-0.11806102354560512,0.17573486741620498
1681239818510075000,3.706074951171875,-0.6046700477600098,0.9014617204666138,0.657463788986206,0.03699754178524017,0.9675574898719788,-0.2499280422925949,0.6564228534698486,-1.770856261253357,0.49455708265304565,0.7709259246359715,-0.6019472782537587,-0.11267410303382903,0.17503552545450357
1681239818520050700,3.71605078125,-0.11795970052480698,0.6362365484237671,0.623300313949585,0.04440677911043167,0.9682623744010925,-0.2459595650434494,0.6555138826370239,-1.6946569681167603,0.37353837490081787,0.76972983296505,-0.6043977399589422,-0.10827552889710419,0.17463052497942516
1681239818530027000,3.726027099609375,0.35778021812438965,0.258293479681015,0.9285481572151184,0.0527733750641346,0.9675871133804321,-0.24696239829063416,0.5390235185623169,-1.579906940460205,0.3640279173851013,0.7696775481201685,-0.6046960328976102,-0.10421857974407842,0.1762892132840316
1681239818540002800,3.7360029296875,0.6820604205131531,0.0916254073381424,1.2956485748291016,0.06394562125205994,0.9655976891517639,-0.25205641984939575,0.40680330991744995,-1.523489236831665,0.40522417426109314,0.7703901421573874,-0.6033430029557942,-0.09974474415298169,0.1803537593835115
1681239818549978600,3.745978515625,0.6940811276435852,0.037716902792453766,1.6603368520736694,0.07829411327838898,0.9627591967582703,-0.25877565145492554,0.3220049738883972,-1.4966336488723755,0.4148121774196625,0.7711758109512811,-0.6014066139067074,-0.0944576823109762,0.18621434096415776
1681239818559955000,3.755954833984375,0.4509032964706421,-0.06163674592971802,2.0191211700439453,0.09586965292692184,0.9596154689788818,-0.26447543501853943,0.26400890946388245,-1.4496667385101318,0.413096159696579,0.7712252796440101,-0.5999580260898204,-0.0883892342943788,0.19351826887579404
1681239818569930800,3.7659306640625,-0.13135559856891632,-0.3118066191673279,2.4511845111846924,0.11674831807613373,0.9567935466766357,-0.26630058884620667,0.28565648198127747,-1.3759372234344482,0.4484296143054962,0.7694492747089732,-0.6000724331126039,-0.0822361560187067,0.20272671081907
1681239818579906800,3.77590673828125,-0.7883540391921997,-0.5906672477722168,2.7319812774658203,0.14033521711826324,0.9546473026275635,-0.2625928223133087,0.37797534465789795,-1.2764549255371094,0.5059858560562134,0.7652114168917162,-0.6023499411636976,-0.07666897601065473,0.21388826681477932
1681239818589881900,3.7858818359375,-1.302230954170227,-0.8688780665397644,2.9166340827941895,0.16537295281887054,0.9530714154243469,-0.25358763337135315,0.46385374665260315,-1.1628949642181396,0.5375385284423828,0.7586089369528172,-0.6066324389276365,-0.07213366847882596,0.22650902839840875
1681239818599858000,3.79585791015625,-1.557602882385254,-0.8968889713287354,3.0255610942840576,0.19138692319393158,0.9513519406318665,-0.2414555549621582,0.469654381275177,-1.0948913097381592,0.5044256448745728,0.7504504779955883,-0.6120686610771456,-0.06814820779580953,0.23990006968491567
1681239818609834000,3.805833984375,-1.6843153238296509,-0.8159392476081848,3.1631252765655518,0.21859999001026154,0.9488503932952881,-0.22780929505825043,0.40586596727371216,-1.066953420639038,0.46166563034057617,0.7413872646000808,-0.6180725123727528,-0.0638883586181177,0.2534751323413893
1681239818619808800,3.815808837890625,-1.6368321180343628,-0.7548788785934448,3.476776123046875,0.2481512427330017,0.9448413252830505,-0.213766410946846,0.30646002292633057,-1.0973374843597412,0.40276187658309937,0.7316482427363814,-0.6242387961523652,-0.05867468757811065,0.26753359957407497
1681239818629784800,3.825784912109375,-1.3818062543869019,-0.8022690415382385,3.7294538021087646,0.2806583642959595,0.9384189248085022,-0.20149646699428558,0.23307454586029053,-1.14516019821167,0.3067059814929962,0.721696561588182,-0.6297042142373971,-0.0521955198885591,0.2826700409878498
1681239818639760600,3.8357607421875,-1.3028054237365723,-1.4216945171356201,3.238710641860962,0.3116530478000641,0.9305297136306763,-0.192319855093956,0.2590714693069458,-1.0466794967651367,0.20924194157123566,0.7121314667899921,-0.633764063308601,-0.046724550666002646,0.298376875506359
1681239818649736700,3.84573681640625,-2.110861301422119,-2.6628875732421875,2.3574626445770264,0.33340105414390564,0.9248045682907104,-0.18324953317642212,0.42369428277015686,-0.5153806805610657,0.09131546318531036,0.7021176837710069,-0.6372629657843106,-0.04765654308877627,0.3140948771123655
1681239818659712800,3.855712646484375,-0.10862508416175842,-2.531425952911377,2.9601588249206543,0.3517158627510071,0.9185143113136292,-0.18063102662563324,0.6879570484161377,0.7182350158691406,0.2765478491783142,0.6932353432827518,-0.638014464521226,-0.05120575599811649,0.3312708197361453
1681239818669687800,3.865687744140625,0.2876415550708771,-1.5188300609588623,3.7556965351104736,0.37997865676879883,0.9048478007316589,-0.19200755655765533,1.0371661186218262,2.319319248199463,0.4851595163345337,0.6882123239092697,-0.6339288136968944,-0.04615713346189891,0.34981094586315703
1681239818679663600,3.87566357421875,-0.9093604683876038,-1.821566104888916,2.5941498279571533,0.4062693417072296,0.8928703665733337,-0.1942373365163803,1.3856008052825928,3.1414315700531006,0.2732779383659363,0.6805903238554074,-0.6333337728803354,-0.04206737313965267,0.365944973541661
1681239818689639700,3.8856396484375,-1.0287848711013794,-1.778539776802063,1.5277928113937378,0.420145183801651,0.8865583539009094,-0.19362956285476685,1.3808954954147339,3.666435480117798,0.6017565131187439,0.6735957851842975,-0.6334525107350072,-0.04385359520824852,0.37826386339147905
1681239818699615700,3.89561572265625,-1.5641337633132935,-1.356749415397644,1.0389784574508667,0.42861369252204895,0.883551299571991,-0.18875230848789215,1.2627925872802734,3.2674803733825684,0.8954174518585205,0.6665661516424989,-0.6351054847601714,-0.0475906694240664,0.3873831714542997
1681239818709591800,3.905591796875,-1.7928385734558105,0.008514808490872383,0.4800238609313965,0.4342295527458191,0.883338451385498,-0.17651686072349548,1.0796712636947632,2.762810230255127,0.5347627997398376,0.6594676673739784,-0.6396703849715664,-0.05062974310358333,0.3916133493096063
1681239818719568000,3.91556787109375,-1.9740221500396729,-0.7305535078048706,0.020553868263959885,0.43569087982177734,0.885601818561554,-0.16088299453258514,0.7418452501296997,2.6893038749694824,0.4220220446586609,0.6530310681628902,-0.6454554579032624,-0.0542748067456492,0.3924183568114661
1681239818729543700,3.925543701171875,-2.126887559890747,-1.6826550960540771,-0.03544814512133598,0.4336099326610565,0.8887838125228882,-0.14847822487354279,0.6103964447975159,2.3961284160614014,0.2427166849374771,0.6459274616281623,-0.6494762317556511,-0.06278148729633536,0.3962535422862695
1681239818739518700,3.935518798828125,-1.8918880224227905,-0.6829290986061096,-0.1617950052022934,0.43128690123558044,0.8920629024505615,-0.13496559858322144,0.6224851608276367,1.9836238622665405,0.2588059902191162,0.6391234577254805,-0.6538657706294435,-0.07054613279792789,0.3987533182300227
1681239818749494800,3.945494873046875,-1.3207905292510986,-1.2478545904159546,-0.5458768606185913,0.42712706327438354,0.8956031203269958,-0.12432876229286194,0.23833927512168884,1.541744351387024,0.13827544450759888,0.6343313514744015,-0.6571447515842048,-0.07743638000355414,0.3997351468176613
1681239818759470600,3.955470703125,-1.0155647993087769,-0.374015212059021,-0.37931638956069946,0.4215955436229706,0.8990424871444702,-0.11823727190494537,-0.1818493902683258,1.2220971584320068,-0.05519402027130127,0.6310877508506991,-0.658588782562748,-0.08451140646479446,0.4010573694861648
1681239818769447000,3.965447021484375,-0.001415979117155075,-1.2906057834625244,-0.41361844539642334,0.41672712564468384,0.9015517234802246,-0.11637544631958008,-0.34025001525878906,1.03762686252594,0.02566206455230713,0.6301572501315655,-0.6587180824719551,-0.0888975029047499,0.4013598150621743
1681239818779422700,3.975422607421875,0.3505344092845917,-0.9117635488510132,0.015167592093348503,0.4134601652622223,0.9021262526512146,-0.12336654961109161,-0.40856197476387024,0.8391459584236145,0.04917840659618378,0.6308379906558862,-0.6555245604848554,-0.09275923623172486,0.4046318792308258
1681239818789398800,3.985398681640625,-0.12174791842699051,0.10167068988084793,0.457048624753952,0.4151157736778259,0.9009472727775574,-0.12638483941555023,-0.38562050461769104,0.6389392614364624,0.052562907338142395,0.6306165517566862,-0.6543376679095438,-0.0930043006841621,0.40683573144690227
1681239818799374800,3.995374755859375,-0.24889756739139557,-0.11406911164522171,0.7141772508621216,0.42120474576950073,0.8985792994499207,-0.1230519637465477,-0.43087881803512573,0.32905131578445435,0.13544221222400665,0.6287479588375536,-0.6559769003144288,-0.09037877362496288,0.40767875505198853
1681239818809350700,4.0053505859375,-0.37437453866004944,-1.4210995435714722,0.39645418524742126,0.425191193819046,0.8965398669242859,-0.1242133304476738,-0.41254159808158875,0.017415940761566162,0.25350117683410645,0.6261605196032385,-0.6553061198439925,-0.09201751460702676,0.41234671901812997
1681239818819325700,4.01532568359375,-0.33722415566444397,-1.0039870738983154,0.20374108850955963,0.42605528235435486,0.8958430886268616,-0.12626293301582336,-0.3247673809528351,-0.12414497137069702,0.2651485800743103,0.6238195091140973,-0.653982418443988,-0.09578897682444588,0.41711011346137633
1681239818829301800,4.0253017578125,-0.23245541751384735,-0.6311872005462646,0.20143957436084747,0.4267706274986267,0.895338237285614,-0.12742245197296143,-0.4872411787509918,-0.05790531635284424,0.24667002260684967,0.6222000272938387,-0.6531834021367402,-0.09818461598352098,0.42021242042138646
1681239818839277800,4.03527783203125,-0.33371809124946594,-0.22705025970935822,0.18641862273216248,0.42806944251060486,0.8948611617088318,-0.12641307711601257,-0.6984245777130127,-0.12139302492141724,0.19269734621047974,0.6205738628283559,-0.6533820085879481,-0.0994253977792032,0.42201272443220106
1681239818849253600,4.045253662109375,-0.41910168528556824,-0.15267536044120789,0.11155504733324051,0.4291689395904541,0.8946775794029236,-0.12396132946014404,-0.7210389971733093,-0.29587680101394653,0.2073659896850586,0.6189572977247481,-0.6541834174945316,-0.10031644798518999,0.42293347140783666
1681239818859229700,4.055229736328125,-0.6488471627235413,-0.0809808298945427,0.09842578321695328,0.4299282133579254,0.8948943614959717,-0.11969169229269028,-0.691738486289978,-0.43879377841949463,0.1941089630126953,0.6169639722206937,-0.6556406679866755,-0.10143701005314776,0.4233219496561194
1681239818869205800,4.065205810546875,-0.8059982061386108,-0.029111500829458237,0.06189227104187012,0.43064242601394653,0.8953734040260315,-0.1133744865655899,-0.6626217365264893,-0.5354490280151367,0.13391298055648804,0.6143130297260245,-0.6578140485510529,-0.10292440634328856,0.4234464390271192
1681239818879181800,4.075181884765625,-0.8976957201957703,-0.031064238399267197,-0.0012255125911906362,0.4309435486793518,0.8961588740348816,-0.1057693138718605,-0.653325080871582,-0.6316171288490295,0.11075907945632935,0.6114020415346153,-0.660422842337458,-0.10467574070645679,0.42316940599488406
1681239818889158000,4.085157958984375,-1.1117757558822632,-0.13472113013267517,-0.11883390694856644,0.4303394854068756,0.8974235653877258,-0.09715539962053299,-0.6851154565811157,-0.7323386073112488,0.03982824087142944,0.6082039212732162,-0.6632752348132803,-0.10718331511695363,0.4226888666610562
1681239818899132700,4.095132568359375,-1.464518666267395,-0.18118806183338165,-0.276652455329895,0.4283977746963501,0.8994596600532532,-0.08630161732435226,-0.7189555764198303,-0.8117367625236511,-0.03305250406265259,0.6042706892204405,-0.6667228624525244,-0.11103971111079988,0.421909821526941
1681239818909108700,4.105108642578125,-1.7090331315994263,-0.17023980617523193,-0.4510250687599182,0.42501699924468994,0.9022685885429382,-0.07260990887880325,-0.7499375939369202,-0.8843699097633362,-0.05974471569061279,0.5995441536019643,-0.6709664996171631,-0.11618520716839767,0.42053763057609167
1681239818919084800,4.115084716796875,-1.4718877077102661,0.022253897041082382,-0.6758063435554504,0.41984865069389343,0.9057216048240662,-0.05827408283948898,-0.7950164675712585,-0.9572046399116516,-0.07589632272720337,0.5952246998331883,-0.6753118178517545,-0.12172471851591561,0.41814444082597374
1681239818929060600,4.125060546875,-0.803832471370697,0.2277309000492096,-0.9082286357879639,0.41273707151412964,0.909623920917511,-0.04724998399615288,-0.8574239611625671,-0.9996659755706787,-0.12987393140792847,0.5930330583852215,-0.6785194727882641,-0.12643707314820346,0.4146526611832289
1681239818939037000,4.135036865234375,-0.06724908947944641,0.3414094150066376,-1.0881277322769165,0.4035525918006897,0.9139996767044067,-0.04183841869235039,-0.9101137518882751,-0.9726846814155579,-0.20326340198516846,0.5937771235779246,-0.6798466798883759,-0.12995877455212954,0.4103025696131006
1681239818949012700,4.1450126953125,0.6180557608604431,0.4540235698223114,-1.1550101041793823,0.39318856596946716,0.918455958366394,-0.04291342571377754,-0.9320221543312073,-0.8845813870429993,-0.21367818117141724,0.5973346192504382,-0.6790295133066024,-0.13214464372220971,0.4057686071980442
1681239818958988500,4.154988525390625,0.9030300974845886,0.24895420670509338,-1.0358197689056396,0.3832700252532959,0.9223546981811523,-0.0486425943672657,-0.9296109080314636,-0.8011540174484253,-0.18623578548431396,0.6023939246730987,-0.6767019513276418,-0.13324102695172105,0.4017996440654874
