,seconds_elapsed,rotationRateX,rotationRateY,rotationRateZ,gravityX,gravityY,gravityZ,accelerationX,accelerationY,accelerationZ,quaternionW,quaternionX,quaternionY,quaternionZ
0,5.86707,0.025836281478405,2.1711089611053467,-2.315558433532715,0.0489854291081428,0.9987319707870485,-0.0116172106936573,0.4523726105690002,1.5627762079238892,0.3882501721382141,0.7087851897425801,-0.6969203038210398,0.0921601045891312,-0.0585848939301915
1,5.87707,0.08386186350323302,2.0313202047111094,-2.189123418021225,0.03531970416830715,0.9992543519045383,-0.011409396697621204,0.4833164246277153,1.4810239157209975,0.2808382046270823,0.7078382223640838,-0.6970349650497221,0.09185583954170821,-0.06794314308432686
2,5.88707,0.3870737359347831,1.8617009745357913,-1.9413077810566794,0.014850691375726432,0.9997586221863219,-0.013087971757255408,0.539217135099975,1.3565868458564225,0.17946554360040512,0.7069333007999764,-0.6964900307767309,0.09141874343437044,-0.08213297222865645
3,5.89707,0.7508272376440244,1.7474168568869684,-1.6701195833564075,-0.00291804505563644,0.999782696652591,-0.0186908349966966,0.6039099373285791,1.2131869136344817,0.1185308859234046,0.7073025259862356,-0.6944978686164823,0.091245428367205,-0.09503938411037084
4,5.90707,0.9880003277100575,1.6669730782895096,-1.4235634307215725,-0.01799776623282926,0.9994209314872325,-0.02765415583926334,0.6351300875584314,1.0153771171998747,0.05410734072551378,0.7087875782940097,-0.6912302393839161,0.09149055536117358,-0.10684738376040574
5,5.91707,1.2085277889831094,1.6436694653500639,-1.1760537130797293,-0.030471897160763057,0.9987429995539371,-0.03898149360748219,0.6068445457086983,0.79385177660441,0.044453544995518963,0.7110682101252811,-0.6870188155701579,0.09224662249322504,-0.11766944972204174
6,5.92707,1.335600888255127,1.683768129199847,-0.9188106028431182,-0.04017102829708792,0.9977874348893606,-0.052376179630398305,0.5456142359749568,0.523718989962624,0.05905240335740083,0.7140465314974339,-0.681915576934379,0.09378397294389906,-0.12767744974893655
7,5.93707,1.3127347085638237,1.7183209363109921,-0.711006032460865,-0.047221962705897874,0.9966563766174545,-0.06628709001534745,0.4711672354369397,0.1924893299090095,0.06148286528868951,0.7171837952979477,-0.6764448807926434,0.0962806700457565,-0.13700365957751956
8,5.94707,1.2611335613699437,1.7256589673255243,-0.5511935368251863,-0.05224710514333456,0.9954004058845591,-0.08000560319179809,0.38722615408101346,-0.10048305041633865,0.0906877520071365,0.7202448348609176,-0.6708945466381808,0.09943847517511534,-0.14571113293790733
9,5.95707,1.0280560331889543,1.7609540106644548,-0.3526713809467238,-0.0553043573328672,0.9941594883000447,-0.09249449983089666,0.30083808489185293,-0.32945595247420234,0.12296969657351593,0.7229033103060949,-0.6656343100475969,0.10331417570697064,-0.1537627101060759
10,5.96707,0.5334237808212454,1.8082218423382614,-0.08348628961121515,-0.055804744758432834,0.9932753012152438,-0.10138059231788252,0.2306950393807075,-0.5385193878403147,0.172839150115956,0.7244179695593937,-0.6614716685111274,0.10841908054853668,-0.1609291297268911
11,5.97707,0.0446514564184497,1.9157327441097725,0.15901987997035055,-0.053521054073753134,0.9930060222386835,-0.10522066728318469,0.19284325418363543,-0.7566501803882101,0.2596042646501762,0.7243493435327223,-0.658893608755847,0.1150488743217532,-0.16709473945622674
12,5.98707,-0.29868722368732775,2.005572004974941,0.39967521063394024,-0.04873081687400743,0.9932885204008528,-0.10485995249943365,0.18977837330874908,-1.0206534956747813,0.3339389729439703,0.7229646472149523,-0.6575582827404831,0.12316679474878922,-0.1724688315686479
13,5.99707,-0.4748964023356117,2.024949305689734,0.6650799451587717,-0.041362765102361185,0.9939324213760555,-0.10182663073329326,0.22179141460772703,-1.2807675428007286,0.3930162861389155,0.7208335303286937,-0.656881787607044,0.13255657438055005,-0.17693891058653569
14,6.00707,-0.48324687779466136,1.9307402226517758,0.8451465044000126,-0.031772974206600635,0.9946990261248955,-0.09765562504586839,0.29921932985166877,-1.4336581036691052,0.45059712650037076,0.7185312062046143,-0.6563489768130351,0.14266871076300072,-0.18038190725261652
15,6.01707,-0.25809253983446034,1.6595375661895129,0.8769881779070104,-0.021407312303642487,0.995301967743799,-0.09428649458745554,0.41584923205563545,-1.4673663007492455,0.46248134417433706,0.7167179018081759,-0.6554590809415389,0.15234896128548764,-0.18291323786867233
16,6.02707,0.1817125226348984,1.3214635152762189,0.834074258707232,-0.011508824336435288,0.9954891403317365,-0.09406495933124337,0.5564723917360971,-1.4504106353248927,0.42148493667104253,0.7161813125309601,-0.6535932456887573,0.16052862889753106,-0.1847063250322133
17,6.03707,0.658522386465485,1.0529656833122893,0.7924977256842023,-0.002339595528391603,0.9951342341115801,-0.09837196115251387,0.7047473034585179,-1.4257614360003386,0.3574036676204182,0.7173437884031332,-0.6503177118293963,0.16700269580520957,-0.186019027515885
18,6.04707,0.9674763132041966,0.812940887171707,0.7864889537902723,0.006354123981622442,0.9942671307971662,-0.10656865259392544,0.8113125261214589,-1.422657823519794,0.3215788311908251,0.7199537353851178,-0.6458217318814444,0.17210417671889783,-0.1869463379400585
19,6.05707,1.0268069884151694,0.5647653906876293,0.8557642292789706,0.014608679688724365,0.993085446707052,-0.11632423884326841,0.8191046877782195,-1.4669023384193032,0.3132948510756278,0.7232475605448717,-0.6409608912189855,0.1760651155802055,-0.18727687003613666
20,6.06707,0.940077154587664,0.373314897412072,1.0867136096649164,0.024326033361489717,0.9917216817253598,-0.12590593318387586,0.7135520298536079,-1.538926735541163,0.3267770296363517,0.726815552227157,-0.6361812036784107,0.17975671770192858,-0.18624930178453256
21,6.07707,0.81173929845571,0.27798338410449397,1.4457664480043908,0.03717094394571859,0.9901838008969024,-0.13452203819530373,0.5346477383978622,-1.583185532098008,0.34843887181345196,0.7304738401154968,-0.6315439106891511,0.18407064728440933,-0.18347677540715335
22,6.08707,0.5550165654475154,0.2519629258491013,1.8486060721817434,0.053836002700861356,0.9884672757347889,-0.14126242772759343,0.37075601123469104,-1.5607559047108719,0.3471439056445733,0.7338981433817111,-0.6272225416024766,0.1896021651452344,-0.17893219638695565
23,6.09707,-0.014183599359194887,0.15808347726305888,2.164212920015578,0.07394456433005281,0.9867655957398944,-0.14397155256665625,0.2815964225951194,-1.4711101017626989,0.3346253262773155,0.7363612855454109,-0.6240497967781489,0.19637554998433585,-0.17247040798193003
24,6.10707,-0.888911505093731,-0.14776517298976705,2.340227656595965,0.09622833251687679,0.9854434654860995,-0.13970656036143247,0.29177366301370017,-1.3381397215008717,0.33655594679625594,0.7368931758863906,-0.6233655664616051,0.20383695455551937,-0.16377568831274772
25,6.11707,-1.8610771675889337,-0.593819582355726,2.358135363444972,0.11894477653364627,0.9847139974141295,-0.12658488464899018,0.39180239136724765,-1.2124582776051984,0.341319886181861,0.7348501137531779,-0.6262758945645128,0.210884741095532,-0.15249339037144075
26,6.12707,-2.6125025746363733,-1.0065985287090287,2.2541825349522124,0.14068033828347828,0.9843158711043547,-0.10542608710977543,0.5235418375271093,-1.1421976909305802,0.3278168718860539,0.7302953555943873,-0.6326818305328674,0.21675401799767716,-0.13904401581818662
27,6.13707,-2.867647986079934,-1.3657087368920948,2.2785968108646504,0.1618486813542642,0.9834486174860001,-0.07992837106980025,0.5944303629616671,-1.0855768380835642,0.2715718766468288,0.7242285817835765,-0.6410415510789025,0.2215416545128923,-0.12408748014983917
28,6.14707,-2.7323597599913763,-1.6835528218932365,2.391083679216025,0.18379603568432645,0.9813106116795293,-0.05489643046657616,0.5831932571220074,-0.9641339151328647,0.11659067287128369,0.7181893730771105,-0.6494593536456682,0.22524959401129574,-0.10762727483847864
29,6.15707,-2.6448275112176285,-1.9571576714092593,2.0490997600837964,0.2053457199987023,0.9780502299815386,-0.032469443582664945,0.5430288847528876,-0.6983407076639099,-0.07514089672812563,0.7127074201917022,-0.6572264847220266,0.22760873063376139,-0.0906395375330834
30,6.16707,-3.0729493104318353,-2.454648859587522,1.3340127048694859,0.22141703206426308,0.9750504971030141,-0.009712034591891811,0.4759901671156336,-0.23982836248398925,-0.0732521793676214,0.7066083356467948,-0.6661929178900756,0.22651755876376972,-0.07413335851949321
31,6.17707,-2.789427468366238,-2.842583053799895,1.448488120431593,0.23427562174314828,0.97199494566623,0.013760418223254984,0.40995774403478275,0.4662480217966073,0.10531449339100446,0.6998517159759186,-0.6762975037159731,0.22242865509592905,-0.057037442631949035
32,6.18707,-1.3364380169999732,-2.760092016131354,2.004952707258569,0.2517175866921281,0.9673776559928084,0.026784895698643393,0.44214311077999113,1.4512750178539826,0.3261502758122039,0.6964285436761639,-0.682239307542221,0.21894475681250836,-0.039043711381434754
33,6.19707,-0.9968576649613696,-2.3347260349552816,1.5868535824347079,0.2704362534042366,0.962209273974412,0.030681325568729434,0.6135542377152482,2.316653182159817,0.3653576369460414,0.6957723721121166,-0.6844405418108147,0.21651872766527028,-0.022550270107145602
34,6.20707,-0.7761079427138193,-1.5089236465586064,0.9053178842345628,0.28273359663554404,0.9585793065382376,0.03410193331188449,0.6847152276371937,2.6688755332152243,0.41851770476910843,0.6948469905808112,-0.6864644935316279,0.21404437296538617,-0.010731494224135989
35,6.21707,-0.768678860711164,-1.4665087084030313,0.4484564551610731,0.28963088912967944,0.9564131821599944,0.03714133349201046,0.6561888377668809,2.7020718050859633,0.5712663788077759,0.6938381890306853,-0.6883632344973082,0.21148227236567463,-0.0027921730576928845
36,6.22707,-1.0273406460841246,-2.1176724390291692,-0.02345757539404264,0.2923592716564861,0.9554423406514342,0.04065259692513551,0.7789128241693821,2.385152629559886,0.47586181446794495,0.6925560742568806,-0.6912847909067782,0.20600974214845083,0.005060970932898834
37,6.23707,-0.8032540358019611,-2.219915551016448,-0.3946813656706313,0.290902972282785,0.9557493014248929,0.043769940981473326,0.8076107283872245,1.9238728234948916,0.36744906792036924,0.6913311900678897,-0.694880830318654,0.19749746413717492,0.012818708093753357
38,6.24707,0.37642018573369374,-2.484541868070389,-0.6759732578317661,0.2867337933290299,0.9571766948725041,0.03977703376372984,0.5074715689291549,1.5150814398551034,0.24771517203221854,0.6926212571992325,-0.6962265027402896,0.1874438105429997,0.019452927813982987
39,6.25707,1.5350614831978424,-2.3371664335276066,-0.9710935760882783,0.279636752633095,0.959770496684977,0.023360806009315754,0.10750351927978202,1.2609910538405382,-0.07192181185929142,0.6983686609192971,-0.6932593745048148,0.1761836023406999,0.024230163567064793
40,6.26707,2.3873488930107456,-1.864817413254718,-1.0601955762910025,0.2698384415264908,0.9628183373753285,-0.0014004695235907971,-0.23351878154769892,1.1914761601910582,-0.45498455874413113,0.7071085392669215,-0.6869334156866596,0.1655008498864272,0.02607676175014306
41,6.27707,2.863327970010442,-1.6599574910026602,-0.7012607223126033,0.26089330558256163,0.9647376934331767,-0.03162397226704069,-0.3977658203333041,1.2838982433479473,-0.6110128334269789,0.7176868868219574,-0.6779697511275445,0.15656312002405898,0.026701767303343085
42,6.28707,2.742207294538044,-1.8027987566048447,-0.33769271875161283,0.25521370987069214,0.9646965132165275,-0.06340524530277786,-0.22113511758452076,1.1672342311561663,-0.5646720376563625,0.7286068708887267,-0.6678645053235975,0.14907426527160594,0.0284645059963951
43,6.29707,2.1771286929937097,-2.1372858876614393,-0.14265936693494677,0.2513662393376509,0.9634014643264095,-0.09228783146453134,0.11385000694927389,0.8458439515286473,-0.4038074233555817,0.7382929304158904,-0.6586607323636429,0.14140159276078576,0.032353040969933466
44,6.30707,1.4744130585359985,-2.2074794844301,0.18669462262532469,0.24910205321705473,0.9615248166356494,-0.11544103016098921,0.28376664026723963,0.540594316820671,-0.1557196692367213,0.7458089902590945,-0.6514848291310049,0.1335147706572331,0.038364276646207965
45,6.31707,0.8828236907322827,-2.1844127844016072,0.5450922071948106,0.25006272747060243,0.9591856029807228,-0.13186470878015005,0.23246509541607183,0.29885695003189633,0.024153502909230018,0.7508625098028097,-0.6464971263799287,0.126877220204071,0.046057948307929426
46,6.32707,0.5447541212013959,-2.3790302254086337,0.4863230921068574,0.25197584510847304,0.9568655230704858,-0.14452426920930836,0.06683046413295188,0.14065780181144738,0.08228283834621877,0.7544663784503923,-0.6428773109332858,0.12014592721927862,0.05499086150808356
47,6.33707,-0.12738867613956206,-2.36294987450279,0.3823232492099349,0.2524762474235551,0.9554677456871599,-0.15273556161610335,-0.14073668093483183,-0.028250717780103754,0.05867199219507488,0.7564668198890131,-0.6410540877504508,0.11255961849443508,0.06410544145757209
48,6.34707,-0.8289647798665125,-2.17710619086697,0.3696484494769733,0.25245823526273914,0.9552867762530908,-0.15392309178796582,-0.363071212268579,-0.23329591487591467,0.15056050976526292,0.7560492709787143,-0.6418841200713664,0.10493677483973159,0.07304649959309906
49,6.35707,-1.5686221312050697,-2.0014606931806376,0.43274206104956414,0.25304498157756555,0.9560932173026075,-0.1477898766523104,-0.5186133474285611,-0.35686198129314783,0.27477090197544685,0.7531119865396487,-0.6453838445064338,0.0978373805515324,0.08185541652584014
50,6.36707,-2.348161754760768,-1.9304946592352787,0.4954800812701494,0.2547462505996161,0.9576393825487456,-0.13410181316897277,-0.608705805178718,-0.5347606161337138,0.3122336404633917,0.7475097124768499,-0.6516302075489313,0.09115693657791353,0.09086807514834674
51,6.37707,-3.12785915478946,-1.9034174958101628,0.4463858903102061,0.25691953729276146,0.9597827073035144,-0.11271328710873678,-0.6367396175626792,-0.7541328169292411,0.3073017361221276,0.7391167565083322,-0.6606969326800551,0.08423366951931288,0.10015438058759538
52,6.38707,-3.7499602154138882,-1.7671101446027135,0.3868685952254463,0.2591077009604999,0.9620693722470708,-0.08434025797552656,-0.6239544487000682,-0.9346361941128017,0.2361432569716979,0.7281529434598228,-0.6722000096793235,0.0770691676020102,0.10919307098257347
53,6.39707,-4.04808484240313,-1.5676150230432215,0.28794931621501285,0.2612275338438393,0.9638193398095877,-0.05085985779944517,-0.6171604504320836,-1.032731939508764,0.1513927867686662,0.7152400186128438,-0.6852992230968908,0.06994094016837456,0.11754120431111634
54,6.40707,-3.8040056269257785,-1.2932795201150595,0.12805238988518192,0.262755537966981,0.9646090502566941,-0.01637566030012411,-0.6355354381115818,-1.002878625226563,0.06980879798795328,0.7018784953879876,-0.6984115266663985,0.06319702035080699,0.12455208039207451
55,6.41707,-3.062524259117656,-1.0075798441465935,-0.04056718506204497,0.2631420931070233,0.9645748812855647,0.014002708477415854,-0.6957922818215586,-0.8941568534197718,-0.0075493018679298335,0.6900182553004192,-0.7097236244370885,0.05714896561114882,0.12979052501839952
56,6.42707,-2.1023909799752123,-0.613095452996951,-0.17020377268798137,0.2622551608821683,0.9642530287339015,0.03686074261681217,-0.7830280248794725,-0.7905253256061631,-0.0532957448594556,0.6810666772254654,-0.7181147099535692,0.052221039862570505,0.13305777738997626
57,6.43707,-1.2622402184246435,-0.06397021315144297,-0.21538569736975888,0.26042730816657134,0.9640724886530303,0.05204816665302622,-0.8624740417863354,-0.7217895328852088,-0.05461850261745507,0.6752804976971938,-0.7236015060627592,0.04918924437809541,0.13404400556314625
58,6.44707,-0.798422017103658,0.3999530436758554,-0.23029006746440642,0.25806921498753077,0.9640947497647202,0.06248653206009166,-0.9110183899910589,-0.7204227215871138,-0.027866251654195404,0.6716478914577804,-0.7272615601325629,0.0482896673210119,0.13282946079136837
59,6.45707,-0.6179751793896171,0.6154569531286374,-0.31301143022576905,0.25503188380416475,0.9643328019757005,0.07077070321195986,-0.9055837119020378,-0.7802561594541835,-0.005978627541574952,0.6690904536769057,-0.7300831824853617,0.04860619380069518,0.13011623658287141
60,6.46707,-0.4013467203326852,0.8944833735332959,-0.45241197791289944,0.2507067887535717,0.9649260290650087,0.07779534733147807,-0.8539637365178292,-0.856234340175389,-0.017299818044164986,0.6672112534657778,-0.7324360856247623,0.04933592843249618,0.12620601116732957
61,6.47707,-0.02203959470206185,1.0007910151642918,-0.5575450472557302,0.2449708528239132,0.9660226532501667,0.0823427192025363,-0.800152639202838,-0.8987261427996789,-0.049305408757580285,0.6664639294950883,-0.7339074606637939,0.050503835913796105,0.12103397650230009
62,6.48707,0.42182898493031556,1.006603915604205,-0.5874862891396239,0.238524078477013,0.9675917145113757,0.082852870251302,-0.7728102984495389,-0.8584828047535095,-0.08639008835275336,0.6672756552127718,-0.7339895381066347,0.05182152463064013,0.11537256283238143
63,6.49707,0.6538914485506991,1.2058449939338045,-0.6202425640463909,0.23180582564155047,0.9694623657983205,0.07998906435998682,-0.7553443597646221,-0.7899041898104563,-0.09301129762266641,0.6693778754704518,-0.7328885280035258,0.05355389316717256,0.10922926284983211
64,6.50707,0.482371807579554,1.686952463096172,-0.7248179991681919,0.2241952724906295,0.9714493967564198,0.07752928697565775,-0.7662572281125833,-0.7767508480987163,-0.047353353467926136,0.6714948302405249,-0.7318481683383006,0.056225219467498935,0.10157890021219854
65,6.51707,0.1192248310444386,2.2624160290243154,-0.8726893874362635,0.21485616239363314,0.9734426793378548,0.0789206073394123,-0.8183335360428483,-0.7659436692204494,0.06132004303287432,0.6724097946768683,-0.7320165630324402,0.06007566722121678,0.09157319192677263
66,6.52707,-0.32451979833034045,2.5504541919382078,-0.9324226477406263,0.2039406695557167,0.9752789820883044,0.08490493438393643,-0.8749299336624512,-0.6549819527593775,0.19516219128673995,0.6716884448508215,-0.7336601570888341,0.06473497983264159,0.07972848682230171
67,6.53707,-0.5567246678669194,2.716557507150594,-1.1000324082055914,0.19183799699088203,0.9768141167071299,0.09480054807119374,-0.9125908027458967,-0.3760587534344837,0.32019396110278364,0.6694041451710706,-0.7365652207784832,0.06975582305087302,0.06684192531144792
68,6.54707,-0.1783094988768511,2.607644839897493,-1.4534662885535647,0.17669692685581959,0.9787650206358531,0.10364698885678779,-0.9547637269028408,0.1381182241047948,0.4191207859330012,0.6673458500255899,-0.7391629779577732,0.07387884516308692,0.05283382965435604
69,6.55707,0.48662506713595344,3.0110060338209714,-1.6727426735664437,0.15837880142549732,0.9815563770819853,0.10677935178380471,-1.0719629607236987,0.8367503575894328,0.40842564264015063,0.6672162601953231,-0.7398701578109418,0.07733016883901318,0.03729556247828712
70,6.56707,1.0122866209804637,3.4009039201741675,-1.9890985909091166,0.13706525669116626,0.9850246620765196,0.10419139796734941,-1.1595299190584787,1.6359890375869914,0.4084030141456324,0.6689440611052605,-0.7385386373257677,0.08156323798442894,0.01890801741586355
71,6.57707,1.7322502720080164,3.3086833639199313,-2.517746340865839,0.11145631417646366,0.9891741652344704,0.09473072704119315,-1.0056270344421758,2.3628668418214884,0.41585750985777475,0.6727227704005141,-0.7349698868438722,0.08473855414649246,-0.0017597673936769597
72,6.58707,2.163074593296622,3.1224249434171805,-2.859708080326757,0.08174258094419777,0.9934646884163895,0.0783623670732411,-0.6124809483543233,2.7059159447311734,0.4198256174289214,0.678367278373603,-0.7292911822544142,0.08549553784713644,-0.023513330451825104
73,6.59707,2.164931012455609,2.9421314802391634,-3.0285913475048667,0.04991394209403778,0.996902534405521,0.0588359933580018,-0.1796715377908804,2.655832139418238,0.4621571357526648,0.684399400160034,-0.722654140713581,0.08474332442199232,-0.04575454338053828
74,6.60707,2.177628243793339,3.1240882670857566,-3.073498679754572,0.017766527254216805,0.9989935597992163,0.038234900438362,0.13652861642113692,2.542974289527228,0.5406850649533863,0.6900477948448285,-0.7156462406959389,0.08342431131870913,-0.06806077372917452
75,6.61707,1.9010506095232356,3.1998694780102013,-3.095634031586338,-0.014025234732152418,0.9996313139860364,0.01777923621098644,0.35995182915376245,2.336816480690653,0.5667961394266096,0.6948049296060734,-0.7085601763975025,0.08260787898949996,-0.09093700690140517
76,6.62707,1.3992388265516758,2.76724687293983,-2.9803456648142865,-0.04481092333339788,0.9989004084247111,0.00036798850473054694,0.5824767110188085,2.0420921282748483,0.5043946895910763,0.697862897463368,-0.7025277391704403,0.08144498914618979,-0.1128238983588489
77,6.63707,0.8497939143595417,2.5168235994639847,-2.7505134625988323,-0.07333016349069267,0.9971594932792786,-0.0123270389994347,0.8378968379452629,1.7508396579365044,0.515715738931571,0.6989671767799018,-0.6981805309301716,0.07985931954745024,-0.13248130574228623
78,6.64707,0.37444033488074996,2.5425667202426614,-2.450441056074329,-0.09886714470593116,0.9948336015086733,-0.020654521291536623,1.0574891133941184,1.369553268476577,0.5314062258596378,0.6982761523039968,-0.6952718903871442,0.07917466590864633,-0.15062700123965977
79,6.65707,-0.10314493575928502,2.3845521984972855,-2.10511779272221,-0.12095214435318058,0.9923151241007753,-0.024685094513754502,1.114348568501071,0.9465831040206313,0.43814050463119664,0.69595326872885,-0.6937551146203321,0.07975557829981728,-0.16718434178397684
80,6.66707,-0.45730396483339875,2.294365963708411,-1.7238196726100572,-0.13939827987075135,0.9899000027570013,-0.02486138647947376,1.0644398561335875,0.6309788130328773,0.35233245095458676,0.6923470486558129,-0.6934958315358549,0.08143895544699684,-0.18180662606553338
81,6.67707,-0.6598491600545723,2.3751372306751,-1.349668384513449,-0.15403275338016717,0.9877897009689793,-0.022697676613973865,0.9842711553435448,0.4057164119579555,0.3322771845885086,0.6879857734405095,-0.6938889478092738,0.08466047304840436,-0.19492783890922355
82,6.68707,-0.8594182083134914,2.5575504850476642,-0.9568264990665243,-0.16491808242603256,0.9861124035386248,-0.019152258918373532,0.8675735804329854,0.19055425533865167,0.2676897516116838,0.6831199097721596,-0.6945087930390731,0.08987061045491221,-0.20711933241218594
83,6.69707,-1.0763434144088315,2.6089088256502286,-0.5608167827810542,-0.17195228480206298,0.9850006461536754,-0.014008049153580532,0.7537219267468294,-0.0210772873506844,0.19300109829072196,0.6777486858023305,-0.6953842450369122,0.0970987594343718,-0.2182637088289141
84,6.70707,-1.2557352936331685,2.499845102094342,-0.19132753012342701,-0.17536348557210227,0.9844745323611952,-0.006981270953194214,0.6920577252548641,-0.2198590104567195,0.13552546615610805,0.671958039296455,-0.6966356091034547,0.10581266335128982,-0.22791544103062863
85,6.71707,-1.228081813084736,2.287281498391575,0.10389455442963799,-0.17570322638600994,0.9844372605521287,0.001269264423682785,0.6694199721270924,-0.42110632997188935,0.09469842926205305,0.6661828607548339,-0.6981155634581491,0.11513601814036144,-0.23569721090796356
86,6.72707,-0.8395693082926137,2.150537798669934,0.3710416782859346,-0.17350417638453977,0.9847994783120583,0.007769563481692221,0.6454489182898431,-0.5960026378880473,0.048884909347045036,0.6614627182348402,-0.6988271414992703,0.12455039664167494,-0.2420213068709731
87,6.73707,-0.18065463311987517,2.053326736196821,0.6697652803648415,-0.16860639276333195,0.9856370573274184,0.009353821868131721,0.6068313282783184,-0.7213354992750415,0.0020126621443417314,0.6589030481082551,-0.6976598212802776,0.13392192262940006,-0.24731684482189026
88,6.74707,0.6355322322548598,2.0542505965135516,0.9259463422480743,-0.16082507975407176,0.9869677786068339,0.003744398866117958,0.5716181616700067,-0.7985604543055389,-0.0035922937357766916,0.6592755780106961,-0.6938009270652145,0.14317149989505393,-0.2519539365262802
89,6.75707,1.2839423673741968,2.172011595471105,1.0745963230960298,-0.15082427531845458,0.9884970526920238,-0.00915722241446448,0.5503745117049684,-0.8843334025438935,0.00518211361614319,0.662344903155535,-0.6871512907660479,0.15240046576986463,-0.256657968488885
90,6.76707,1.6621027028900979,2.0613842330082255,1.0846568869910775,-0.13969481060035274,0.9897937717866481,-0.02701284482210878,0.5548347654368796,-1.0349648325801373,0.004860416690736179,0.6671651133974652,-0.6785736042714356,0.16127711776486414,-0.2615158909046682
91,6.77707,1.5669692369814032,1.3354812256296866,1.2047331861668191,-0.1278366062255174,0.9907091466806769,-0.04568945401503059,0.6283407138547441,-1.2172094476542843,0.04419797545105784,0.6727717560716331,-0.6698099164468261,0.16879772527628206,-0.264985515078283
92,6.78707,1.1140753398012715,0.6169224762934156,1.3229807294457403,-0.11484464410257883,0.9915263811770572,-0.06031703982531461,0.7860421535881416,-1.3987138269574388,0.08435692429551238,0.6781449401590509,-0.6628737412869162,0.1744430712012698,-0.26509321747064996
93,6.79707,0.49098568834805356,0.03815562935885447,1.4006461715806733,-0.10116345903978605,0.9924876177974659,-0.0685792138367775,0.9576821844083657,-1.5882504604380854,0.16359589858597395,0.6823363637758582,-0.6585723118330207,0.17885358554720446,-0.26211319973937985
94,6.80707,-0.004721810593323439,-0.011011269885374944,1.4142931405884493,-0.08720967490153918,0.9936532967591578,-0.07087045998204637,1.0080655124248636,-1.8127565160577803,0.24443013634120211,0.6849328038615783,-0.6565219236960981,0.18314196036190655,-0.25748568634706087
95,6.81707,-0.41286008026490567,-0.38443025214653154,1.6280602479203388,-0.07270389363575497,0.9949901004249274,-0.06841498437363887,0.9386981963384897,-1.9736612903717399,0.29077935699901714,0.6862123425405788,-0.6561867861591,0.18764007255367054,-0.2516256687778784
96,6.82707,-0.6178338254677829,-0.7849516462754529,2.1673246247764446,-0.054384946845190296,0.9965214172028555,-0.06274928931186435,0.8136730332779759,-1.9643371747914855,0.30601335014799097,0.6873200230450952,-0.6569348181483281,0.19250677743386868,-0.24280638116939723
97,6.83707,-0.5325501825018872,-0.9481299847768854,2.6666399345849054,-0.03066200931446145,0.9978958594641207,-0.056429359865296604,0.7250465464548266,-1.8085296173015986,0.3281513014978324,0.6891269576241169,-0.6576815278762489,0.19808145948740924,-0.23086666138200584
98,6.84707,-0.2978657307604369,-0.7698719135369292,2.8860587240215994,-0.0032547879371199184,0.998587629480532,-0.0521132050328806,0.6509682433827976,-1.6232625517079433,0.3042819487967143,0.6917443695494647,-0.6572681644070877,0.20478317665000473,-0.21800286006749375
99,6.85707,-0.14577840731367686,-0.5195282029935726,2.849165929645077,0.025277194570854124,0.9983852014969672,-0.04989074130782141,0.5647708088559079,-1.4740329797762497,0.2544831364303765,0.6947003936677179,-0.6557064050494463,0.2123588213370201,-0.2057131158669331
100,6.86707,-0.14544029959392518,-0.3738128270002381,2.7455522563555412,0.052629026438068376,0.997374847083941,-0.04884828072301462,0.5230131082936575,-1.3399508538161458,0.21753957939453744,0.697449071736064,-0.6534746813235024,0.22031450986680398,-0.19487103923653828
101,6.87707,-0.6612851178587678,-1.4299920618909727,3.1656696641967432,0.08141030219216416,0.9955807787739789,-0.04573128014756971,0.5434029127136449,-1.188119269381253,0.18852559314198364,0.6999750111913801,-0.6523345140953832,0.22713169223379298,-0.18132066805870625
102,6.88707,-1.194432783224849,-2.241615029078253,3.741960767557053,0.11507770748925754,0.9925488575609803,-0.038201958283456385,0.6099284093357382,-1.0483893699129747,0.1485597952083042,0.702020886258026,-0.6532794866763645,0.23264024570457598,-0.16192695675244118
103,6.89707,-1.1285837161749233,-2.345238778252826,3.8985851168633716,0.15250027255520163,0.9877795763653894,-0.029342725858236968,0.6418410165857619,-1.0034807421026823,0.1276114795944267,0.7037012721068894,-0.6547391070905345,0.2379954546155441,-0.13934166040022328
104,6.90707,-0.37091901714058995,-2.1502852516600015,3.3820498748808405,0.1880349560594321,0.9817601292889861,-0.02543272579218351,0.45632800395131234,-1.023494306162155,0.05344241478288235,0.7061876232227381,-0.6545188267622011,0.24266518895041148,-0.11817825513777194
105,6.91707,-0.14014134223927005,-2.6420251864694944,2.854085511713637,0.2177592167893798,0.9755386001497436,-0.028423432813526165,0.2876973889044029,-0.7053475689767962,0.12094969079582168,0.7101609232234936,-0.6526904491505567,0.2445051807179936,-0.09921230300297788
106,6.92707,0.35322020160476486,-2.919618033457453,3.0528354765288754,0.24492832837468637,0.9688473153338378,-0.03544320867719329,0.3692466979725104,0.30729531425335777,0.3071939060700319,0.7150658236814006,-0.6502663524174075,0.24378533063945595,-0.07974055213563948
107,6.93707,0.4570284528390347,-2.4746160500545624,3.7430212709276387,0.27691806497919014,0.9596446085748709,-0.0475252891915572,0.6701344820266588,1.8314707228378053,0.44076552212568587,0.7212459920053,-0.6451273729815108,0.24503987864055884,-0.05931239567334078
108,6.94707,-0.6844599629749766,-2.8389839939426857,3.026232849241378,0.3089592831034906,0.9494814508336047,-0.053934478649468404,0.9313605314057773,2.6978744995527273,0.26273744875952604,0.7248875178384762,-0.6419193527088233,0.24692316318194538,-0.03817635628819979
109,6.95707,-1.1096527617266163,-3.1393812641180854,1.6430194334048236,0.3290530445014873,0.9426991213915967,-0.05480497353129353,1.006495763404702,2.880214155136085,0.24287806160584965,0.7259528055923631,-0.6429274108472134,0.24339218528763978,-0.01892494375043729
110,6.96707,-1.316372762447084,-2.5910068675204547,1.1424765841431477,0.3401963644986121,0.9388412265329248,-0.053215216296284555,0.9529689798891433,2.7264399724890973,0.4804929883219483,0.7256540631537052,-0.6458186144129865,0.2372882485653399,-0.003245476293673723
111,6.97707,-1.7983033002053037,-2.3043630244039117,0.8111627219503301,0.3482496936690143,0.9362195743899119,-0.04694737362019112,0.806979790477299,2.3937733860411985,0.382473349531193,0.7234351024691559,-0.6502356526843182,0.23176482570765058,0.009920833095028761
112,6.98707,-2.478078223379417,-2.318758245765431,0.4544855972929737,0.3531105089762343,0.9349180150580507,-0.03498806657140581,0.6128060807344344,2.2856437132288647,0.3438783985720896,0.7190166621919509,-0.6570839357112452,0.22524977481448058,0.02219730038692526
113,6.99707,-2.9469305071660914,-1.8482714496865225,0.3262524666256028,0.3560744922278437,0.934286232736106,-0.016927541172609594,0.4481561361515226,2.0905618690227348,0.4997761460604053,0.7122613078654993,-0.6661734665911366,0.21848688595031765,0.0336292791913935
114,7.00707,-2.8527500376877915,-2.534797464859551,-0.24485072328301055,0.3568294518023568,0.9341402125693502,0.003804940052092304,0.26781103798352945,1.7307681572176752,0.42494270924029737,0.7043766849476937,-0.6762787441300178,0.2110321573237584,0.043995576243293616
115,7.01707,-1.4548571244753767,-3.2244382427305194,-0.47577340124428225,0.35345454475432825,0.935362150235461,0.012695334453368045,0.14389328798849865,1.4830323460861519,0.21361638948118078,0.7004172792607317,-0.6833557904612586,0.1983744253835667,0.05527311443643252
116,7.02707,-0.838778665252014,-2.1997690815560906,-0.644501269462034,0.3484470986497751,0.9372300904515709,0.013483624215493425,-0.032341033748332165,1.328365483411202,0.10098225060430506,0.6994016713354092,-0.687042377288841,0.1862815921337048,0.06394746365963479
117,7.03707,-0.29324086001358707,-1.2362750933376456,-0.5669454832516521,0.34269683618368274,0.9393564614217211,0.012853051497495611,-0.4120322047133268,1.202079045984068,-0.27389114372121964,0.6992457747609616,-0.6890077436123874,0.17801454904202257,0.0680280616386491
118,7.04707,-0.07884733876554884,-1.3365027418760302,-0.24978309348852334,0.3391496282559067,0.9406752538630269,0.01031249952935707,-0.6314878089105231,1.2253341586970845,-0.2689881155513835,0.6998755478804173,-0.6894883686636538,0.17250993079368365,0.07083450116659878
119,7.05707,-0.4334310677178231,-2.0028926672384806,-0.23116978867153393,0.33715887641895637,0.941421479327934,0.0069802926415853984,-0.39380037248198363,0.8500717621596661,-0.2009638831893199,0.7005154117654572,-0.6899406081083739,0.16573496365552293,0.07606408484493588
120,7.06707,-0.6073368924079495,-2.1480317798098563,-0.23373269842302757,0.3349778061185502,0.942212320528982,0.005076854501928781,-0.14497281843305498,0.4336637626225,-0.08233034004441407,0.7004320603645826,-0.6911934004755348,0.15742985710845142,0.08278310211141306
121,7.07707,-0.6701661778683725,-2.134382094273568,-0.24772893622763711,0.33285578435824104,0.9429697573929203,0.0038586535641100712,-0.2243787934236235,0.2116193938784565,-0.03601871647961683,0.6999969450521285,-0.6926506104983488,0.1488570849062379,0.08983929177084092
122,7.08707,-0.8316459667572563,-2.1584764570265738,-0.3696250186058666,0.33007228380849973,0.9439476390144131,0.0038240749918360814,-0.43459128408405556,0.019562434576881366,-0.1465607511157806,0.6990861031099471,-0.6944932699770978,0.13994523419004107,0.09676221753687343
123,7.09707,-1.2336586126100424,-1.898972659750825,-0.5560863816260107,0.3258235954338355,0.9454056417638942,0.006709603571364351,-0.635637385138454,-0.15670515725107492,-0.2345931521311138,0.6971590779587006,-0.697338785048959,0.13063760529601262,0.10301136206933165
124,7.10707,-1.3667968324361606,-1.4473470855133663,-0.6437927475761589,0.32015287938438297,0.9472682595879672,0.013381503623750419,-0.780642708648849,-0.3064781022695069,-0.24220285730319924,0.6940893404914713,-0.7012756391127023,0.12205208546873997,0.10745866937391216
125,7.11707,-1.698574867207339,-0.9024390041620757,-0.5612389751099853,0.31454728559242673,0.948924057708899,0.024328750490450034,-0.8534987744176172,-0.4469814963480322,-0.21242923536249556,0.689676940084855,-0.706351662844204,0.11500599725641507,0.11036060885246372
126,7.12707,-1.7030923467250387,-0.66309247214146,-0.44120844456306674,0.3100542400015601,0.9499373310931416,0.03834615151539724,-0.8268479498003992,-0.5582287062617313,-0.20097479076738892,0.6842595182871886,-0.7121383710182677,0.10967120027368289,0.11231077308151048
127,7.13707,-1.359654077168524,-0.7800175554424817,-0.4273627279836442,0.30628162577076923,0.9505718421143661,0.05092903396904624,-0.7417671097516705,-0.6726422132132528,-0.15222113912960616,0.6793418615616208,-0.7172554055657188,0.10490935515921423,0.11414250334951397
128,7.14707,-1.1540713172951051,-1.0664078369541792,-0.45719426008373626,0.30261557855394355,0.9512214919898624,0.05996492863307602,-0.6565086701224465,-0.838872205453561,-0.15853946866591925,0.6755918880427071,-0.7211636456886794,0.09951166811771424,0.11658462931159734
129,7.15707,-1.2797261602500145,-1.3063095281923613,-0.5275306464533976,0.29872565413733815,0.951924681984073,0.06780736631356753,-0.6248463065794259,-0.9798227906832769,-0.16599106301692357,0.6721123050395663,-0.7247409660237164,0.09300901321706037,0.1198333628643171
130,7.16707,-1.5146213169390952,-1.2472429465913841,-0.548826652627749,0.29447007802158126,0.9525232513763907,0.0773326206231923,-0.6300841187081795,-1.0735973873332576,-0.11173805258125033,0.6679179547628685,-0.7289021749943396,0.08581168406845457,0.12335961471890791
131,7.17707,-1.5006404324363978,-0.9683383821894596,-0.49247649596005805,0.2904185025606099,0.9527746385889798,0.08870718035259263,-0.6553139275098994,-1.1757775611977257,-0.0632440356185611,0.6630918434142434,-0.7335311556544308,0.07925816407546006,0.12630839693887458
132,7.18707,-1.118013645913412,-0.8592388140320244,-0.4576972036437003,0.2867527729888404,0.9528955850872629,0.09877655643323811,-0.6788084725755759,-1.2480458712720222,-0.035996584824231376,0.6588527088893223,-0.7375306204003204,0.07371747108085591,0.12854466979078308
133,7.19707,-0.5894468674408895,-0.8583068808858823,-0.4448936589296258,0.28327835346454444,0.9533206309857833,0.10455178038460042,-0.6831334140620378,-1.240344798740536,-0.04009756656326503,0.6562633066625386,-0.7399759956029063,0.06862730182822095,0.13054565900146467
134,7.20707,-0.09124844255181463,-0.7090040965321525,-0.37603552523338596,0.2798442608512778,0.9541750523853356,0.10600302111074271,-0.6893720444835442,-1.1769135233774928,-0.027623840708076823,0.6554015067057567,-0.7408654825050325,0.06417778722067026,0.1320883088392397
135,7.21707,0.18516365292766923,-0.42638268128379164,-0.22878130932435203,0.27747386318673223,0.9550987957610989,0.1038952524329184,-0.7181083248804093,-1.1136897687244993,-0.0327295159161172,0.6559900486026641,-0.7404059820514091,0.06120597559457814,0.1331520031142094
136,7.22707,0.10924537740808844,-0.1642846511497299,-0.09550459814315437,0.27622267688985347,0.9557195366913863,0.1014952532206416,-0.7483101502165493,-1.0785457918417662,-0.06234417954014047,0.6568037828160225,-0.739713532892472,0.05976121944083024,0.13364634521383598
137,7.23707,-0.21717687565046923,0.005799249188648908,0.017764386421261366,0.2759060811006307,0.9557818694317967,0.1017713040298118,-0.7397455410840408,-1.0430595550828374,-0.06351319663156217,0.6566681949423315,-0.7398410068628558,0.059337421702257184,0.13379637223365157
138,7.24707,-0.5981540862702086,0.11581298435952923,0.13680033191787458,0.27653902172487976,0.9551525544702463,0.10587421501102338,-0.6948692149561201,-0.9798891274070932,-0.03461877822794378,0.6550787268582514,-0.7412095092895787,0.0595439212044486,0.13392106122733602
139,7.25707,-0.878515691317292,0.2436967902269244,0.3115406849953024,0.27845203565660204,0.9537169732051125,0.1135166656329428,-0.6588663997141021,-0.9295715875154306,-0.017973105497308337,0.6520954618300857,-0.7437105246712471,0.06043740009620218,0.1342123746364802
140,7.26707,-1.0249548338947618,0.43544457040895657,0.529653135607489,0.28204551461993815,0.951407213792665,0.12357301089895387,-0.6783625959298631,-0.867749449452673,-0.03466192149350551,0.6481408095922757,-0.7469195212105619,0.06242717838391809,0.13463487598597218
141,7.27707,-1.0259122173453932,0.7246614487171454,0.6778053674207316,0.28709330156198265,0.9483278991546954,0.1350763718195206,-0.7499672157388341,-0.7325228338014933,-0.055529475227967924,0.6436570700683422,-0.7504656398577126,0.06586787116640505,0.1347841856963886
142,7.28707,-0.6764731247330504,1.0307803698053697,0.6434174529783767,0.29225740823786683,0.945126909493589,0.14599870552207161,-0.8408500176665099,-0.47307974957199156,-0.08613431583695076,0.6395725426328164,-0.7536655565931685,0.07061453301147999,0.13396706832246175
143,7.29707,0.13962240275036164,1.3661491712421996,0.328368925752133,0.2952044942258045,0.9432284623812881,0.152228098294824,-0.9072864603882467,-0.01911472254342461,-0.10121888676335326,0.6377176338724811,-0.7551927261390412,0.07613742346349861,0.13115662833805106
144,7.30707,0.9935823028479407,1.7456784644754677,-0.18753064105213257,0.29357404668525844,0.9438829949039191,0.15132566737600883,-0.9427216509677411,0.6595869375330697,-0.13068036823926032,0.6392448907604007,-0.7543055227112214,0.08176190128730113,0.12530821653142393
145,7.31707,1.5344187774089397,2.207647432032214,-0.8132976136755373,0.28598331167719926,0.9472007678455501,0.14498629163754273,-0.9545707362265641,1.451545146613486,-0.15493452362902632,0.6435076943606701,-0.7516147084578536,0.08699129170925332,0.1157650215233894
146,7.32707,1.9759549863810695,2.619961619035918,-1.5231584298185274,0.2715167812371091,0.9529014532561753,0.13508836013534672,-0.8994657431938984,2.092857724589385,-0.04012239704616573,0.6496269459552234,-0.7477910547205437,0.09138833065564024,0.10215148079954293
147,7.33707,2.3033808846334782,2.7631047259772474,-2.0946386185463703,0.2505553261396032,0.9604290068105509,0.12158149113802864,-0.7472880682478888,2.432256544404933,0.13147817282735239,0.6572399148945571,-0.742878325739761,0.09445493123974774,0.0850684709887667
148,7.34707,2.6410949267414323,2.8669792222086405,-2.5805819110080956,0.22479810234681138,0.9687870428033731,0.10438110459502883,-0.49219726339325226,2.560704716508643,0.29474768330954504,0.6659444598610063,-0.7368583761333715,0.09606996434335031,0.06570997289966189
149,7.35707,2.628882068033881,2.7846136533828596,-3.086156291101162,0.19446116342836708,0.9772482382027331,0.08452472171134297,-0.1586438171311772,2.659668103086424,0.5016927282573569,0.6750897620416023,-0.7301152743408323,0.09588096772010264,0.04451294016080583
150,7.36707,2.342108784108193,2.723217329420079,-3.374693641018194,0.1601507288233299,0.9849411169518306,0.06492628289877722,0.20036054144490822,2.7467181190630194,0.6473447045358927,0.6834012889006316,-0.7236554562435616,0.09372901005249464,0.022135783129194897
151,7.37707,1.7869313997053748,2.576331156707625,-3.399589576947339,0.12503017279829512,0.9909682580896271,0.0482385645667862,0.5756348716058104,2.7225166112940262,0.783760001071085,0.689835524140141,-0.7182549150586728,0.09071159907423201,-8.698747228480866e-05
152,7.38707,1.2293615173781838,2.5199422684464086,-3.333728865107462,0.0905038584560651,0.9952341926734747,0.03607184512461062,0.8876559847826244,2.4495137245034657,0.8788861962611768,0.6938995298927362,-0.7144286239278979,0.08733464928347,-0.021486240961064086
153,7.39707,1.1240547756562762,2.804154378913596,-3.0927285701626697,0.05744744376868296,0.9979853510622069,0.026712927614460383,1.0324944068695852,1.9843125929382623,0.9260012436325048,0.6962891240135088,-0.7114470032420902,0.08484971848377383,-0.042669082713449394
154,7.40707,0.8680796197623188,2.8590083956122085,-2.977213646348943,0.02653153106202562,0.999482813616017,0.01796251953374277,1.0237903988505488,1.458713985483533,0.8154784657794213,0.6978129039593766,-0.7084900668418259,0.08380339708582675,-0.06381711712156302
155,7.41707,0.8245484086399567,2.758375518256995,-2.810973151336599,-0.0028343166301631507,0.9999454714082527,0.009811178487870035,0.938039233955857,1.0394170922445694,0.5543201542124763,0.6985725957529599,-0.7057000512470366,0.08302398602302795,-0.08419404002056619
156,7.42707,0.7546313418248285,2.796823537144836,-2.7100324387157273,-0.030602644646026616,0.9995292863242266,0.0015374089493728899,0.796907521547529,0.7701507389055204,0.43339515210867596,0.6988827840612248,-0.7028151888517752,0.0825802027711507,-0.10388985742282124
157,7.43707,0.7818041688352906,2.96937785771327,-2.5230934801641163,-0.056804377007579294,0.9983595427916114,-0.007154083770632586,0.6590969292426955,0.4788504235654204,0.3216577456339428,0.698806810412632,-0.6996690703052997,0.08298279717023432,-0.12347432368220507
158,7.44707,0.8929279918697755,3.0931452922842992,-2.20409221453601,-0.08009293265376383,0.9966295395038778,-0.017728062251493613,0.5438579076156582,0.192568125598992,0.2823466800875521,0.6989391942842639,-0.6956757167297516,0.08468296409023672,-0.14264530432126643
159,7.45707,1.0460320848334588,3.138585655588123,-1.8795608307576022,-0.09963916174975657,0.9945668353955304,-0.030117012194929245,0.5249548034146201,-0.01777849179030757,0.2784464232611943,0.6993715272042627,-0.690814622274208,0.08784327213424865,-0.16104915259616154
160,7.46707,1.2183238664039144,3.0819945125184134,-1.581697926340678,-0.11570611181261284,0.99227013980337,-0.04483119534526944,0.575120199742127,-0.17471474364979941,0.28061486462723756,0.7004328594506481,-0.6849490760475644,0.09180831585438745,-0.17834803552913417
161,7.47707,1.1818096544314043,2.89095081452154,-1.2865935108932312,-0.12837109194862226,0.9898764590502636,-0.06052523369452924,0.6156144504325186,-0.35988979325060877,0.2901390328142863,0.701833381323228,-0.6785808328074813,0.09625432049218768,-0.19414171775764513
162,7.48707,0.9363698703801346,2.7307402470270468,-0.9924241310729524,-0.13776400192185176,0.98763070570641,-0.07486825484671515,0.6468869508660343,-0.5807755467286719,0.2998825852004648,0.7029240034819308,-0.6725544267467679,0.10117193378222525,-0.20815993976830868
163,7.49707,0.5515361469225589,2.5565262204520303,-0.6712108882338644,-0.14384004523366226,0.9858626560719911,-0.08593232976450313,0.6744100406731577,-0.822942358273496,0.35288908133675767,0.7031481880236891,-0.6675380161672037,0.10689288896451171,-0.22033503103050636
164,7.50707,0.08668282091115276,2.2660548479698854,-0.36671988138271044,-0.1467637381969004,0.9848066619803169,-0.09282491025474576,0.718347246959915,-1.1221618449376412,0.39486499234684197,0.7023722848080086,-0.663889826665987,0.11330065912924327,-0.2304011929679241
165,7.51707,-0.5352974604670319,1.9812455575521206,-0.05498988866619718,-0.14701259824992258,0.98473493858223,-0.09318862576013755,0.8150929840130096,-1.4825157707045027,0.40455197993065334,0.6999512060796775,-0.6625210154178415,0.12029300014587983,-0.2380382782305469
166,7.52707,0.03318388827198592,1.7484267006981795,0.7873067642513997,-0.14198419962845749,0.9855233813052741,-0.09263237907713098,0.9737482605847666,-1.8765489565802862,0.43392406655544685,0.6981161594711323,-0.661231310035807,0.12827711870190395,-0.24279661282724382
167,7.53707,0.1410362688889105,1.3797455175807103,1.4287212467926593,-0.12909182192041774,0.9869024501586912,-0.09671774309290915,1.1892637613332722,-2.387213856735369,0.42925743385591447,0.6991213024072217,-0.6578510032214964,0.1373732216852066,-0.24410752912908942
168,7.54707,-0.8465235411401447,0.8129367740355036,1.2043645975655848,-0.1146301512603725,0.9888901206949394,-0.094607026122584,1.4076775261164427,-3.0364077620271486,0.27765559298943365,0.6988511494195772,-0.6567749626847971,0.1460883703032576,-0.24271444643229573
169,7.55707,-1.301741519765726,0.3447854577037358,1.0151557429746714,-0.1036397466365008,0.991050433395111,-0.08407959613620299,1.3064566647789373,-3.284117006433791,0.4381800379114098,0.6960014241906592,-0.6592254421114278,0.15290703474975487,-0.24004425843340912
170,7.56707,-1.1655293545947691,0.15760892719121367,1.7658931982104138,-0.09028562357876196,0.993316961491804,-0.07176064029630208,0.8907182951331833,-3.175069992245038,0.5618581289812314,0.693222675830726,-0.6623040707463624,0.15959290698094464,-0.23520355818487929
171,7.57707,-1.1096425731851767,0.2677815840190747,3.069444393647993,-0.06607227287838824,0.9959284440695239,-0.06095177804610349,0.5282978617848871,-2.985441208345297,0.473898384791692,0.6921204145185007,-0.6638407606873884,0.16980427096508643,-0.22680352707795462
172,7.58707,-1.037455980464538,-0.041836432771635554,4.216855028305626,-0.029462705990328346,0.9982720257850722,-0.05009891813140601,0.4233452572999215,-2.5844259474459785,0.3640348814805915,0.6924006414414405,-0.6642465564747785,0.18362728574181839,-0.2135885819028931
173,7.59707,-0.9314773445469936,-0.473852633785486,5.065653929128552,0.016794372543561132,0.9989899331185677,-0.04037072360491512,0.4993766005610673,-2.290688557962064,0.2557548797833663,0.6941968702448356,-0.6634665051376312,0.19903791596116724,-0.19560068285063686
174,7.60707,-1.5399247106183223,-0.43814184642030696,5.661055135896156,0.07011165484012077,0.9970572218353247,-0.02854859078549915,0.6149326349135071,-2.205270579071695,0.13762626732624367,0.6956382967668303,-0.6625192163169097,0.21628457914413798,-0.1741828583708732
175,7.61707,-2.5251564567248965,-0.3403689996925423,5.988390589912589,0.12855469377760345,0.9915646734900597,-0.009295233932506558,0.6593180358902612,-2.0882464925303976,0.03958696586522173,0.6943066285892124,-0.6630502215213534,0.23600568085150708,-0.15018844923460978
176,7.62707,-4.409897960133853,-0.6344090956020141,5.829367982263134,0.1868728250344012,0.9819745077475599,0.024105807913854534,0.6638972488550297,-1.8589571908455118,0.07938528714686849,0.6874169224117691,-0.6680625807393574,0.25637502382012095,-0.12394571684527228
177,7.63707,-4.760426878545885,-2.05563095399724,5.232957983063281,0.24192486206219885,0.9678685645570292,0.06745937471617139,0.7535809912802088,-1.5519309818146954,0.08370971962832874,0.6762405191332946,-0.6774395564097748,0.2734958207276301,-0.09446497570677687
178,7.64707,-2.2723518619806344,-3.692501077208531,3.9945844683231813,0.28914540031038577,0.9525371402424161,0.09488841473054112,0.9443099615039673,-1.102758995113596,0.35474657823369926,0.669670280873529,-0.6844303435976032,0.2810680620316341,-0.06377462947736584
179,7.65707,0.49596273236669,-3.444399535619741,2.7025309240920428,0.32374863378994784,0.9417148796548309,0.0911078444368697,1.2366935056979684,-0.17708539573536164,0.6708647296624791,0.6729785265717447,-0.683375401455287,0.28026608407046166,-0.03911874477889255
180,7.66707,2.1062557470582037,-1.576501581408538,2.6472508502448746,0.35029125553939183,0.9339814683045653,0.07002169572249868,1.4628848090649615,1.501365489601626,0.36705325008180156,0.6814808826964409,-0.6755005531616222,0.28053820254235096,-0.023733930633851746
181,7.67707,1.9556581410805622,-0.8356423430402915,2.7662739800808125,0.3764761635498098,0.9252808828103191,0.04552281975739579,1.3176541532000672,3.4062778774744387,0.22913398091560938,0.6906850468421696,-0.6642092719905638,0.285627007843028,-0.013605988450265139
182,7.68707,-0.005031175586892478,-1.4014061454083988,2.2553807966941135,0.40043545206737075,0.9157691726584324,0.03157331845065195,1.30711085855592,3.8366655710592443,0.039282547120109056,0.6958409795276466,-0.6568819833094018,0.2903319919575579,-0.002752293832343715
183,7.69707,-2.087014709755956,-2.2694469259780736,1.448460595132678,0.41782907603963443,0.9078627533198136,0.03445012174694067,1.5297296162320515,3.194209364305523,0.15445538304999765,0.6947158203562169,-0.6581739061519779,0.28987711977251207,0.011434074803533839
184,7.70707,-2.53326389519509,-2.079913457331035,0.8121888867235534,0.4288613188789557,0.9021630473372164,0.046519253305326996,1.5642806329225634,3.079301865386245,0.7721390763869725,0.6899616316397192,-0.664605092077369,0.28557890826996774,0.02615958030768255
185,7.71707,-2.3209523582425957,-1.1253957024249037,0.15337572054445878,0.43419255014284147,0.8987038419319141,0.061585951090575755,1.4211331932761144,3.032933945130943,0.7980630833466664,0.6840007103201136,-0.6720394022606604,0.28133817500252034,0.036689073581771474
186,7.72707,-2.058534376003085,-0.8835844275394997,-0.719735125972605,0.4323123904512892,0.8983950303802932,0.07731092672222435,1.0637209893661415,2.8212161679996157,0.1551461066298482,0.6779276936284854,-0.6797203298638009,0.27681933501503636,0.041913114110151514
187,7.73707,-1.6183939766489848,-1.0798280548482913,-1.1949801522744166,0.4241807130442638,0.901079064607241,0.09009262147719341,0.7986857384274203,2.6104627008219285,-0.13366673049079605,0.673037654840153,-0.6872179614172194,0.2697589021643663,0.04442567923787302
188,7.74707,-1.0530042173055414,-1.3857536769933856,-1.3722974810804383,0.41368536250136717,0.9052955295974643,0.09640748057731853,0.7392479895246641,2.084873647726936,-0.04328756262819898,0.6705609982519952,-0.6930247211189843,0.26060289916013657,0.046306354865246445
189,7.75707,-0.6395276053178757,-0.728252009478482,-1.317001746603426,0.4027003261407939,0.909877491689038,0.09972165072317428,0.6748468283149942,1.539914367740967,-0.1385125482103036,0.6692840070856427,-0.6973924773777523,0.25199273911747827,0.04688330295255257
190,7.76707,0.5342963565895131,-1.3160801613627406,-1.401682541647762,0.3913161475046288,0.9151202548096335,0.09696333239255761,0.5249401042983968,1.1760295293329912,-0.2090470361766633,0.6703983820856491,-0.6991468887613933,0.24426812485757413,0.04563438528760602
191,7.77707,0.9428803420590918,-2.270799440780952,-1.2234402906336248,0.38069895350290067,0.9209786091911701,0.08265781051835466,0.46854831896326665,0.9221933884421297,-0.2194486816913981,0.6756386033767666,-0.6976977424584767,0.23353002766486114,0.04668798328026866
192,7.78707,1.4224427609872925,-2.260940976164003,-1.0462803627994723,0.37196148394552253,0.9260743199332787,0.06310398157405687,0.4672628749667331,0.7259789792171693,-0.2692530942357072,0.6826364295528454,-0.6944137450594158,0.22210392748118454,0.04949856999312859
193,7.79707,1.7419708102733582,-2.371412378364096,-1.1359470926447495,0.362931271027868,0.9309402543473513,0.03970517928674773,0.3672959300367393,0.6971415987601198,-0.15950004663827552,0.6909797756070061,-0.6894647167518043,0.21089881594611976,0.05184839453241272
194,7.80707,1.5664587818217197,-2.255420820159692,-0.9446308776406918,0.35373602004107063,0.9351935185489597,0.015750071474375342,0.21819332647927944,0.40497347895128755,-0.10341735831591947,0.699392277798789,-0.684129680801713,0.19958181551775844,0.05450498668612051
195,7.81707,1.0976676964940564,-2.2923637073934,-0.35157565066773494,0.3479122384066646,0.9375027565999531,-0.004227319935150863,0.12006488996771136,0.12564430688327538,0.021671058165653866,0.7061915635418581,-0.6794753026155343,0.1902369381128125,0.058309195802453875
196,7.82707,0.7413674825220549,-3.0994494622249875,-0.10581966151280967,0.34558675181118537,0.93810573841191,-0.022430678347643635,0.08511924241573482,-0.07120222226297274,0.17535170642340384,0.7119324497509597,-0.6755296191509954,0.1800889879901274,0.06600729890579542
197,7.83707,0.45029762566050247,-3.287581740100166,0.005266022832470817,0.3440777451694697,0.938119950402437,-0.039079575899600184,0.03684126663690433,-0.2929919998915672,0.28701199549455986,0.7167427209708651,-0.6723420952945736,0.16854073399427336,0.07621667090640243
198,7.84707,-0.1453222284422643,-2.8041864344384058,0.28457133081626135,0.3440642587321486,0.9375410567621297,-0.05132352729059814,-0.16512195001253296,-0.38368069010073586,0.3315159471813007,0.7197876846466427,-0.6703390204480136,0.1580422929512551,0.08693440854667364
199,7.85707,-0.8588699901547552,-2.469080956512875,0.5005884776387457,0.3463777944872214,0.9364356079319436,-0.05575976201708959,-0.4463462493062725,-0.40179088433383725,0.34136513348546477,0.7199568349881595,-0.6706199906859763,0.14961150378843563,0.09762788020112582
200,7.86707,-1.529839359933052,-2.229608260914586,0.6106542340148114,0.35028429160885494,0.9351473732349612,-0.05282342115693977,-0.6188007436702577,-0.48286849598015213,0.4025052208383715,0.7173912941519246,-0.6732793506773411,0.14239846375693438,0.10839358387451585
201,7.87707,-2.1185097802465354,-1.9773006809251972,0.6189433149683797,0.3551040445142633,0.9338282876104331,-0.042951500308082285,-0.6905633844525141,-0.5891639863375808,0.332560990979499,0.7122599894146187,-0.6782470493584084,0.13600526893666942,0.11893947803860527
202,7.88707,-2.4162681491852127,-1.9752471457652745,0.6766710233739152,0.36033456633719996,0.9323682156536525,-0.028649124944438654,-0.6983659152682256,-0.5969859012414166,0.2352447100399976,0.7053626871374529,-0.6847255663373883,0.12968759733887752,0.12951164275322655
203,7.89707,-2.31062709367299,-1.500149116685304,0.5979827121939195,0.3659227907768483,0.9305449972178265,-0.012773091394064224,-0.7047693484695324,-0.5728297050494652,0.22886952371670438,0.6978473365598258,-0.691506041658537,0.12420438698115104,0.13922854526620188
204,7.90707,-1.8810705994300443,-1.3120813579920585,0.3420459873715615,0.3702449705859457,0.9289258305264017,0.0016716747158183466,-0.7632517705856793,-0.5764834998838502,0.19830597927880494,0.6910194525128529,-0.697556529570797,0.11935858728336146,0.14713950408713322
205,7.91707,-1.3939778690931959,-1.090975361138764,0.09700865483802198,0.3724158150135908,0.9279785433567531,0.012508152394815265,-0.9029181852296786,-0.6014602765428536,0.07809916436226173,0.6858169437929433,-0.7021751421969407,0.11489532817709851,0.1529640167073459
206,7.92707,-1.0323084400334237,-0.8574047220563896,-0.183611793393885,0.37221363104729993,0.9279281023246393,0.02008738154330331,-1.044028945946837,-0.6237849286035377,-0.05185656706763784,0.6821508492844027,-0.7055700627097782,0.11050770452757958,0.15692597623602353
207,7.93707,-0.5076206157156213,-0.5115424594388072,-0.4718918142229007,0.3692666836645377,0.9289924737981834,0.02474767451187482,-1.1611678221546673,-0.6562792392749319,-0.13940274669573063,0.6800205948960159,-0.7078695138679181,0.10627068175308771,0.15873973374363662
208,7.94707,0.06611230110770931,0.045850876909839,-0.5828759616109558,0.3643556082835076,0.9308985959435051,0.025859818153887687,-1.280458043327617,-0.7784126029009484,-0.12776220326673207,0.679812146559317,-0.7086873447187986,0.103402332103575,0.15787450777692844
209,7.95707,0.5539200534984304,0.5918533743535006,-0.5686318475664951,0.35879457224176037,0.933100977243853,0.02415553183863038,-1.3858447219495835,-0.9026541837540235,-0.1670858849676622,0.6812035401428421,-0.7081882987861682,0.10269666947353087,0.15453325668458442
210,7.96707,1.0621506094935944,0.9962048660012672,-0.49170247196002065,0.35357795197389247,0.935199466006392,0.019400396255262263,-1.4076443613340504,-0.8956059684988464,-0.22107841836671763,0.684076863499482,-0.7062965391614496,0.10413239116339987,0.14944328314170469
211,7.97707,1.3030171259330463,0.9834609059181634,-0.407392730816166,0.3491843520554352,0.9369729787573842,0.0118702950001374,-1.3134367086589709,-0.8490415760772417,-0.18080597921637384,0.6880588355655414,-0.7032058240951097,0.10693055456981874,0.1436477851272593
212,7.98707,1.415292204854576,0.8401779098829522,-0.266439424924175,0.34590767388386157,0.9382588072414413,0.002457183753644375,-1.1896603653667894,-0.8388897462763125,-0.17549743066735587,0.6925203417648985,-0.6993965669580385,0.10986450081677035,0.13850065321112373
213,7.99707,1.152373820819496,0.8088087509344902,-0.26500249235044115,0.3434878701181361,0.9391281723574124,-0.007050276681245522,-1.0817977340119518,-0.858050958098052,-0.1654595800469747,0.6968203977399944,-0.6955398005487592,0.11268439553412513,0.13402679615834534
214,8.00707,0.48899864481933897,1.0251168245590745,-0.3536591925467619,0.340649347073303,0.9401156298289937,-0.011795974263414138,-0.9907094176059232,-0.8683261698890042,-0.13612881564307805,0.6994017753867288,-0.6934045564209783,0.11528703239238396,0.12935116314617345
215,8.01707,-0.16095989386687926,1.4955660980500447,-0.44217809988868917,0.33702343863554984,0.9414469346885064,-0.008976628338416986,-0.9311474337915749,-0.8260810505011504,-0.06320952693816591,0.6994456104737886,-0.6938977490443685,0.11838461399153727,0.12352160339871217
216,8.02707,-0.6872452843522171,1.9081412833960187,-0.5654627395986186,0.3323642731427952,0.9431357699804046,0.0008985339063779191,-0.8682737754709983,-0.7542038779352516,0.030629581849843622,0.6971877877920319,-0.6967546899450612,0.12238346422164781,0.11605838019736986
217,8.03707,-0.7554469819514069,2.057362990712851,-0.7413661853386264,0.3260688366308703,0.9452173556605131,0.01468232500504769,-0.7921365970684499,-0.6134745953828991,0.0037031524417490518,0.693641244590701,-0.7009267066913832,0.12664665873107964,0.10727648227630006
218,8.04707,-0.15634497166853864,1.9783974836907787,-1.0163415299749905,0.31736772361880367,0.9479381845130557,0.02591900023851798,-0.6868553677351315,-0.3437074989739308,-0.08531978850112892,0.6910392116602085,-0.7042497551708377,0.13034845657483574,0.09742187758034446
219,8.05707,0.8508993568470712,1.8914426076806916,-1.3457455117722108,0.30562051981734967,0.951703767159802,0.028693529877244935,-0.5671837839844313,-0.003422761036672127,-0.18950764079033278,0.691502886852887,-0.7047430789873687,0.13297659199089015,0.0863462882148677
220,8.06707,1.7023372014342575,2.038081951141904,-1.6823152648822783,0.2906647792419027,0.9565373391180525,0.022076645406593397,-0.4628850048606959,0.37310554280726654,-0.23389750450744057,0.6953728633347402,-0.702023327291405,0.1349010847627456,0.07338124542369466
221,8.07707,2.3198612034300585,2.291098577346195,-1.9813163722394065,0.2726377973065928,0.9620257364746688,0.00889013869766258,-0.3913623540109186,0.7812388319332376,-0.1429938064772863,0.7015336239945004,-0.6969594485654803,0.1366965700405039,0.05797271202323347
222,8.08707,2.870510022025873,2.3744540039128204,-1.9964875765649708,0.2532418211012227,0.967289776785668,-0.01012103266532692,-0.350266872852569,1.1519515702442513,0.007179605550893615,0.709459258166386,-0.6897208648653712,0.1386122766756963,0.04097020915763107
223,8.09707,3.097270436517963,2.5033423745799768,-1.8911720778430932,0.23498788636243811,0.9713652521277614,-0.03338139895815082,-0.26533514140112363,1.393488923935624,0.10674085005546377,0.7183884398093447,-0.6807163980054549,0.1411437283047208,0.02361094951013257
224,8.10707,2.9055692640918505,2.6187114701916197,-1.993953932904104,0.21733935569038162,0.9743789995491028,-0.056874934566775934,-0.0915187933949752,1.5762309407944028,0.23627148457468994,0.72687733839511,-0.6714049046529569,0.14410556877072211,0.005805652334237207
225,8.11707,2.7466489865039825,2.508622935237545,-2.26134061421775,0.19833424231108454,0.9768756894918623,-0.0790882015145132,0.09979095437447552,1.7508130591550881,0.3948924258512544,0.7343916645974427,-0.6625824985352694,0.14639255886468483,-0.01262397463750607
226,8.12707,2.3918803013775576,2.283464708271305,-2.4653714441481758,0.17712212013312043,0.9790491313541881,-0.0998877034854777,0.3326586081066021,1.8440601911642125,0.502906681596955,0.7408920104634042,-0.6545336347702084,0.14709069307945727,-0.03121840015751338
227,8.13707,1.948361398801185,2.011830490791539,-2.463120927519633,0.15486394984538554,0.9808975849826471,-0.11729990866422163,0.6261438900034245,1.820083046995748,0.5518893502025243,0.7457895855854573,-0.6479985373704416,0.14643455465098001,-0.04905927747659896
228,8.14707,1.8754324845030979,1.8239096195351323,-2.302442168332009,0.13377651874078242,0.9819875891450842,-0.13308807734874128,0.8733056315502119,1.750562611391488,0.6320797327099642,0.7498060415616231,-0.6421260114605173,0.14534289919719184,-0.06556886911970498
229,8.15707,1.901275645324548,1.643064432684044,-2.1372937031580643,0.1144708172306241,0.9820524259932967,-0.149607647121226,1.0536600270010548,1.6426031505758008,0.6230896456669258,0.7538206927240476,-0.635951502807771,0.1440698161810463,-0.08079076255339464
230,8.16707,1.6642998715586328,1.3837763542824306,-2.145844656034811,0.09590985993225842,0.9814669601228342,-0.16566144397055765,1.1481764947630222,1.5464321205338893,0.5291571188130482,0.7574912830452807,-0.630023845003059,0.14224866714850268,-0.0949259591145455
231,8.17707,1.2615288541173246,1.2121403715066381,-2.178819748270951,0.07683889117445322,0.9808203822148107,-0.1789397130773235,1.086306899200913,1.5253353913752183,0.4437075874949101,0.7600905363048884,-0.625340269066697,0.1395593564222915,-0.10820387770510664
232,8.18707,0.8994916779212924,1.2898599699807904,-2.084048867433485,0.05812167260250547,0.9803017720224247,-0.18862371195302338,0.8980603381592067,1.4003006193373593,0.3969242401284206,0.7613515380075256,-0.6220281638743644,0.13699546477073712,-0.12096774919858971
233,8.19707,0.5644873052135758,1.40724873768543,-1.9323069107122293,0.04106976212815368,0.9798933571984044,-0.19514918348581625,0.727615809969236,1.0976160278984664,0.3663599243406649,0.7614378270487999,-0.6197405313365744,0.13545006615759242,-0.1332887524941638
234,8.20707,0.14040413744499286,1.4486376711745876,-1.8430352114634547,0.025392474381695618,0.9798195319939836,-0.1981802491097949,0.6293884139269637,0.7341617943594021,0.2947172370407304,0.7602661488976589,-0.6186578027481741,0.13480502320140397,-0.14513881272873594
235,8.21707,-0.2843175110639179,1.4862471250328775,-1.7361406391691248,0.010677895451343282,0.9802936220607266,-0.19718128406895902,0.5512294377739145,0.414071356767507,0.24512667547521305,0.7576917920091928,-0.6190475194431446,0.13486691732674044,-0.15644313881909205
236,8.22707,-0.6340168234844045,1.5805827892057338,-1.5319284551110979,-0.002386562329221788,0.9812726793934372,-0.19253981717192165,0.4620248136026401,0.14666035697566157,0.23474218052867774,0.75388322575434,-0.6206772589293248,0.13597167603064123,-0.16706745496873138
237,8.23707,-0.932398719981729,1.7278973204319026,-1.3385761684261925,-0.01331365468417026,0.9826296443013329,-0.18501919406051157,0.3677796910084717,-0.10535668223655863,0.19778240337522882,0.7490993156043951,-0.6231642033154973,0.1383953223176874,-0.17703327854568585
238,8.24707,-1.282681994631788,1.846574175454745,-1.1818720628534662,-0.02249312009251919,0.9843932813035623,-0.17443567788669945,0.26210703413990916,-0.36358228386099767,0.1795163287711742,0.743236689887917,-0.6265563919579169,0.1421378871671265,-0.18654015750483596
239,8.25707,-1.4174630685243312,1.9257178193218432,-0.9874869802117034,-0.030035287719724815,0.9864079479607749,-0.1614400718777872,0.15615176140970816,-0.5976242121948304,0.1711578665789618,0.7365255860633735,-0.6305978798614136,0.14703372991192187,-0.19552952158402534
240,8.26707,-1.3557060050673586,1.9307422029684742,-0.77905971353709,-0.03575809983469026,0.9882826663228823,-0.14829689310901942,0.09231232544256145,-0.7985228638458788,0.1477664570699282,0.7297893455237496,-0.6344491947345485,0.1527023621180652,-0.20381340086321792
241,8.27707,-1.0287746964961746,1.9566883850779162,-0.5638442010932345,-0.03964488689742681,0.9897726306698932,-0.13699588053736214,0.08095755185902467,-0.9494220529667529,0.09452680661610045,0.723705090588922,-0.6373747320818416,0.15889832927290437,-0.21151032273823817
242,8.28707,-0.3121927688705225,1.9316032617001457,-0.30915667715379574,-0.04140944233306686,0.9905278594604376,-0.13091935438703348,0.11737904829607175,-1.016479956470893,0.05745978532722323,0.7194450725779533,-0.6381430217474575,0.16524779136558837,-0.21874643314912595
243,8.29707,0.5731906357448833,1.904369884693727,-0.024436757984371588,-0.04052525435862649,0.9902687233213542,-0.13308644780570203,0.20208870581121688,-1.071915737985258,0.013146779897989378,0.7180780209527897,-0.6356413700367353,0.17148419738701148,-0.22561124449788245
244,8.30707,0.9810650002692948,1.6856229118923844,0.19265236869280156,-0.03705612420915057,0.9891624780952346,-0.1419975328691373,0.32280151625079817,-1.2051285672533794,-0.013650439372759617,0.7192487536364117,-0.6305127815528563,0.17732808871714503,-0.23167999405583609
245,8.31707,0.9104374522712358,1.248409928130488,0.44980772515857564,-0.031799172443348955,0.9878682662276561,-0.151933850000172,0.45173081717815816,-1.3994916456004851,0.006441157643412765,0.721296709759313,-0.6250833082947718,0.1824720921477344,-0.2360004378315003
246,8.32707,0.594395010623429,0.9122570066661669,0.6697782966229584,-0.024533620590138427,0.9868238304754889,-0.1598804775617483,0.589280844308069,-1.6138614036617955,0.09453035533150057,0.7233829266775004,-0.6204888826839613,0.18721100135879978,-0.2380274510564306
247,8.33707,0.040261244147251046,0.5293239897339976,0.8313682689977384,-0.015978338686998418,0.9864534788395793,-0.16321559060230192,0.7350398813380103,-1.830186030473813,0.1942486749209956,0.7245861186259495,-0.6177480776367702,0.1917711911412973,-0.23787010815364892
248,8.34707,-0.4947656834671691,0.0946124897524723,1.1124766977495166,-0.00602994341344619,0.9869386771238077,-0.16088718453337486,0.8093760152796787,-1.9764611776460788,0.30295380680949896,0.7246763016696267,-0.617321174347939,0.19613123431523455,-0.2351243400534808
249,8.35707,-0.8479241117483016,-0.23494638668796503,1.546301336563368,0.0068129476457485395,0.9880227594178163,-0.15396798523539812,0.7855285423087082,-2.0283518505768594,0.4548271783126003,0.7241182264711143,-0.6186540284163177,0.20069380406540252,-0.22940388386111177
250,8.36707,-0.9955279489794842,-0.38949927627371844,2.0354246131352904,0.02402973078682769,0.9891193088979414,-0.14482198623569786,0.6954585615029956,-2.0229132070980644,0.5779044218160414,0.7235750709689948,-0.6205608128731571,0.20612059105024158,-0.22098042188342767
251,8.37707,-1.1888530406858269,-0.5056916985763462,2.4977915987586634,0.04584488735055983,0.9898127740980694,-0.13428331299286606,0.564921495046654,-1.9432106836370338,0.6375849748055702,0.7231184309061538,-0.6225709034682738,0.21272754341650463,-0.2102716334092795
252,8.38707,-1.5633680655992916,-0.6618910174195219,2.9385641494968553,0.07203277792193419,0.9899245593599227,-0.12108960299108576,0.46233556217254124,-1.8112425967274133,0.6260007869967115,0.7222457601086987,-0.6251561095548833,0.22049928633041221,-0.19714273544486358
253,8.39707,-1.8802047758305407,-0.7284346684947675,3.306610248798185,0.10225777738324313,0.9891314306278295,-0.10447194023791657,0.4372966857561154,-1.6686529489287436,0.5799820500814525,0.7205515265672682,-0.6285850568004582,0.22940275066422752,-0.1816368709357896
254,8.40707,-1.6673317731614707,-0.6810911271406362,3.6154162906091156,0.1358022673222704,0.9867355536092407,-0.08743072858482583,0.4664942892707137,-1.531271000803981,0.4812418204476463,0.7186677704279892,-0.631636611370582,0.23937396408317105,-0.1648606335422746
255,8.41707,-1.3446849442666353,-0.8928692549655715,3.9008052898728125,0.17222635535300287,0.9821226563431139,-0.07403143588767018,0.48452430896777726,-1.33760198170954,0.29841708688635016,0.7178376191972234,-0.6329328456206794,0.24972468469315093,-0.1471721203259298
256,8.42707,-1.4215029893325215,-1.4110215596472129,4.022106562274779,0.2104158316395254,0.9754423916801089,-0.06281386398350475,0.49890676093884234,-0.9962531398319083,0.08850683325433756,0.7176739116270967,-0.6335616026748015,0.25919380264826486,-0.12755231192023675
257,8.43707,-1.4703892400547653,-1.9930318646127483,3.7807514628078898,0.24751452333249876,0.967329751282273,-0.05259157478817362,0.5332920132522758,-0.5108553638103083,-0.03458685867991821,0.7175960650372999,-0.6346457419354317,0.26631640397482514,-0.10613209974561541
258,8.44707,-0.9827595557952542,-2.268059364568288,3.427276155596567,0.2811210954787371,0.9584734146037549,-0.045908203755551505,0.5941487972529613,0.12652748338635847,-0.0032379835676718816,0.7181349077020772,-0.6354601999235707,0.2706187012031114,-0.08462618872970605
259,8.45707,0.14616846792451083,-2.0640338636135502,3.3235923812075585,0.31205942764111705,0.9487126844634477,-0.04847823090907454,0.7197212956391728,1.0163360348770423,0.10467618243896495,0.7210681922816183,-0.6331793779880786,0.2735644299252859,-0.06509139347231338
260,8.46707,0.06229538418581754,-1.8690053510832707,3.0273568583960007,0.3414211549244793,0.9381110153670053,-0.05692666285108462,0.9556274751716911,1.9414513431945686,0.10469827659656626,0.7253608127666149,-0.6285204875007252,0.2765801744292626,-0.047575728302306386
261,8.47707,-0.9968006689514355,-2.0774768867653175,1.94858933070527,0.36379972816505446,0.929544412944938,-0.05960566643004947,1.3329689675935388,2.7183820560722,0.033612751323614874,0.7271631889129447,-0.6271010480094574,0.27737888045608655,-0.03158538596732032
262,8.48707,-2.1317367425382256,-2.277164588835881,0.9861606964914449,0.3758894194129073,0.9251084561999252,-0.053269794389586414,1.651743498307938,3.263417353021957,0.1388769580398112,0.7254622324584937,-0.6310288892202984,0.2741354440126823,-0.017360355830026354
263,8.49707,-2.9541188628322383,-2.2933622352807346,0.34375623582600057,0.38091956815193073,0.9237881528200118,-0.03798928187223496,1.663714470312743,3.162450603669825,0.1872057406543454,0.7203755351548826,-0.6396187715225985,0.2680681596440284,-0.004196604579329676
264,8.50707,-2.9699226390204148,-2.266482550748717,-0.16936456848853046,0.38108885669645215,0.9243133214981439,-0.01881498081143105,1.418359597122899,2.846193417023373,-0.003024973295222777,0.7136694893691942,-0.6502812765077528,0.26017517081575015,0.007433609263948111
265,8.51707,-2.316625609443042,-2.6314759088178157,-0.6035530369880427,0.3774635334950921,0.9260038881293595,-0.003133547084738587,1.0337577813542345,2.6465978308935982,-0.1783960712833889,0.707986320179497,-0.660114146795331,0.25027684469382705,0.017446028939149368
266,8.52707,-1.9418293425574937,-2.288788750305332,-1.3131513539526911,0.3684208442444115,0.9296044448786654,0.006398120201341772,0.6337658412016969,2.30962459269355,-0.25051436996350546,0.7043878795664056,-0.6683495470422114,0.23762397871175142,0.025159664171678156
267,8.53707,-1.9780498356301313,-1.1373347996049166,-1.3178351135809065,0.35560000631017585,0.9344268755418929,0.018045735184648658,0.2930387118456003,1.7852297535313062,-0.3198903333767934,0.7001245399813331,-0.6764808775760898,0.22666127412175896,0.02823553922880085
268,8.54707,-1.6121326863170777,-1.8674741934347683,-0.8965088192627948,0.34566494999339525,0.937843654419759,0.030766839262627844,0.09645093825634962,1.2392765716855276,-0.3428123984313881,0.6954619256928282,-0.6838536284687996,0.21838507974911642,0.030619392003124753
269,8.55707,-1.859317227728521,-3.149893410270574,-0.6054696724568635,0.3394394747211677,0.9398694740200471,0.03755518942104616,0.27106432595333246,0.7207097956039997,-0.25878225172773933,0.6925879981297732,-0.6900904882578275,0.20618713536338296,0.03897097941784671
270,8.56707,-1.8098752403501956,-2.4523049614986436,-0.14510052248528515,0.3371996148997991,0.940308979125275,0.04586892047238787,0.45102812757552163,0.40732787952127747,-0.07675216711989263,0.6889160543071482,-0.6964057842504133,0.19476638236922658,0.049406218811640604
271,8.57707,-1.1821785799372446,-2.4130322465815395,-0.08942747376726082,0.33756548371414896,0.9398675065791825,0.05194575566884335,0.23790740715505543,0.4230571555265026,0.09621724163699888,0.6859704356904581,-0.7009726404052078,0.18598540211834017,0.05876673369118472
272,8.58707,-0.969050379170465,-2.5528760784664466,-0.09151427297156359,0.3379541341810988,0.939649135255935,0.05335092827159525,-0.08433173289990849,0.20772508622113722,0.004516585859736692,0.6845842437392109,-0.7038728806078504,0.1766969877930194,0.06820281521798596
273,8.59707,-0.681166782450028,-2.039255455324842,0.028880147959427137,0.3390134571755716,0.9392488459231308,0.05367346337258407,-0.3311022720318753,-0.0288631359326735,-0.03298552794049521,0.6835408299753589,-0.7060034072681459,0.1684828841200518,0.0769680747852873
274,8.60707,-0.198097096760477,-1.837881647547774,-0.010260371249695664,0.3401720184390867,0.9389656578437806,0.05119976535412512,-0.5105299726137444,-0.10434308156819158,0.03262082948387368,0.6836014502820016,-0.706686072094534,0.1618224254780877,0.08414737885885003
275,8.61707,0.011003755186749483,-1.9478028095108662,-0.027520235911449198,0.3408415234857914,0.9390124648094971,0.04552639460363536,-0.6233131709324485,-0.31108205007797923,0.001089206266774929,0.6848302898212656,-0.7061428252188323,0.15529167973226948,0.09074100506382379
276,8.62707,-0.0035616470169632167,-1.9836861161675354,0.02264749112490787,0.3416614046370917,0.9390265024865371,0.03858168866661634,-0.687573141948773,-0.5085583904707838,0.00309743307975956,0.6863976659305422,-0.7051554189754526,0.14845121883386395,0.09776169436122581
277,8.63707,-0.18113499467584349,-1.805298966809239,0.08845123063756151,0.3428461939088719,0.9388137549318432,0.03288932084867291,-0.7081864220096931,-0.594646566571276,0.07551337376305074,0.6874512010296592,-0.7044470826988077,0.14209841617458,0.10467518379453153
278,8.64707,-0.4455987517402237,-1.7094523595457878,0.18333240540825335,0.3446528851694484,0.9382569538594158,0.02978032184215282,-0.7508210175352753,-0.7085753460305081,0.10659668313080164,0.6875052093096037,-0.7044743696639598,0.13638170043428155,0.11151801932208652
279,8.65707,-0.7891673716938868,-1.6358824149515978,0.27547843448075887,0.34732135823344634,0.9372737793853926,0.029704680468404156,-0.7868084304547798,-0.8461985459291852,0.12889161963941495,0.686341652565246,-0.7054511206444275,0.13109203071015368,0.11862161299528468
280,8.66707,-1.2807787899257512,-1.5573976318959,0.29331495204689356,0.3505487832603676,0.9359285374791323,0.03374404059260089,-0.7979263177740653,-0.9594267745119881,0.13081788174212575,0.6835638298008195,-0.7078010756296916,0.1260217409144563,0.12591184154001792
281,8.67707,-1.8696414577031033,-1.4882448541692932,0.22618172630143385,0.35361156639007557,0.934376749497982,0.04312520934826026,-0.8407999609238002,-1.0245100369569802,0.1352334217035501,0.6787329502709342,-0.7120179411067475,0.1207471733756803,0.13319168247162336
282,8.68707,-2.3472016696496683,-1.3584344949561775,0.08349133693925417,0.35580846544626277,0.932727819487163,0.05789016876861421,-0.9191967702256154,-1.0547219113401303,0.1303786035452639,0.6718735059477299,-0.7181159913125401,0.11504967599086663,0.140069413735099
283,8.69707,-2.5509956715244786,-1.0982634246659213,-0.0979095961230351,0.356575669702364,0.9310811990465364,0.07651949278300973,-0.9996967235642378,-1.0787657281325649,0.08515274443657636,0.663656612853893,-0.7254829991013877,0.1091514699588985,0.14587551575183044
284,8.70707,-2.286537344166853,-0.776248937292255,-0.2559723638960839,0.3557000692577696,0.9296150629824171,0.0960453726667149,-1.0669782750805303,-1.070943280434699,-0.01694298625759072,0.6553324332393508,-0.7329928670350059,0.10358253947456547,0.15001149761035104
285,8.71707,-1.3837702240250478,-0.6224026373913666,-0.39855416381096864,0.3534048291982182,0.9288430645952491,0.11107746660613114,-1.1125960173893956,-0.9742413165670804,-0.1728546618832399,0.6490279419988673,-0.7387630676232604,0.09879743387892966,0.15238373577834322
286,8.72707,-0.23568557851705502,-0.7447307028741025,-0.5480891441008116,0.3497900592439073,0.9295882046806494,0.11621937643694942,-1.106087369664413,-0.8082649138850355,-0.33208997073882934,0.646720125715207,-0.7410974018221388,0.09423235104787142,0.15376356388337145
287,8.73707,0.6353363614918303,-0.665599246809735,-0.6008144367311568,0.34522955424363627,0.9318381173198568,0.11166478363234698,-1.0461896057525288,-0.662557416117204,-0.38736221533580323,0.6483068778000652,-0.7400973861673126,0.08991016921179862,0.15447723185194234
288,8.74707,1.0690774388234188,-0.34295344610718664,-0.5787112642509661,0.34027908072682544,0.9347933043024127,0.10166875668935321,-0.9981714475239192,-0.6040053464063991,-0.2923831322112409,0.6522433468441362,-0.7370939970742527,0.08673521481298593,0.15407567583106543
289,8.75707,1.0614342578568108,0.01283597060288931,-0.6005060202166542,0.33493576424682436,0.9378286979998556,0.09092328286373899,-1.012308469458606,-0.6540713666049287,-0.17177242738035112,0.6567644725214851,-0.7336603384698835,0.08486352032268357,0.15229357032701613
290,8.76707,0.6968192198762941,0.3141829667785217,-0.6714562716844902,0.3287888026243321,0.9407351366178437,0.08306808190526511,-1.0441592546317005,-0.7539813430958565,-0.07466416818813901,0.6604580279537525,-0.7311068902654032,0.08376224223586813,0.14918788333862693
291,8.77707,0.15887446997273713,0.47379858650191536,-0.7266700578562745,0.32195281420951977,0.9433367522811583,0.08030669259857862,-1.0530884343738405,-0.8185986282932133,0.04381226754924727,0.6623677296378943,-0.7302675828639578,0.08283924548969966,0.14529871891600132
292,8.78707,-0.24462918977852388,0.8645856327451817,-0.9001234229951459,0.31379309270760136,0.9458490176729726,0.08291401845426943,-1.0596199866495528,-0.795142850641182,0.16650162842578148,0.6624651553047353,-0.7312522211469743,0.0820137923516319,0.14026352077258747
293,8.79707,-0.4589571692966836,1.5576335413221654,-1.0918394876473412,0.30320312321094184,0.9486377236145317,0.08998498872463294,-1.0965360918863314,-0.6851280306882317,0.24095042091054147,0.6613310328267431,-0.7336711893073267,0.08195483341146478,0.13276998202128282
294,8.80707,-0.4396682710791311,2.848963735585107,-1.1171263072166364,0.29023701386979694,0.9515796071523052,0.1008808020044707,-1.1515023041162415,-0.46772769837766537,0.23597928691688236,0.6593902959688712,-0.7370792108020692,0.0845192976576185,0.12129316137806348
295,8.81707,0.03833799576483771,3.1112209482344317,-1.7402731591004372,0.2734722283800135,0.9552501463272756,0.11216067696025567,-1.1335592189805472,-0.039971650781570944,0.17188795980757243,0.6579202843075165,-0.7402607376023658,0.08994237214158388,0.10478758285841701
296,8.82707,0.8032598794740012,1.5780183186180068,-3.143708300599499,0.2472418813501241,0.96189912763567,0.11550911025356815,-1.0103839760904185,0.5791352566467258,0.0850556037036561,0.6593520103227389,-0.7413080790128022,0.09059762919290891,0.08618133093960427
297,8.83707,1.0426414686014194,1.9637573151194194,-2.732964612759409,0.21565622987203592,0.9701121993486493,0.1104508043044627,-0.8805067400788386,1.2545494494148004,0.06908955333700656,0.6633119499246811,-0.740172171600479,0.08584593864103228,0.0687436387899809
298,8.84707,0.9388972066548927,1.069949848930143,-2.286053452113131,0.18959297507774342,0.9761745350151578,0.10481214031910736,-0.8361320766260519,1.9343371179127025,0.11858623484953804,0.666854648063882,-0.7385997453599497,0.08288006142998613,0.053515301548897276
299,8.85707,1.2461374973949646,2.747401295051763,-3.139700784769556,0.16127295461085644,0.9819936288307531,0.09675768630033747,-0.7553292361338654,2.47053264749184,0.25880865611392545,0.6708806889416884,-0.7363004325600527,0.07898668739005509,0.03753079228520761
300,8.86707,1.6381041038351918,3.379809839840193,-3.763987163206639,0.12355882262489752,0.9882854115909594,0.0872482553021161,-0.6301424353145983,2.4767842959482547,0.3917939141636706,0.6753180434628238,-0.7332656430476449,0.07706577840508981,0.013250091605074227
301,8.87707,2.2299497393768686,2.580962848997085,-3.855499298248063,0.08321862532022699,0.9937454918978227,0.07121962664041198,-0.4514371900283406,2.4787750375574538,0.38221737750210594,0.6812759405364565,-0.728208117757859,0.07283446131153419,-0.011035258244640465
302,8.88707,2.1121409626855177,2.268700755136261,-3.745733269367443,0.04347516079124229,0.997552636009206,0.05077482972535299,0.15637375319254612,2.6344673243712196,0.5196262118644728,0.6880122181557997,-0.7217295866133845,0.06691296238402215,-0.033699765295643405
303,8.89707,1.5433171756739865,2.0499416878306134,-3.6319500681038965,0.00556817484002454,0.9992574634743848,0.03315015658395638,0.6914306717781059,2.4442228485174864,0.6115238230110912,0.6930427588376665,-0.7161450631093716,0.060804168061195756,-0.054976525909975316
304,8.90707,1.09533733364107,2.2077628791592963,-3.381765233296092,-0.030101036595692875,0.9992077617264608,0.019795503539348086,0.8637494639772387,2.1049562378813533,0.6519505366186263,0.6959789345378276,-0.7119392153962882,0.05507255141465822,-0.07499874328680908
305,8.91707,0.8083532547785157,2.4125945735881853,-3.0735352457522,-0.0626908588283824,0.997872304172961,0.009049323469637119,1.0087012325262616,1.7017215092162288,0.656246460391462,0.6974199665567514,-0.7084370234648822,0.05135887392621944,-0.09482606906216702
306,8.92707,0.5957693894776779,2.345670529032711,-2.8252812905169034,-0.09237983170192009,0.9956288579637433,0.00021328870424869957,1.1503141408261763,1.3501715013268851,0.49133744993319434,0.6977571916368301,-0.7054893485247906,0.04887584875596708,-0.11382653562639257
307,8.93707,-0.09500630812260193,1.8966152440830044,-2.5065460629131797,-0.11894958316750494,0.9928194778788589,-0.0044525772214499375,1.2416165957764338,1.1059381307237817,0.36098922286653146,0.6965206850468006,-0.7039944620396639,0.04652047466013292,-0.13050999547694742
308,8.94707,-0.40451002264298747,2.03587765657362,-2.1725097302724983,-0.14217647120876636,0.9897809371266278,-0.004183717916138021,1.2441400778166978,0.8342662607308263,0.3236581618003681,0.6934826288302351,-0.7041854741515305,0.045065837822881705,-0.1453303690360704
309,8.95707,-0.4037382036779681,2.335234498380407,-1.7614240749498205,-0.16156433467344433,0.9868218397874203,-0.0035420782351381326,1.1278636820859325,0.46054244425586377,0.32276576660256817,0.6900501927403186,-0.7043452988239467,0.04610122047830423,-0.15985403766052775
310,8.96707,-0.38001100681308597,2.455473024297244,-1.4058764032843456,-0.1771054744071058,0.9841639799437131,-0.0035824506872992414,0.9437120151524399,0.05930009379807759,0.17655632350209918,0.6867293334764496,-0.7041270003212431,0.049093415882017766,-0.1736412953039322
311,8.97707,-0.2976087013891889,2.534206533681731,-1.1117991177494662,-0.18936275270558037,0.9818814152609578,-0.004833862877345359,0.8303042505663947,-0.1702764527296241,0.09747527359877546,0.6837753256679,-0.7033590145316395,0.053505198058913225,-0.18662855365131964
312,8.98707,-0.29722907077051747,2.7113531979972456,-0.7630147461139679,-0.19849659401941794,0.9800700030711469,-0.00701898288692291,0.7510414438003606,-0.35641170907991393,0.09035690719619055,0.6810892665264688,-0.7021040194241517,0.059395806036972545,-0.19897621252305764
313,8.99707,-0.27379358615372407,2.8251772164006503,-0.3014865446301654,-0.20354098481309377,0.9790163112951121,-0.00975576609658576,0.6764927177585398,-0.5463388251257202,0.08152942644540961,0.6786356752934558,-0.7004114020059005,0.06727603266301939,-0.21048594614943578
314,9.00707,-0.0999017190340744,2.6965107149685683,0.18736110011596727,-0.20375826707807818,0.9789251108860522,-0.013470035463612775,0.6579769214895672,-0.7130804283285757,0.10888419494571686,0.6769021023530243,-0.6981131623354427,0.07666643470175602,-0.22027659773803623
315,9.01707,0.15827841419695257,2.506528807856149,0.5968352516353512,-0.19943630859415515,0.9797154324944279,-0.019006031454003203,0.7156959551578337,-0.9170357959513536,0.1284362070578308,0.6763932478974897,-0.6949324974878582,0.08681643884683111,-0.2280031290342563
316,9.02707,0.3704620295529829,2.263728697000416,0.9118800325534965,-0.1914730455878494,0.9811253308059592,-0.02632202987131928,0.7869257361908351,-1.1167646908905853,0.13760484160075112,0.6771139742168599,-0.6909154744563856,0.0971862143981177,-0.2338213809925197
317,9.03707,0.5694086200427588,2.0745987610083976,1.1483462004303193,-0.1806563586014423,0.9828966651427635,-0.03493192961046775,0.82007147446483,-1.2791748504212037,0.15458993054210007,0.6788343640463856,-0.6862510845283765,0.10752701167732527,-0.2380045589335429
318,9.04707,0.7675846850812595,1.7775847614166445,1.272539856174226,-0.1679072170015769,0.9847363593302241,-0.04504534362692803,0.8463214759350922,-1.4429122896408344,0.19149063450983,0.6815131812822303,-0.6809063211360041,0.1175372282328228,-0.2409540916821647
319,9.05707,0.6659498429312487,1.176812873039377,1.3440870424130142,-0.1542987779009548,0.9864676915110688,-0.05488843026415269,0.9110443006282353,-1.6174112254133437,0.18869586568734487,0.6847318029952798,-0.6757338796460803,0.1261835108767533,-0.24204196301127867
320,9.06707,0.23666354160317335,0.8842361961901953,1.4530410479627542,-0.13991985985503547,0.9882660588998871,-0.06079100817952104,1.0144085736511828,-1.8053534242375258,0.18591116991577938,0.6873061733834969,-0.6720922624353146,0.13371789311507182,-0.24084055846772523
321,9.07707,-0.13869272509352135,0.8302596222692846,1.5561268782940705,-0.12448653095263415,0.9902354172434258,-0.062258823785747264,1.0782412001835795,-1.9921203219250299,0.2497920492083399,0.6886231450633045,-0.6699027516784167,0.14171731385234415,-0.23859191649842815
322,9.08707,-0.43491881577251307,0.5206734637961895,1.6973768758502121,-0.10795415472269994,0.9922981211371475,-0.06010230410898834,1.0189641781202987,-2.108949844635842,0.2905461093417471,0.6890347551326199,-0.66892472832692,0.14991145635940867,-0.2351104979970083
323,9.09707,-0.6627151338179775,0.24434160778690278,1.9935421698530296,-0.08941705053549207,0.9944229726732917,-0.05495318468979615,0.8818628326515097,-2.0889134846962154,0.32355224328129073,0.6890341690971669,-0.6689877531471182,0.1579949166211983,-0.22956010252357437
324,9.10707,-0.9458776432597734,0.0940895177204071,2.44567354736138,-0.06740976021616762,0.9965259743997732,-0.047126129413374594,0.7508836159128223,-1.9329896865424696,0.38573140262300026,0.6887093091089125,-0.6697657571378749,0.1668177601814781,-0.22186135700928566
325,9.11707,-1.206942978125008,-0.17657909135116784,2.9843707120912146,-0.04038766260380379,0.9983961049462458,-0.03629071698977831,0.6532978142300553,-1.7131745101142646,0.37791846776730115,0.6880385467259421,-0.6712099852504886,0.17692672526676695,-0.21145308266994098
326,9.12707,-1.2320239351881033,-0.37336900942159734,3.4347834006703026,-0.008299617451066233,0.999516249037516,-0.023914481232050564,0.636192554887714,-1.4750551401711167,0.3357334885989646,0.6874327076658445,-0.6727808533857338,0.1880838003227825,-0.1983530890383104
327,9.13707,-1.3394605953170355,-0.7330935367803919,3.5778334806463805,0.027013772890194493,0.9993932277776674,-0.01143108509259123,0.6959510321240459,-1.2546796903913109,0.27999991311363204,0.6870923082801433,-0.6741669046522855,0.19938656725140677,-0.1831822703995226
328,9.14707,-1.7413132899184234,-1.3251782098543343,3.4712217808799215,0.06232698795937214,0.9978710008637276,0.0033635579579589445,0.7515868622365917,-1.0155264491970144,0.1938868961857249,0.6860711615974974,-0.6767135737010566,0.20909485006685175,-0.16595489135194463
329,9.15707,-1.8847519030951951,-1.7074387997484766,3.325396007993927,0.09635348495747847,0.9949620905429555,0.020527751057112804,0.7543122009305646,-0.6959551936726447,0.1331971060356809,0.6841103740494452,-0.6806371844023351,0.21675241967941966,-0.14709921840121448
330,9.16707,-1.7832478897580282,-2.01878723511107,3.14620419167633,0.1291216304341573,0.9908054530158767,0.036518313514749684,0.6958155146543191,-0.31676825160966693,0.15656144074959896,0.6821630875728811,-0.68456944956306,0.22274388371196172,-0.12767552501565982
331,9.17707,-2.044054956489856,-2.399237893483999,2.9933893568416985,0.16040313989881838,0.9855294848403892,0.05193718448228495,0.6374568063466335,0.1847419848132824,0.2067501324177298,0.6799793684662037,-0.6888598242508304,0.2267873119823708,-0.10747114768748507
332,9.18707,-2.3062687638352073,-2.6730733994087967,2.9563308257369973,0.19127684959128732,0.9789509927258173,0.068904722150535,0.6496130480287502,0.9653344672925155,0.27729583264132807,0.6767788773173938,-0.6941049995170163,0.2294815723909813,-0.08600672115038174
333,9.19707,-2.571142961637082,-3.0463006343684964,2.550500039875044,0.22071816004309053,0.9713075378490571,0.08696145120160129,0.7257067413654295,1.8708511147766549,0.3775067331087114,0.6725478153660968,-0.7002553456716476,0.230459221414325,-0.063797291969239
334,9.20707,-2.650617296829813,-3.436329311415355,1.5522493988459016,0.24397180898112544,0.9640026437141316,0.10497760510595665,0.8257948561560998,2.488832807022099,0.4237035607304432,0.6675450123866395,-0.7076033567869865,0.22751348389630446,-0.04230621192295236
335,9.21707,-2.0944817288430175,-3.5030883810310223,0.5905042328158909,0.25796285570038335,0.9587267316039464,0.11936087097962256,0.835188284701906,2.78034035182806,0.4725421303994663,0.6630895691370854,-0.7150024727108493,0.22004288067914196,-0.023722467981077737
336,9.22707,-1.0953287547558386,-3.37613679401069,-0.03905200865457972,0.2646684906284431,0.9561195297321964,0.12563168353022913,0.6543250570686606,2.8287805830698955,0.3891699905992111,0.6611105091897022,-0.7203056452513844,0.209618273704597,-0.00868763806963603
337,9.23707,-0.11484294839281556,-2.9805143274498787,-0.48092231469376867,0.26625090327788753,0.9560281552745122,0.1229198276029708,0.34630782974276664,2.6393648793228475,0.08968694996606222,0.662202104903326,-0.7226117532195021,0.19814319249869736,0.0026569189071623247
338,9.24707,0.5518196328228129,-2.57175312847354,-0.7880708259154434,0.2636026434474642,0.9579009930185017,0.11354298373517882,0.06377691596152323,2.370919676073222,-0.24106576019157036,0.6656630194832244,-0.7223934855053737,0.18677979434178169,0.01036022383929238
339,9.25707,0.9979075334746941,-2.659085659772162,-0.9700992322301231,0.2577574718901419,0.9610761031593491,0.0990445529727666,0.004476433407472606,2.0591303466469975,-0.3444700746411884,0.670973654208283,-0.7203356749488159,0.17492601067267155,0.01600670766827264
340,9.26707,1.0111986950929652,-2.957429808405027,-0.8426809005053593,0.2513875305187148,0.9643630603482259,0.08200331136449932,0.1630588616185635,1.6362794543905055,-0.23702883941820607,0.6771166250417067,-0.7173831083720769,0.162231001171877,0.02212177952375638
341,9.27707,0.7822969749657676,-3.197153338168156,-0.6303541629940892,0.24663901864359156,0.9668576519949414,0.06552466166502469,0.2922000299488555,1.149068178388511,-0.14431112225337506,0.6828688006217865,-0.714464398892104,0.14919680093192034,0.030036556389672547
342,9.28707,0.39749822675444724,-3.2761274543008914,-0.5765839814854419,0.2427774532580821,0.9686793745867857,0.05177586757695341,0.2945031063388264,0.77168355482792,-0.04929758815852075,0.6874238517814418,-0.7122798579826202,0.136016784240736,0.039175069704211446
343,9.29707,-0.09475395972468062,-3.1769197700304916,-0.5338051447192158,0.23879521881199023,0.9701378299833938,0.0423658857774912,0.17417832310448367,0.49505916020737506,0.061166904840130244,0.6902342328388433,-0.7113793746856826,0.12280410306553545,0.04869331438606527
344,9.30707,-0.6556904645435084,-2.661676221090066,-0.23410072220636807,0.23606333060902165,0.9709569686092395,0.038943396802606924,-0.022388795018697574,0.2910492359666841,0.15923284009935623,0.6907566144050031,-0.7121145698480696,0.11107772160849412,0.057993524068698774
345,9.31707,-1.3365289553681994,-1.5154922443137506,0.2972958425717597,0.2370444479024555,0.97051150414966,0.04348540184208851,-0.2081364571580918,0.1257809541924765,0.18779810110405468,0.6883767313103161,-0.7148655561128213,0.10344484421426782,0.0661683026805519
346,9.32707,-1.7310582189667778,-1.0343663750887515,0.6828265358292496,0.24259584367494075,0.9684842758654718,0.055764226435620755,-0.3172322895416282,-0.044331975611171366,0.1742519089848936,0.6832038392416628,-0.7195461965581508,0.10063763797361136,0.07300704776921965
347,9.33707,-1.6578038412412088,-1.7626576533212206,0.45148352095701394,0.24940994358017254,0.9659044108659904,0.06917299336403339,-0.34390240362798935,-0.19491895258383435,0.1960391620056081,0.6773926124505415,-0.7245934559955428,0.09766159285516915,0.08077919332284508
348,9.34707,-1.3848656966557764,-2.1025241567384745,-0.06840421165884272,0.2525375688182211,0.9643547406296251,0.07892118497475913,-0.3563868342599565,-0.27634653134117526,0.20355494612726968,0.6727217251759703,-0.7288104877489837,0.09097705225479588,0.08925703752620327
349,9.35707,-1.0084358011354848,-1.9773123018390732,-0.17291306370599863,0.2527333997055727,0.9637578217689525,0.08539492220542728,-0.49398281590538723,-0.33729368319508013,0.12875060833127944,0.6692912169555308,-0.7319654249966352,0.08311168593166197,0.0966320667789361
350,9.36707,-0.7065811292023633,-1.8262513033019867,-0.010099710545074497,0.2535060581411519,0.9632581755834945,0.08869502211436282,-0.7080924011699983,-0.42931011493363763,0.04819074821349953,0.6669994190568073,-0.733873051375473,0.07594197256228291,0.10368900906103252
351,9.37707,-0.576336887135948,-1.4999743446113978,0.07831201407874794,0.2554232218708857,0.9625823558465623,0.09051152516140575,-0.8307645737397873,-0.5563320555584808,0.01881376369598655,0.665275993235025,-0.7350647470920467,0.07020883727266508,0.11019419813818575
352,9.38707,-0.5993178845128055,-1.2111540657372166,0.044179702468637595,0.2572833436398444,0.9618858925424293,0.09262107450853602,-0.8851223589663749,-0.7336055875419488,-0.01583896040191818,0.663574782053759,-0.7362029315056718,0.06565974304585954,0.11554995824445542
353,9.39707,-0.8059147916225902,-1.1130583966138676,-0.03013476534069285,0.25845437548922057,0.9612114428850129,0.09627198608018968,-0.9060788402685513,-0.9170370318018272,-0.04204074642828907,0.6613991810500984,-0.7378018579966534,0.061472831768282776,0.12003801826671784
354,9.40707,-1.2066951274514324,-1.035681996021121,-0.11097943976095537,0.2588722877482953,0.9603864374750541,0.10306820979953976,-0.8823962816638514,-1.0319926889767344,-0.04189345825371142,0.658069303104754,-0.7404547218705378,0.05703272438219327,0.12410838574469339
355,9.41707,-1.6447570086179415,-0.8351109727808912,-0.19164030579778343,0.2584375271812292,0.9592110430971692,0.11435304711269326,-0.8591420197985197,-1.0758516059829435,-0.03710901456503514,0.6531124442724091,-0.7445884940460048,0.052473174266197145,0.1275037676395247
356,9.42707,-1.920020988041968,-0.5079846259249767,-0.2441111290937428,0.2571429181786576,0.9575780008108832,0.1297952779242168,-0.8813377063297347,-1.092780140791255,-0.04945797180424203,0.6467216729846368,-0.7500355562009495,0.0482874391913249,0.12977231760254235
357,9.43707,-1.9507074442404795,-0.0792880189975046,-0.23536837150342627,0.25523338225000397,0.9554817136832818,0.14772290263712579,-0.9342820988467896,-1.1052589862396422,-0.0806266536390802,0.639590127679194,-0.7561826575193945,0.04514361150807861,0.13057569288248405
358,9.44707,-1.6507646938186,0.22472784202871504,-0.24737362348275083,0.2528650750963183,0.9532300428157072,0.16535214482918292,-0.9822286805823498,-1.0974350384545866,-0.09069625204932297,0.6327994501354282,-0.7620960017391452,0.04333484976981485,0.12991823841329958
359,9.45707,-1.0996358972855718,0.35131446311338177,-0.328863064286998,0.24965528088151592,0.9515705275010433,0.1793062305198374,-1.0090416351688076,-1.0339632239782794,-0.08759768937337825,0.6276143465062604,-0.7667233626199923,0.042246156560582025,0.12822659200337913
360,9.46707,-0.47928741402762237,0.5564242548403748,-0.3535241607306633,0.24555485845262678,0.9509916594398279,0.187896046992365,-1.0135781343609545,-0.930840854577323,-0.09824893034593853,0.6247136695698595,-0.7695460355776762,0.041785616091895565,0.12562585462326667
361,9.47707,-0.007355002083160034,0.9236978914369914,-0.33753620015770236,0.24090233554980012,0.9514005309613195,0.19182396676815647,-1.009912443062754,-0.8186626937684516,-0.1099544505818368,0.6239020496682813,-0.7707754601424077,0.04261967471068321,0.12177508633860284
362,9.48707,-0.004258793344789152,1.3789632564168057,-0.39471165868346236,0.23526971147277284,0.9523067960057389,0.1942881148138517,-1.0101274767681927,-0.7006723294660616,-0.11770025311936291,0.6239722269278354,-0.7714465975682041,0.04485544827529262,0.11620711915841603
363,9.49707,-0.4029990675428171,1.843132662317241,-0.5539431586371791,0.22763302987607914,0.9530043959828832,0.19982420853427035,-1.0143533999087513,-0.5739731507297499,-0.0721933097400456,0.6231220689510392,-0.773049925786096,0.047975034128602045,0.10856860641949716
364,9.50707,-0.8439233690945608,2.2888187079826645,-0.7859554911730177,0.21703021961116972,0.9531654166036354,0.21045966860808346,-1.0191436101751858,-0.4227961006941423,0.048352205855524036,0.6204886124800905,-0.7762536871152786,0.05150459201382375,0.09864219921998944
365,9.51707,-0.9876371298423612,2.681848032147017,-1.070612877583111,0.20278591034340038,0.9530311595206482,0.22469134600947743,-1.0184356669423185,-0.23084535877386753,0.16878806900197657,0.6165628337032102,-0.7805723127909894,0.05517101850904693,0.08634186294746128
366,9.52707,-0.5539371447824815,3.0477724123698016,-1.4206799609370298,0.18429777486279872,0.9535614708014133,0.23794229500304837,-1.004856848061394,0.08630229791352759,0.23299311734044265,0.6130625819991585,-0.7845434257477123,0.058794891924015144,0.07153153599158435
367,9.53707,0.26734989752108207,3.3597843304412645,-1.8004491609536826,0.16112783069257117,0.9559746603366406,0.24491441042064843,-0.9829438749106753,0.6033826320944192,0.23280687589215374,0.6119935343377662,-0.7865004252704287,0.062221626527528814,0.05402063122926511
368,9.54707,1.1633256199582922,3.678879749218661,-2.06224055492991,0.1339257827567297,0.960535685294444,0.2433368823793593,-0.9589131126576043,1.2488247147290932,0.22408861626793886,0.6140531268725983,-0.7857301243570101,0.06551887053142316,0.03400231814704745
369,9.55707,1.8728938902653696,4.166710964578813,-2.32948481955814,0.10336654572306407,0.9666882641075886,0.2334796079504446,-0.8830634343656227,1.8547698336122203,0.302790993774555,0.6188521437194626,-0.7822704039260198,0.06916193231105934,0.011310555080601725
370,9.56707,2.378623037292225,4.187128229552766,-2.8258697123207246,0.06900010253606939,0.9736378149858943,0.21638948484994708,-0.6907943342617506,2.2149173460853504,0.4016106190518251,0.6256462742061221,-0.7765124992441623,0.07218489161811589,-0.013792021809269065
371,9.57707,2.5082855150592205,3.4376898228584043,-3.241013196591904,0.031081547867432585,0.980102708802327,0.19470009587459533,-0.4229747389973464,2.3077005933957926,0.4994226498796995,0.6332152676598872,-0.7695206103684255,0.07192693965276556,-0.039042333618380665
372,9.58707,1.9554710873420202,2.9932058692745147,-3.3026055962970173,-0.007426422757538471,0.9846201149938647,0.17324247491392622,-0.13711558312900418,2.214272662464268,0.6207812404645433,0.6397511864793266,-0.7627771459429797,0.06913868195215774,-0.06289751534598564
373,9.59707,1.4329077450084002,3.409899917639465,-3.0338807997033137,-0.04411611326544985,0.9866708004592213,0.1554204489503513,0.1391688182141086,1.9594218583597423,0.7311680317976429,0.643980477828409,-0.7570998420461912,0.06710629796137722,-0.0862531501857461
374,9.60707,1.1169206260898248,3.8046478741134906,-2.664541940050518,-0.07757656620780305,0.9868566547544954,0.1407316761160228,0.3586734310323707,1.7058689528174187,0.8356766443462067,0.646156076280241,-0.752210431798853,0.06737422961318884,-0.10947705502162142
375,9.61707,0.8065752139795561,2.986288427875298,-2.736963530115371,-0.10840305314469617,0.9856672683695752,0.12824965771694496,0.5895037564235982,1.5545623583919876,0.82075793534849,0.6468957274967945,-0.7479753717543434,0.06822040497977148,-0.1314924577199594
376,9.62707,0.5906145068856854,2.1393960521878306,-2.8313199742022106,-0.13907492610925737,0.9830591326588187,0.1182966901059851,0.8577291365155417,1.4994097965041724,0.7492133767802865,0.646664419352822,-0.7448702829555531,0.06564027507556856,-0.15035586661498304
377,9.63707,0.2031573025520182,1.6494157023588785,-2.5116119098686656,-0.16767955471243925,0.9794003330405008,0.11169237826318734,1.0031163459262697,1.3661229081086412,0.6907699823425025,0.6454237014150827,-0.7430396252327532,0.061105510400699725,-0.1659200153535817
378,9.64707,-0.03260127423881173,1.731211190387823,-2.166831953318251,-0.19233222910665157,0.9752873090235361,0.10810071745786717,0.9609875053456404,1.0885625096010196,0.5666473821066125,0.6431385239635574,-0.742098783758151,0.05777385824945626,-0.17966152597473029
379,9.65707,0.03315381307782295,2.4590813160432257,-1.8834741684600793,-0.2142931165050903,0.9711687685745382,0.10386736994821057,0.8446411677773678,0.7994989751071782,0.4590749017500691,0.6406065592444048,-0.740729163457054,0.057032962279444016,-0.19398356239287726
380,9.66707,0.3088723947685446,2.666987642626427,-1.5943143969007698,-0.23378150457692634,0.9674424901405833,0.0964220536628027,0.7501836948386332,0.5350490415467817,0.3213166846456842,0.6387128511172754,-0.7380752651842265,0.0587536879066188,-0.20923163860651872
381,9.67707,0.5492399734512761,2.427324278553606,-1.3019369445004152,-0.2500905942409542,0.9643475722161505,0.08602233800679862,0.7495405214650073,0.3285853059377828,0.18965521688649348,0.6380117964580718,-0.7343544607150949,0.06106679468410213,-0.22335290405817765
382,9.68707,0.4429019631487586,2.2813997563400448,-1.0483861000313548,-0.26320844908968594,0.9617812405108217,0.07507645384150427,0.8135707294253011,0.12459195121714459,0.11621643045028085,0.6378340035108552,-0.7303973436209541,0.06365828591987109,-0.2357873417065912
383,9.69707,0.2650714791643721,2.397330747529558,-0.7862533764206359,-0.27380413860836117,0.9595465492105836,0.0652393146636622,0.8071836598751881,-0.12080793525933854,0.06288958401538672,0.6372904303487529,-0.7266950301660722,0.06727754705388769,-0.24740351288401183
384,9.70707,0.15703313422409837,2.3761751252871597,-0.33648909728478205,-0.28071630243915274,0.958123561862305,0.05634205450276688,0.7196486159652462,-0.3830439340905021,0.04736709518785042,0.6365742004831647,-0.7231095509567437,0.07260153639563216,-0.2580273639392487
385,9.71707,-0.05090839592042487,2.1786645195745815,0.0915997051309723,-0.2829840440666043,0.957851213130661,0.04932540514448505,0.6617961138564187,-0.6202520089963602,0.029302455647253724,0.6357950916469535,-0.7199640373723388,0.0793704257807653,-0.2666230711417658
386,9.72707,0.00015535372294420147,2.0840701174232494,0.4461533001282826,-0.28151042406194504,0.9585557254007075,0.04374492828275097,0.6634881440206384,-0.824491591956095,0.05351923368624349,0.6351025254534531,-0.7171234714977286,0.08710914791256028,-0.2734281248573298
387,9.73707,-0.010785078155593791,1.9198547619078188,0.8084493951658126,-0.2762891688454694,0.9603115149136184,0.03799672268615897,0.6551043366570193,-1.0237338953173005,0.10155750346938562,0.6351277598508542,-0.7140185207894385,0.09567531549106512,-0.2785854861670931
388,9.74707,-0.24000586478848657,1.85173941473261,1.0083880632204143,-0.26806931795618055,0.9627846190743986,0.03408187903132336,0.6631605430880735,-1.1622050396231876,0.10925289228340411,0.6350471193068201,-0.7113158812869381,0.10509826818523786,-0.2822620137685653
389,9.75707,-0.059381863443362826,1.8945423426814123,1.0629801468783602,-0.2586675542030825,0.9654584813298858,0.0308724229440503,0.7146212213662904,-1.2660082669659791,0.16823035716240425,0.6348346135814031,-0.7086445353684496,0.11503185097211888,-0.2855629359222086
390,9.76707,0.4650511654341727,1.6851869595347932,1.0819228829873542,-0.2488157671245676,0.9682217475411171,0.0243624927241805,0.7936994956202612,-1.3918191633644073,0.20670561144398825,0.6359875217874376,-0.7047784905028524,0.12427858805864762,-0.28867936918054005
391,9.77707,0.9795416316318791,1.267394791617315,1.093253481743727,-0.2385669543184681,0.970995839190948,0.013689049963786384,0.9392834836165614,-1.4807285421635228,0.12015546924459534,0.6391628211673951,-0.6996155112735933,0.1317732151392454,-0.29089826283430237
392,9.78707,1.278560990720224,0.805450248811644,1.131235747894795,-0.22786408726330273,0.9736502295983102,2.982531614018763e-06,1.113728642340349,-1.5258191546210076,0.044005132826475044,0.6440981106198349,-0.6936368149159117,0.13731180036357782,-0.29176816141800943
393,9.79707,1.0870024116300847,0.21759821588046346,1.3147083679503333,-0.2159545312923567,0.9762800231350085,-0.012946359702659551,1.1925145892873337,-1.6037744935301528,0.010294843134394865,0.6497109950877182,-0.6881323801515652,0.14139135052371896,-0.29041301279234827
394,9.80707,0.5997685862891808,-0.19224792714545474,1.6200991439483161,-0.20161597786641683,0.979200528913485,-0.0211730021863359,1.1197560080630473,-1.7137126033130692,-0.0006368346191961286,0.6547438476764703,-0.6843571886960261,0.14513127576016585,-0.2861549803402386
395,9.81707,0.16349606042458345,-0.25762272824416116,1.8534722479750696,-0.18455662473417872,0.9824793040322993,-0.02429601947246756,0.9421786613499957,-1.7902868827694332,0.06464325349435959,0.658657906044071,-0.6822201623690651,0.14973491281910975,-0.2798275919249411
396,9.82707,-0.14961237805932853,-0.289321683891811,2.115835664447453,-0.16523235580754686,0.9859123930502,-0.02393488687043128,0.7383348270531991,-1.787699720524543,0.12143819288227316,0.6615973940740417,-0.6810368112831153,0.15559986604556558,-0.27247132410061975
397,9.83707,-0.49720276185609114,-0.5805627046526334,2.663233490704413,-0.1419124259154796,0.989589624664786,-0.020090314897913936,0.6118265301725193,-1.6817687759795692,0.14115788427686862,0.6639827169190897,-0.6807786915410189,0.16272954831325154,-0.26294966570916073
398,9.84707,-0.7628358099486383,-0.8466308725376163,3.2879112269402127,-0.11243126113375626,0.9934394807983242,-0.01279309551907802,0.6410257013465712,-1.501998761501685,0.1922480793130195,0.6662086950702348,-0.6813480565842425,0.1713109107611372,-0.250022480097184
399,9.85707,-0.7780564964315533,-1.0044726009572784,3.6852729289379806,-0.07763883069502296,0.9968003700882361,-0.004185014658289528,0.7530709485900888,-1.3058214111567903,0.26161832331549656,0.6686082845621438,-0.6819681425539563,0.1811123809849252,-0.23449884353464195
400,9.86707,-1.0213145381414752,-1.352106420871193,3.9263542436539485,-0.03935663994396119,0.9990132918951125,0.004961663291741115,0.8065040661121609,-1.1378815218999727,0.23346929433849115,0.671131467477725,-0.6825698453127823,0.1911936338740535,-0.21683290462710333
401,9.87707,-2.3509285632826176,-2.1778654637247628,4.212313903172664,0.001349854247500601,0.9994977847785654,0.02170498288353441,0.7988934318663745,-1.0017618076296328,0.11809767234786593,0.6713903725693641,-0.6859363931889747,0.20078893232053757,-0.19558526699609366
402,9.88707,-3.6053031026937057,-3.376059003842721,4.254661939762968,0.0449827966582083,0.9972632140728422,0.051485876339958325,0.7838041286506784,-0.8341516475258361,0.03563275763047851,0.6675321821684342,-0.6942803442698956,0.20899259688560448,-0.16863902343538928
403,9.89707,-2.423559631349501,-4.090816392756171,3.566635835327535,0.08707796140303756,0.9926208876689439,0.08106754040443388,0.84812693403993,-0.4528622202518575,0.13251582734423703,0.6633309152563261,-0.7037582183497276,0.2126954753195617,-0.13869982449979743
404,9.90707,-0.2460956872974862,-3.909230714141556,2.656022290404911,0.12135791468651785,0.9885087334147251,0.08885537745394759,1.016331021444677,0.29783423675746745,0.35722727410414634,0.665309249112754,-0.7068997965274431,0.21146704594633178,-0.11317651604467809
405,9.91707,0.19844279162967082,-3.2850472327553595,2.5869809512906765,0.14948240330430967,0.9851173981276031,0.08378249941729804,1.1268928159418143,1.466326545417204,0.5113684601009243,0.6704537039112223,-0.705967403466858,0.20856394538352085,-0.09218927557686005
406,9.92707,-0.0483370198785248,-2.426739101974749,3.417403297195322,0.18092509421932018,0.9802400925051981,0.07805428657536544,1.2715438238426433,2.6642777755406986,0.6306451685631268,0.6750278666408582,-0.7037210403334982,0.20928269563963833,-0.07218484010277372
407,9.93707,0.03263219356795953,-1.5210636434205806,2.7252639349022365,0.2140425211078859,0.9738477115576721,0.07449433539222007,1.4557520090579386,3.119945526344072,0.6733852298630656,0.6780697553130889,-0.7011667142410466,0.21355386753157382,-0.05387668806210872
408,9.94707,-0.25074292009805843,-0.7286074790449459,1.1452792836340853,0.2334277650179613,0.9695812139060199,0.07343999726148508,1.4525926016932615,2.990763506567483,0.5009002117503413,0.679245726105118,-0.6998260881103847,0.21670813259185223,-0.04355854384658931
409,9.95707,-1.0768422335557797,-1.333228852512138,0.8525768804748666,0.24314408230863846,0.9668831138991031,0.07737704573622092,1.0841832735777444,2.897268582458836,0.29515222188291823,0.678204865804209,-0.7011370270054315,0.21701056563966767,-0.03652765227185317
410,9.96707,-1.9401709662519968,-2.752331887119592,0.7592814763387096,0.2530389923460623,0.9635035172407382,0.0870147601492369,0.8588783410922375,2.735421642584484,0.2138165459831267,0.6751495250204728,-0.7056960466979797,0.21327204098541677,-0.024791828116587457
411,9.97707,-2.3434042273381555,-3.5425627866472906,0.1047780283709911,0.2605402721459419,0.9602768738105912,0.09967754718951786,0.9029528244054634,2.1895873096392235,0.33206593110050614,0.6708248456504682,-0.712816335888854,0.20417267270992756,-0.009450941934654775
412,9.98707,-2.2115146500695575,-3.195237996536553,-0.37227976301992355,0.26270774179497336,0.9582229351850337,0.11292632811728469,0.5467784789520036,1.5673398771730067,0.3223084075129905,0.6659370079816995,-0.7207290466699537,0.19225624659113855,0.004558173247639826
413,9.99707,-1.6498433340516865,-2.4922670463121914,-0.5710031426705642,0.2613916974755368,0.9571920057121663,0.12422859366993227,-0.04426537720908369,1.2113499754163963,0.13609304854314971,0.6615431427117247,-0.7275248338094288,0.18107254107916648,0.014962723737336026
414,10.00707,-0.7127752130817427,-2.558645688034954,-0.6710252756882461,0.2586138304963429,0.9572871842500332,0.12929591698593093,-0.3665419066814068,1.0935104633758128,0.006361341916992495,0.6594024242786723,-0.7317906851605266,0.1705939973764309,0.022969665637476946
415,10.01707,0.2594179403072485,-2.886251705969243,-0.6480279235763087,0.25570882558904334,0.9587115481837074,0.12435263571465444,-0.41460226209510764,1.016224712120866,-0.039165283281859475,0.6609419505920789,-0.7326877063237328,0.15909296170253176,0.030999368413653937
416,10.02707,0.9731289975191563,-2.7826132116081865,-0.5399110887910195,0.2534242034702381,0.9609368736495185,0.11097514249337576,-0.3875378535405121,0.866802929443215,-0.0663632634426736,0.6655622060530613,-0.7305195035585669,0.1476413645319409,0.03896907360842778
417,10.03707,1.4385808445220711,-2.6682057916721895,-0.49522737764217045,0.2512309913318193,0.9634655367238169,0.0922970034149965,-0.39974675120560094,0.65414981753649,-0.08377182097706767,0.6720736824358655,-0.726206241764735,0.13689863385172665,0.046316357003330706
418,10.04707,1.63000639199732,-2.5545458073333887,-0.3258587669772121,0.24930055425713915,0.9657810188039365,0.0707032238982362,-0.4325474982418665,0.37470639747691803,-0.06909119552374365,0.6795351849677947,-0.7205824232404494,0.12681443940244763,0.0534328941460672
419,10.05707,1.4205366181537484,-2.387944445483207,0.06729388747756004,0.2494475604917697,0.9670760732760663,0.049399834001117575,-0.4487888962470209,0.08867141330043576,-0.016830742923342953,0.6867078044119747,-0.7146223956656131,0.11829030471780622,0.06089344162457746
420,10.06707,0.5342839519249799,-2.427410732193844,0.45648758209905405,0.25307361280507895,0.9668404942303117,0.03359628488181643,-0.4513056269449831,-0.17548994929840617,0.058315399925715265,0.6915993534711992,-0.7102043079497494,0.1113346133510192,0.06977046146446467
421,10.07707,-0.6655977929845146,-2.8122558607870314,0.4908238527240389,0.25866693747177255,0.9655730264791685,0.027400764559693265,-0.49682131224013654,-0.48359635926725447,0.1437523426509477,0.6926282682210732,-0.7091375944316353,0.10397090502302916,0.0808282363977021
422,10.08707,-1.8417960892554124,-2.920402151876291,0.33913539698339573,0.2635562053479892,0.9641004001996828,0.03204846982204411,-0.5921853034835081,-0.8150724127873682,0.22378408325674848,0.6893876934508713,-0.7120340559841857,0.09489750381857111,0.09316080724336862
423,10.09707,-2.8132715230462306,-2.5749910635922384,0.3016254087865278,0.2676695971954333,0.9623003460933711,0.047362568473373626,-0.7441685654519576,-1.049995643442702,0.2077496158265028,0.6820661937726512,-0.7185795363881572,0.08538575639712472,0.10514700701870351
424,10.10707,-3.3494258179191165,-1.9990924574612814,0.3468952531057245,0.27203657130592934,0.9595773569395069,0.071021352762958,-0.9227547438253396,-1.0795312350362236,0.10709147713875178,0.6715799212545481,-0.727702713790824,0.07696081758364227,0.11582950655831124
425,10.11707,-3.3820888836159333,-1.495578795836502,0.3039079349575155,0.27663261072184414,0.9557862810193278,0.09875607059298025,-1.0566451119944882,-1.0290717564695244,-0.011666748939735128,0.6595970376523225,-0.7378321527033654,0.07035494025191626,0.12452082270042174
426,10.12707,-3.026768712276729,-1.3173606395175832,0.11832364681032287,0.28025372708927676,0.9515897692497517,0.12560229505567677,-1.1372082449844725,-1.025658668032009,-0.1368271172578907,0.6393459604657554,-0.7490840618911109,0.02405939091369419,0.16580518088827997
427,10.13707,-2.46050356987603,-1.2416332795329936,-0.021100225984681184,0.28243006057569575,0.9477316319502234,0.14811247964158336,-1.1675502500977273,-1.063260319590909,-0.26540373849683496,0.6244184678330272,-0.757640510355216,-0.0041583433381294005,0.1897869873960467
428,10.14707,-1.896432539873833,-1.1300250868105024,-0.09892263930300735,0.2837451690607383,0.9445230711738996,0.16525720806701188,-1.1456641320204626,-1.0957396462224858,-0.33051327091549987,0.6161988794815138,-0.763225421400881,-0.010131308966370597,0.1940466832835245
429,10.15707,-1.5358635864205374,-0.995816646423514,-0.22763152722121865,0.2840881874389706,0.9420620159020362,0.17827020359529003,-1.1118183450093695,-1.0762271856405732,-0.30689426653726115,0.6097813121906003,-0.7673850534751149,-0.01566777179275803,0.19753854730505635
430,10.16707,-1.3907521942585854,-0.7470132153517357,-0.3064101753689543,0.2832704135472013,0.9401289852296463,0.18944075280924283,-1.1047695470571606,-1.0204194955596786,-0.24910822649159214,0.6043721789996088,-0.7708956477010588,-0.02078926116645204,0.20001711029553562
431,10.17707,-1.3278216580551951,-0.3781259432383354,-0.2818654330928121,0.28165589223389476,0.938291770880352,0.20061859778094004,-1.1179812436264647,-0.9726121790636244,-0.1648212654304239,0.5993430895963336,-0.7743898425773184,-0.024973084413833474,0.20117860415592587
432,10.18707,-1.109646377682969,-0.031370993783014,-0.2571163215864415,0.2796096503950186,0.9364932175811781,0.21159217909851888,-1.1194201275017557,-0.9140166857534257,-0.0904027159280058,0.5948062959789798,-0.7778291787395526,-0.027821896474365764,0.2010102501393602
433,10.19707,-0.6988931531232123,0.3107538083430776,-0.3305748211730327,0.27663778879298717,0.9353123596383696,0.22055722601634756,-1.0999737023128648,-0.8106533949491681,-0.035614314212610874,0.5915362672813074,-0.7806464875584993,-0.029460100125581562,0.19950892761679967
434,10.20707,-0.07842589016894413,0.8158068176055161,-0.48485295575724147,0.27163045593408697,0.9355322867037063,0.22579913178319233,-1.0804449024172895,-0.6610929623339081,0.03211544435248798,0.5904533798147826,-0.7823106861127167,-0.029819823743651375,0.1961159070548411
435,10.21707,0.6469378294108676,1.381732170922852,-0.7064158530997381,0.2636073368683178,0.9377585059438652,0.22605144750549414,-1.0962483753655863,-0.45499806596665004,0.0521304628301195,0.5923037472394291,-0.7824366337045296,-0.028598925142232737,0.19009990339601235
436,10.22707,1.0907409076558567,1.8645221129953882,-0.9808640852468329,0.2520717887004359,0.9419302983006029,0.22176479928656312,-1.1360190520467246,-0.23054301597977445,0.03638434418100571,0.59682258914351,-0.7811484998144431,-0.026214446439222817,0.18136694261109076
437,10.23707,1.0595561082955391,2.5060857096227047,-1.317880556922257,0.23655364983529656,0.9471204147839315,0.2166370185078169,-1.1499123253999965,0.009024027139857532,0.07878032951897743,0.6023692186118562,-0.7795991755670013,-0.023261204531703873,0.16967791214764846
438,10.24707,1.2366321484061098,4.361725712590234,-1.1681992611985952,0.21690647902043014,0.952476336945522,0.21362921539421464,-1.1079657504694018,0.3151813248965947,0.19127750260855836,0.6079747462089103,-0.7787719149454323,-0.017879644794021418,0.15320744674767653
439,10.25707,1.3103150728110546,4.605282081773774,-1.595004743232029,0.1942738564915127,0.9579472600829667,0.21087163354841024,-1.0314739012542045,0.6807438293032206,0.30825539110304934,0.6141886250746358,-0.7780377150502722,-0.008033259441993356,0.13116374124863994
440,10.26707,1.8081133092433346,3.5100638183868367,-2.0879226239187827,0.16788813078981943,0.964511572261473,0.20330490843070945,-0.899999665646487,1.1859210246607326,0.3194299412215958,0.6214296113377246,-0.7756568609499196,-0.0020955354415325414,0.10987761398093868
441,10.27707,1.9127854040374273,3.7348369976488303,-2.2168794808162424,0.13989676154727848,0.9715479980459577,0.19052357009726326,-0.78200144281052,1.6477564834835978,0.3791505055920802,0.6297525296398379,-0.7715268781940762,0.0011405205543871142,0.08969761814757157
442,10.28707,1.5665833090065964,4.459436489287356,-2.8082788316386686,0.10840335495497061,0.977810686359887,0.1785132552244099,-0.6763368768967556,1.877075432397926,0.4919095471151459,0.6373766288324484,-0.767604605819884,0.005613081378108654,0.06591494071850874
443,10.29707,0.35964884232064187,0.27519261345811863,-4.5071674046570145,0.06715949589724857,0.9824953405983464,0.17249241465549225,-0.6101724160671552,2.1648304461835273,0.6106040994735056,0.6417592010421324,-0.7656563095117325,0.001915938762033372,0.042250671313761284
444,10.30707,-0.4790505166017438,0.5362248299901315,-3.8553828661829863,0.024256224431327522,0.9841671527661414,0.17449210523657516,-0.44367648387918524,2.1664039504952353,0.6958249766640682,0.6418597717453771,-0.766148230814296,-0.013613254364736952,0.02723212505794001
445,10.31707,-0.3449353300569315,4.83399245434854,-2.5750645421207192,-0.011402944060854838,0.9837398276741917,0.1785890253196682,-0.09194692782643771,1.5714496510373728,0.8735725595659147,0.640728341788988,-0.7674586481366892,-0.017297882612943474,0.007022287360728165
446,10.32707,0.44078432754681607,4.896226657696912,-3.2299601859466365,-0.048317433594994616,0.9828714664938353,0.1769449463027187,0.22739859319297595,1.6917123540146328,0.6429494129307445,0.6409635317728636,-0.76702893409272,-0.011302111352296296,-0.022063950732565334
