time,seconds_elapsed,rotationRateX,rotationRateY,rotationRateZ,gravityX,gravityY,gravityZ,accelerationX,accelerationY,accelerationZ,quaternionW,quaternionX,quaternionY,quaternionZ
1681249678430552800,0.128552734375,0.005545542575418949,-0.024523817002773285,0.04633175581693649,0.13675309717655182,-0.38676998019218445,-0.9119800329208374,-0.011219024658203125,0.00018849968910217285,0.00006902217864990234,0.9777474144174175,0.1977862386167315,0.06993273344888265,-1.9162416439566686e-18
1681249678445585700,0.143585693359375,-0.02782599627971649,-0.028673289343714714,0.056947916746139526,0.13607840240001678,-0.38669589161872864,-0.9121123552322388,-0.011551424860954285,-0.012275665998458862,0.007800281047821045,0.9777812381919339,0.19771623350276188,0.06965706910126748,0.00035493394357585415
1681249678460618800,0.15861865234375,-0.040566183626651764,-0.03904470056295395,0.0586446151137352,0.13527165353298187,-0.38631772994995117,-0.9123925566673279,0.0014318525791168213,-0.020588427782058716,0.010277748107910156,0.9778526426417353,0.1974802421214903,0.06932004108457646,0.0007543024645109108
1681249678475652000,0.173652099609375,-0.022108882665634155,-0.04085751622915268,0.052900977432727814,0.13438160717487335,-0.38597139716148376,-0.9126706123352051,0.006487518548965454,-0.014114022254943848,0.011211872100830078,0.977923965161363,0.19734223446092208,0.06870759250738216,3.2946339100191075e-18
1681249678490686500,0.1886865234375,0.008461331017315388,-0.030766265466809273,0.035822123289108276,0.13365229964256287,-0.38595840334892273,-0.9127832055091858,0.013457655906677246,0.004641324281692505,0.006945192813873291,0.9779526530453723,0.197310793317369,0.0683875456193982,0.0002718186563420669
1681249678505719300,0.20371923828125,0.018455374985933304,-0.015115136280655861,0.03872710093855858,0.13314871490001678,-0.38625431060791016,-0.9127315878868103,0.007979810237884521,0.008034735918045044,0.005382955074310303,0.9779393705617475,0.19744918283479643,0.06817634259001344,0.0004962076851127631
1681249678520752400,0.21875244140625,-0.00819370523095131,-0.021984759718179703,0.03694544732570648,0.1326860785484314,-0.3864506185054779,-0.9127159118652344,-0.000712856650352478,-0.004876226186752319,0.006191253662109375,0.9779352021009062,0.19753251419940177,0.06799235453328684,0.0007546893214954974
1681249678535785500,0.233785400390625,-0.049927037209272385,-0.034077905118465424,0.03464820235967636,0.13210728764533997,-0.38608601689338684,-0.9129541516304016,0.0003542304039001465,-0.020118147134780884,0.008870840072631836,0.9779958895509029,0.19731769145620653,0.06773969456667991,0.0009907649920499076
1681249678550818300,0.248818359375,-0.03256487846374512,-0.036072611808776855,0.043036893010139465,0.1313670426607132,-0.3855151832103729,-0.9133021235466003,0.005626320838928223,-0.0209941565990448,0.006975829601287842,0.9780846131383798,0.19699099294594033,0.0674054307278334,0.0012421408939968283
1681249678565852400,0.263852294921875,0.026984255760908127,-0.024338994175195694,0.049661241471767426,0.13064904510974884,-0.38555359840393066,-0.9133889079093933,0.003887653350830078,-0.01097649335861206,0.0038735270500183105,0.9781063842467717,0.19698607537688886,0.06709726597072148,0.001541930565701941
1681249678580885500,0.278885498046875,0.04748756065964699,-0.006779175251722336,0.05198990926146507,0.13015645742416382,-0.38623306155204773,-0.9131721258163452,-0.005293801426887512,-0.0008213222026824951,0.005350470542907715,0.9780504539024246,0.19732213372690877,0.06691719033807393,0.0018759288917888205
1681249678595918300,0.29391845703125,0.02781239151954651,-0.0020613856613636017,0.05325464531779289,0.1298462301492691,-0.38691627979278564,-0.9129270315170288,-0.009027153253555298,-0.00280839204788208,0.011056303977966309,0.9779870234815715,0.19766084922100166,0.06683320590185585,0.0022204315043210477
1681249678610951400,0.308951416015625,-0.02758615091443062,-0.020003100857138634,0.042371638119220734,0.12944693863391876,-0.3871593177318573,-0.9128807187080383,-0.0033941268920898438,-0.021562546491622925,0.01456528902053833,0.9779743967873722,0.19776444926267678,0.06669986200857046,0.0025651051846089937
1681249678625984500,0.323984619140625,-0.04197414591908455,-0.03153938055038452,0.03778833523392677,0.12885770201683044,-0.3868103623390198,-0.9131119847297668,-0.00014984607696533203,-0.030364900827407837,0.01223301887512207,0.978032695140129,0.19755538618796797,0.066452155946158,0.0028525155938567467
1681249678641017300,0.339017333984375,-0.003552348120138049,-0.024541927501559258,0.03080260194838047,0.12834589183330536,-0.3866825997829437,-0.9132381677627563,0.012797877192497253,-0.005910754203796387,0.005752146244049072,0.978064306232928,0.19747031474409601,0.06622990507443154,0.0030594868649184313
1681249678656051500,0.354051513671875,0.021021703258156776,-0.015056813135743141,0.03044120781123638,0.12793086469173431,-0.38688895106315613,-0.9132089614868164,0.007567152380943298,0.007647037506103516,-0.0006551742553710938,0.9780562225272533,0.1975645883704084,0.06605863693957828,0.003257797136816029
1681249678671084300,0.369084228515625,0.025094423443078995,-0.00875896867364645,0.0268227718770504,0.12758538126945496,-0.3873196840286255,-0.9130747318267822,-0.0025701522827148438,-0.003122180700302124,0.007297694683074951,0.9780212098737945,0.19777977563018137,0.06592270048660862,0.003443776033188847
1681249678686117400,0.384117431640625,0.026203470304608345,-0.006129629909992218,0.030768780037760735,0.1273069977760315,-0.3878067135810852,-0.91290682554245,-0.002535909414291382,-0.01137840747833252,0.010563075542449951,0.9779776121605319,0.19802536066801185,0.06582206377097166,0.0036308726136062056
1681249678701150500,0.399150390625,0.01986945979297161,-0.016641126945614815,0.035513997077941895,0.12695057690143585,-0.3884260356426239,-0.9126931428909302,-0.0004399716854095459,-0.016008108854293823,0.005420804023742676,0.9779221532023231,0.19833825231253216,0.06569145984060083,0.003861297324686933
1681249678716183300,0.414183349609375,0.02401307225227356,-0.017771905288100243,0.03608444705605507,0.12653450667858124,-0.3888925015926361,-0.9125522971153259,0.004660516977310181,-0.013390153646469116,0.007645070552825928,0.9778853036723878,0.19857105561606536,0.06552402131004499,0.004067685975032473
1681249678731216400,0.42921630859375,0.02102830819785595,-0.017543405294418335,0.04173993319272995,0.12619763612747192,-0.38926517963409424,-0.9124400019645691,0.011741787195205688,-0.003953754901885986,0.009302794933319092,0.977855640695957,0.19875241734810317,0.06540232629399947,0.004302903794262709
1681249678746250500,0.44425048828125,-0.012458331882953644,-0.0213173720985651,0.053145453333854675,0.1257145255804062,-0.3893660306930542,-0.9124636650085449,0.008089780807495117,-0.010215848684310913,0.009967327117919922,0.9778602259534535,0.1987834042387913,0.06521750725956378,0.004609755150299139
1681249678761283300,0.459283447265625,-0.04757871478796005,-0.028138792142271996,0.05653512477874756,0.12504485249519348,-0.38910070061683655,-0.9126688838005066,0.003601953387260437,-0.027281075716018677,0.017267882823944092,0.9779107579352232,0.19861207860174157,0.064952376336126,0.005010765795702082
1681249678776316400,0.47431640625,-0.033029332756996155,-0.026255404576659203,0.07714053988456726,0.12426834553480148,-0.3886978328227997,-0.9129465222358704,0.006987728178501129,-0.03133082389831543,0.02140599489212036,0.9779791748528837,0.19836310433669602,0.0646437466640997,0.0054751309509583354
1681249678791349500,0.489349609375,0.011516722850501537,-0.014722585678100586,0.10201846063137054,0.12350241094827652,-0.38885194063186646,-0.9129848480224609,0.0038779377937316895,-0.01259148120880127,0.014989852905273438,0.9779851771180342,0.19840030608213693,0.06438090207467995,0.006110689929228125
1681249678806382300,0.50438232421875,0.0327640064060688,-0.005843074060976505,0.12090426683425903,0.12282074987888336,-0.38945677876472473,-0.912818968296051,0.0004244670271873474,-0.007546335458755493,0.005806028842926025,0.9779373402003507,0.19866721472995524,0.06420168953924157,0.006920396521735983
1681249678821415400,0.51941552734375,0.019331661984324455,-0.006562926806509495,0.11735507100820541,0.12214719504117966,-0.39015868306159973,-0.9126095771789551,0.011107787489891052,-0.006722360849380493,0.009563922882080078,0.9778774911742223,0.1989833774571447,0.06403763708652813,0.0077763550057232626
1681249678836449300,0.53444921875,-0.017604250460863113,-0.014589959755539894,0.12076178938150406,0.12134657800197601,-0.3904702365398407,-0.9125831723213196,0.017828822135925293,-0.017442941665649414,0.018402814865112305,0.9778636207962952,0.1990923225372673,0.06380182248375152,0.008620077086869304
1681249678851482400,0.549482421875,-0.05331122502684593,-0.01324559561908245,0.11237283051013947,0.12055163085460663,-0.3904551565647125,-0.9126949310302734,0.018455907702445984,-0.019990980625152588,0.017950057983398438,0.9778843704240711,0.19902767162722684,0.06356504985843117,0.009463267313169354
1681249678866514400,0.564514404296875,-0.06399891525506973,-0.017232881858944893,0.10856024920940399,0.11973916739225388,-0.38991987705230713,-0.9130306839942932,0.013912543654441833,-0.021289199590682983,0.018026411533355713,0.977961893849392,0.19868735742859986,0.06330872476250413,0.010287202544692294
1681249678881547500,0.579547607421875,-0.03639674186706543,-0.0012645674869418144,0.1069498360157013,0.11901165544986725,-0.38951143622398376,-0.913300096988678,0.0012886077165603638,-0.01904258131980896,0.013443529605865479,0.978022134480661,0.1984172566442951,0.0630915415595692,0.011083182564994427
1681249678896580400,0.594580322265625,-0.011046642437577248,0.016757842153310776,0.11237043142318726,0.11850918084383011,-0.3894408047199249,-0.9133955240249634,0.0008450448513031006,-0.009896904230117798,0.015034317970275879,0.9780365759307227,0.1983253724361056,0.06300220616801487,0.01191916475319716
1681249678911614500,0.609614501953125,-0.04529377445578575,0.013127953745424747,0.10607098788022995,0.11826783418655396,-0.3894273340702057,-0.9134325385093689,0.0025207102298736572,-0.013648778200149536,0.025111675262451172,0.9780356944649141,0.1982650378854471,0.06304515290551152,0.012743007056247094
1681249678926647600,0.6246474609375,-0.07763184607028961,0.010195814073085785,0.09286810457706451,0.11793077737092972,-0.38886091113090515,-0.9137173891067505,-0.00008717179298400879,-0.026498526334762573,0.03011143207550049,0.9780981110373068,0.19791341831809336,0.06302044118302524,0.013514938070479664
1681249678941680400,0.639680419921875,-0.09728523343801498,0.01131407544016838,0.08436516672372818,0.1177176982164383,-0.3880208432674408,-0.9141019582748413,-0.005290962755680084,-0.03081756830215454,0.03412759304046631,0.9781860659702721,0.19741885153395955,0.06304622449034086,0.014244287462748514
1681249678956713500,0.65471337890625,-0.10626780241727829,0.015225193463265896,0.07887452095746994,0.11749085038900375,-0.38684752583503723,-0.914628267288208,-0.007093533873558044,-0.028160959482192993,0.03993344306945801,0.9783107202776035,0.19675136880182872,0.06304571025277948,0.014906472623658379
1681249678971746600,0.66974658203125,-0.08233562856912613,0.03478557616472244,0.08680328726768494,0.11735481768846512,-0.3858219087123871,-0.91507887840271,-0.029372669756412506,-0.02442583441734314,0.043664634227752686,0.9784150931872282,0.19616069375726322,0.06309957011404836,0.015600281949625578
1681249678986779400,0.684779296875,-0.07485523819923401,0.042386509478092194,0.08494094014167786,0.11740979552268982,-0.3849716782569885,-0.9154298305511475,-0.03551588952541351,-0.021858125925064087,0.03949904441833496,0.9784928738974944,0.19566104557188208,0.06326014023256363,0.016327724769469407
1681249679001813500,0.6998134765625,-0.11987064778804779,0.036316629499197006,0.09157966822385788,0.11747624725103378,-0.38395288586616516,-0.9158490896224976,-0.042235180735588074,-0.03122347593307495,0.03817874193191528,0.978587214813199,0.1950703884360764,0.06342719682559184,0.017075473222397906
1681249679016846300,0.714846435546875,-0.16027851402759552,0.021222632378339767,0.09312509745359421,0.11732783913612366,-0.3822989761829376,-0.9165596961975098,-0.04278866946697235,-0.04404681921005249,0.043360233306884766,0.9787545520306774,0.1941397593970665,0.06348156200813052,0.017868313182566674
1681249679031879400,0.72987939453125,-0.17302878201007843,0.0010997867211699486,0.07558285444974899,0.11696173995733261,-0.38029569387435913,-0.9174394607543945,-0.05321054905653,-0.051939964294433594,0.037220895290374756,0.9789660463655255,0.19303019752808498,0.06340051898374013,0.01857784080318839
1681249679046912500,0.74491259765625,-0.17448770999908447,-0.01270151324570179,0.07400812953710556,0.11644091457128525,-0.37808752059936523,-0.9184178709983826,-0.06114308536052704,-0.04377216100692749,0.028128504753112793,0.9792037253291241,0.1918183516520539,0.06322022045048485,0.019210979439989756
1681249679061945300,0.7599453125,-0.20861297845840454,-0.04364771395921707,0.057612109929323196,0.1155870258808136,-0.3757774233818054,-0.9194731712341309,-0.08398608863353729,-0.05476453900337219,0.02652883529663086,0.9794618556873363,0.19055962281194846,0.06285244730689772,0.01977366362730071
1681249679076978400,0.774978515625,-0.25847959518432617,-0.06743507087230682,0.04137295112013817,0.1144612729549408,-0.3727025091648102,-0.9208645224571228,-0.09323631972074509,-0.06635385751724243,0.0329708456993103,0.9798086096222884,0.18890811872017063,0.06230138328474055,0.02018333272597723
1681249679092012300,0.79001220703125,-0.2876449227333069,-0.09302990883588791,0.024383051320910454,0.11299655586481094,-0.36925482749938965,-0.9224330186843872,-0.09953832626342773,-0.07550829648971558,0.03781998157501221,0.9802028545368282,0.18707126687809697,0.061545416220642954,0.020466608500268192
1681249679107045400,0.80504541015625,-0.2947333753108978,-0.10577207058668137,0.013272608630359173,0.11145302653312683,-0.36534038186073303,-0.9241778254508972,-0.11265849322080612,-0.0863502025604248,0.03863400220870972,0.980645199943456,0.18500081411170657,0.060710724679615156,0.020590007374503973
1681249679122078500,0.820078369140625,-0.2810690701007843,-0.10381624102592468,0.020848236978054047,0.10975603014230728,-0.3615594208240509,-0.9258663058280945,-0.14474445581436157,-0.08453124761581421,0.04361838102340698,0.981072830209093,0.18300437840867842,0.05980172927702157,0.0207199189835118
1681249679137111600,0.835111572265625,-0.2502962350845337,-0.11231385916471481,0.011649411171674728,0.10807850956916809,-0.3579387664794922,-0.9274690747261047,-0.14926199615001678,-0.08137699961662292,0.047784626483917236,0.9814789747193475,0.18109691730771463,0.058901353001429166,0.020824115935698464
1681249679152144400,0.850144287109375,-0.2194906622171402,-0.1002713069319725,0.01859413832426071,0.1063915565609932,-0.3548702001571655,-0.928842306137085,-0.16193357110023499,-0.0822940468788147,0.053765952587127686,0.981827114697349,0.17948468372651805,0.05800089198996051,0.020899111991247613
1681249679167178500,0.865178466796875,-0.20958231389522552,-0.08939123153686523,0.020528657361865044,0.10490746796131134,-0.35198700428009033,-0.9301072955131531,-0.16707178950309753,-0.07361111044883728,0.044120967388153076,0.9821466346920272,0.17796833498309844,0.05721559508427105,0.021017050460109158
1681249679182211300,0.88021142578125,-0.24617063999176025,-0.08272188156843185,0.02942015416920185,0.10345479846000671,-0.3490646779537201,-0.9313704967498779,-0.1765596866607666,-0.06721028685569763,0.03656458854675293,0.9824642150439369,0.1764295043768949,0.05645702188667426,0.0211960168376029
1681249679197244400,0.895244384765625,-0.2968127727508545,-0.09898793697357178,0.022173427045345306,0.10194294899702072,-0.34541574120521545,-0.9328963160514832,-0.17828269302845,-0.07607772946357727,0.02505946159362793,0.9828475155061837,0.17450878889456164,0.05566427922734763,0.02142027034215518
1681249679212277500,0.910277587890625,-0.3308616280555725,-0.12296384572982788,0.0026689660735428333,0.10032845288515091,-0.3410130739212036,-0.9346894025802612,-0.1587848961353302,-0.0850580632686615,0.01458442211151123,0.983302078621537,0.17220492611611166,0.05477921077478397,0.02148769256493583
1681249679227310300,0.925310302734375,-0.37955039739608765,-0.15443360805511475,-0.0009060611482709646,0.09840717911720276,-0.33601999282836914,-0.9366998076438904,-0.14042989909648895,-0.07921740412712097,0.01172727346420288,0.983813653561733,0.16960251314355973,0.05371283833437399,0.02146097012293251
1681249679242343400,0.940343505859375,-0.4161939024925232,-0.1808319389820099,-0.0271613672375679,0.09609859436750412,-0.3303247094154358,-0.9389625191688538,-0.12399168312549591,-0.08274590969085693,0.02309948205947876,0.9843921634032246,0.16664726878440864,0.05241582060729,0.021293043425514226
1681249679257377300,0.955377197265625,-0.388822466135025,-0.19501592218875885,-0.06969364732503891,0.0936458483338356,-0.32458680868148804,-0.9412087202072144,-0.1203487440943718,-0.09065055847167969,0.030869364738464355,0.9849713683868201,0.16368852719932425,0.05100688777421767,0.020877465866161776
1681249679272410400,0.970410400390625,-0.43368226289749146,-0.21382929384708405,-0.12824271619319916,0.09127586334943771,-0.3186597526073456,-0.9434642195701599,-0.1167275458574295,-0.08307358622550964,0.023420274257659912,0.9855604132794528,0.1606547372215385,0.0495778148894221,0.02006788330475682
1681249679287443500,0.985443359375,-0.5214922428131104,-0.23666644096374512,-0.19051328301429749,0.08881514519453049,-0.3116951882839203,-0.9460221529006958,-0.10141892731189728,-0.08840543031692505,0.025779902935028076,0.9862345255081001,0.1571088616806487,0.04801789366845233,0.01877253966880433
1681249679302476300,1.000476318359375,-0.5909097790718079,-0.24222950637340546,-0.2318767011165619,0.08636713027954102,-0.3034404516220093,-0.9489281177520752,-0.11578609049320221,-0.13129767775535583,0.045226335525512695,0.9870009904536223,0.15291345438325513,0.04640480153145692,0.01712092900838083
1681249679317509400,1.01550927734375,-0.5877829194068909,-0.22859759628772736,-0.26553982496261597,0.08412565290927887,-0.294548362493515,-0.9519265294075012,-0.12800994515419006,-0.1435314416885376,0.06175929307937622,0.9877915999517023,0.1484040238460976,0.04486620924557656,0.0151993118439718
1681249679332542500,1.03054248046875,-0.4846634864807129,-0.20291246473789215,-0.27309441566467285,0.08222043514251709,-0.2863925099372864,-0.9545779824256897,-0.14446106553077698,-0.13183560967445374,0.0794864296913147,0.9884919915656856,0.1442851735604586,0.043506294556039084,0.013136523138663125
1681249679347576300,1.045576416015625,-0.27289897203445435,-0.16238555312156677,-0.2606121897697449,0.08064877241849899,-0.28056201338768005,-0.9564417004585266,-0.14487303793430328,-0.12284982204437256,0.08333379030227661,0.9889887014776578,0.14136968926251595,0.04235283335694773,0.011049651968696754
1681249679362609400,1.060609375,-0.09902976453304291,-0.08823142200708389,-0.22252367436885834,0.07989546656608582,-0.27770447731018066,-0.9573384523391724,-0.149261936545372,-0.07797786593437195,0.09262287616729736,0.9892346134701451,0.1399768792688329,0.04168020976204243,0.009171324016850935
1681249679377642500,1.075642578125,-0.12521183490753174,-0.05951988697052002,-0.19913393259048462,0.07979285717010498,-0.2760308086872101,-0.9578309059143066,-0.14760294556617737,-0.07499757409095764,0.09294748306274414,0.9893726329119403,0.13918132010750264,0.04138955895336392,0.007567606425209762
1681249679392675300,1.09067529296875,-0.2932088375091553,-0.05716032534837723,-0.19318389892578125,0.07978800684213638,-0.2728581130504608,-0.9587399959564209,-0.11988813430070877,-0.1378931701183319,0.1050870418548584,0.989612211148173,0.1376058113469869,0.0411662115445652,0.006137695138236448
1681249679407708400,1.10570849609375,-0.4425077736377716,-0.03952912986278534,-0.1607023924589157,0.07973729819059372,-0.26733797788619995,-0.9602980613708496,-0.11553443968296051,-0.17155054211616516,0.11793661117553711,0.990012858197605,0.13481624995214359,0.040933408189455366,0.004865524431183652
1681249679422742300,1.1207421875,-0.5899381041526794,-0.0035828491672873497,-0.12134645134210587,0.08001391589641571,-0.25969940423965454,-0.9623689651489258,-0.12476796656847,-0.15590420365333557,0.13097858428955078,0.99053965722803,0.13092628186872077,0.04091251302570813,0.0039602960654802535
1681249679437775400,1.135775390625,-0.6547349095344543,-0.0012645674869418144,-0.1126357838511467,0.08044017106294632,-0.2502082288265228,-0.9648446440696716,-0.1256062090396881,-0.1603904664516449,0.12953275442123413,0.9911666689467692,0.12608181902875062,0.041000546199163566,0.0033176083900216943
1681249679452808400,1.150808349609375,-0.4455804228782654,0.044921040534973145,-0.09998790174722672,0.08095726370811462,-0.2419680655002594,-0.9669009447097778,-0.11280238628387451,-0.15057948231697083,0.11169159412384033,0.9916870922711236,0.12188670303341988,0.041148190791613165,0.0026868982609319827
1681249679467841300,1.16584130859375,-0.20217910408973694,0.1705886870622635,-0.04274379089474678,0.08280598372220993,-0.2372732162475586,-0.9679073095321655,-0.10487021505832672,-0.09298798441886902,0.09200704097747803,0.9919416675803364,0.1195010176909854,0.042021919458681924,0.002345610314553149
1681249679482874400,1.180874267578125,-0.17370735108852386,0.2417997419834137,-0.012391742318868637,0.08596853911876678,-0.23486235737800598,-0.968219518661499,-0.10565240681171417,-0.04420559108257294,0.08746695518493652,0.9920201833122314,0.11827037722998904,0.04361589947501828,0.0023977417538556815
1681249679497907500,1.195907470703125,-0.3605605959892273,0.26498711109161377,0.010680020786821842,0.08968769758939743,-0.23108509182929993,-0.9687908887863159,-0.09829367697238922,-0.09778754413127899,0.09794127941131592,0.9921634182313582,0.11633219550078183,0.04551233269856464,0.002680456348621897
1681249679512941300,1.21094140625,-0.6023743152618408,0.31711047887802124,0.07095188647508621,0.09372399747371674,-0.2241879552602768,-0.9700286388397217,-0.07208705693483353,-0.16800867021083832,0.14339900016784668,0.9924731688582404,0.11278237249005693,0.047600554483715175,0.003371748764751886
1681249679527974400,1.225974365234375,-0.9531823396682739,0.40419134497642517,0.154776468873024,0.09860293567180634,-0.21313636004924774,-0.9720341563224792,-0.06889409571886063,-0.18182207643985748,0.16415756940841675,0.9929724323598854,0.10708085174739604,0.05016597576196967,0.004781098952243259
1681249679543007500,1.241007568359375,-1.3376511335372925,0.4950732886791229,0.26060357689857483,0.10458140075206757,-0.19664397835731506,-0.9748814702033997,-0.07487256079912186,-0.20859889686107635,0.20033007860183716,0.9936750987543097,0.0985663377641173,0.05332863509947381,0.007108274064172205
1681249679558040300,1.256040283203125,-1.6152420043945312,0.5920594930648804,0.35658469796180725,0.11169356852769852,-0.17529988288879395,-0.978158712387085,-0.0635063424706459,-0.23397129774093628,0.20992451906204224,0.9944701941681301,0.08753966517243426,0.05707400712960345,0.010413718031074371
1681249679573073400,1.271073486328125,-1.71544349193573,0.7067317366600037,0.4733680486679077,0.12015493959188461,-0.15140339732170105,-0.9811421036720276,-0.0269390270113945,-0.22104834020137787,0.2405872941017151,0.9951665904659064,0.07516465205587683,0.06147544200300477,0.014645656723303207
1681249679588107300,1.286107177734375,-1.830588459968567,0.87347012758255,0.6377841234207153,0.1306295394897461,-0.12640750408172607,-0.9833397269248962,-0.019469276070594788,-0.20858390629291534,0.25387805700302124,0.9956248879564087,0.06213693323851316,0.06685151981586679,0.020024626920726266
1681249679603140400,1.301140380859375,-2.173110008239746,1.0402029752731323,0.8463937640190125,0.14356082677841187,-0.09866688400506973,-0.984710693359375,-0.004156559705734253,-0.1676599681377411,0.32177734375,0.9958045167364876,0.047552344408803064,0.07337187533277649,0.026994044962194517
1681249679618173400,1.31617333984375,-2.6937785148620605,1.1856927871704102,1.1302367448806763,0.1588638871908188,-0.06487474590539932,-0.9851667284965515,-0.004582315683364868,-0.1989191472530365,0.3674757480621338,0.9956315070968063,0.029650150246696264,0.08085475677100606,0.03607392986370208
1681249679633206300,1.331206298828125,-3.2237155437469482,1.344252109527588,1.3819003105163574,0.17665667831897736,-0.024461111053824425,-0.9839685559272766,0.026773467659950256,-0.23634207248687744,0.4297540783882141,0.9948462069156655,0.008027914357982401,0.08916998683411213,0.04759466633183839
1681249679648239400,1.3462392578125,-3.865504503250122,1.476139783859253,1.6629054546356201,0.19757382571697235,0.023616919293999672,-0.9800034761428833,0.05599670112133026,-0.25695428252220154,0.4059373140335083,0.9930947502387092,-0.017967740516104492,0.09836371133191235,0.061356052934502685
1681249679663272400,1.3612724609375,-4.527938365936279,1.567966341972351,1.9818447828292847,0.2213258445262909,0.07940337806940079,-0.9719619154930115,0.1514921337366104,-0.2051662802696228,0.4154128432273865,0.9899129047629681,-0.04859236355093913,0.10797139674596405,0.07780317649951664
1681249679678306300,1.376306396484375,-5.281242370605469,1.6606595516204834,2.3265132904052734,0.24834224581718445,0.14290522038936615,-0.9580731987953186,0.16291262209415436,-0.24109548330307007,0.4246411919593811,0.9846847058961115,-0.08418276708777073,0.11779927154761127,0.09712179425096128
1681249679693339400,1.39133935546875,-6.183377742767334,1.7426154613494873,2.696322441101074,0.2793959379196167,0.21443776786327362,-0.9359243512153625,0.1774826943874359,-0.23517440259456635,0.50396329164505,0.9765560572130905,-0.12542940985270065,0.12769220207570942,0.1195841914723127
1681249679708372500,1.40637255859375,-7.1733832359313965,1.7409988641738892,3.085348129272461,0.31472349166870117,0.29386603832244873,-0.9025474190711975,0.16554689407348633,-0.27117618918418884,0.5409446954727173,0.964439380630172,-0.17301284954601012,0.13708695066372803,0.14536310343186326
1681249679723405300,1.4214052734375,-8.37508487701416,1.6801542043685913,3.3314592838287354,0.35364651679992676,0.3800032138824463,-0.8547114729881287,0.21317172050476074,-0.2413770854473114,0.6312465071678162,0.9471110461719274,-0.22725968431044954,0.144904432623206,0.17417373581301335
1681249679738438400,1.4364384765625,-9.010884284973145,1.21880042552948,3.6303210258483887,0.39427945017814636,0.46973952651023865,-0.7898661494255066,0.22170260548591614,-0.23322826623916626,0.6091563105583191,0.9234233500601509,-0.28761109804537743,0.14948839549841855,0.20548111598805682
1681249679753471500,1.451471435546875,-8.37680435180664,0.6120443940162659,4.00811243057251,0.4338051676750183,0.5450239777565002,-0.7174692153930664,0.3480857014656067,-0.03890514373779297,0.5478372573852539,0.8952237078238237,-0.3445583775375311,0.15014969317742305,0.23939343585514583
1681249679768505300,1.46650537109375,-7.428946018218994,0.5087270140647888,4.239149570465088,0.47482171654701233,0.597916305065155,-0.645786702632904,0.40608343482017517,0.12033021450042725,0.44495058059692383,0.8646780264199619,-0.3932681511508262,0.14982257052613315,0.2742723248162842
1681249679783538400,1.481538330078125,-6.572083473205566,0.6145855784416199,4.313888072967529,0.5197820067405701,0.630146324634552,-0.5768381357192993,0.32344913482666016,0.3145406246185303,0.2741801142692566,0.8329127300468048,-0.43428083551095836,0.15159510237628251,0.3076938048690246
1681249679798571300,1.4965712890625,-6.258044242858887,0.4596303701400757,4.287867546081543,0.5657241344451904,0.6470128893852234,-0.5112048387527466,0.2245132327079773,0.18369078636169434,0.15826910734176636,0.8001787518115737,-0.46971535124263736,0.1541592710732707,0.33958247930854557
1681249679813604400,1.511604248046875,-6.354613780975342,0.23647582530975342,4.248666763305664,0.6099405884742737,0.6547151207923889,-0.44645339250564575,0.23754781484603882,-0.026709139347076416,0.23368483781814575,0.7653793883987865,-0.5027556252313332,0.15495188875708146,0.37070360285809534
1681249679828637400,1.526637451171875,-6.474632740020752,0.004772019572556019,4.326920509338379,0.6530032157897949,0.6539722084999084,-0.38197779655456543,0.2754634618759155,-0.07931095361709595,0.2535751760005951,0.7277845746907611,-0.5341809578864859,0.1538239302311864,0.40164467167684575
1681249679843671300,1.54167138671875,-6.642528057098389,-0.26638755202293396,4.514951705932617,0.6954742670059204,0.6437438130378723,-0.3192325532436371,0.4285491704940796,-0.14615470170974731,0.3494144678115845,0.68702419111166,-0.5635915709708336,0.15082529431098154,0.43314437089082036
1681249679858706200,1.5567060546875,-6.8013715744018555,-0.47622227668762207,4.657433986663818,0.7377449870109558,0.6233980059623718,-0.2590506970882416,0.4938834309577942,-0.13766497373580933,0.38682782649993896,0.6426800567568806,-0.5908461169897624,0.14620370883184763,0.46528238740213046
1681249679873739300,1.5717392578125,-6.767651557922363,-0.6640129685401917,4.593197345733643,0.7782598733901978,0.5941544771194458,-0.20320366322994232,0.6297600269317627,-0.10778069496154785,0.4893822968006134,0.5956816447234304,-0.6154662417100644,0.13999811362651773,0.4967545245532135
1681249679888772400,1.5867724609375,-6.477172374725342,-0.9232341647148132,4.494090557098389,0.8154941201210022,0.5576049089431763,-0.1550683081150055,0.6771816611289978,-0.03164970874786377,0.4723443388938904,0.5477488304250372,-0.6363431064249883,0.1324133477832575,0.5267878058392896
1681249679903805200,1.60180517578125,-5.788229465484619,-1.1979637145996094,4.4421563148498535,0.8493726849555969,0.514297604560852,-0.11859176307916641,0.8663865327835083,0.21994000673294067,0.3979954719543457,0.500713106111236,-0.6520194832050132,0.12479868285627752,0.5555018019459501
1681249679918838300,1.61683837890625,-4.547916412353516,-1.339223861694336,4.4195098876953125,0.8799610137939453,0.46507248282432556,-0.09683077037334442,0.9258098602294922,0.38897719979286194,0.3064255118370056,0.4571967001944555,-0.6612392464329461,0.11978009877477382,0.5825689444757761
1681249679933872000,1.6318720703125,-2.8936562538146973,-1.2851412296295166,4.298061370849609,0.9069626927375793,0.4115042984485626,-0.08990394324064255,0.9037519693374634,0.62703937292099,0.10185158997774124,0.4202379148780545,-0.6637132557050189,0.12055182977668837,0.6069200744383451
1681249679948905200,1.6469052734375,-1.3593764305114746,-1.0498812198638916,4.033896446228027,0.9294737577438354,0.3567183315753937,-0.09397059679031372,0.7908630967140198,0.7173172831535339,0.03606355935335159,0.391488711546675,-0.6607769566284879,0.12801763634813473,0.6274725793508047
1681249679963938300,1.661938232421875,-0.41187426447868347,-0.6831867098808289,3.611464023590088,0.9471825957298279,0.3040534555912018,-0.10196397453546524,0.4902563691139221,0.6710594892501831,-0.01595592498779297,0.36994015660042934,-0.6552107193640111,0.14041696862577865,0.6435264469370607
1681249679978971100,1.67697119140625,0.4191496968269348,-0.15539368987083435,3.1007344722747803,0.9607462286949158,0.2556345462799072,-0.10778558254241943,0.33461815118789673,0.6067006587982178,0.002118527889251709,0.3539762646759072,-0.6494585800851754,0.15591908556108547,0.6546706130701239
1681249679994004200,1.692004150390625,1.1767750978469849,0.20352639257907867,2.4765708446502686,0.9706800580024719,0.21359528601169586,-0.11026054620742798,0.13587206602096558,0.49413782358169556,0.016159653663635254,0.3440180830187595,-0.6439911201499424,0.17362362270693735,0.6608947717364978
1681249680009038300,1.707038330078125,1.228799819946289,0.5709168910980225,1.9594249725341797,0.9777235388755798,0.17968831956386566,-0.10848507285118103,0.09294003248214722,0.49438393115997314,-0.013905659317970276,0.33860856417911206,-0.6396908423019788,0.1911886235695237,0.6630134943978441
1681249680024071200,1.7220712890625,1.9200249910354614,0.7943649291992188,1.837018609046936,0.98359215259552,0.14899921417236328,-0.1017146110534668,0.08455359935760498,0.4678678512573242,-0.07220500707626343,0.3351343085947524,-0.6365480393794689,0.20964085267560464,0.662225305849792
1681249680039104300,1.737104248046875,2.384495973587036,0.7501468658447266,1.296875238418579,0.9879295825958252,0.12249685823917389,-0.09481369704008102,0.12921208143234253,0.4081580340862274,-0.11073744297027588,0.33677501485049427,-0.6321449072590638,0.2301868108840058,0.658778755942487
1681249680054137300,1.752137451171875,2.384364604949951,0.8979482650756836,1.2485507726669312,0.9911060333251953,0.1010415330529213,-0.08660046756267548,0.12801939249038696,0.5072043538093567,-0.10797960311174393,0.34044589161507016,-0.6279590329545933,0.249734295606708,0.6537560456521657
1681249680069170200,1.767170166015625,2.3653242588043213,0.9187726378440857,1.231815218925476,0.9939403533935547,0.07921604812145233,-0.07620786875486374,0.12620747089385986,0.4990615248680115,-0.08996034413576126,0.3437937491564795,-0.6237751345763313,0.26981594932593606,0.6480045629377144
1681249680084203300,1.782203369140625,2.005125045776367,0.9121959209442139,1.150741696357727,0.9961247444152832,0.05941855162382126,-0.06484376639127731,0.10052430629730225,0.40225136280059814,-0.029882781207561493,0.34642210660736666,-0.6200812540361429,0.2882314272206186,0.6421942948932616
1681249680099237000,1.797237060546875,1.7211229801177979,0.9160196781158447,1.2194507122039795,0.9978166818618774,0.04006415233016014,-0.05250513553619385,0.08484017848968506,0.46931999921798706,-0.023636162281036377,0.34732640788304703,-0.6170092869401642,0.3050360189900576,0.6368806654781616
1681249680114270200,1.812270263671875,1.533550500869751,0.8880056142807007,1.2473750114440918,0.9990052580833435,0.02039644680917263,-0.039653003215789795,0.03831768035888672,0.5132644176483154,-0.03934174403548241,0.34681566919419365,-0.6141867449313676,0.3208553273442865,0.6320959836401574
1681249680129303300,1.82730322265625,1.39617919921875,0.8141995668411255,1.2646949291229248,0.999633252620697,0.0008331559947691858,-0.027067765593528748,0.0040746331214904785,0.5303405523300171,-0.08659493923187256,0.34551395016772934,-0.6113272011316041,0.33577547643456723,0.6278168386599793
1681249680144336100,1.842336181640625,1.2539080381393433,0.7400063276290894,1.2667077779769897,0.9997101426124573,-0.018664073199033737,-0.01521028857678175,-0.057693541049957275,0.5165430903434753,-0.1552761197090149,0.3436422619303659,-0.6082649080543979,0.3498694858246637,0.624111488341651
1681249680159369200,1.857369140625,1.0436211824417114,0.6544943451881409,1.2140955924987793,0.9992872476577759,-0.03750767931342125,-0.00426420196890831,-0.09918653964996338,0.5039840936660767,-0.172768235206604,0.34121155712815066,-0.6052314117020091,0.3627159182791977,0.6210529519403464
1681249680174403000,1.872403076171875,0.8230964541435242,0.6076866388320923,1.128718376159668,0.9984676837921143,-0.05503305420279503,0.005786741152405739,-0.1735929250717163,0.4515479505062103,-0.19287467002868652,0.338270166200721,-0.6025340747778996,0.37395997024290867,0.6186112058203662
1681249680189436200,1.887436279296875,0.6947600841522217,0.572297990322113,1.0720386505126953,0.9973342418670654,-0.07133526355028152,0.015344910323619843,-0.18979346752166748,0.4624332785606384,-0.22165894508361816,0.33489258463346494,-0.6002605936696668,0.3838745561769607,0.6165828118834649
1681249680204469200,1.90246923828125,0.6697440147399902,0.5085036158561707,1.0159474611282349,0.9959431290626526,-0.08665402978658676,0.024255875498056412,-0.1634083390235901,0.52314692735672,-0.2683049440383911,0.33156513111390634,-0.5980461604538237,0.3930250984832368,0.6147654967784576
1681249680219502300,1.91750244140625,0.7435804605484009,0.4247136414051056,0.9493454694747925,0.9943608641624451,-0.10103458911180496,0.032226722687482834,-0.13225454092025757,0.5626129508018494,-0.29396069049835205,0.32877033129846395,-0.5955408197995388,0.40180155881134577,0.6130226283170576
1681249680234535200,1.93253515625,0.9858599305152893,0.3295924663543701,0.8605101704597473,0.9926969408988953,-0.11407662183046341,0.039235908538103104,-0.06743448972702026,0.6225147247314453,-0.36214232444763184,0.3272599335522806,-0.5924182773044425,0.41068058056608964,0.6109689341123612
1681249680249568300,1.947568359375,1.377772569656372,0.23330266773700714,0.7589235901832581,0.9910617470741272,-0.12538492679595947,0.0455530546605587,-0.03367966413497925,0.6666752099990845,-0.40669798851013184,0.32787778910576243,-0.5882987834613648,0.4203344719358074,0.6080457048495397
1681249680264602000,1.96260205078125,1.8508511781692505,0.12783004343509674,0.6225606799125671,0.9895758628845215,-0.1345163881778717,0.05142917111515999,0.027529239654541016,0.7553355097770691,-0.487540602684021,0.3312420302961819,-0.5829190208222719,0.4311844153051214,0.6037914700630549
1681249680279635200,1.97763525390625,2.2602925300598145,-0.01529303565621376,0.45373228192329407,0.9884132146835327,-0.1408500075340271,0.05657398700714111,0.07144701480865479,0.7838096022605896,-0.5181523561477661,0.33760522715633584,-0.5762277461103609,0.4429995235166264,0.5981101312590638
1681249680294668300,1.992668212890625,2.507106304168701,-0.19145262241363525,0.25272515416145325,0.9877499341964722,-0.14396977424621582,0.06018682196736336,0.1977967619895935,0.8126252293586731,-0.5162720680236816,0.34670779768330684,-0.5684056284718193,0.45498181601033333,0.5913545135770891
1681249680309701000,2.007701171875,2.5023789405822754,-0.4188908338546753,0.02501342073082924,0.987722635269165,-0.14374402165412903,0.06116938963532448,0.27074605226516724,0.8024354577064514,-0.4910399913787842,0.35784151165606704,-0.5599023663100259,0.4659335094645043,0.5842643114449954
1681249680324734200,2.022734130859375,2.235663414001465,-0.6943511962890625,-0.23200400173664093,0.9884431958198547,-0.14005213975906372,0.05801206827163696,0.384924054145813,0.748282790184021,-0.4087352752685547,0.3702354657241834,-0.5513100127481012,0.4744083725237368,0.5778578257903705
1681249680339768000,2.03776806640625,1.7470340728759766,-0.9323318004608154,-0.5291358232498169,0.9899066090583801,-0.13267642259597778,0.049817830324172974,0.3928905725479126,0.6995099186897278,-0.3538949489593506,0.38312384076424727,-0.5434391269850625,0.47914802644499077,0.5729809623442524
1681249680354801200,2.05280126953125,1.1321524381637573,-1.0872880220413208,-0.8577715158462524,0.9919087290763855,-0.12132353335618973,0.03738483414053917,0.2526285648345947,0.5787820816040039,-0.24664390087127686,0.3956471101901728,-0.5373636257150324,0.47951303487465585,0.5698867626289822
1681249680369834200,2.067834228515625,0.5773970484733582,-1.1674467325210571,-1.220855712890625,0.9941886067390442,-0.10540588200092316,0.021870756521821022,0.13250499963760376,0.49429139494895935,-0.18738281726837158,0.40758699248426866,-0.5336834249208998,0.4755180127430647,0.5682757628947283
1681249680384867000,2.0828671875,0.20047998428344727,-1.1707546710968018,-1.5839166641235352,0.9964333772659302,-0.084243044257164,0.004868422634899616,-0.048526883125305176,0.3527367115020752,-0.14312827587127686,0.41926347993064444,-0.5325092545476372,0.4678334159317565,0.5672600453533888
1681249680399900200,2.097900146484375,-0.07097042351961136,-1.162808895111084,-1.9162895679473877,0.9982427358627319,-0.057910773903131485,-0.012565349228680134,-0.08543145656585693,0.3026922941207886,-0.12783074378967285,0.4310395091302876,-0.5334565354792978,0.4573198555096969,0.5661163139994544
1681249680414934300,2.112934326171875,-0.19585536420345306,-1.1331846714019775,-2.161611795425415,0.999184250831604,-0.027034686878323555,-0.029994657263159752,-0.08701401948928833,0.2867850661277771,-0.10895179957151413,0.4430896462351508,-0.5359915122251744,0.44465241486659607,0.5645075221289848
1681249680429967000,2.127967041015625,-0.15612533688545227,-1.0973228216171265,-2.2972583770751953,0.998881995677948,0.006708852481096983,-0.04679255560040474,-0.07519131898880005,0.269948273897171,-0.09908145666122437,0.45549983420695667,-0.5392584508346647,0.43104993322979734,0.5620641367785764
1681249680445000200,2.143000244140625,0.03851765766739845,-1.0672589540481567,-2.3537938594818115,0.9971292614936829,0.04186349734663963,-0.0630907490849495,-0.03326219320297241,0.29154106974601746,-0.08455323427915573,0.4685331131864034,-0.5423810570767988,0.41746546413321883,0.558589286245883
1681249680460033300,2.158033203125,0.42027968168258667,-1.0473592281341553,-2.348262310028076,0.9938910007476807,0.0769077017903328,-0.07915589958429337,0.003163933753967285,0.2920498251914978,-0.07550715655088425,0.48255469374140725,-0.5444542424860256,0.40495879956513114,0.5538220151811138
1681249680475066000,2.173066162109375,0.9599689841270447,-1.0420297384262085,-2.273890733718872,0.989235520362854,0.11066100746393204,-0.09574557095766068,0.107108473777771,0.33163022994995117,-0.08330100774765015,0.4981038923138498,-0.5445929350686987,0.39439288678369666,0.5475082431169547
1681249680490099200,2.18809912109375,1.5917227268218994,-1.0923919677734375,-2.12164306640625,0.9833871126174927,0.1413143277168274,-0.11393041163682938,0.18970859050750732,0.3434116244316101,-0.07787251472473145,0.5154183144412952,-0.5418652197323248,0.3865447946876085,0.5397307049647275
1681249680505133000,2.203133056640625,2.225895404815674,-1.198011875152588,-1.9326987266540527,0.976520836353302,0.16766411066055298,-0.13526266813278198,0.3671224117279053,0.3869471549987793,-0.06877787411212921,0.5346497690571324,-0.5355664168216973,0.38149348282163925,0.5308305740249311
1681249680520166100,2.218166259765625,2.6960368156433105,-1.3146471977233887,-1.7356735467910767,0.9688059091567993,0.1889631152153015,-0.16033759713172913,0.4346059560775757,0.38035762310028076,-0.032411396503448486,0.5554124848548612,-0.5256469032373983,0.3788489624530974,0.5212348904864293
1681249680535199200,2.23319921875,2.9620683193206787,-1.4553028345108032,-1.575708270072937,0.960228681564331,0.20550796389579773,-0.1890169233083725,0.48166584968566895,0.34487655758857727,0.05129110813140869,0.5768849389023357,-0.5128492926392297,0.377461443501155,0.5115782199864696
1681249680550232000,2.248232177734375,3.045405149459839,-1.516309142112732,-1.4387168884277344,0.9508524537086487,0.21779999136924744,-0.22009766101837158,0.46153169870376587,0.28702181577682495,0.11949649453163147,0.5983364102783977,-0.4980600770996514,0.3766793426736493,0.5020383665966752
1681249680565265200,2.26326513671875,2.915933132171631,-1.6063413619995117,-1.3649353981018066,0.9406138062477112,0.2270433008670807,-0.25238263607025146,0.3917073607444763,0.1766127347946167,0.22917401790618896,0.6190154592007683,-0.48246423779937825,0.3755488545165978,0.49296162065435445
1681249680580299300,2.27829931640625,2.571943998336792,-1.684949517250061,-1.351019263267517,0.9292513132095337,0.23496264219284058,-0.2851047217845917,0.3742612600326538,0.11988051235675812,0.29915809631347656,0.638478672884715,-0.46719267827601657,0.37306653055900796,0.48466217628333524
1681249680595332000,2.29333203125,2.078796625137329,-1.7479170560836792,-1.381118893623352,0.9165474772453308,0.243334099650383,-0.3173786401748657,0.3321250081062317,0.037107184529304504,0.3707691431045532,0.656296014553361,-0.45340866893014986,0.3684172379394066,0.4774566238184298
1681249680610365200,2.308365234375,1.4746657609939575,-1.7581913471221924,-1.451513648033142,0.9024726748466492,0.2537779211997986,-0.34805136919021606,0.29982829093933105,-0.008584439754486084,0.41123804450035095,0.6721549017794822,-0.4421334083173695,0.3612372691057966,0.4714164029120333
1681249680625398300,2.323398193359375,0.7958395481109619,-1.7374465465545654,-1.5397220849990845,0.8870890140533447,0.26771122217178345,-0.37603700160980225,0.20994162559509277,-0.08707761764526367,0.44708192348480225,0.6858586910529078,-0.43416963142295334,0.3513946950009759,0.466493694033262
1681249680640431000,2.33843115234375,0.1620652675628662,-1.6762237548828125,-1.6227331161499023,0.8705340027809143,0.2858717739582062,-0.40055936574935913,0.18377196788787842,-0.12754660844802856,0.4717874228954315,0.6973464023750426,-0.4298641483365392,0.3390237984643773,0.4625879587067602
1681249680655465200,2.35346533203125,-0.4087238013744354,-1.5992727279663086,-1.6902668476104736,0.8530068397521973,0.30816650390625,-0.42120373249053955,0.15459191799163818,-0.1587982177734375,0.4896852374076843,0.7067739589834771,-0.42900095072091265,0.3245863792193716,0.45942609740595547
1681249680670498000,2.368498046875,-0.863156259059906,-1.4943790435791016,-1.7343599796295166,0.834729015827179,0.3341066837310791,-0.43772152066230774,0.15727531909942627,-0.1699984073638916,0.5093158483505249,0.7142733671654818,-0.4312066686209283,0.3085450409509283,0.4568088333941978
1681249680685531100,2.38353125,-1.1866098642349243,-1.3620023727416992,-1.747315526008606,0.8160581588745117,0.362662672996521,-0.45002785325050354,0.13738739490509033,-0.17929774522781372,0.5190280675888062,0.720097830746854,-0.43582869878309033,0.2916151856004045,0.4543932358190099
1681249680700564200,2.398564208984375,-1.3677698373794556,-1.2162294387817383,-1.7308406829833984,0.7973530888557434,0.3926100432872772,-0.45835080742836,0.13282263278961182,-0.19786208868026733,0.5272290110588074,0.7245219902927358,-0.44214646520916684,0.27446512564686126,0.45193290887830434
1681249680715597000,2.41359716796875,-1.3970798254013062,-1.0629136562347412,-1.6712132692337036,0.7789942026138306,0.42247888445854187,-0.4633353650569916,0.11933648586273193,-0.18892782926559448,0.5358299016952515,0.7279144005342889,-0.44930004593525497,0.25780184199889794,0.4492308064834277
1681249680730630100,2.428630126953125,-1.3054622411727905,-0.911072313785553,-1.5653760433197021,0.7614824771881104,0.45073017477989197,-0.46581828594207764,0.12700623273849487,-0.19648823142051697,0.5384196043014526,0.7305922290925373,-0.4564794141618202,0.24231675286047302,0.44625564717991845
1681249680745664000,2.4436640625,-1.12871515750885,-0.7771347761154175,-1.4343551397323608,0.7450889348983765,0.4763180911540985,-0.46686574816703796,0.13741838932037354,-0.189620703458786,0.5417559146881104,0.732885949010553,-0.463037201842532,0.22839369409572405,0.4430700951021881
1681249680760697000,2.458697021484375,-0.8954482078552246,-0.6313061714172363,-1.2668622732162476,0.7302139401435852,0.4984731674194336,-0.4672388434410095,0.1434280276298523,-0.2039022147655487,0.543975293636322,0.7350062636554022,-0.46856498903473226,0.2163964701071547,0.4397558679505705
1681249680775730200,2.473730224609375,-0.6349601745605469,-0.4889644384384155,-1.0706597566604614,0.7173120975494385,0.5166327953338623,-0.4674975574016571,0.14462637901306152,-0.21432560682296753,0.5372302532196045,0.7370426034755765,-0.47282841811335,0.20660227948371387,0.4364825916632212
1681249680790763300,2.48876318359375,-0.360466331243515,-0.31936368346214294,-0.8564023375511169,0.7068610191345215,0.5304356217384338,-0.4679589569568634,0.15739679336547852,-0.22533607482910156,0.535952091217041,0.7390482008985267,-0.4757160625365256,0.19928557928169274,0.43334436367725715
1681249680805796000,2.503796142578125,-0.1453607678413391,-0.16513153910636902,-0.6164757609367371,0.6992331147193909,0.5399869680404663,-0.4684946537017822,0.21023648977279663,-0.2327970266342163,0.5220378041267395,0.7409161118172202,-0.47740911123271634,0.19450761027000224,0.4304541574701473
1681249680820830200,2.518830322265625,-0.016208115965127945,-0.0672832652926445,-0.3753534257411957,0.6943773031234741,0.5456863045692444,-0.4691125154495239,0.2663770914077759,-0.23904567956924438,0.5172540545463562,0.7424181748302048,-0.47816146895303463,0.19184720868547675,0.42821891524925143
1681249680835863000,2.533863037109375,0.01890086941421032,0.02605094201862812,-0.17872320115566254,0.6919479966163635,0.5485435128211975,-0.46936970949172974,0.344108521938324,-0.25327068567276,0.5130709409713745,0.7433497264797845,-0.4784696903157335,0.19074039214395008,0.4267504842860917
1681249680850896100,2.548896240234375,-0.03212396427989006,0.18121948838233948,-0.021178841590881348,0.6917751431465149,0.549557626247406,-0.46843746304512024,0.3246127963066101,-0.261898934841156,0.5085833668708801,0.7435573648219015,-0.47888611476307835,0.19091716039717585,0.4258417448202375
1681249680865927400,2.563927490234375,-0.22163531184196472,0.37776532769203186,0.18244698643684387,0.694290816783905,0.5498203039169312,-0.4643896520137787,0.2186424732208252,-0.2939457297325134,0.47998419404029846,0.7424849425151864,-0.48043250041096647,0.1923273043867291,0.42533608289627517
1681249680880960500,2.57896044921875,-0.6122613549232483,0.517980694770813,0.26447901129722595,0.6995452642440796,0.5500691533088684,-0.4561363756656647,0.2322021722793579,-0.33203625679016113,0.46686333417892456,0.7396443132162905,-0.48379133750383096,0.19462209405279954,0.4254344376769604
1681249680895994600,2.59399462890625,-0.8915786147117615,0.5654640793800354,0.38081812858581543,0.7056791186332703,0.5519507527351379,-0.4442604184150696,0.38430190086364746,-0.36701422929763794,0.4933937191963196,0.7350787641794253,-0.48925114399573394,0.19622210200190143,0.4263676746873683
1681249680911027700,2.60902783203125,-1.0878466367721558,0.7043077349662781,0.5599612593650818,0.7137588262557983,0.5535184144973755,-0.4291452467441559,0.4189315438270569,-0.37238138914108276,0.44460245966911316,0.7289405593400359,-0.4961003111990118,0.1982721798160109,0.4280400077794338
1681249680926060800,2.624060791015625,-1.2606290578842163,0.7292389273643494,0.7263762950897217,0.7236363291740417,0.5539690852165222,-0.41166579723358154,0.40023452043533325,-0.32639944553375244,0.35613906383514404,0.7213835298681078,-0.5038308173946532,0.20080242282863026,0.43062590010948193
1681249680941093600,2.63909375,-1.4017318487167358,0.8520154356956482,0.8606118559837341,0.7350150346755981,0.5533384084701538,-0.3918791711330414,0.3215644955635071,-0.3341153860092163,0.31674498319625854,0.7124827249261461,-0.5124007457415967,0.20372994671135103,0.4339444316996415
1681249680956126700,2.654126708984375,-1.363202691078186,0.9839367270469666,0.9569823741912842,0.7478123903274536,0.5512298941612244,-0.3700299561023712,0.07906132936477661,-0.33928537368774414,0.2309461534023285,0.7026384282128068,-0.5214517846206738,0.20754048914256137,0.4373947207100579
1681249680971159600,2.66915966796875,-1.0655230283737183,1.1554923057556152,1.0542378425598145,0.761883020401001,0.5464790463447571,-0.34769970178604126,-0.03211617469787598,-0.3155219554901123,0.18505632877349854,0.692753930537032,-0.5298656816424552,0.2130551739907464,0.4403883804888696
1681249680986193700,2.684193603515625,-0.6284688115119934,1.316681146621704,1.1347392797470093,0.777073323726654,0.5381655693054199,-0.3263970911502838,-0.123737633228302,-0.24476951360702515,0.12377563118934631,0.6836795620285502,-0.5366156039845071,0.22100938682217916,0.44247138012677767
1681249681001226800,2.699226806640625,-0.18149293959140778,1.4012885093688965,1.1942838430404663,0.7929288148880005,0.5262621641159058,-0.30710259079933167,-0.11690348386764526,-0.20540040731430054,0.10158202052116394,0.6758743072054506,-0.5411957430254981,0.23142141425152588,0.44355970046279247
1681249681016259600,2.714259521484375,0.13918845355510712,1.3703616857528687,1.2273744344711304,0.8086629509925842,0.5116862058639526,-0.2902436852455139,0.012824475765228271,-0.20663249492645264,0.08536398410797119,0.6692862355499348,-0.5437336749613945,0.24337592576005734,0.444047019680752
1681249681031292700,2.729292724609375,0.22291812300682068,1.3203229904174805,1.2155934572219849,0.8236439228057861,0.4958386719226837,-0.2752361297607422,0.08283507823944092,-0.23567619919776917,0.08675959706306458,0.6635078648831073,-0.5449286399641349,0.2558020939226911,0.4442696586115541
1681249681046325800,2.74432568359375,0.12348704040050507,1.2463932037353516,1.2423064708709717,0.8377693295478821,0.479838103055954,-0.26057255268096924,0.19660872220993042,-0.2831522822380066,0.1445905566215515,0.6576470407896742,-0.5459003587723154,0.2677807220218838,0.44473218363052996
1681249681061359600,2.759359619140625,-0.06473053991794586,1.2148714065551758,1.3707270622253418,0.8516517877578735,0.46320679783821106,-0.2452114373445511,0.2184470295906067,-0.27009153366088867,0.17158783972263336,0.6509111645609823,-0.5471740167095066,0.2792756287964476,0.4460048414599216
1681249681076392700,2.774392822265625,-0.2949722707271576,1.201156735420227,1.5524054765701294,0.8659090995788574,0.4449974298477173,-0.2284269779920578,0.23679780960083008,-0.2265373170375824,0.1872435212135315,0.6426881520839876,-0.5489683258167174,0.2905516905078975,0.44851479199430183
1681249681091425500,2.789425537109375,-0.5271852612495422,1.1928644180297852,1.7641239166259766,0.8806921243667603,0.424587219953537,-0.21001681685447693,0.23402345180511475,-0.1842917799949646,0.16958105564117432,0.6326949547621235,-0.5513129855735165,0.3017376071671129,0.45244389548953073
1681249681106458600,2.804458740234375,-0.7442494034767151,1.1605019569396973,1.9318950176239014,0.8957664370536804,0.4017445743083954,-0.19027285277843475,0.2382972240447998,-0.11574909090995789,0.10978277027606964,0.6209759224362736,-0.554075696081944,0.3128317351316423,0.45773931580635296
1681249681121491700,2.81949169921875,-0.9294381737709045,1.0936646461486816,2.0214338302612305,0.9104056358337402,0.3771504759788513,-0.1700568050146103,0.22883081436157227,-0.07899367809295654,0.044309139251708984,0.6079162606427049,-0.5571277012060561,0.32338880884720794,0.46418352341684016
1681249681136525600,2.834525634765625,-1.057624340057373,1.0229883193969727,2.0924179553985596,0.9242086410522461,0.3511917293071747,-0.1500096470117569,0.1794595718383789,-0.042994678020477295,-0.02142280340194702,0.5938864279848174,-0.5602770465086722,0.33329388014525224,0.4714910194174498
1681249681151558700,2.84955859375,-1.1150386333465576,0.9786737561225891,2.143933057785034,0.9370618462562561,0.32384803891181946,-0.13052739202976227,0.12795573472976685,-0.0027268528938293457,-0.028148695826530457,0.5791662497112798,-0.5632724861081142,0.3427249800892601,0.47940595702904876
1681249681166591700,2.864591796875,-1.0692709684371948,0.9789848327636719,2.183016300201416,0.9489020109176636,0.2951900064945221,-0.11156958341598511,0.02776724100112915,0.05950051546096802,-0.010485462844371796,0.5640883783114731,-0.5659003581279122,0.35209656999001704,0.48743109247574623
1681249681181624600,2.87962451171875,-0.8769933581352234,0.9961568713188171,2.212031126022339,0.9596809148788452,0.2651796042919159,-0.09323303401470184,-0.016626715660095215,0.1147489845752716,-0.028471052646636963,0.5491167838451481,-0.5677810350139011,0.36195052197131267,0.4950629621759888
1681249681196657700,2.89465771484375,-0.5362251996994019,0.9664024710655212,2.204530715942383,0.9692443013191223,0.23400963842868805,-0.07619021832942963,-0.05600583553314209,0.20539775490760803,-0.09516596794128418,0.5350493147824712,-0.5682890454033073,0.3727632635705899,0.5018140654560952
1681249681211691500,2.90969140625,-0.17817038297653198,0.8846143484115601,2.1349222660064697,0.9773188233375549,0.202640101313591,-0.061522163450717926,-0.06844431161880493,0.2671169936656952,-0.17465335130691528,0.5227063907688545,-0.5670103583446375,0.384367234416084,0.5074831373761672
1681249681226724600,2.924724609375,0.04843607172369957,0.8564149737358093,2.0994949340820312,0.9839811325073242,0.1715412139892578,-0.048526763916015625,-0.05943584442138672,0.3371715843677521,-0.3287925124168396,0.5118178044024166,-0.5643649351865785,0.39652091643071485,0.5121581476551801
1681249681241757700,2.9397578125,0.15633857250213623,0.825665295124054,2.0785012245178223,0.9894165396690369,0.14048847556114197,-0.03629957512021065,-0.055487215518951416,0.3543846011161804,-0.31721603870391846,0.5016686591726529,-0.5608713563346374,0.4089908717220504,0.5162152976883408
1681249681256790500,2.95479052734375,0.21942634880542755,0.8078303933143616,2.026179552078247,0.9936496615409851,0.10981763154268265,-0.02450762689113617,-0.06936365365982056,0.30752554535865784,-0.25291240215301514,0.4919189265492754,-0.5569451561520992,0.4213766486609931,0.5198746745809271
1681249681271823600,2.96982373046875,0.3629968464374542,0.7978730797767639,1.9994443655014038,0.9967408180236816,0.07964079082012177,-0.012848320417106152,-0.06503915786743164,0.3449503183364868,-0.2674861550331116,0.48263639453072443,-0.552592385134691,0.4338404033609897,0.522959130722956
1681249681286857700,2.984857666015625,0.47736209630966187,0.7655678987503052,1.889861822128296,0.9987314939498901,0.050329532474279404,-0.001486538560129702,-0.015485703945159912,0.4668518900871277,-0.32885098457336426,0.47410601155418314,-0.5477063666268117,0.4464016876039056,0.5253253322739182
1681249681301890600,2.999890625,0.5367410182952881,0.7027987837791443,1.684306025505066,0.9996819496154785,0.023445917293429375,0.009298918768763542,-0.005312323570251465,0.5129310488700867,-0.3617311716079712,0.4666156676315603,-0.5427162381198882,0.45837598552814124,0.526897020376914
1681249681316923600,3.014923583984375,0.580585241317749,0.6464114189147949,1.4212664365768433,0.9998130202293396,0.00018506316700950265,0.019330807030200958,-0.03062063455581665,0.5024852156639099,-0.4059426784515381,0.4603463091961389,-0.5380385459913479,0.469233339085836,0.5276511846911838
1681249681331956700,3.029956787109375,0.7305979132652283,0.6132404208183289,1.1631165742874146,0.9994039535522461,-0.018934842199087143,0.028870729729533195,-0.05517470836639404,0.5129839181900024,-0.42622482776641846,0.4556208792302947,-0.5336995435410742,0.47916611125954717,0.5272327704471278
1681249681346989600,3.044989501953125,0.8766984939575195,0.5686420202255249,0.9271706938743591,0.9986881017684937,-0.034181974828243256,0.038130566477775574,-0.0483553409576416,0.5325188040733337,-0.4718921184539795,0.4525554953517205,-0.5295109811838752,0.48855235512499456,0.5254791835344338
1681249681362023700,3.060023681640625,0.9863623976707458,0.4626027047634125,0.6996959447860718,0.997866690158844,-0.04580870643258095,0.046514857560396194,-0.00047594308853149414,0.546632707118988,-0.4884856939315796,0.4511080445716367,-0.5253860009244664,0.49721924530962525,0.5227275639559991
1681249681377056500,3.075056396484375,1.073486328125,0.3293314576148987,0.46703317761421204,0.9971378445625305,-0.05373181402683258,0.05318897217512131,0.11542624235153198,0.5541895627975464,-0.49226057529449463,0.4514163165429706,-0.5212405971182537,0.5048789218954455,0.5192579955161998
1681249681392089600,3.090089599609375,1.0760465860366821,0.19968371093273163,0.2720852792263031,0.9966087341308594,-0.058297548443078995,0.05807214602828026,0.15279000997543335,0.5735563635826111,-0.5026216506958008,0.45321498878452404,-0.5171906969207344,0.5114194519087651,0.515325235155889
1681249681407122700,3.105122802734375,0.97779381275177,0.047693654894828796,0.09456747025251389,0.9963342547416687,-0.06010943651199341,0.060868337750434875,0.1876714825630188,0.5838521122932434,-0.5030069351196289,0.4560282441707095,-0.5134380519390308,0.5165419005706468,0.5114724882880932
1681249681422155500,3.120155517578125,0.870730459690094,-0.09664781391620636,-0.10184065997600555,0.9963628649711609,-0.05919966846704483,0.06129125505685806,0.1843469738960266,0.5591081380844116,-0.4833035469055176,0.45968908263181846,-0.5101855688889658,0.5199579917366072,0.5079767484367697
1681249681437189600,3.135189697265625,0.8738160133361816,-0.19457411766052246,-0.2925160527229309,0.9966722130775452,-0.055420998483896255,0.059775326400995255,0.13653701543807983,0.520112156867981,-0.43057918548583984,0.4643437886053377,-0.5073935575333096,0.5219573164532207,0.5044771635822032
1681249681452222500,3.150222412109375,0.9439707398414612,-0.28127115964889526,-0.46725672483444214,0.9971811175346375,-0.048891328275203705,0.05691497027873993,0.12170004844665527,0.5231955647468567,-0.41072046756744385,0.4701580504806572,-0.5048284931147728,0.5230733012867435,0.5004936072795679
1681249681467255600,3.165255615234375,1.1098682880401611,-0.36364060640335083,-0.6402593851089478,0.9978205561637878,-0.03967930004000664,0.052721861749887466,0.13168072700500488,0.5467898845672607,-0.39078032970428467,0.4773852595510831,-0.5021771027337373,0.5236211308504686,0.4957240674040568
1681249681482288600,3.18028857421875,1.3774073123931885,-0.43675556778907776,-0.7984666228294373,0.9984906315803528,-0.027868548408150673,0.04732540249824524,0.13659536838531494,0.5395262837409973,-0.38881707191467285,0.4863120101055011,-0.49905867171067214,0.5240258989289248,0.48973247394695024
1681249681497321700,3.19532177734375,1.6593247652053833,-0.5536827445030212,-0.9297652840614319,0.9990910291671753,-0.013742384500801563,0.040350571274757385,0.14492136240005493,0.5389499068260193,-0.3958956003189087,0.4971503480135108,-0.4950603895633433,0.5244907012475868,0.48235485702303016
1681249681512355600,3.21035546875,1.8902602195739746,-0.6829208731651306,-1.0724904537200928,0.9995138645172119,0.0023523906711488962,0.031087717041373253,0.1387001872062683,0.5249456167221069,-0.37721800804138184,0.5098339807221716,-0.4900445197524141,0.5247858870459657,0.47384115888679645
1681249681527388700,3.225388671875,2.0811572074890137,-0.7619590163230896,-1.2029390335083008,0.9995953440666199,0.020568925887346268,0.019652411341667175,0.03768187761306763,0.4675140082836151,-0.3217458724975586,0.5241106830863218,-0.4843105744054356,0.5246612935011866,0.46420021153166785
1681249681542421500,3.24042138671875,2.3746438026428223,-0.8529483079910278,-1.2964202165603638,0.9991821646690369,0.03992842882871628,0.006397796329110861,-0.00597226619720459,0.4289131164550781,-0.28203248977661133,0.5396840493923446,-0.4776012197191011,0.524495922841875,0.45336776769633946
1681249681557454600,3.25545458984375,2.751438856124878,-0.9546933174133301,-1.3439427614212036,0.998156726360321,0.05998896807432175,-0.009203788824379444,0.04340827465057373,0.41065317392349243,-0.25269806385040283,0.5568987912921068,-0.46925857552409106,0.5245898349851366,0.4409827149730376
1681249681572487700,3.27048779296875,3.090076208114624,-1.1158655881881714,-1.3274595737457275,0.996460497379303,0.0793265625834465,-0.027813877910375595,0.14013606309890747,0.4214058816432953,-0.23883342742919922,0.5755886602003057,-0.45871103583747247,0.5250497561101933,0.42732253130526915
1681249681587521500,3.285521484375,3.2855119705200195,-1.307176947593689,-1.2789685726165771,0.9940077662467957,0.09705642610788345,-0.05028458312153816,0.31177830696105957,0.41573044657707214,-0.17211222648620605,0.5954087587898799,-0.44596264954114817,0.5253332508265789,0.41307466327391146
1681249681602554600,3.3005546875,3.3188819885253906,-1.4992097616195679,-1.1988539695739746,0.9907147884368896,0.11241915076971054,-0.07645885646343231,0.3575974702835083,0.37175750732421875,-0.1146727129817009,0.6156700921681497,-0.43149062214253375,0.524963250184225,0.3989732562341569
1681249681617587500,3.31558740234375,3.220675230026245,-1.686338186264038,-1.1108969449996948,0.9864539504051208,0.12512822449207306,-0.1060727909207344,0.3892784118652344,0.31351619958877563,-0.02042251080274582,0.6358270322947056,-0.41591288703749374,0.5234310614495659,0.3856946182099393
1681249681632620500,3.33062060546875,2.9653120040893555,-1.8347891569137573,-1.0502946376800537,0.9810992479324341,0.13538987934589386,-0.13825207948684692,0.38592028617858887,0.28085464239120483,0.03234083950519562,0.655354724522154,-0.4000386751113361,0.5204258031691482,0.37367919354331647
1681249681647653600,3.345653564453125,2.517143964767456,-1.9570045471191406,-1.0467877388000488,0.9744753837585449,0.14432954788208008,-0.17194949090480804,0.3454861044883728,0.19925260543823242,0.09042181074619293,0.6737694151071654,-0.3850866331636886,0.5154934898921791,0.3633311043779591
1681249681662687500,3.3606875,1.8906197547912598,-2.057286262512207,-1.0976759195327759,0.9663616418838501,0.15365898609161377,-0.20623779296875,0.3263476490974426,0.1499604433774948,0.1323547512292862,0.6907018840573262,-0.372418012117867,0.508119993220846,0.35503489485698886
1681249681677720600,3.375720458984375,1.114310383796692,-2.123136281967163,-1.1836625337600708,0.9566142559051514,0.16507168114185333,-0.2400841861963272,0.28593939542770386,0.07661227881908417,0.18409974873065948,0.7058019685720627,-0.36326750099161725,0.4979905903514923,0.3491212012034057
1681249681692753700,3.390753662109375,0.3218082785606384,-2.156864881515503,-1.3051716089248657,0.945130467414856,0.18008989095687866,-0.2725731432437897,0.27009475231170654,0.03512006998062134,0.22917717695236206,0.7189152494463293,-0.358421447745072,0.48502318903458674,0.34561171728403567
1681249681707786500,3.405786376953125,-0.37171950936317444,-2.175497055053711,-1.4502449035644531,0.9318047761917114,0.1997150480747223,-0.3030739426612854,0.22517764568328857,-0.02431522309780121,0.2823067903518677,0.7301656126026596,-0.3579582091649322,0.46939210224523115,0.3440859930557818
1681249681722819600,3.420819580078125,-0.9661408066749573,-2.1259899139404297,-1.5882112979888916,0.9166967868804932,0.22409376502037048,-0.33083081245422363,0.21722954511642456,-0.042804062366485596,0.31761670112609863,0.7397166820748672,-0.361409221929426,0.45162813478557773,0.3438526959673355
1681249681737853400,3.435853515625,-1.4400073289871216,-2.0566983222961426,-1.7360295057296753,0.8999471068382263,0.2530363202095032,-0.3550606071949005,0.19325369596481323,-0.04577609896659851,0.354587584733963,0.7476556406268526,-0.3682745876611333,0.43225400986378953,0.3442985249239262
1681249681752886500,3.450886474609375,-1.7900503873825073,-1.974231481552124,-1.8810423612594604,0.8815019726753235,0.28625568747520447,-0.37551549077033997,0.19938480854034424,-0.07536396384239197,0.38006263971328735,0.7541886341825451,-0.37798367293781204,0.41154658488241064,0.3449017588128299
1681249681767919600,3.465919677734375,-1.9815131425857544,-1.843652367591858,-2.0075995922088623,0.8615778684616089,0.3227037489414215,-0.3918492794036865,0.1771184206008911,-0.09020557999610901,0.4136998653411865,0.7595208785345896,-0.3896823877362281,0.39015765312423323,0.3450400856180674
1681249681782952400,3.480952392578125,-2.0290565490722656,-1.7132984399795532,-2.1157381534576416,0.8403142690658569,0.36116665601730347,-0.40426549315452576,0.1837182641029358,-0.11339443922042847,0.43081581592559814,0.7639444811256173,-0.40249224108140474,0.3686017508647874,0.34426966403611425
1681249681797985500,3.495985595703125,-1.953195333480835,-1.5401990413665771,-2.1887736320495605,0.8179566264152527,0.4003179371356964,-0.4131495952606201,0.16609793901443481,-0.1259496510028839,0.4480922222137451,0.7677553243832291,-0.4155835616141225,0.3474413693279075,0.34223766009682727
1681249681813019400,3.511019287109375,-1.8201218843460083,-1.383579134941101,-2.22711443901062,0.794850766658783,0.43896815180778503,-0.41895028948783875,0.16916900873184204,-0.15794703364372253,0.45557141304016113,0.7711269784804988,-0.42838547876826977,0.3271249648725761,0.33887820537784147
1681249681828052500,3.526052490234375,-1.645492672920227,-1.2346564531326294,-2.2349390983581543,0.7711867094039917,0.47624051570892334,-0.4224523603916168,0.17198950052261353,-0.18876489996910095,0.4661383032798767,0.774243996801832,-0.44047340707401733,0.3078262340965602,0.33432381411327466
1681249681843085600,3.54108544921875,-1.4328923225402832,-1.0702600479125977,-2.1983799934387207,0.7473402619361877,0.5114232897758484,-0.42418017983436584,0.18193525075912476,-0.2264348268508911,0.47204697132110596,0.7772016088618328,-0.4515821743108758,0.2897989739740599,0.3287062938476381
1681249681858118700,3.55611865234375,-1.2190340757369995,-0.906132161617279,-2.1303956508636475,0.7238293290138245,0.5438569784164429,-0.4246067702770233,0.1554279327392578,-0.2703125476837158,0.4732059836387634,0.7800542725196602,-0.461504460548662,0.273331759690605,0.32220934693800896
1681249681873152800,3.57115283203125,-1.0306278467178345,-0.7466956377029419,-2.020263910293579,0.7011019587516785,0.5732929706573486,-0.42401787638664246,0.15624362230300903,-0.30469250679016113,0.47136592864990234,0.7827470198467659,-0.47028323792271115,0.25850481674881415,0.3151443459058076
1681249681888186600,3.5861865234375,-0.8371196389198303,-0.5897150635719299,-1.8680046796798706,0.6796603202819824,0.599480152130127,-0.42271187901496887,0.1338009238243103,-0.34322404861450195,0.47317272424697876,0.7852442822185886,-0.4779218021577162,0.24542780522019242,0.30781058929412614
1681249681903219700,3.6012197265625,-0.6142838597297668,-0.43730416893959045,-1.6597230434417725,0.6601612567901611,0.6219064593315125,-0.4212121367454529,0.13595080375671387,-0.3715401887893677,0.4684533476829529,0.787583367083455,-0.4842357280875322,0.2343281838911089,0.3005305830292484
1681249681918252800,3.616252685546875,-0.4671326279640198,-0.3220053017139435,-1.3990930318832397,0.6432125568389893,0.6402994990348816,-0.4198739230632782,0.14441555738449097,-0.3886820673942566,0.441022664308548,0.7897151231381986,-0.4891952645468258,0.22527989256740263,0.29374638853290846
1681249681933285600,3.63128564453125,-0.37624990940093994,-0.23175130784511566,-1.1102341413497925,0.629214346408844,0.6549791693687439,-0.41843941807746887,0.181729257106781,-0.40252256393432617,0.42742687463760376,0.791378307239257,-0.4931798717198477,0.21806857824280218,0.28799314130664383
1681249681948318700,3.646318603515625,-0.34245726466178894,-0.14080648124217987,-0.8350707292556763,0.6183582544326782,0.6663269996643066,-0.4167030155658722,0.2666667103767395,-0.42064523696899414,0.4165351986885071,0.792462329190537,-0.49645181720899023,0.2125654687700966,0.2834696127990734
1681249681963352600,3.6613525390625,-0.37687116861343384,-0.0473598912358284,-0.5509790778160095,0.6106932759284973,0.6750110983848572,-0.41402143239974976,0.2894989848136902,-0.4177021384239197,0.41061878204345703,0.7927648418964994,-0.4994732893043509,0.20860419923472484,0.2802403392121773
1681249681978385700,3.6763857421875,-0.48965585231781006,0.0635615661740303,-0.2083231657743454,0.6066333651542664,0.6814650893211365,-0.4093915522098541,0.28382378816604614,-0.4153822660446167,0.4039899706840515,0.7919330769115315,-0.5027669429388745,0.20622712064914978,0.2784562500104315
1681249681993418800,3.691418701171875,-0.648318886756897,0.17874515056610107,0.017462560907006264,0.6066874265670776,0.6854768395423889,-0.4025565981864929,0.2875996232032776,-0.4375826120376587,0.3930961787700653,0.789840380970438,-0.5063868096456842,0.2056553092815789,0.27826326908171295
1681249682008451600,3.70645166015625,-0.7874463200569153,0.19816970825195312,0.2907939851284027,0.6092449426651001,0.6885334849357605,-0.3933731019496918,0.3361591100692749,-0.4443317651748657,0.34092867374420166,0.7864662763657995,-0.5108701771723058,0.2057306805960039,0.2795665859206545
1681249682023485700,3.721485595703125,-0.8755234479904175,0.2903193533420563,0.5940302610397339,0.6152844429016113,0.6893385648727417,-0.3824101984500885,0.36922788619995117,-0.4536970257759094,0.2865392565727234,0.7819208049958887,-0.5156389903570536,0.20715049262951377,0.28249791206888514
1681249682038518800,3.736518798828125,-0.9251811504364014,0.2669176161289215,0.9172956347465515,0.6246591210365295,0.6874234080314636,-0.3704724907875061,0.4452412724494934,-0.4427182674407959,0.253025621175766,0.7763640391354099,-0.520335287793167,0.20979738780002513,0.28721946582529473
1681249682053551600,3.751551513671875,-1.0457663536071777,0.2700548470020294,1.2865285873413086,0.6374652981758118,0.6823171973228455,-0.35788440704345703,0.46266287565231323,-0.44170135259628296,0.2580767273902893,0.7696972997609062,-0.5248391159164707,0.2135455325949515,0.2941229574538558
1681249682068584700,3.766584716796875,-1.2186267375946045,0.2645823061466217,1.6046407222747803,0.6536439657211304,0.6742433905601501,-0.3437226414680481,0.41811805963516235,-0.40133994817733765,0.26167622208595276,0.7615149113126469,-0.529617777302231,0.21827433900182966,0.3032428774574042
1681249682083617800,3.78161767578125,-1.3455228805541992,0.32741427421569824,1.9010380506515503,0.6727261543273926,0.6632490754127502,-0.32793325185775757,0.3311038017272949,-0.36371898651123047,0.25646108388900757,0.7518304686810074,-0.5346782655125887,0.22394759935565353,0.31419349906772437
1681249682098651600,3.796651611328125,-1.459298849105835,0.44761922955513,2.1445562839508057,0.6945799589157104,0.6491283774375916,-0.3101470172405243,0.12490850687026978,-0.3098338842391968,0.23637080192565918,0.7406280241558627,-0.5400009702453534,0.23092301727147477,0.3264104056701865
1681249682113684700,3.811684814453125,-1.6016631126403809,0.5879901647567749,2.25386643409729,0.7181600332260132,0.6326104998588562,-0.28991398215293884,0.03641754388809204,-0.3029596209526062,0.21751105785369873,0.7279525214350494,-0.5458464118447525,0.23894498642312184,0.33917860586510284
1681249682128717600,3.826717529296875,-1.650330662727356,0.7146772742271423,2.3056838512420654,0.742283821105957,0.614423394203186,-0.2673923075199127,-0.03743457794189453,-0.31171953678131104,0.1907169222831726,0.7140853256927435,-0.552237905652759,0.2476633713492304,0.3518214099453035
1681249682143750700,3.841750732421875,-1.482008457183838,0.7996954917907715,2.3497579097747803,0.7663356065750122,0.5941617488861084,-0.2443392127752304,-0.04216873645782471,-0.2956692576408386,0.1483004093170166,0.6997578310397627,-0.5583113695137588,0.2571357709326773,0.3640173752474702
1681249682158783700,3.85678369140625,-1.096832513809204,0.856600821018219,2.410512685775757,0.7900868654251099,0.5709073543548584,-0.22322112321853638,0.025251269340515137,-0.2595212459564209,0.07321202754974365,0.6860272146345042,-0.5627039665649882,0.26786877638633416,0.37546945475259874
1681249682173817600,3.871817626953125,-0.5726898312568665,0.8957080245018005,2.4912118911743164,0.8134545087814331,0.5441024899482727,-0.20553375780582428,0.06532961130142212,-0.2194107174873352,0.02596837282180786,0.6736307984549418,-0.564488281325554,0.2803321285931958,0.3859901434249215
1681249682188850700,3.8868505859375,0.006000463850796223,0.9061551094055176,2.597656726837158,0.8363544940948486,0.5134418606758118,-0.19206388294696808,0.1949412226676941,-0.14988601207733154,0.005021706223487854,0.6630107213528051,-0.5630786686467676,0.294805816503568,0.39553587749630237
1681249682203883500,3.901883544921875,0.5272607207298279,0.8947501182556152,2.72639799118042,0.858746349811554,0.47875073552131653,-0.18262702226638794,0.2668488621711731,-0.08154913783073425,0.010279044508934021,0.6541298521774542,-0.5583531499983926,0.31133301367786687,0.4042619677893303
1681249682218916600,3.91691650390625,0.901455819606781,0.9008780121803284,2.83427357673645,0.8803810477256775,0.44043299555778503,-0.17592062056064606,0.3957725167274475,0.015377551317214966,0.06158655881881714,0.6464518860221317,-0.5508649775462225,0.3295261275039387,0.4123837091421224
1681249682233950700,3.93195068359375,1.094212532043457,0.93011474609375,2.930534839630127,0.9009686708450317,0.3991658091545105,-0.17006497085094452,0.40414607524871826,0.06314501166343689,0.08377653360366821,0.639251482697726,-0.5414771674319306,0.3489555694926368,0.4199880845540872
1681249682248983600,3.946983642578125,1.144521713256836,0.9902249574661255,2.9511170387268066,0.920107364654541,0.35595953464508057,-0.16338670253753662,0.3375677466392517,0.09676876664161682,0.1060900092124939,0.631832516884789,-0.5311702616930365,0.3690051485916776,0.4271779881861178
1681249682264016600,3.9620166015625,1.071997880935669,1.0991653203964233,2.8766074180603027,0.9372692108154297,0.31254369020462036,-0.15441115200519562,0.24890321493148804,0.12025660276412964,0.0895918607711792,0.6238235966848501,-0.5209721840287681,0.38907891983175763,0.4336469645358677
1681249682279049700,3.9770498046875,0.7547998428344727,1.182414174079895,2.696607828140259,0.9520954489707947,0.2706795930862427,-0.1422908902168274,0.09392499923706055,0.1298941671848297,0.025942683219909668,0.6148815740753637,-0.5119360250658012,0.4083822484133388,0.43939282527141627
1681249682294082600,3.99208251953125,0.42511674761772156,1.280514121055603,2.5922350883483887,0.9645593762397766,0.23153415322303772,-0.12655942142009735,0.03533381223678589,0.15117156505584717,-0.019757091999053955,0.6043214747487554,-0.5052591574783969,0.42595007878965313,0.4450565712177911
1681249682309116700,4.00711669921875,0.6373369693756104,1.2604429721832275,2.4116358757019043,0.9749023914337158,0.19381755590438843,-0.10954418033361435,-0.015231430530548096,0.16809040307998657,-0.11317306756973267,0.593578854148391,-0.4990184359746503,0.4429542970189265,0.44992907105585717
1681249682324149500,4.0221494140625,0.9365223050117493,1.2477444410324097,2.2053139209747314,0.9828879237174988,0.1588873416185379,-0.09319982677698135,-0.02751988172531128,0.23257693648338318,-0.17006003856658936,0.5844697939457884,-0.49202424292176195,0.459687102698787,0.4527637105548845
1681249682339182600,4.0371826171875,1.1373450756072998,1.2166688442230225,2.0228967666625977,0.989014744758606,0.1260918229818344,-0.07714089751243591,-0.03712570667266846,0.37897413969039917,-0.2406080961227417,0.5767741700980616,-0.4841576846905223,0.47646708924271597,0.4537642623898322
1681249682354215700,4.052215576171875,1.0006176233291626,1.182180643081665,1.7863786220550537,0.9934461116790771,0.09658725559711456,-0.06112068146467209,-0.057716190814971924,0.38201993703842163,-0.24822074174880981,0.5698639255824887,-0.4766066627166986,0.49222530197421155,0.4536689093746113
1681249682369248500,4.06724853515625,0.7054369449615479,1.1400691270828247,1.573398470878601,0.9964823126792908,0.0708308145403862,-0.04479077830910683,-0.1025155782699585,0.3300023674964905,-0.20804733037948608,0.5628225470822307,-0.4706495404952056,0.50605693424674,0.4534603730493427
1681249682384282600,4.08228271484375,0.40761831402778625,1.0561944246292114,1.3827134370803833,0.9984146952629089,0.048348717391490936,-0.028822729364037514,-0.11099398136138916,0.32286715507507324,-0.18812668323516846,0.5555408324757299,-0.46633563023428337,0.5178027762301036,0.4536362795486898
1681249682399315700,4.097315673828125,0.06081785261631012,0.9983827471733093,1.2005913257598877,0.9994897246360779,0.02891492284834385,-0.013578380458056927,-0.10802549123764038,0.3231358826160431,-0.2347126007080078,0.5479541393087163,-0.4637765511458262,0.5273728476329399,0.45446181090431303
1681249682414348500,4.1123486328125,-0.37746453285217285,0.9149182438850403,1.0182476043701172,0.999924898147583,0.012219194322824478,0.000905762251932174,-0.10452395677566528,0.3272888958454132,-0.25331664085388184,0.539802491184331,-0.46322724259025405,0.5346713035614115,0.4562459602290641
1681249682429381600,4.127381591796875,-0.8773583769798279,0.7912681698799133,0.8383235931396484,0.9999035000801086,-0.0017948808381333947,0.013779879547655582,-0.09343987703323364,0.3086186647415161,-0.2794201374053955,0.5309664798250743,-0.46495801160946004,0.5391697201669585,0.45954835712099695
1681249682444415700,4.142415771484375,-1.212416172027588,0.6758918166160583,0.6745021939277649,0.9996045827865601,-0.013417448848485947,0.024708999320864677,-0.08628982305526733,0.31265759468078613,-0.29651379585266113,0.5216198769020481,-0.46868069908702215,0.5410110000799422,0.46428241380970436
1681249682459448800,4.15744873046875,-1.2686132192611694,0.5804592967033386,0.5529012084007263,0.9991613030433655,-0.023153269663453102,0.033770542591810226,-0.056595444679260254,0.38763999938964844,-0.3571043014526367,0.5124910497872167,-0.4732625118905033,0.5412096316924161,0.4695397519136513
1681249682474481700,4.172481689453125,-1.166075587272644,0.50026935338974,0.42886316776275635,0.9986572265625,-0.03122022934257984,0.041340846568346024,-0.0367584228515625,0.4535987973213196,-0.39879322052001953,0.5041747532875549,-0.477864168531506,0.5406627974641046,0.4744864365803123
1681249682489514500,4.187514404296875,-0.9781813621520996,0.4220544993877411,0.3127616047859192,0.9981545209884644,-0.037464022636413574,0.0477895624935627,0.01417452096939087,0.5177496671676636,-0.4694662094116211,0.4970844957124468,-0.48208489339634036,0.539897153714028,0.4785521374494971
1681249682504548900,4.202548828125,-0.7278455495834351,0.29409706592559814,0.2171306610107422,0.9977268576622009,-0.04204708710312843,0.052658651024103165,0.06947273015975952,0.5290008187294006,-0.49656736850738525,0.49155606714924466,-0.4855116346956404,0.5390804938191095,0.4817086423575472
1681249682519581700,4.217581787109375,-0.3869674801826477,0.16494198143482208,0.14599043130874634,0.9974249601364136,-0.04519383981823921,0.05568382516503334,0.1879233717918396,0.5863162875175476,-0.5003097057342529,0.48793095749599247,-0.48767811662145766,0.5385275921920151,0.4838195366374109
1681249682534614800,4.23261474609375,-0.021448364481329918,0.06426171213388443,0.06371208280324936,0.9972564578056335,-0.04695556312799454,0.057226862758398056,0.22187501192092896,0.6156964302062988,-0.5025240182876587,0.48636086392724404,-0.4883844423088808,0.5386038133095823,0.48460269917848536
1681249682549648000,4.24764794921875,0.1994437575340271,-0.03691177815198898,-0.06437238305807114,0.9972435235977173,-0.04688253626227379,0.0575081892311573,0.23125672340393066,0.623222291469574,-0.49487078189849854,0.48667751423814354,-0.4880553365632742,0.5390325428285521,0.48413927786237804
1681249682564680700,4.2626806640625,0.26753997802734375,-0.1192372739315033,-0.22763481736183167,0.9974105954170227,-0.0444825179874897,0.05651099979877472,0.21930992603302002,0.5915558934211731,-0.47837066650390625,0.488407982708626,-0.4874821200315435,0.5390887513875878,0.48291012774235925
1681249682579714800,4.27771484375,0.3083040118217468,-0.19801197946071625,-0.3869272470474243,0.9977400302886963,-0.039568156003952026,0.054306574165821075,0.1931016445159912,0.5110037326812744,-0.4287724494934082,0.49123196836616395,-0.48711263621869444,0.5384000066124742,0.481183829998715
1681249682594748000,4.292747802734375,0.4038512110710144,-0.3020840287208557,-0.526071310043335,0.9981862902641296,-0.03239584341645241,0.05073968321084976,0.20094084739685059,0.4892745316028595,-0.4076427221298218,0.49518154113522056,-0.4867718121260678,0.5370503178943212,0.47898368186590423
1681249682609780700,4.30778076171875,0.5383157134056091,-0.40366286039352417,-0.6638142466545105,0.9986928105354309,-0.023053111508488655,0.045621607452631,0.2378794550895691,0.507473886013031,-0.38563311100006104,0.5004596783845531,-0.48618182096876444,0.535199067123684,0.4761610572449081
1681249682624813800,4.322813720703125,0.7501632571220398,-0.48421522974967957,-0.7883447408676147,0.9991683959960938,-0.011578810401260853,0.039094626903533936,0.23081201314926147,0.5089696049690247,-0.38084566593170166,0.5072267022159257,-0.4851120268168197,0.5331169051717192,0.47241266677535776
1681249682639847700,4.33784765625,0.9883021116256714,-0.6008891463279724,-0.906003475189209,0.9995203018188477,0.0018404095899313688,0.030916793271899223,0.19043636322021484,0.5160886645317078,-0.38055670261383057,0.5156285961965922,-0.48328663653733944,0.5309354230040702,0.4676203440633038
1681249682654880800,4.352880859375,1.23312509059906,-0.6998834013938904,-1.0604820251464844,0.9996362924575806,0.01704997755587101,0.02089979499578476,0.14333868026733398,0.5020387768745422,-0.34971141815185547,0.5256854173990281,-0.48058022940459527,0.5286705405183505,0.46174131419930725
1681249682669913900,4.367913818359375,1.493651032447815,-0.7427035570144653,-1.2348273992538452,0.9993544220924377,0.03467061370611191,0.009418202564120293,-0.022196829319000244,0.4397404193878174,-0.2832218408584595,0.537444892004205,-0.4771955155617204,0.5263017587360297,0.45436098467939895
1681249682684946700,4.38294677734375,1.7917922735214233,-0.7783510088920593,-1.3893890380859375,0.9985079765319824,0.05451776832342148,-0.00310125551186502,-0.0853152871131897,0.4009113311767578,-0.24831777811050415,0.5507467346585797,-0.4731226794337911,0.5240270054472209,0.4452287451127309
1681249682699979800,4.397979736328125,2.147608995437622,-0.8355048298835754,-1.51083242893219,0.996953547000885,0.07608436048030853,-0.0171713475137949,-0.09778362512588501,0.36309412121772766,-0.20289087295532227,0.5657043347056447,-0.4679233769716748,0.5219789643021264,0.4342399183157211
1681249682715013600,4.413013671875,2.505587577819824,-0.9258307218551636,-1.5651555061340332,0.9945919513702393,0.0983399748802185,-0.033406034111976624,-0.05219393968582153,0.3428069055080414,-0.1818954348564148,0.5822523064171607,-0.46110271830527205,0.5202703780395497,0.42152723284293725
1681249682730046700,4.428046630859375,2.750216245651245,-1.0407344102859497,-1.551557183265686,0.991385281085968,0.12001699954271317,-0.052450038492679596,0.09404855966567993,0.32798105478286743,-0.1494084596633911,0.6000397124773049,-0.45242219271765494,0.5187380262886916,0.40764850794531093
1681249682745079800,4.443079833984375,2.876044750213623,-1.1909440755844116,-1.5098246335983276,0.9873189926147461,0.14012978971004486,-0.0745968148112297,0.16835105419158936,0.3003457188606262,-0.1143222376704216,0.6184943249266817,-0.44210093119938154,0.516960695501938,0.3933993890175423
1681249682760112600,4.458112548828125,2.9003100395202637,-1.3467960357666016,-1.4443957805633545,0.9823242425918579,0.15830302238464355,-0.0998963937163353,0.2775176167488098,0.24886250495910645,-0.04803752899169922,0.6372185252510274,-0.4305050861474489,0.5145067302684403,0.37934256454513404
1681249682775146800,4.473146728515625,2.906597852706909,-1.483647346496582,-1.3443424701690674,0.9764111042022705,0.1738768219947815,-0.12801608443260193,0.3175494074821472,0.2222871333360672,0.00043739378452301025,0.6558585374110122,-0.4177899356219734,0.5113154836050907,0.3658654853157277
1681249682790179800,4.488179931640625,2.809804677963257,-1.6345388889312744,-1.3136976957321167,0.9694492220878601,0.1870824545621872,-0.15864484012126923,0.36268872022628784,0.1871698796749115,0.044570162892341614,0.6742901609584515,-0.4042885372384443,0.5071768507172979,0.3530653203528686
1681249682805212700,4.503212646484375,2.394221782684326,-1.7499983310699463,-1.3010165691375732,0.9611868262290955,0.1992913782596588,-0.19079555571079254,0.37423187494277954,0.14767827093601227,0.08369415998458862,0.6919834429754023,-0.3913849127522863,0.5014180581697119,0.34140411894403316
1681249682820245800,4.518245849609375,1.8411993980407715,-1.8470335006713867,-1.3261975049972534,0.951540470123291,0.21145114302635193,-0.22329115867614746,0.35976922512054443,0.08951318264007568,0.14071062207221985,0.7082070944597572,-0.3805047023686712,0.4935287143709379,0.331795396742181
1681249682835279600,4.533279541015625,1.1583850383758545,-1.8867859840393066,-1.4155466556549072,0.9402928352355957,0.22557678818702698,-0.25488123297691345,0.3401636481285095,0.02544558048248291,0.18890222907066345,0.7227479183757619,-0.3728122986964283,0.48329119466368176,0.3241542967603785
1681249682850312700,4.548312744140625,0.5134860277175903,-1.9346084594726562,-1.5020085573196411,0.9274017214775085,0.24267826974391937,-0.2846638560295105,0.3012208342552185,-0.03302246332168579,0.2590748965740204,0.7354247853204473,-0.36889608649016614,0.47072682406512656,0.31856308921865234
1681249682865346300,4.56334619140625,-0.08501072227954865,-1.9402191638946533,-1.666264295578003,0.9126759767532349,0.263653039932251,-0.3122653663158417,0.30262553691864014,-0.07052251696586609,0.30185890197753906,0.7465268355799202,-0.36863329363115555,0.45604474846659915,0.3143729455682848
1681249682880379100,4.578379150390625,-0.5729202628135681,-1.909382939338684,-1.8207217454910278,0.8960070610046387,0.2890045642852783,-0.3371165692806244,0.27083247900009155,-0.09739992022514343,0.31670036911964417,0.7561922229977011,-0.37185716419374093,0.4395042312661869,0.31101683966697735
1681249682895412200,4.593412109375,-1.0386054515838623,-1.829282522201538,-1.9951202869415283,0.8774977326393127,0.31869474053382874,-0.35837310552597046,0.2523086667060852,-0.12657129764556885,0.33160921931266785,0.7644123232905433,-0.378304175426217,0.42154406793993787,0.3079939217674878
1681249682910446000,4.608446044921875,-1.4130040407180786,-1.7199374437332153,-2.1620590686798096,0.8571754693984985,0.35263559222221375,-0.3753644824028015,0.19491803646087646,-0.16154977679252625,0.359510600566864,0.7711749056189392,-0.38775692605959394,0.40244544001950017,0.3049124117809193
1681249682925479200,4.623479248046875,-1.6786870956420898,-1.5793536901474,-2.3009321689605713,0.8352184891700745,0.3899915814399719,-0.3877069652080536,0.19037050008773804,-0.20433789491653442,0.3772242069244385,0.776545771488129,-0.39962672998936444,0.3826813226766816,0.30138042492548034
1681249682940512300,4.63851220703125,-1.7841092348098755,-1.4143891334533691,-2.392439603805542,0.811889111995697,0.42936909198760986,-0.3955731987953186,0.16020244359970093,-0.22412309050559998,0.402866929769516,0.7807241760223205,-0.4130306884482529,0.36279339645104175,0.29707956719249395
1681249682955545000,4.653545166015625,-1.7324349880218506,-1.2312343120574951,-2.437802314758301,0.7876473665237427,0.46902206540107727,-0.3995371460914612,0.15752774477005005,-0.25536850094795227,0.41302597522735596,0.7840028542252818,-0.4269249569970109,0.3434625224181701,0.29173299725192037
1681249682970579200,4.6685791015625,-1.563866138458252,-1.0506913661956787,-2.4298698902130127,0.7628729343414307,0.5074280500411987,-0.40067651867866516,0.12898802757263184,-0.26582038402557373,0.40893155336380005,0.786758809877029,-0.4403643282802575,0.3251784206004839,0.28521719474386054
1681249682985612000,4.683612060546875,-1.29957914352417,-0.8691208958625793,-2.3625271320343018,0.7381243705749512,0.5431698560714722,-0.4001736044883728,0.12076228857040405,-0.28349584341049194,0.4013333022594452,0.789309907662606,-0.4525527900889635,0.3083977569830172,0.2776267918302238
1681249683000645000,4.69864501953125,-0.9975438117980957,-0.7103791832923889,-2.2456159591674805,0.7139603495597839,0.5752856135368347,-0.39913278818130493,0.09181046485900879,-0.299147367477417,0.3905573785305023,0.7918878795101985,-0.4629831167235886,0.2933943336427806,0.2692209483786896
1681249683015678200,4.71367822265625,-0.6614768505096436,-0.5486602783203125,-2.0817558765411377,0.6909624338150024,0.6031695008277893,-0.3984439969062805,0.09138625860214233,-0.32674121856689453,0.392477810382843,0.7946459767541253,-0.4713586362498814,0.28035518998849723,0.26030730242203376
1681249683030711300,4.728711181640625,-0.3123217821121216,-0.391493022441864,-1.8676706552505493,0.6698219776153564,0.6263688802719116,-0.39874881505966187,0.07862162590026855,-0.3509782552719116,0.39568179845809937,0.7976898463644181,-0.4774690232787671,0.26953465737875953,0.25112815514997305
1681249683045745200,4.7437451171875,0.04299209266901016,-0.25704920291900635,-1.5807507038116455,0.6513404250144958,0.6443579196929932,-0.4006974399089813,0.08897018432617188,-0.36446601152420044,0.3979203999042511,0.8010662487967651,-0.48111898566953143,0.2611049711942977,0.24216013588795318
1681249683060778200,4.7587783203125,0.3487871587276459,-0.13260261714458466,-1.2507613897323608,0.63631671667099,0.6568257808685303,-0.4045749604701996,0.10881567001342773,-0.3804585933685303,0.395419716835022,0.8047162562686099,-0.48228573274171216,0.2551724746870366,0.23392135125316235
1681249683075811000,4.77381103515625,0.5490363240242004,-0.03827984631061554,-0.9203760027885437,0.6249669194221497,0.664383590221405,-0.4098910093307495,0.1328302025794983,-0.39183109998703003,0.4014071822166443,0.8084065633177815,-0.48146652965147846,0.2514845584622986,0.2267690342884887
1681249683090844200,4.78884423828125,0.7382093071937561,0.11212456971406937,-0.5990006327629089,0.6175040006637573,0.6675013899803162,-0.41608959436416626,0.1458778977394104,-0.39905351400375366,0.40301287174224854,0.8119658243402649,-0.4790221225680788,0.24998602676817866,0.2208079451703024
1681249683105878000,4.8038779296875,0.8012785911560059,0.24247193336486816,-0.2642527222633362,0.6141911745071411,0.6667029857635498,-0.422227680683136,0.15561461448669434,-0.3931586742401123,0.3871782720088959,0.8151469054439664,-0.4753927121658775,0.25077465270636967,0.21598440927468576
1681249683120911000,4.8189111328125,0.7437790632247925,0.33376243710517883,0.08677319437265396,0.6150981783866882,0.6625465750694275,-0.4274180829524994,0.21658211946487427,-0.3808998465538025,0.3743175268173218,0.8175417245334766,-0.4712183847186316,0.2534643802148974,0.21291907349929023
1681249683135944200,4.833944091796875,0.5873206853866577,0.39190563559532166,0.3740744888782501,0.6197498440742493,0.6560690999031067,-0.4306779205799103,0.25398361682891846,-0.4036887288093567,0.37628039717674255,0.8188343346962057,-0.46723329020595383,0.2575928796536628,0.2117765053096379
1681249683150977000,4.84897705078125,0.4056485891342163,0.4649721384048462,0.667031466960907,0.627539336681366,0.6480324268341064,-0.4315650463104248,0.28710299730300903,-0.44051283597946167,0.3742072582244873,0.8189177492545602,-0.4638541246208653,0.2627866715527959,0.21249997757547825
1681249683166011100,4.86401123046875,0.21567784249782562,0.5448490977287292,1.0251240730285645,0.63895583152771,0.6379747986793518,-0.42979490756988525,0.29680466651916504,-0.4266253709793091,0.36076414585113525,0.8176465530260966,-0.46104613047309173,0.2693306779269967,0.2152943205332658
1681249683181044200,4.879044189453125,-0.01391257718205452,0.5986624956130981,1.4134010076522827,0.6541977524757385,0.625485897064209,-0.42519739270210266,0.3801649808883667,-0.3961309790611267,0.35229092836380005,0.8148314828795203,-0.45885428014160207,0.2772256430797454,0.22056392271033917
1681249683196077000,4.8940771484375,-0.2975219190120697,0.6415647268295288,1.8142030239105225,0.6731312870979309,0.6103244423866272,-0.4176102876663208,0.4164683222770691,-0.3792757987976074,0.3590318560600281,0.8102726230591967,-0.45740007520984316,0.2863215329397376,0.22861198756510615
1681249683211110100,4.909110107421875,-0.6104767322540283,0.6464795470237732,2.173952102661133,0.6952134370803833,0.5925765037536621,-0.4068552553653717,0.45583319664001465,-0.3389296531677246,0.3791453540325165,0.8037756842997431,-0.45691947703738583,0.2963055294608691,0.23952479740250285
1681249683226144300,4.924144287109375,-0.8651913404464722,0.6666833758354187,2.46114444732666,0.7194714546203613,0.5723466873168945,-0.39342108368873596,0.4062914252281189,-0.28723621368408203,0.37376779317855835,0.7954424823478292,-0.457332343941368,0.30681686246415063,0.2529463915700954
1681249683241177000,4.939177001953125,-1.095892071723938,0.7570324540138245,2.607320785522461,0.7450595498085022,0.5499954223632812,-0.3773479759693146,0.19730806350708008,-0.2344435453414917,0.3197460174560547,0.7854227515758411,-0.4585630028549319,0.3178773156775973,0.26792762601225206
1681249683256210200,4.954210205078125,-1.2247633934020996,0.8066474199295044,2.6260085105895996,0.7706630229949951,0.5265568494796753,-0.3589099049568176,0.07978546619415283,-0.2120884656906128,0.2801898419857025,0.7740186729072941,-0.46067626753527546,0.3291237316581995,0.28346063542867556
1681249683271243000,4.969242919921875,-1.2165457010269165,0.8346604108810425,2.5565872192382812,0.7950533628463745,0.5024538040161133,-0.33975037932395935,-0.006952226161956787,-0.19221210479736328,0.20930305123329163,0.7620089566554277,-0.46303489437340106,0.3401815702279734,0.29869298154805823
1681249683286277400,4.98427734375,-1.058936357498169,0.8517687916755676,2.4421064853668213,0.8176877498626709,0.4778341054916382,-0.32103171944618225,-0.0260617733001709,-0.1596120297908783,0.15567225217819214,0.7500612453659904,-0.4650019286773813,0.351080254194066,0.31292809763575463
1681249683301310200,4.999310302734375,-0.8615215420722961,0.8223243951797485,2.322876453399658,0.8382954597473145,0.45269572734832764,-0.30385443568229675,0.0401531457901001,-0.14532256126403809,0.10709235072135925,0.7387348867373593,-0.466007664602066,0.3618143654037498,0.32588054332768135
1681249683316343300,5.01434326171875,-0.7234746217727661,0.7805196642875671,2.2299110889434814,0.8569114208221436,0.427192360162735,-0.2884606719017029,0.09557265043258667,-0.1332165002822876,0.09946537017822266,0.728099957395075,-0.46605476459436845,0.3722399942612324,0.33778818482885464
1681249683331376400,5.02937646484375,-0.6519559621810913,0.7643502950668335,2.1540355682373047,0.8738040924072266,0.4016147553920746,-0.2741752862930298,0.2172451615333557,-0.12015104293823242,0.14327016472816467,0.7178729465350889,-0.46555389048489215,0.38232437288176513,0.34892144196148567
1681249683346410200,5.04441015625,-0.6484959721565247,0.7506980895996094,2.150752305984497,0.8894002437591553,0.3757283091545105,-0.26037538051605225,0.2678567171096802,-0.082317054271698,0.16625919938087463,0.7077034851914648,-0.46475934814038217,0.39218753535486234,0.35964338257533063
1681249683361443300,5.059443359375,-0.7695325016975403,0.7326839566230774,2.1554718017578125,0.9039710760116577,0.34934884309768677,-0.24655966460704803,0.386479914188385,0.010163486003875732,0.21759849786758423,0.6971369832118689,-0.46405882786168384,0.4017083182392246,0.3705129735332865
1681249683376476200,5.07447607421875,-0.9744824767112732,0.7445715069770813,2.1378393173217773,0.9174706339836121,0.32307299971580505,-0.23210199177265167,0.4015905261039734,0.054261595010757446,0.22572387754917145,0.6857893453249229,-0.46409919251986,0.41056173815338776,0.38176421759362755
1681249683391509200,5.08950927734375,-1.1973721981048584,0.8109713196754456,2.078522205352783,0.929923951625824,0.2974013388156891,-0.21631872653961182,0.34024810791015625,0.06377419829368591,0.207163468003273,0.6734403094813654,-0.4653098850732204,0.41872108179447043,0.3932397093342465
1681249683406542300,5.104542236328125,-1.3611910343170166,0.911213755607605,1.966001033782959,0.9412919878959656,0.27290305495262146,-0.19872933626174927,0.2661359906196594,0.08773845434188843,0.17407113313674927,0.6601271723855182,-0.4678921271616545,0.426277246919605,0.4044709811316085
1681249683421576200,5.119576171875,-1.3702654838562012,1.0059832334518433,1.8046473264694214,0.9514344930648804,0.24999067187309265,-0.1796579211950302,0.11436134576797485,0.11626602709293365,0.1007700115442276,0.6463423280341696,-0.47153311276416665,0.43339077598893233,0.4148137999024219
1681249683436592600,5.134592529296875,-1.2412816286087036,1.093492031097412,1.6471301317214966,0.9603105187416077,0.22857774794101715,-0.1598614901304245,0.04014706611633301,0.14384348690509796,0.039210155606269836,0.7615317336555819,-0.15007762214607717,0.6305124624893552,-2.3205102864742e-17
1681249683451625500,5.14962548828125,-1.052878975868225,1.1733157634735107,1.5045634508132935,0.968030571937561,0.20837049186229706,-0.139637291431427,-0.06710594892501831,0.17732591927051544,-0.09397488832473755,0.7547484797030414,-0.14918243414470356,0.6386908132520626,0.01316750960223093
1681249683466658600,5.164658447265625,-0.9089607000350952,1.1894705295562744,1.378787636756897,0.9746524691581726,0.18921971321105957,-0.11936698853969574,-0.09760785102844238,0.19450828433036804,-0.13751482963562012,0.7477120231566916,-0.14790321356650418,0.6468702699128303,0.024702253403700438
1681249683481692700,5.179692626953125,-0.7561055421829224,1.1269663572311401,1.2601031064987183,0.9801394939422607,0.171259343624115,-0.09998389333486557,-0.10442239046096802,0.20869974792003632,-0.16228431463241577,0.7407941264843597,-0.14640781895403457,0.6546547221243658,0.03487086724162345
1681249683496725500,5.1947255859375,-0.6511430740356445,1.0635173320770264,1.1870293617248535,0.9846236109733582,0.15418334305286407,-0.08212154358625412,-0.10252827405929565,0.23869994282722473,-0.18132156133651733,0.7342590531445111,-0.144535324180976,0.6618525266666079,0.043868830014968246
1681249683511758600,5.209758544921875,-0.720616340637207,1.0443148612976074,1.1306010484695435,0.9883274435997009,0.13775914907455444,-0.06504669785499573,-0.10531669855117798,0.28770166635513306,-0.2317979335784912,0.7278535638108915,-0.14282938899282305,0.6686377329873591,0.05246383970050455
1681249683526791700,5.224791748046875,-0.9408711791038513,0.9904414415359497,1.107176661491394,0.9913779497146606,0.12184234708547592,-0.04820939898490906,-0.10545271635055542,0.2749471962451935,-0.21218198537826538,0.7213245665773371,-0.1421133916808004,0.6750548747056807,0.06160789328715298
1681249683541825500,5.239825439453125,-1.1557350158691406,0.8906432390213013,1.1006401777267456,0.9938368797302246,0.10601557791233063,-0.03238261491060257,-0.08276528120040894,0.22578676044940948,-0.13996553421020508,0.7148546923736145,-0.14265282554480388,0.680778131159975,0.07192982625523751
1681249683556858600,5.254858642578125,-1.2105004787445068,0.8111976981163025,1.1191071271896362,0.9957907199859619,0.0898854210972786,-0.017917485907673836,-0.07075738906860352,0.24803569912910461,-0.14703017473220825,0.7085551392204208,-0.1438764611056955,0.6858139842798222,0.08311538854525051
1681249683571891500,5.269891357421875,-1.123624324798584,0.7466410398483276,1.152910828590393,0.9973151087760925,0.07307137548923492,-0.0047819302417337894,-0.06527787446975708,0.36607658863067627,-0.2290744185447693,0.7024890376646495,-0.14472612095184728,0.6904081291042854,0.09433959752954849
1681249683586924500,5.284924560546875,-1.022474765777588,0.6699132323265076,1.1332495212554932,0.9984172582626343,0.05581340193748474,0.006911267526447773,-0.06518977880477905,0.42738667130470276,-0.29141151905059814,0.6967620394117832,-0.14492342257601804,0.6945882488034625,0.10519964814012275
1681249683601958400,5.29995849609375,-0.8968809843063354,0.5748711824417114,1.0806385278701782,0.9990931153297424,0.03905576467514038,0.016955045983195305,-0.06006729602813721,0.4416724145412445,-0.3743617534637451,0.6915368334990382,-0.1446791318540197,0.6982445645379635,0.11532215214386202
1681249683616991500,5.314991455078125,-0.6754730343818665,0.503250241279602,1.0474331378936768,0.9994164705276489,0.022848859429359436,0.025388406589627266,-0.0563623309135437,0.45496487617492676,-0.40347087383270264,0.6868945618202879,-0.14369550079518048,0.7014597679643574,0.12442513845091387
1681249683632024600,5.330024658203125,-0.3623752295970917,0.4675239622592926,1.018255591392517,0.9994365572929382,0.007119168993085623,0.032802432775497437,-0.026780247688293457,0.5140447616577148,-0.4508476257324219,0.682773941506299,-0.14140423116667797,0.7045608988732597,0.13197942143736704
1681249683647057400,5.345057373046875,-0.0680069699883461,0.4066030979156494,0.9497582912445068,0.9991924166679382,-0.007822800427675247,0.039411529898643494,0.002943754196166992,0.5580242276191711,-0.47645390033721924,0.6792220645348972,-0.1376657578774163,0.7076396716310942,0.13766472434416546
1681249683662091500,5.360091552734375,0.16697938740253448,0.30771592259407043,0.8134792447090149,0.9987718462944031,-0.0211129542440176,0.04481983929872513,0.10585755109786987,0.600534975528717,-0.5170794725418091,0.6764232455568415,-0.13307755238747299,0.7104226100269313,0.14156816789372934
1681249683677124600,5.37512451171875,0.3890983462333679,0.18537960946559906,0.6193134784698486,0.9983127117156982,-0.03168562054634094,0.04865916073322296,0.15934109687805176,0.6071098446846008,-0.5300893783569336,0.6746046572088379,-0.12806814640875339,0.7126907669664203,0.14345377247002067
1681249683692157400,5.390157470703125,0.5473718047142029,0.049490220844745636,0.3954375684261322,0.9979570508003235,-0.03897428140044212,0.05062136426568031,0.21862608194351196,0.6228518486022949,-0.5371785163879395,0.6738923348436268,-0.12305364299318518,0.7142607950635952,0.14338186867100336
1681249683707190500,5.4051904296875,0.5847833752632141,-0.049021705985069275,0.1359705626964569,0.9977944493293762,-0.04253099486231804,0.05096283182501793,0.2151418924331665,0.617344856262207,-0.5287461280822754,0.6741332677849206,-0.11870923528848627,0.715115048748691,0.1416434214397327
1681249683722224400,5.420224365234375,0.5660101175308228,-0.13115999102592468,-0.1313415765762329,0.9978628754615784,-0.042099036276340485,0.04997291415929794,0.17224204540252686,0.5668640732765198,-0.4842534065246582,0.6751272277907714,-0.11568724440963453,0.7152642303339535,0.13862447215257195
1681249683737257500,5.435257568359375,0.5939871072769165,-0.23967261612415314,-0.39189085364341736,0.9981556534767151,-0.03771687299013138,0.047564927488565445,0.17356657981872559,0.5389223098754883,-0.453281044960022,0.67687830517117,-0.11400732135254368,0.7146920970986674,0.13436208301162667
1681249683752290600,5.45029052734375,0.7472560405731201,-0.3727150559425354,-0.6324132084846497,0.9986281394958496,-0.029506251215934753,0.043256763368844986,0.23382419347763062,0.523463785648346,-0.41805851459503174,0.6796173305707373,-0.11308315666623077,0.7133306258273712,0.12842067196777723
1681249683767323400,5.465323486328125,0.9365431666374207,-0.485155314207077,-0.8363439440727234,0.9991521239280701,-0.017863191664218903,0.037089426070451736,0.2557610273361206,0.5252179503440857,-0.40987706184387207,0.6833260755728685,-0.11236031585643336,0.7112804463192459,0.12050145648649976
1681249683782357500,5.480357421875,1.139182686805725,-0.6058546304702759,-0.9856804609298706,0.9995749592781067,-0.0033518450800329447,0.02895408123731613,0.2513556480407715,0.5421091914176941,-0.41223978996276855,0.6879591942388548,-0.11148684498324167,0.7085532613536615,0.11061175895802378
1681249683797390300,5.495390380859375,1.350113034248352,-0.7413091063499451,-1.1419159173965454,0.9997396469116211,0.013108162209391594,0.018667150288820267,0.23414689302444458,0.5265341401100159,-0.397405743598938,0.693439386677628,-0.1101560404840264,0.7051235511022165,0.09903577282732774
1681249683812423400,5.51042333984375,1.587581753730774,-0.8320629596710205,-1.3264055252075195,0.999468207359314,0.032004620879888535,0.006235005334019661,0.10708385705947876,0.4793936610221863,-0.33153724670410156,0.6996983078497142,-0.10849214396636028,0.7009614521065382,0.0854675513225137
1681249683827456500,5.52545654296875,1.8702802658081055,-0.8759580254554749,-1.5042967796325684,0.9985482096672058,0.053310804069042206,-0.0077230376191437244,0.017412543296813965,0.4341922700405121,-0.2890910506248474,0.7064123545121396,-0.10633017358783559,0.6962990560396175,0.06959300902920512
1681249683842490400,5.540490478515625,2.1934046745300293,-0.9364359974861145,-1.6432905197143555,0.9967923164367676,0.07656726241111755,-0.02329498529434204,-0.05999422073364258,0.36940139532089233,-0.2278037667274475,0.713455443096024,-0.10332842840855534,0.6911408996168298,0.0512726134788909
1681249683857523500,5.5555234375,2.5181221961975098,-1.0196524858474731,-1.7036646604537964,0.9940791130065918,0.10060874372720718,-0.04104598984122276,-0.02804511785507202,0.3397751450538635,-0.19505339860916138,0.7208170521893086,-0.09902820806093904,0.6853250462058781,0.030754528580598316
1681249683872556800,5.570556884765625,2.8071794509887695,-1.1356196403503418,-1.6821333169937134,0.9903737306594849,0.12393416464328766,-0.06164349988102913,0.12403655052185059,0.31728893518447876,-0.14399933815002441,0.7285246411888696,-0.09304194211100413,0.6786173046512818,0.008570757843174282
1681249683887589600,5.585589599609375,3.0160043239593506,-1.2604800462722778,-1.6021947860717773,0.9857119917869568,0.14520396292209625,-0.08536720275878906,0.20258134603500366,0.29232650995254517,-0.09798252582550049,0.7365275880657269,-0.08535312156991016,0.6708436795620397,-0.014514632269834677
1681249683902623700,5.600623779296875,3.08676815032959,-1.3883492946624756,-1.4751529693603516,0.980157196521759,0.1634950041770935,-0.11207745969295502,0.32221102714538574,0.2570829391479492,-0.02883763611316681,0.7447293001754067,-0.07631033594593042,0.6619199373129072,-0.03764346841737705
1681249683917656600,5.615656494140625,3.0485081672668457,-1.531160831451416,-1.335551381111145,0.973760724067688,0.17828956246376038,-0.1414315551519394,0.37134724855422974,0.23458269238471985,0.013135552406311035,0.7530736325690748,-0.06647192776989967,0.6518172313072997,-0.059965470197067314
1681249683932689700,5.630689697265625,2.8890631198883057,-1.6670507192611694,-1.2127412557601929,0.9664469361305237,0.1898343414068222,-0.17304140329360962,0.4236287474632263,0.1946108192205429,0.061728402972221375,0.761556526760721,-0.05655270498657951,0.6405318809706353,-0.08094692941679706
1681249683947722800,5.64572265625,2.587973117828369,-1.7808161973953247,-1.1185051202774048,0.958126962184906,0.1988244205713272,-0.20606234669685364,0.4217711091041565,0.1698889583349228,0.10607138276100159,0.7700745086441548,-0.04744190948158314,0.6282659381048062,-0.10008246590975911
1681249683962756600,5.660756591796875,2.1091785430908203,-1.8750529289245605,-1.090409755706787,0.9486448168754578,0.20667821168899536,-0.2394937425851822,0.35697340965270996,0.10930074751377106,0.16545796394348145,0.778507876350925,-0.04032000654417886,0.6153270881432865,-0.11692913082683265
1681249683977789700,5.675789794921875,1.5071296691894531,-1.9311950206756592,-1.1207821369171143,0.9378032088279724,0.21533197164535522,-0.27231812477111816,0.3173084259033203,0.06752017140388489,0.2163487672805786,0.7867366639749427,-0.036470618555118274,0.6020887285457565,-0.13116540374970845
1681249683992822500,5.690822509765625,0.8626020550727844,-1.9734777212142944,-1.199641466140747,0.9254924654960632,0.22645612061023712,-0.30361369252204895,0.2192370891571045,-0.0036473125219345093,0.285211443901062,0.794610903190106,-0.0366341811440315,0.5889406513856442,-0.14282957119260078
1681249684007855600,5.705855712890625,0.27709537744522095,-1.9782757759094238,-1.3051100969314575,0.9116522073745728,0.24105136096477509,-0.3328428566455841,0.1943047046661377,-0.03438635170459747,0.33101171255111694,0.8020295325922735,-0.04093608021663816,0.5761100612401197,-0.15221697789527636
1681249684022889700,5.7208896484375,-0.21299158036708832,-1.9511610269546509,-1.4183357954025269,0.8962795734405518,0.25940775871276855,-0.35970890522003174,0.15683621168136597,-0.06639936566352844,0.3723430633544922,0.8088691973453248,-0.04888114233414829,0.5636986663608258,-0.1599532458590515
1681249684037922600,5.735922607421875,-0.6537667512893677,-1.8963803052902222,-1.5279014110565186,0.8795173168182373,0.28155794739723206,-0.3836327791213989,0.1500234603881836,-0.0852232277393341,0.40313345193862915,0.8149594944112949,-0.06012478497545822,0.5518773589091484,-0.16630453106798346
1681249684052955600,5.75095556640625,-0.9783903956413269,-1.8132745027542114,-1.62666654586792,0.8615266680717468,0.3071575164794922,-0.40425968170166016,0.13677948713302612,-0.10635191202163696,0.4319084882736206,0.8201530695610145,-0.07405872038100696,0.5407267913903607,-0.17169349472344794
1681249684067988700,5.76598876953125,-1.1545515060424805,-1.7238357067108154,-1.691063404083252,0.8425194621086121,0.3351266086101532,-0.42172369360923767,0.1456395387649536,-0.12280064821243286,0.4533551037311554,0.8244329617488159,-0.08970643007528546,0.5301800761559958,-0.17655580839116303
1681249684083022600,5.781022705078125,-1.2161569595336914,-1.633538007736206,-1.7359906435012817,0.8226598501205444,0.36429712176322937,-0.4364839196205139,0.17540216445922852,-0.11448031663894653,0.46999213099479675,0.8278795373436546,-0.10614403632455514,0.5200879608804143,-0.18126566986987894
1681249684098055700,5.7960556640625,-1.1991227865219116,-1.5305472612380981,-1.765168309211731,0.802121102809906,0.3937857449054718,-0.44892576336860657,0.18648046255111694,-0.1305869221687317,0.4853789210319519,0.8305537992670353,-0.12268681797794848,0.5103773663030534,-0.1861267272000354
1681249684113088500,5.811088623046875,-1.1198947429656982,-1.4049639701843262,-1.765993356704712,0.7812387347221375,0.4227803647518158,-0.45926326513290405,0.1546284556388855,-0.14931240677833557,0.498981773853302,0.8324809108631761,-0.13875652843483716,0.5011137592444359,-0.19132985983549905
1681249684128121600,5.82612158203125,-1.0307565927505493,-1.2826441526412964,-1.7309660911560059,0.7603819370269775,0.4505801200866699,-0.46775707602500916,0.1539245843887329,-0.17425879836082458,0.511671781539917,0.8337557847133773,-0.15399808557502073,0.4923474832950579,-0.19679854127604984
1681249684143155500,5.841155517578125,-0.9532390236854553,-1.1583441495895386,-1.6650863885879517,0.7398584485054016,0.4767886698246002,-0.4746387302875519,0.1492711305618286,-0.205365389585495,0.5350939631462097,0.8344868512903659,-0.16828090680916433,0.4841096627356265,-0.2023635066899788
1681249684158188500,5.8561884765625,-0.8948884606361389,-1.0384408235549927,-1.5706120729446411,0.7200700640678406,0.5012032985687256,-0.4798899292945862,0.16442084312438965,-0.23798924684524536,0.5490731596946716,0.8347348158098589,-0.1816166912328963,0.47651906069333144,-0.20775635821831176
1681249684173221600,5.8712216796875,-0.8309216499328613,-0.9109540581703186,-1.4401206970214844,0.7013850212097168,0.5235974788665771,-0.4836369752883911,0.17350804805755615,-0.2765730023384094,0.5614109039306641,0.8345969324950515,-0.19396038845858218,0.4696391034516117,-0.21275908727446033
1681249684188254700,5.886254638671875,-0.7572716474533081,-0.7606391310691833,-1.2762593030929565,0.6843969821929932,0.543556272983551,-0.48594996333122253,0.18054741621017456,-0.2979965806007385,0.5636017918586731,0.8341319242912955,-0.20506084564693325,0.46365404019846945,-0.21725324947661773
1681249684203288600,5.90128857421875,-0.6856673359870911,-0.6203653812408447,-1.0966171026229858,0.6694654822349548,0.5609371662139893,-0.4869963824748993,0.1855912208557129,-0.3047879934310913,0.5577055215835571,0.833431306060306,-0.21484639372543715,0.4586314781304468,-0.2211119214610573
1681249684218321700,5.91632177734375,-0.6144449710845947,-0.46635979413986206,-0.9099409580230713,0.6568798422813416,0.5757197141647339,-0.48688367009162903,0.18891477584838867,-0.31432145833969116,0.5559601187705994,0.8325544014155396,-0.22328751635104904,0.4546436563614569,-0.22426540942710188
1681249684233354500,5.9313544921875,-0.5163573622703552,-0.2713027000427246,-0.7137061953544617,0.6470116376876831,0.587844967842102,-0.48560699820518494,0.16924196481704712,-0.3235475420951843,0.5471150875091553,0.8314862185232491,-0.2302417522147571,0.45186860118857847,-0.22679077152366045
1681249684248387600,5.9463876953125,-0.4664372205734253,-0.08950760960578918,-0.5370180010795593,0.6401627659797668,0.5974293947219849,-0.482979953289032,0.18059217929840088,-0.3347952365875244,0.5374384522438049,0.8301600137861297,-0.235693063299805,0.4505094950713671,-0.22874491054780144
1681249684263421400,5.96142138671875,-0.42643314599990845,0.060442209243774414,-0.3306743800640106,0.6358968019485474,0.6050740480422974,-0.47908324003219604,0.25263768434524536,-0.34031885862350464,0.5199766755104065,0.8286431214066895,-0.2401114642085922,0.45033861003178416,-0.22998315883751147
1681249684278454500,5.97645458984375,-0.37494996190071106,0.25519439578056335,-0.16769452393054962,0.6348764896392822,0.6101754903793335,-0.47393855452537537,0.266734778881073,-0.361564040184021,0.5030674338340759,0.8269590238936669,-0.24307765538264178,0.45160156989325645,-0.2304520102302648
1681249684293487600,5.991487548828125,-0.31176114082336426,0.44325190782546997,0.028313877061009407,0.6365466713905334,0.6134324669837952,-0.4674493074417114,0.2689555883407593,-0.36044180393218994,0.48492056131362915,0.8250132192701461,-0.24494097914653568,0.4541797689750059,-0.23038603417553358
1681249684308521700,6.006521728515625,-0.2709793746471405,0.6802393794059753,0.2620699107646942,0.641868531703949,0.6140220761299133,-0.4593272805213928,0.24863427877426147,-0.3564385771751404,0.45957133173942566,0.8227802953776,-0.245222864998709,0.4584780357232026,-0.22955621796449824
1681249684323554600,6.021554443359375,-0.28319746255874634,0.7970994114875793,0.5189658403396606,0.6504685282707214,0.6121764779090881,-0.44958922266960144,0.3127729296684265,-0.36797499656677246,0.41415825486183167,0.8203589732492704,-0.24431225871890688,0.46423797966613306,-0.22760846863379489
1681249684338587600,6.036587646484375,-0.2581724226474762,0.9028072357177734,0.8352774977684021,0.6623303294181824,0.6073753833770752,-0.4386498034000397,0.37154412269592285,-0.36263972520828247,0.386418879032135,0.8180126709247618,-0.2422219707149217,0.4711725930839816,-0.22400930699028196
1681249684353620500,6.051620361328125,-0.17066261172294617,0.9843311309814453,1.150526523590088,0.6774831414222717,0.5988189578056335,-0.4271211624145508,0.483909010887146,-0.33002012968063354,0.34389954805374146,0.8158827533833763,-0.23845058395927662,0.47914584365650587,-0.21885143500659346
1681249684368654800,6.06665478515625,-0.08659621328115463,1.0202054977416992,1.4443365335464478,0.6954355835914612,0.586144745349884,-0.41569653153419495,0.49310189485549927,-0.2740720510482788,0.3144696354866028,0.8141350978441697,-0.23283520513937575,0.4877904321159497,-0.2122080700576403
1681249684383687700,6.081687744140625,-0.0267715435475111,1.0978909730911255,1.6707483530044556,0.715506374835968,0.5699551701545715,-0.4039821922779083,0.3456965684890747,-0.19725936651229858,0.26299089193344116,0.8125714053793635,-0.22577637026158429,0.4970250850494054,-0.20425161141331752
1681249684398720800,6.096720703125,0.04879149794578552,1.1968064308166504,1.7990795373916626,0.7370740175247192,0.5508207082748413,-0.3915589451789856,0.1766679883003235,-0.18158859014511108,0.22799986600875854,0.8108851706677441,-0.21738811382857406,0.5069151194769297,-0.19556240822375662
1681249684413753900,6.11175390625,0.13598929345607758,1.291573405265808,1.8020957708358765,0.7589510679244995,0.5299853086471558,-0.378297358751297,-0.06699556112289429,-0.18757814168930054,0.15585464239120483,0.8088331177288124,-0.20808957503896947,0.517252405788002,-0.18691633341165367
1681249684428787700,6.12678759765625,0.2207835465669632,1.3756608963012695,1.7551021575927734,0.7802842259407043,0.5084132552146912,-0.3642423152923584,-0.12122666835784912,-0.16904258728027344,0.12426722049713135,0.8063051381771331,-0.19818301787901207,0.5278279380046147,-0.1788663319002002
1681249684443820800,6.14182080078125,0.293042927980423,1.4365508556365967,1.6927740573883057,0.8007197380065918,0.48654085397720337,-0.349465012550354,-0.10800135135650635,-0.17214882373809814,0.11231279373168945,0.8033151399048214,-0.18786005360556568,0.5384942800124971,-0.17151453726636312
1681249684458853600,6.156853515625,0.3525143563747406,1.5015742778778076,1.6821686029434204,0.8202844262123108,0.46439307928085327,-0.33387491106987,-0.09829962253570557,-0.17163798213005066,0.10415375232696533,0.799880622908898,-0.17719246440552472,0.5492407278139833,-0.16470686644687726
1681249684473886700,6.17188671875,0.41895782947540283,1.5721715688705444,1.7102411985397339,0.8393427729606628,0.44137224555015564,-0.3173234760761261,-0.016512691974639893,-0.16126671433448792,0.11070412397384644,0.7960243022943962,-0.16595213372849332,0.5601768955667624,-0.1581360961322844
1681249684488920600,6.186920654296875,0.5584421753883362,1.5993695259094238,1.788388967514038,0.858001172542572,0.41686373949050903,-0.3000977337360382,0.04151970148086548,-0.11086392402648926,0.10924068093299866,0.7918622644199802,-0.1538097973994848,0.5712212157197676,-0.15166749172958927
1681249684503953700,6.20195361328125,0.7535626888275146,1.5423585176467896,1.8610568046569824,0.8760248422622681,0.39014285802841187,-0.28349435329437256,0.20719653367996216,-0.02312326431274414,0.07182431221008301,0.7877878680189065,-0.1402320309194271,0.5818829762126301,-0.14538719319519544
1681249684518986800,6.21698681640625,0.9103513360023499,1.4906103610992432,1.9065401554107666,0.8929306864738464,0.3616248667240143,-0.26814597845077515,0.2562086582183838,0.028542309999465942,0.0031312108039855957,0.7839747111081949,-0.12534248348386684,0.5917907349000111,-0.13948695685051948
1681249684534019600,6.23201953125,0.9201548099517822,1.4725219011306763,1.9425631761550903,0.9087847471237183,0.3318972587585449,-0.2528919279575348,0.2893657684326172,0.0721859335899353,-0.06697815656661987,0.7801213126320311,-0.10973049716131497,0.6012597259733542,-0.1336286681597872
