seconds_elapsed,rotationRateX,rotationRateY,rotationRateZ,gravityX,gravityY,gravityZ,accelerationX,accelerationY,accelerationZ,quaternionW,quaternionX,quaternionY,quaternionZ
3.0,0.5370600148346966,0.7023885273526848,1.682392233611604,0.9996829032433308,0.02327667876076761,0.009371907578201213,-0.00549645874396705,0.5128550483296666,-0.36205284038695507,0.4665700537853716,-0.5426822047285186,0.4584549801589792,0.5269025074351811
3.01,0.5662254127234492,0.6648793683621257,1.5074169747809154,0.9997700920755477,0.007803441488853303,0.016045170155358536,-0.02233167462652842,0.5059064274912584,-0.39146255732260166,0.4623996449909769,-0.5395705803747223,0.46567734640702085,0.5274041813338817
3.0199999999999996,0.6312415601400768,0.6352102274859954,1.3340943226593494,0.9996748864854003,-0.006271351544521148,0.022552250655756258,-0.03891206070794227,0.5060304203154791,-0.41279156000773315,0.4587506247528527,-0.5365733504939376,0.4725874402260198,0.5275098944583552
3.0299999999999994,0.7310178925224183,0.6131122187053456,1.162438326636903,0.9994018957719212,-0.018978671452917095,0.02889734796295011,-0.05515510548155081,0.5130400729761347,-0.4263561025000982,0.45561206750868327,-0.5336875031419249,0.4791930928615896,0.5272277296038572
3.039999999999999,0.8282063127185413,0.5834446562880722,1.0054833901098224,0.9989256998278133,-0.029121305559686433,0.03505713802381991,-0.050618754277105917,0.5260349884563897,-0.456734707537329,0.4535729256035546,-0.5309012051240787,0.4854369709388416,0.5260612158164804
3.049999999999999,0.9132465987952276,0.5333018956521494,0.8513593220728339,0.9984143468080384,-0.0380568597375607,0.040924830944949676,-0.03239839255771405,0.537222598035755,-0.4774223222462288,0.45207309794412626,-0.5281362333783567,0.4914408024660003,0.5245621408483636
3.0599999999999987,0.98618965654277,0.4627697364880045,0.7000542599965743,0.997867984035527,-0.04579039215902323,0.04650165073618275,-0.0005513620816063047,0.5466104750859334,-0.48845955595136825,0.4511103245769254,-0.5253924985387111,0.49720559333905107,0.5227318982706974
3.0699999999999985,1.044181366231366,0.37415850798833106,0.5452915102042318,0.9973829987046238,-0.0510668014990676,0.05094407030443535,0.07644144093129128,0.5516477425818925,-0.4909908580776927,0.4513126263360927,-0.5226349430797065,0.5023025168905899,0.52042501783011
3.0799999999999983,1.074328257812762,0.2866973595480176,0.40292540844350644,0.9969638488965095,-0.0552332359476221,0.05479478267519567,0.12771315495735414,0.5605582510705202,-0.4956677699125434,0.4520078020928472,-0.5199088050385547,0.5070297467661689,0.5179647243628949
3.089999999999998,1.076031326606813,0.20045642632563343,0.2732471909891623,0.9966118876895256,-0.058270336143955916,0.05804304175382025,0.1525673176485811,0.5734409352357184,-0.5025598975018233,0.4532042684923214,-0.5172148347889383,0.5113804696021045,0.5153486748572704
3.099999999999998,1.011275005778894,0.09948668051917386,0.15505948314225348,0.9964277879530399,-0.05949200687463389,0.059915491009724216,0.17578506676294053,0.5803436723946581,-0.5028756433328095,0.4550695827154614,-0.5147168253190997,0.5147963448302234,0.5127853729757474
3.1099999999999977,0.9430582976948944,0.0008636694718150428,0.030845035173207275,0.9963435370126689,-0.059814272380478,0.06100554857043045,0.18659288267279775,0.5758242048522847,-0.49661438978632083,0.4572159625248449,-0.5123828199597682,0.5176502133848598,0.5103383343430863
3.1199999999999974,0.8718380595845515,-0.09515456164034254,-0.09980876373802391,0.9963625689904516,-0.05920908026820505,0.061286879860765565,0.18438136685443285,0.5593641213171278,-0.4835073838869153,0.45965121024899835,-0.5102192167225145,0.5199226513320087,0.5080129128289698
3.1299999999999972,0.8727509010618244,-0.1607706191432447,-0.22669619524284962,0.9965654282010038,-0.0567253698355011,0.0602986147322341,0.15304069012046173,0.5335733061488851,-0.44877927887165736,0.46273701554786534,-0.5083573409920172,0.5212671630673638,0.5056851966327643
3.139999999999997,0.8962647510555553,-0.22231621364739848,-0.348431138028597,0.996835056883666,-0.05333157612832741,0.05886004403056672,0.13178934985468638,0.5210988133372286,-0.424224615064137,0.4662042881949267,-0.5065727652469809,0.5223144192754328,0.5032024695582519
3.149999999999997,0.9429327862271564,-0.2799884590731243,-0.4646714006343605,0.9971735881884782,-0.0489879360895442,0.056957289836140935,0.12191956442627935,0.5231499450928193,-0.4110142813853525,0.4700720272798177,-0.5048664437706555,0.5230567900614965,0.5005525448147573
3.1599999999999966,1.0518704232864295,-0.3348442071522734,-0.5797775696657271,0.9975970081033466,-0.04289982965900133,0.054187774561708035,0.128191476853554,0.5385412987095536,-0.3977514117456727,0.4748586236919957,-0.5031040301199363,0.5234296093645273,0.4973915008992529
3.1699999999999964,1.1943032999808567,-0.3867156050977515,-0.6901894094795508,0.998032031203497,-0.035951840251753596,0.051018745344900286,0.13323178223754223,0.5444975004039369,-0.39016072777776417,0.4802025318779019,-0.501192929447969,0.5237488751958788,0.4938331273203887
3.179999999999996,1.3722716059085864,-0.43535204550959666,-0.7954296605072605,0.998477768744098,-0.028095268804886844,0.047428993482175746,0.1365010264265394,0.5396657165656299,-0.38885475881207193,0.4861406512885225,-0.4991185334316516,0.5240181289594771,0.4898474891879797
3.189999999999996,1.5595255473866725,-0.5122903416510579,-0.8832853532842263,0.9988784874853907,-0.01874306854738835,0.04281967240197742,0.14197394753820222,0.5391539451525215,-0.3933897902280348,0.4933135594965728,-0.4964757876770165,0.5243261605021308,0.484966544916166
3.1999999999999957,1.7311878522917914,-0.5938993969019468,-0.9741788684746432,0.9992226081560576,-0.00873397107645148,0.03746813253332462,0.14298544114468403,0.5345920159076569,-0.39008345924219884,0.5010972733758664,-0.49349953832886123,0.5245825579215374,0.4797055425976451
3.2099999999999955,1.8847997950463038,-0.6798650623993636,-1.0691157444566282,0.9995038666564555,0.001971832799008512,0.03130673545320822,0.13884728570057256,0.5252767454757454,-0.3776596361286276,0.5095340786593562,-0.49016311903210497,0.5247789074343765,0.4740424636463942
3.2199999999999953,2.012729925475497,-0.7336276876271051,-1.156179564671615,0.9995661376125707,0.014039184343688796,0.023751412046554166,0.07389202652405577,0.4881004455555305,-0.3416299340755159,0.5189931799262953,-0.48636591482538194,0.5247059542248511,0.4676560220751032
3.229999999999995,2.1711850570563547,-0.7898702408825182,-1.23161465285227,0.9994686001087556,0.026507508593621935,0.01558652040788162,0.024290844574974005,0.4556730746938425,-0.30956367915568567,0.5288878575883496,-0.48225246073220734,0.5246105655800986,0.4608773285102387
3.239999999999995,2.3664169883504016,-0.8503977587751131,-1.2937998163597957,0.9991937466296084,0.039385756563195,0.006769340576876818,-0.004748583275558556,0.4299951500942253,-0.2831457079949692,0.5392475075038119,-0.4777892917330802,0.5245005583984081,0.4536714153083185
3.2499999999999947,2.614723982068356,-0.9177765478843687,-1.3266998632582516,0.9985287924687618,0.05271027884758141,-0.003542969422345785,0.02549122833996325,0.41727854153491717,-0.26334165460076,0.5506526602747484,-0.4722855885909531,0.524555760262765,0.4454764600676245
3.2599999999999945,2.85382858945178,-1.0034250527855901,-1.3389589367469534,0.9976438578536211,0.06583584566576059,-0.01483069928629066,0.07265470126693159,0.41390434178641045,-0.2485059792575476,0.5625498238264127,-0.46606944186998517,0.5247288958449894,0.4368524483183962
3.2699999999999942,3.0790882025721498,-1.1106359175857958,-1.3279944153881853,0.9965155361201129,0.07869910198467943,-0.027210023194345664,0.13699746817033098,0.4210569809348307,-0.23928330308805795,0.5749822168119886,-0.4590532793137312,0.5250348327243307,0.4277657729411097
3.279999999999994,3.2137334911513316,-1.2369132543214205,-1.2967780578473092,0.9949085906856024,0.09054470774306013,-0.04203167674172407,0.2487385689508851,0.4178148864656336,-0.1966171906053447,0.5881293513764809,-0.45064480070679125,0.5252291305806179,0.4183075351339511
3.289999999999994,3.295453175052462,-1.364385112146209,-1.2551017693456352,0.9930267609047008,0.10163310892580232,-0.058082115767099006,0.32542821491197976,0.4026305440557447,-0.15500052004659937,0.6014447776850741,-0.4416513128093074,0.5252230245731143,0.40887373741421107
3.2999999999999936,3.3176507185353117,-1.4921242322985364,-1.2018099975412817,0.9908362910610321,0.11185230475126054,-0.075493091408322,0.35590685804708816,0.3733799985218223,-0.11679208700215928,0.6149224997711775,-0.43202460366536777,0.5249769022801622,0.39949356279506854
3.3099999999999934,3.2571769982240903,-1.6167857594862018,-1.1435890628482899,0.9880376308415905,0.12040447971001665,-0.09506579926856579,0.37750314910757277,0.3351634950192325,-0.05545369485884349,0.6283350432776381,-0.42170286406699276,0.5240005497300324,0.3906300602767631
3.319999999999993,3.1457201347687405,-1.7299120274281088,-1.093108746635178,0.9848822196578948,0.12814026083460364,-0.11551816674155754,0.3882927232258239,0.303929266615085,-0.004935230150150006,0.6415588679014087,-0.4112534335758703,0.5225489476688691,0.3821678093002309
3.329999999999993,2.9758539899334973,-1.828660756767664,-1.0527964413894253,0.9813203024615642,0.13496625444920182,-0.13692364387011347,0.3860589173903523,0.2822029871748406,0.03016264611029667,0.6545485761259813,-0.40069399937268385,0.5205498671965113,0.37417521812274507
3.3399999999999928,2.685690083916309,-1.9110420332581628,-1.0481066061547282,0.9769664730427502,0.14096753563209655,-0.15927663737323297,0.36069250879858866,0.2299413325145202,0.06857883793207173,0.6668440559536508,-0.3907097665032277,0.5173484241764653,0.3672227925761319
3.3499999999999925,2.3360106155707037,-1.985996823368181,-1.0614999342170444,0.9721296336392681,0.14702676590192507,-0.18186252362120967,0.3399530181874563,0.18500183226611552,0.10254497187935863,0.6786647324185733,-0.3814240296709659,0.5133617508051606,0.3609326013476797
3.3599999999999923,1.9192706288767891,-2.0527003921578646,-1.0953488093662425,0.9667326822891732,0.1532323520443193,-0.20466979318614317,0.3272228482786808,0.1522145678089503,0.130437163083949,0.6899275643612579,-0.37299734658035316,0.5084571823052206,0.35541427948504895
3.369999999999992,1.4097176898754322,-2.0980785181693364,-1.150942235620201,0.9603234073605666,0.16072883326978626,-0.22720469225046544,0.3013158597677271,0.1045232953642803,0.16440933806957417,0.7000559664565081,-0.3667495249656237,0.5018451098583075,0.35137152610794964
3.379999999999992,0.8887067492206073,-2.1327378900852896,-1.2182528380760336,0.9533451359810573,0.16934695397294156,-0.24933290206101333,0.28142885968033793,0.06480058386117739,0.19693205741093675,0.7095349603293154,-0.3618879624155724,0.49429912650707863,0.34812214729242535
3.3899999999999917,0.3615389203511198,-2.155173959942051,-1.2990799739528334,0.9457061861213314,0.17933698050963465,-0.27094436887704576,0.27088909447910325,0.03720020588886067,0.22691730263571377,0.7182578391231628,-0.35866439575033787,0.4856732859532844,0.3457876588336526
3.3999999999999915,-0.1047675149888157,-2.1683251782058575,-1.394403441969332,0.9369340873892984,0.19216095302079197,-0.2913336066916368,0.2424670916215371,-0.0014374519402706037,0.26185619485403483,0.7258351345247601,-0.358136518477108,0.47540880390494245,0.3446732732379025
3.4099999999999913,-0.5383285318765334,-2.161620808651341,-1.488915197207535,0.92757019149115,0.206548104391535,-0.3108538539214406,0.2229498902642418,-0.029497418708713807,0.2922037266590519,0.7328426606087087,-0.3589254858523149,0.46441307934043835,0.34402060273407387
3.419999999999991,-0.9337341499402345,-2.128688943963801,-1.5806896469221146,0.9175204441514804,0.222764686275609,-0.3293175635927207,0.21766285961563284,-0.0417960879377203,0.31569167562151274,0.7391959769264563,-0.36122107963615374,0.4525965906573898,0.34386541485660926
3.429999999999991,-1.255505733654719,-2.0836772469500993,-1.6784759672052025,0.9064686536105677,0.24176743466060308,-0.34562665148429517,0.20258877706811013,-0.04461892607446937,0.3401928413087121,0.7445645792221092,-0.36560153339289786,0.439797393470628,0.3441249398533139
3.4399999999999906,-1.5365583854836529,-2.033951804664096,-1.7760278547075454,0.8948594550538651,0.2621990929848082,-0.3607026005793014,0.19494481762104682,-0.053937208135081655,0.3616142730614965,0.74945761159802,-0.3709526080320426,0.42654235893592995,0.3444649126522107
3.4499999999999904,-1.7694087902237994,-1.9790944470209795,-1.8724911362747367,0.8825896589464761,0.28429678333321384,-0.3743092921140147,0.19902326457344216,-0.07361920481088283,0.37856040788818085,0.7538033918016929,-0.37741114043858337,0.4127676755865633,0.3448661868720969
3.45999999999999,-1.906120174133423,-1.895070968608484,-1.9577647023356133,0.8694234536712804,0.30835146645517986,-0.38541746549902556,0.1858863351839885,-0.08436134414318304,0.40045441565622797,0.7574211817565554,-0.38507574330142136,0.3985800486734955,0.3449856161811667
3.46999999999999,-1.9944178256111733,-1.8082704662669613,-2.036951587761311,0.8558063003208296,0.33314371655693553,-0.39521940608730743,0.17890981281918789,-0.09649972044849332,0.4183456392411537,0.7607215747716972,-0.393159359817909,0.38430674536346976,0.34483097047370204
3.4799999999999898,-2.026044452591513,-1.721556969092832,-2.1088870713867025,0.8416614172330008,0.35872985151370423,-0.40347886812054157,0.18330013324410332,-0.1119253168662686,0.42973144064982416,0.7636642252756192,-0.4016806771437026,0.36996741778126185,0.3443184738355625
3.4899999999999896,-1.9834001116843294,-1.6091200163536143,-2.159693944693428,0.8268585090459177,0.3847295267293477,-0.40961231561700084,0.17311361899032698,-0.12095068830197767,0.4412134763879811,0.766238005230523,-0.4103711427252501,0.3558665524210054,0.34304671948002174
3.4999999999999893,-1.9176611049557437,-1.4983772686336665,-2.199011669804262,0.8117867337267176,0.41063859516050144,-0.4146985383113509,0.16691799811611382,-0.13449382201788754,0.45008936948644684,0.7686556476857277,-0.4190020215148188,0.34201633703621054,0.34134059435997094
3.509999999999989,-1.829144289265685,-1.3941979941007583,-2.224514925076031,0.7964173483029464,0.4363476599721018,-0.41855700132650026,0.16896078962647462,-0.1557776050730165,0.4550643224932024,0.7708983796975528,-0.4275175063735973,0.3285024209218456,0.3391059770406417
3.519999999999989,-1.7157998182441263,-1.2946139398924146,-2.231788826663256,0.7807140519303754,0.4612343578962235,-0.42104239807227617,0.17085394751518945,-0.17635737554280095,0.461883987053859,0.7729890597938368,-0.43560670851242944,0.3155960605657865,0.3361574491957756
3.5299999999999887,-1.5896658752704735,-1.1914875456865042,-2.225339030677429,0.7649248627274862,0.48547917220728304,-0.4229060690813404,0.17460115842880422,-0.19865665876325342,0.4676898624119655,0.7750206371493434,-0.44339046200625043,0.3030924497860465,0.33284870757369167
3.5399999999999885,-1.4482430518589882,-1.0821302292786719,-2.2010197300278156,0.7490620858167071,0.5088829306446554,-0.4240554232733825,0.18121712155811784,-0.2237148837746716,0.4716203381402438,0.7769880555817856,-0.45078006989941666,0.29110062559412464,0.3291119048115242
3.5499999999999883,-1.306076354894367,-0.972933725316465,-2.158065905404698,0.7333984955868624,0.5306561679592497,-0.42443314403183197,0.16621665568675625,-0.2524539105602531,0.4727342549343138,0.7788932120968882,-0.4574659985230048,0.28003406780371287,0.3248536642604955
3.559999999999988,-1.170393571856882,-0.864970715414251,-2.101963133624647,0.7179618439143359,0.5514564166211279,-0.42445473657989363,0.15563851787541366,-0.27918836109509315,0.4727309398873372,0.7807494543482766,-0.4637708620214163,0.26950391397953194,0.32038538808108136
3.569999999999988,-1.0450749758740168,-0.7589213484195916,-2.028708893713151,0.7028447103330192,0.5710357969749356,-0.4240630332062333,0.15618107462324166,-0.3020562260674863,0.47150702542901063,0.7825405379877415,-0.46961007477297595,0.25964175771295606,0.3156860954165968
3.5799999999999876,-0.9167503184743986,-0.6543142345175237,-1.9306609677009017,0.6884837818887768,0.5887038492537502,-0.42324931078277994,0.1430363322404875,-0.32736791054845976,0.47242920869873084,0.7842166322705209,-0.4747784519723348,0.25080913413857125,0.31082850791019645
3.5899999999999874,-0.7805928286213818,-0.5510529521299841,-1.815169822624714,0.6747139877540294,0.6051690393343052,-0.42233143900181824,0.13434628442818244,-0.3504070112871331,0.47197555876156494,0.7858376384870875,-0.47952345739715035,0.24261216137909017,0.3059638682038147
3.599999999999987,-0.6323637537281614,-0.44967010419993686,-1.6766220796678406,0.6617433231992516,0.6200868895189346,-0.4213338190953714,0.13577637215767524,-0.36924274439033067,0.46883625669481005,0.7873935842462295,-0.48372344450390076,0.23522875729894116,0.3011212500309976
3.609999999999987,-0.5283375032666651,-0.369961766001758,-1.5074973392488824,0.6502620599563318,0.632649249098317,-0.42043052867617703,0.14089479725194604,-0.3815522151335871,0.4524319575591098,0.7888284580254393,-0.4871324356672605,0.2290433645786397,0.2965681506968731
3.619999999999987,-0.44447799788330855,-0.299507395877358,-1.3270882391786964,0.6397231775147255,0.643958748080008,-0.4195163393519163,0.15371686436029944,-0.3921321328655157,0.4376335977123874,0.7901297104344561,-0.4901885205029524,0.22348230485213014,0.2923122579332231
3.6299999999999866,-0.3840223559451236,-0.2394699847711107,-1.1349378509326558,0.6304114974624518,0.6537237386910514,-0.4185620994133251,0.17853812527178944,-0.4013389008440986,0.4285896099751259,0.7912360688717983,-0.49283910125499425,0.21868530225796634,0.28848516891352677
3.6399999999999864,-0.35666087714243594,-0.1790321094568063,-0.9507265030018897,0.6229212510455203,0.6615573172302004,-0.4174328545167894,0.23096608141881,-0.4130279750800579,0.4211131518389606,0.7920066966753744,-0.49507656392105387,0.21487851751168646,0.28537092731478075
3.649999999999986,-0.35088428130195687,-0.11792398671156896,-0.7655045133047408,0.616481312441673,0.668453496109632,-0.4160463697521726,0.2722577051352365,-0.41992455324628003,0.4150864313069261,0.7925364062150615,-0.4971916924542162,0.21159546303236706,0.28267885269552145
3.659999999999986,-0.3737750964476941,-0.05576688239581054,-0.576537592065868,0.6113828613539444,0.6742298270600168,-0.41426268300044916,0.28744486246058254,-0.41796691644791945,0.41115105681592673,0.7927376261185386,-0.49920146034628937,0.20896057776029664,0.2805308631841741
3.6699999999999857,-0.4417476382899699,0.01644480574758539,-0.3538751346482877,0.6083579173533541,0.6787235895983598,-0.41135821367287834,0.2862344748543031,-0.4163676918915893,0.4068057299070767,0.7922863906205556,-0.5013678782957539,0.20723684631311687,0.2792140880830729
3.6799999999999855,-0.5278019759365964,0.09125426261468544,-0.15403925350837291,0.6066463627207341,0.6824296033329137,-0.407748277189774,0.28473158291863965,-0.42071972316324713,0.4013708607288099,0.7914299462462968,-0.5036372394346502,0.20608964447398959,0.2784098531014792
3.6899999999999853,-0.6333454252362307,0.16787496284528552,-0.0038454513992681183,0.606682324644709,0.6850982397772905,-0.4032016313627846,0.2872432873948882,-0.4354875050856994,0.39412425550271374,0.7900378743705812,-0.5060451929922779,0.205709272673491,0.278281481216131
3.699999999999985,-0.727737322048068,0.1898333158620625,0.17348897146228337,0.608147339410427,0.6872216715185389,-0.39731436173944845,0.3153189476669394,-0.4414352467695999,0.3633172809357023,0.7879143330167517,-0.5089460607247414,0.2056983336637262,0.2790072444543784
3.709999999999985,-0.8082344617510001,0.21991905367383124,0.3623644236557651,0.6106703977136894,0.6887235015291452,-0.39078561531524575,0.34396406942686747,-0.4465421729043675,0.32809157360995317,0.7853934450289801,-0.5119957220955236,0.20606578750087315,0.2802584434408838
3.7199999999999847,-0.866820004877004,0.28121347974263006,0.5640656182404111,0.6146876427109692,0.6892590099690151,-0.3834935104200097,0.3659601568968244,-0.4527715867340617,0.29191380964263136,0.782369970998685,-0.5151677545748959,0.20701019226373973,0.28220824969027924
3.7299999999999844,-0.9036482429235164,0.27706523509295644,0.7771191253375856,0.6205940099399814,0.6882538712447137,-0.3756490000167412,0.41227983574925453,-0.44747895060154963,0.26755802956111596,0.7787736013876023,-0.5182988476567183,0.20864962328222605,0.28517207387306986
3.7399999999999842,-0.9531056707210059,0.2676441204167612,1.0028007614400356,0.6276247117051266,0.6862409372078392,-0.36755740510027485,0.44927568047995875,-0.4424827753699893,0.25419533117532034,0.7748201888619078,-0.521378261860304,0.2106653644887348,0.28881814200568257
3.749999999999984,-1.0333208576810051,0.269731056080556,1.2484203693635298,0.6361435835605362,0.6828442049730485,-0.35918361242550545,0.4608648068512761,-0.4418063075096708,0.2575554070279022,0.7703853682431455,-0.5243742796588963,0.21315868976888852,0.2934104539734914
3.759999999999984,-1.1429118906325353,0.2669793423199939,1.4653039288599468,0.6465575222631944,0.6777798112792159,-0.3499256585418316,0.43762920412005146,-0.4190187100096433,0.2600996017884833,0.765098892065514,-0.5275246683598565,0.21620306711667592,0.29924824704269215
3.7699999999999836,-1.2474558101703772,0.2788568721444142,1.6719781518589076,0.6579791786551412,0.6717456321420221,-0.34013550754588345,0.39834960727840574,-0.3927929789082408,0.26049141383200686,0.7593147380609482,-0.530767451188944,0.21956322636016107,0.30573070929997065
3.7799999999999834,-1.3318677633270963,0.32065301363218296,1.869143146910673,0.6706727465855106,0.6644321583549738,-0.32963232608526627,0.3404672848438749,-0.3677673258048101,0.25702227764772956,0.752872598065951,-0.5341337134235562,0.223337107709615,0.31301511792617787
3.789999999999983,-1.4089598331556397,0.3944357740227079,2.0368141272698783,0.6849109661420342,0.6553759361237372,-0.31801635519904475,0.21613751040059206,-0.33367479772277453,0.24525954211456763,0.7455844313902824,-0.5376459938663194,0.2278368148141918,0.32100516004448754
3.799999999999983,-1.4910080519505544,0.4788844526336159,2.1689032488275672,0.6998320168467903,0.6454493029444252,-0.3056404550048345,0.10519865957108747,-0.3083027597592839,0.23217011675699545,0.7378047728921385,-0.5413029423048467,0.23270977358747907,0.3292543037095589
3.8099999999999827,-1.5857079388281494,0.5722583890026423,2.241615730151457,0.7155173462567871,0.6344617060621175,-0.29218155677845614,0.046334981453803686,-0.30373003947510274,0.2196247237924075,0.7293731016006534,-0.5451912963374466,0.23804594119257608,0.33774763682609377
3.8199999999999825,-1.6285830478144605,0.6580657853343259,2.282528684568758,0.731503848657872,0.6225504967483686,-0.2774563585403001,-0.004432967974093288,-0.30780507476767793,0.2026901681373473,0.7202820303221413,-0.5493817983326602,0.2437674678633028,0.3461718378163589
3.8299999999999823,-1.6135778360819042,0.733240836899885,2.315307336316918,0.7475354817469486,0.6099993033027276,-0.26235870905881464,-0.03846827225861427,-0.30821498950570875,0.1814553590633,0.7109569450637926,-0.55356403469022,0.24973165139987924,0.3544843752806085
3.839999999999982,-1.5016108759178395,0.7897944647972187,2.344625145812501,0.763534590698691,0.5965213737167282,-0.24702392341599633,-0.041617407194506496,-0.2975384364072005,0.15324013931707192,0.7014263782685137,-0.5576040678158948,0.2560326369614289,0.36259706104741285
3.849999999999982,-1.2706449175872991,0.8309220312834551,2.3830968156016983,0.7793690013827131,0.5814010061038968,-0.23275075759001615,-0.005172316223718429,-0.2758332013387338,0.1070960027960453,0.6922232180033638,-0.5607217870819872,0.2630254586512776,0.3703016515673717
3.8599999999999817,-0.9846992264887711,0.8649672819657783,2.42777719692265,0.7950860588770081,0.5651728136235972,-0.21943714894247246,0.03382549232221284,-0.2509401371035862,0.06310488213682261,0.683375167885635,-0.563085696743386,0.27053514319924526,0.3777202147936579
3.8699999999999815,-0.6360595233863596,0.890979900791798,2.4814552276332,0.8106293231696238,0.5473432411054703,-0.2076721886913369,0.06048407538979632,-0.22426014479949352,0.031680206554948624,0.6751295450805412,-0.5642725548052703,0.27882528929439204,0.38471817526749374
3.8799999999999812,-0.25771126462286664,0.9013943265813339,2.549149344154128,0.8259188694436719,0.5274140451238447,-0.19820216453106132,0.13587663777207704,-0.18156872801415785,0.014567194891786296,0.6678503374873853,-0.5637210353827296,0.28821009286952554,0.39118584423534114
3.889999999999981,0.11520480512077047,0.9037657568138351,2.6246281001220626,0.8410456015044101,0.5061740488286292,-0.19008685488722388,0.21000591693629733,-0.1355693953046843,0.006123121796071544,0.6611501738520121,-0.5620886696120349,0.2982682743768471,0.39736399872698647
3.899999999999981,0.4619497522870727,0.8961790992823695,2.7102674373124804,0.8559407766592009,0.4830973377230161,-0.1838094076525254,0.25783924075379616,-0.0901113625131193,0.009620329691676508,0.6552425749657373,-0.5589452308164613,0.3092622491435426,0.40316863792150415
3.9099999999999806,0.7292926502813425,0.8980586336194252,2.7846411717212503,0.870427154231421,0.4580625785568901,-0.17900616437427494,0.3364561199172239,-0.029217383373310736,0.037980519348202825,0.6499844362646148,-0.5543102057325088,0.3211556700992442,0.40864698266993
3.9199999999999804,0.9409900397766355,0.9068744387688985,2.8540166710907755,0.884603549836684,0.43196913449461477,-0.17471963232042098,0.3974899256933938,0.025174612443699507,0.06613770174721716,0.644975090082108,-0.5489395465338363,0.33351108775589855,0.41394335937681714
3.92999999999998,1.0692023642554613,0.926321282242327,2.9180449485854965,0.8982974284168842,0.4045202232396929,-0.17082474092533542,0.4030596067104649,0.05694718756193935,0.08089738617702363,0.640185734444439,-0.5426952350320274,0.3464346009721547,0.4190014174618134
3.93999999999998,1.1211503104373017,0.962300432962484,2.941555466576385,0.9112163807093915,0.3760312436559743,-0.16648912828021756,0.36849707006400595,0.08114866901833473,0.09572416317445431,0.6352790376656201,-0.5359583906197424,0.359691007948077,0.4238378794829944
3.9499999999999797,1.1299698342747484,1.0120837992687215,2.936166712079165,0.9235508824672306,0.3472481622040199,-0.1615857617851804,0.31977724255086987,0.10148159190010984,0.10277966209124204,0.6302255301357905,-0.5291240213431998,0.3730329430483489,0.4284759857955474
3.9599999999999795,1.0817266158926957,1.0845514771513822,2.8866025372923216,0.9349670289349524,0.31836772390469076,-0.15561518038356162,0.26079714967632855,0.11710581873856851,0.09180501068797403,0.6248979560977964,-0.522340208738597,0.3863861167388669,0.43277918143153193
3.9699999999999793,0.9035495269360201,1.143374712293307,2.781018445240206,0.945142700286639,0.29031171710199233,-0.14797467414891038,0.1666018693878555,0.12537464155450379,0.05579089763747206,0.6190749261097973,-0.516173522243523,0.39932997291438843,0.43669830996350106
3.979999999999979,0.6900989865871727,1.201666451977159,2.6761245042107413,0.9545415154455621,0.2629972353491516,-0.1392035632778864,0.08242638125371773,0.1340698919366985,0.01697402625849606,0.6128091370035178,-0.5106256786870434,0.41182996436919506,0.4405043448416165
3.989999999999979,0.4707885701763869,1.2669240903980004,2.6066941046610146,0.9628327172667444,0.2369570687724012,-0.12873874108160152,0.043450595702491886,0.14822395398881216,-0.01342618800350883,0.6057843916821506,-0.5061841206206507,0.4235163633722452,0.4442719583467243
3.9999999999999787,0.5368787124048224,1.2699440113133267,2.4971257595710323,0.9700063392592397,0.2116713852620036,-0.11759865057837682,0.008704536125382936,0.16008156695778528,-0.06895293623011747,0.5986640667255518,-0.5019725936855104,0.4349050446417778,0.4476225856664441
4.0099999999999785,0.6947212356866533,1.258007371882938,2.3720629669204456,0.9764340303766262,0.18711788021801454,-0.10640930497222181,-0.017588376783983853,0.180459032038449,-0.12408408727720348,0.5918317206018953,-0.49767693761570025,0.446163678171323,0.4504727598284439
4.019999999999978,0.8937440594053756,1.2495601078439358,2.2348143349390046,0.9817461329254904,0.16388174845544465,-0.09553678212686977,-0.02576284914143205,0.22335649538666746,-0.1619262013518343,0.5857722294871616,-0.49302428962391287,0.45729460552129386,0.45235840691780255
4.029999999999978,1.0413952589427078,1.2315162532482098,2.110052682601911,0.9860874504389048,0.14176098236689885,-0.08481358977832441,-0.03253620150909653,0.30902796393420506,-0.20690139459441467,0.5804510125951514,-0.48791619682453174,0.4684498876686631,0.45328621518013607
4.039999999999978,1.111720474725816,1.2102052820440836,1.978570020600889,0.9898452437315957,0.12056226215979615,-0.07413848917805099,-0.04098464596621813,0.37954496391120146,-0.24203481038216743,0.5754790954458637,-0.4827425195491947,0.4794203945601343,0.4537463919262408
4.049999999999978,1.0207686851145725,1.1872635570136338,1.821236960054812,0.9927930113168574,0.10093567539441917,-0.06348176080912875,-0.05468153968069192,0.3815710436412055,-0.24709878057857407,0.5708823660044043,-0.477719541716506,0.4899028370040164,0.4536829626204601
4.059999999999977,0.8477660450957243,1.1603742981751428,1.6760924325261637,0.9950183287946521,0.0832499576175548,-0.05266466908767356,-0.08091437951165212,0.3550840019212533,-0.22741799353107278,0.5662177322657194,-0.47352192309783137,0.4993876502488081,0.4535609243038656
4.069999999999977,0.6509319762932212,1.1247188851756413,1.5385004466680128,0.9968359656789204,0.06671627678679833,-0.04186840234922643,-0.1040672444414367,0.32869652397605037,-0.20440157374884957,0.5614898916159335,-0.46986003467123366,0.5082065873670941,0.45349256639535807
4.079999999999977,0.4528376092414675,1.0689295410298143,1.411666101355004,0.9981212919313562,0.05176228686768888,-0.031247238257150353,-0.10970666293161209,0.3239505301341982,-0.1911513349208006,0.5566464516957926,-0.46699063284779463,0.516019346179023,0.45360957078336156
4.089999999999977,0.22958562892532533,1.0265163552118244,1.2892196500105713,0.998966569862759,0.038372229441721584,-0.020996925565148213,-0.10947008411719228,0.3230051084257842,-0.21204192239573774,0.5516461451674297,-0.46502190729500786,0.5227156460156132,0.454060072421628
4.0999999999999766,-0.01744304593316632,0.9834790977434021,1.1680315333658469,0.9995674304056104,0.025933688010560813,-0.010992052417538145,-0.10740024769059879,0.3238774559892713,-0.23803458887531764,0.5464985587788448,-0.46367846511142163,0.5286760798364778,0.45478039347557514
4.109999999999976,-0.30899069528417666,0.9279580899531078,1.0467355718859483,0.9998569100163492,0.014827605340560783,-0.0013571277662814685,-0.10507100933798011,0.326640061297838,-0.2504100900425929,0.5410760414069437,-0.46331306229475516,0.5335310494642518,0.4559672185887185
4.119999999999976,-0.631896901100837,0.8519837198199408,0.9266711770547266,0.9999140071133217,0.00508641128517869,0.007458337745991441,-0.09888246170255574,0.3177862560923593,-0.2666026105156255,0.5353052017649524,-0.46410815693961244,0.5369608752450071,0.457926790413276
4.129999999999976,-0.9357132787637502,0.7711737985135056,0.8097918538325491,0.9998514395414064,-0.0038191101643735882,0.01568333537043208,-0.09219459725224988,0.30932209968140356,-0.2823972320277603,0.5293386409756341,-0.4656063685954373,0.5394904042700207,0.46037285790024207
4.139999999999976,-1.1585773139238085,0.694431099103185,0.7008258825477357,0.9996526143977924,-0.011549873167037553,0.022952850568721282,-0.08743873153387537,0.31200859806257436,-0.29376709643178767,0.5231217384792529,-0.4680825179796683,0.5407151334878806,0.46352172054995716
4.1499999999999755,-1.2407679588291405,0.6277454710037302,0.6131536821066474,0.9993809451865228,-0.018329235671319572,0.029280608605655827,-0.07130881023760276,0.3504867201744656,-0.3270821118324774,0.5170143224672722,-0.47099225434061015,0.5411112110590974,0.46693477610281986
4.159999999999975,-1.2512113799713651,0.5668501224017717,0.5318504974847015,0.9990757553499025,-0.02452232737593474,0.035055312003974756,-0.05322886931429987,0.3988339813365308,-0.3641794001818276,0.5110796766906577,-0.4740434670167398,0.5411168275075067,0.47037926234428235
4.169999999999975,-1.1830028309457887,0.5135073683924353,0.44933976838147643,0.9987404411370522,-0.029888509567684945,0.040091116321943024,-0.040033182524815976,0.4427101057909549,-0.39191107902876127,0.5055476343905986,-0.4771045121814245,0.540753070625791,0.47366982188868234
4.179999999999975,-1.0721040625614404,0.4611517643264433,0.3707973017826407,0.9984058084614772,-0.034342937214132084,0.04456604238015583,-0.011285333480058841,0.48568256704411655,-0.43413889715154463,0.5006287032985219,-0.47997507934146044,0.5402798761128277,0.4765198152509545
4.189999999999975,-0.9367941013454326,0.4008996849146946,0.2969512308302338,0.9980838167075231,-0.038221726787615075,0.048594554135934886,0.02331680621583617,0.5196097859388571,-0.4739467618669423,0.4961704973817704,-0.4826514261445551,0.5397621378099329,0.47907399283457575
4.199999999999974,-0.7702856834436032,0.31579004923795323,0.23334324367459694,0.9977993606278271,-0.04127010730362884,0.05183318076120788,0.0600978693430591,0.5270933793843801,-0.4919728328395232,0.4924933171809168,-0.484930689612497,0.5392189444662739,0.48117351120929736
4.209999999999974,-0.5588873899719679,0.23008061154240897,0.18186960034492955,0.997577220431393,-0.0436067930367841,0.05415809584393048,0.1281834663773575,0.5574095577859691,-0.4984222793017597,0.4897592608704484,-0.4865854638207027,0.5388064449736549,0.48275491914879715
4.219999999999974,-0.32816980513624056,0.14874647891894646,0.1327550753698399,0.9973978547269721,-0.04547723193164461,0.05593203933250569,0.19338485771104388,0.5910423989804618,-0.5006659016878258,0.4876783910843272,-0.48779173669346493,0.5385398531773093,0.483945516742474
4.229999999999974,-0.0850246491618113,0.08177345690406596,0.0780231037127543,0.9972857661282104,-0.046649139146708755,0.05695847570805122,0.21596965965481085,0.610586217811663,-0.5021388735463316,0.4866339569377428,-0.4882615880967431,0.5385905558484511,0.4844664804076369
4.239999999999974,0.08706772443221336,0.014558937008241638,0.0007889456671751199,0.997250103710053,-0.04691968774329842,0.05736506799746741,0.22648389805123573,0.6193936061062152,-0.4987642677229702,0.48651642245499305,-0.48822276488903277,0.5388144321862354,0.48437503751140404
4.249999999999973,0.21009823813014056,-0.04979260165429098,-0.08991677341868426,0.9972696640126191,-0.04650702425949649,0.05735216683547952,0.22938750188397034,0.6182676989663292,-0.49228913848228906,0.48694826704362043,-0.48796564987625324,0.5390413373401599,0.48394696240039525
4.259999999999973,0.2553969225002697,-0.10455682530597853,-0.19852153044408827,0.9973808028328802,-0.04491049409197196,0.05668882063171831,0.22144030306121215,0.5972027094567547,-0.48131300039539326,0.4880994020770918,-0.48758433716082644,0.5390787281638535,0.483129312273459
4.269999999999973,0.28738580026105115,-0.1575884540509756,-0.30518575990740615,0.9975709795913121,-0.04208997865221985,0.055437783162274074,0.20655051908469865,0.5523393656690901,-0.45422395416273614,0.48978282989947813,-0.4873022381752724,0.5387534384879803,0.48206968593732086
4.279999999999973,0.32282811713985343,-0.2138319450484258,-0.40807850047212746,0.9978078661534143,-0.03847789460211374,0.053764371984121755,0.1942932797407409,0.5077006823834015,-0.42556052504158853,0.49183234191253705,-0.48706082763555275,0.5381948407756613,0.4808493860438167
4.2899999999999725,0.38638659511386675,-0.28306119616812003,-0.5006378316992864,0.9981047205357731,-0.033706836159824276,0.05139165816332404,0.19950795696363957,0.4932463084301438,-0.4115049240214916,0.49445961760268003,-0.48683410973325497,0.5372970210453235,0.4793858364292016
4.299999999999972,0.4687195511738793,-0.35108766972491756,-0.5925212317976081,0.99843064567881,-0.02788872443431669,0.0482706220594521,0.2187607636210977,0.49805426075839476,-0.39702484963924844,0.49772781912126723,-0.48648718870215174,0.536157237843301,0.4776219918234134
4.309999999999972,0.5695896747918612,-0.415554391655211,-0.6821980419023072,0.9987630187666509,-0.021359219554555883,0.04465806294283714,0.2368361250491858,0.5076946912961786,-0.38492636515075773,0.501458659247345,-0.48602389276996527,0.5348916882825452,0.47560770167255256
4.319999999999972,0.7105117274207644,-0.469138233292694,-0.7650363536029743,0.9990793806094239,-0.013726456690535824,0.040316282621424095,0.2321348270893808,0.5086896510759187,-0.3817417325888415,0.5059601175686282,-0.4853122603142015,0.5335066236694315,0.4731142534608956
4.329999999999972,0.8639945499700368,-0.5399858128132001,-0.8445860706187068,0.9993366083394692,-0.005164371380828755,0.035185590820677404,0.21151229643322492,0.5123725429548113,-0.38070754034892984,0.5112428400116019,-0.48423948320818216,0.5320741482642589,0.47012191799689834
4.339999999999971,1.0233540698983847,-0.6150624176130427,-0.9281205808213573,0.9995369085076721,0.004018003964134479,0.029482632936686667,0.18369326245194376,0.5140771046774801,-0.37614050104482405,0.5170684580862812,-0.48289915301645536,0.5306111537434193,0.4667786276919854
4.349999999999971,1.1862089032547187,-0.6809128250363871,-1.0308788211463178,0.9996140648114674,0.014135320838969925,0.022819383466282046,0.15236415543378845,0.5047312004544472,-0.3556223957511633,0.523758197537557,-0.48109886660361273,0.5291045669788507,0.4628679309395284
4.359999999999971,1.3565020530721212,-0.7201616918996293,-1.1430465579755533,0.9995028074417862,0.02539456139897179,0.015462470833284132,0.06494622457073897,0.4725362173243109,-0.31822402758965446,0.5312543378941245,-0.4789773344690235,0.5275487593283839,0.4582462202683344
4.369999999999971,1.5350252412166128,-0.7476504912619656,-1.2562765134041003,0.9992369575806391,0.037424879823896105,0.007680829129157749,-0.030956020903959755,0.43435195720740466,-0.2783780695847745,0.5392908399616562,-0.47663031239951703,0.5259860824574653,0.4530936686080047
4.379999999999971,1.7333502957740563,-0.7713633557184203,-1.3590916936974382,0.9986738977323851,0.05062730699604341,-0.0006471774123337146,-0.0729427367992081,0.40852265224394635,-0.2551597113199559,0.5481392926636159,-0.4739210413024812,0.5244729051174799,0.447018856871899
4.38999999999997,1.9587357586390186,-0.8051666627846779,-1.4463683245095436,0.9977786631880406,0.06463646661671997,-0.009702716460854893,-0.09116523084336037,0.3831681042874065,-0.2270042045834605,0.557764600113032,-0.4706832503127207,0.5230660974702573,0.44007296425744413
4.39999999999997,2.1957142386076782,-0.8476428437528138,-1.5181323763791865,0.9966361952439012,0.07907507499591497,-0.019352968384513256,-0.0916572728465212,0.3603679205649861,-0.20006950121713407,0.567928054901016,-0.46700681531163407,0.5217493640922722,0.4325315847558106
4.40999999999997,2.433827925649922,-0.907724178869592,-1.5542660135312578,0.9950653519851401,0.09387866007882101,-0.030151662144747945,-0.061332754494081015,0.346873639146504,-0.18610413730198103,0.5789351339588712,-0.4624699735477885,0.5206128777362882,0.42407559169055775
4.41999999999997,2.6192748528280836,-0.9792303799651287,-1.5588359022818377,0.9931017024566492,0.10841402665024293,-0.04225643166546145,0.015769931388874482,0.33591682764608866,-0.1667976308431053,0.5905187199261316,-0.45706858237000325,0.51955824198267,0.41507731661607966
4.4299999999999695,2.766566022593366,-1.060252201828668,-1.5461345814421934,0.9908569198079092,0.12263039492608219,-0.05532772391105651,0.10370320203758807,0.3243902024587405,-0.14484946164206117,0.6024376492417128,-0.45108107907911993,0.518507085278808,0.4057970203439838
4.439999999999969,2.8502664179888906,-1.160170804703567,-1.518374330136897,0.9881520481731612,0.13600930692513827,-0.07005963176489215,0.15312879278367644,0.3060073364171828,-0.12151030916655159,0.6147135509879523,-0.444215435455168,0.5173248150919588,0.39631858862900754
4.449999999999969,2.887215043282023,-1.2626890298076954,-1.479705088997229,0.9850197073742528,0.14849566297082376,-0.08624323317063498,0.21860483363860617,0.2766459154041012,-0.08380870813701452,0.6271138308576137,-0.4367628952102373,0.5158310361563834,0.38692846476918036
4.459999999999969,2.901099436787967,-1.3639768977873235,-1.4318346869835317,0.9815818834997965,0.16025821960426015,-0.10342665238674577,0.2825433681965905,0.24552612629697043,-0.041951792908932035,0.639558667082896,-0.4289087751907936,0.5141060883724684,0.37765059800533496
4.469999999999969,2.905281782161871,-1.4550036871263954,-1.3652841252142878,0.9776487534504702,0.17061714834786618,-0.12213049343478558,0.30917055475777133,0.22784949067372107,-0.009708648431600436,0.6519570902409503,-0.4204512798104188,0.5119834273895064,0.3686863049680422
4.4799999999999685,2.862472199721709,-1.5524351288738876,-1.330372263218052,0.9732373515578517,0.17989694853430918,-0.14197898882607768,0.3381273217350217,0.2062780319407539,0.02055644928699042,0.6642610660682458,-0.4116349766440872,0.5094287815816936,0.36003020159039995
4.489999999999968,2.7594884652070495,-1.6485180057846358,-1.3121623431683611,0.9684488621774104,0.1885606357127227,-0.16253745039046952,0.3640862941764933,0.18238847935751473,0.04930705505977661,0.6764323543750572,-0.402726246002815,0.5064796116481858,0.3516534540375186
4.499999999999968,2.483036141326443,-1.7253234553250238,-1.303726656915844,0.9629525855935442,0.1966822051194272,-0.18392461559894768,0.37176498351269827,0.15611803576208053,0.07533295756567827,0.6882022057963435,-0.3941425506289069,0.5026487716386181,0.3438962381719603
4.509999999999968,2.1445372413792314,-1.7938088213596184,-1.3123855310355796,0.9568315848023027,0.20478140067549017,-0.20546702280894025,0.3677021210174506,0.12141726632857326,0.10943657037972167,0.6993082730214334,-0.3864725974204452,0.4978560917063386,0.3370658688801702
4.519999999999968,1.7615277429999845,-1.8516718714043305,-1.3366228784660792,0.9502280816620452,0.21309934141664666,-0.226977129052691,0.3574816212573926,0.08203769266810865,0.14633368057164178,0.7099037364395967,-0.3796071428444248,0.49233418744419016,0.33090382339832064
4.529999999999967,1.3073383219100587,-1.8781141351795427,-1.3960554876923867,0.9427464628209005,0.22249533391041484,-0.24798998174942352,0.3444405281138387,0.03942167746178432,0.1783894183782656,0.7195758944765509,-0.37449036648898826,0.485524469570774,0.3258211728534079
4.539999999999967,0.8700887043121907,-1.9081645939075578,-1.454198675388466,0.9345299781416443,0.2332218525435018,-0.2681952882056531,0.32275461153170404,-0.0006920355008476799,0.22027229238032242,0.7284149983482295,-0.3710615910603159,0.47767440517646664,0.3216547974424567
4.549999999999967,0.446314664397688,-1.9352381682642448,-1.5204435477719433,0.9257490001401995,0.2450323408543783,-0.28776166913481144,0.30137848890073093,-0.03723122423452458,0.26387669369531497,0.736670806876251,-0.36886659233733976,0.4690790038650608,0.3180928148829892
4.559999999999967,0.04820454406246805,-1.9389703158700877,-1.6297037429594685,0.9159536787717303,0.25898441040817327,-0.30612173638927465,0.3023128738349392,-0.06217563850065584,0.2923359051107469,0.744055706735419,-0.36869178688229853,0.4593127304753916,0.3153056007621479
4.5699999999999665,-0.3009666559806766,-1.92657059769012,-1.7346294330511383,0.9052980696511651,0.2748739972154652,-0.32326487399913467,0.28855346220475064,-0.08241885067962393,0.3084279534674113,0.7508048781082656,-0.3700602261250614,0.44872367244909594,0.3128874837699288
4.579999999999966,-0.6231303150779807,-1.900746533827318,-1.8395253494969657,0.8940113901801998,0.2922057511323753,-0.3394084433225228,0.26883524652234353,-0.1005451703216135,0.31830783735235885,0.7570785120085503,-0.3725522792172328,0.4375677712691025,0.31069090946910005
4.589999999999966,-0.9329064471450634,-1.8474633330812784,-1.955536137281168,0.8816988917661726,0.3119558058484221,-0.35354839824918693,0.25651311332603866,-0.11995011744529331,0.3282252795595246,0.7625465641075321,-0.37684086354662316,0.4256205802038465,0.30868004926344705
4.599999999999966,-1.2026674131153106,-1.7813673628554323,-2.068273083940543,0.8685924897596415,0.3335676670502484,-0.3658187495546494,0.2271600159236976,-0.141898913899431,0.3438356418229279,0.7673756958940037,-0.3824463833719406,0.4131750236910477,0.30664359997796325
4.609999999999966,-1.440467218653541,-1.7054055548226983,-2.1764141304452305,0.8549058159758852,0.35649701341498014,-0.3766403025771178,0.19444796583247595,-0.16597270734750388,0.36134162409004633,0.7717300823315649,-0.3889838862715486,0.40040245887612824,0.30454731667350127
4.6199999999999655,-1.6171980542012725,-1.6118900528921607,-2.268791715665118,0.8403001593863663,0.38134600195530954,-0.38485045094179077,0.19142297086944257,-0.19443511670113697,0.37312461285849874,0.7753027513260109,-0.39687961137489053,0.3872554820286257,0.30219785939146315
4.629999999999965,-1.7244153930845143,-1.5077980532051793,-2.3406247727325766,0.8250990521429189,0.4070721162221273,-0.3911190518159486,0.17728469219923357,-0.21291999461585256,0.38834708933557127,0.7783582117106725,-0.40544088064265765,0.374054662156052,0.29951486895000784
4.639999999999965,-1.7789950998538258,-1.3962625320476032,-2.3969290940294896,0.8094899370561502,0.43329349669692285,-0.39596550565398075,0.15993773203384615,-0.22721540932380838,0.4038723576707521,0.781048662664113,-0.4144057866623678,0.36088024425691206,0.2965504239165364
4.649999999999965,-1.7446211307358792,-1.2744270227601457,-2.427104597734322,0.7933642059228774,0.4596708542448833,-0.39860234335191014,0.15815850890656227,-0.24800001365541674,0.410630205855131,0.7832296559112636,-0.4236483240518464,0.34802124952875224,0.29299385867470285
4.659999999999965,-1.6600597982073408,-1.1537180330400614,-2.4343965210209597,0.7770104413956215,0.485511710050952,-0.4000263367543969,0.14527419107514705,-0.25985602651166273,0.411268031453505,0.7851861263062858,-0.43269516335560426,0.3356122265712877,0.28893543148258893
4.669999999999964,-1.5388860278536591,-1.0335295288053068,-2.423504728173382,0.7605337278271423,0.5108063254953762,-0.4006289837929578,0.1282105399397976,-0.26749104863974577,0.408213375183918,0.7869999367809947,-0.4415163680321843,0.3235923310795548,0.28449975836617053
4.679999999999964,-1.3630809882677941,-0.9127479378212466,-2.378707986395064,0.7440708586127702,0.5345819548092203,-0.40029444274164844,0.12273873694294433,-0.2792488532098834,0.40315898029582437,0.7886969398714897,-0.4496241941902773,0.3124297491587848,0.27945058413405444
4.689999999999964,-1.1712355876237581,-0.8016669468674442,-2.312848190287765,0.7278563785350282,0.5568167711194046,-0.399731331509497,0.10845982056546115,-0.2901466290736469,0.39675430032089565,0.790405362528897,-0.4569849378176426,0.30202236808013355,0.27405490561165874
4.699999999999964,-0.9672532499704254,-0.6958030509913167,-2.2308468371304584,0.7118874894782571,0.5777988585423665,-0.3990707056885109,0.09177223008043353,-0.3016344707894618,0.39073047189123056,0.7921364737628842,-0.46373802339777453,0.29221908277751946,0.268417539013708
4.7099999999999635,-0.7437034459172991,-0.5882285682763563,-2.121848055391223,0.6965894085878733,0.5963470595206296,-0.3986125257056442,0.09149005052539182,-0.31998974135957065,0.39200793208143253,0.7939711441395123,-0.46930937067263745,0.2835455196347453,0.26248823314153974
4.719999999999963,-0.5146474336840922,-0.48256707614908895,-1.9917270869338854,0.6820722840329403,0.6129254850961229,-0.3985721814172608,0.08601837554602512,-0.3369335665723528,0.39382517647655324,0.7959260085801662,-0.4739282239352254,0.27580485508967567,0.2564472157072733
4.729999999999963,-0.28186169109219494,-0.3799675198640224,-1.8430737890526123,0.6682376044333113,0.627911031640092,-0.39891586536218804,0.07950877963658745,-0.3521345238903335,0.3958737076647103,0.7979792961515184,-0.47778192461624086,0.2688120033349052,0.25035935127717784
4.739999999999963,-0.04552046582003266,-0.2905406235575543,-1.652225590625601,0.6559443811829951,0.6398766539250831,-0.40021201622251584,0.08639224564163754,-0.3611060644495131,0.39736273988729226,0.8002251501541643,-0.4802097402599781,0.2632048978912387,0.24439416722137444
4.749999999999963,0.1702246117084988,-0.20527056306708863,-1.4434516550481518,0.6450894927071306,0.6495454376109377,-0.4023107645286029,0.0972273193025338,-0.3711200641883762,0.39687993770740054,0.8025849117730564,-0.48160443551994536,0.2586366302738884,0.23873221490669283
4.7599999999999625,0.3650610214475198,-0.12493718781988843,-1.2239116077429395,0.6353943405799212,0.657439989430596,-0.4050069854888338,0.11076728467151337,-0.38138281500618976,0.3959063065769378,0.8050161603916731,-0.4822191576895244,0.2548727648616553,0.23334009627394803
4.769999999999962,0.49826993771975536,-0.06219218679089471,-1.0041340157525156,0.6278442756935652,0.6624675639116065,-0.4085433053856753,0.12674213207311505,-0.38894798652491086,0.3998892633773933,0.8074710110873249,-0.4816742108194823,0.25241950458028223,0.22858226175169805
4.779999999999962,0.6269162630153493,0.023639601951735124,-0.7880701428739642,0.6218945374791184,0.6656671458906255,-0.4124428823104194,0.13820176085385444,-0.39480446940568054,0.4020682227108923,0.8098718625726763,-0.4804602005693068,0.25086763338685186,0.22431493514036116
4.789999999999962,0.7430579542798492,0.12214542812945348,-0.5732658474783479,0.617249316863944,0.6674400101764568,-0.4165614788136944,0.14662643807979367,-0.398600329888645,0.4017955377084179,0.8122103798299597,-0.4787431003711342,0.2500466548365029,0.22043712086731923
4.799999999999962,0.7850099155500048,0.20884892637779684,-0.35060070060670684,0.6150457155879202,0.6669089335465119,-0.4206443658127036,0.15310303553292193,-0.39467924383975195,0.39126279541282377,0.8143263479030963,-0.47632891592093834,0.25057122722320435,0.21722863682619334
4.809999999999961,0.7778626797230771,0.2796487664130947,-0.12130212648724464,0.6145605396702466,0.6650103432637909,-0.4243414023816181,0.18044281305144688,-0.388166431108698,0.38194090604777664,0.8161221633933002,-0.47369277330875004,0.2518700081533525,0.21473609239955038
4.819999999999961,0.7324464710179965,0.3379738648803617,0.10758299986919877,0.6154351078055399,0.6620773986302757,-0.42765419949034333,0.2192911844788856,-0.3825504907252387,0.3744597014304392,0.8176353508643831,-0.4709297363787872,0.2537634156594162,0.21283631500760253
4.829999999999961,0.6283695703886861,0.37665101323856176,0.29869726739577335,0.6185294192397663,0.6577685495387209,-0.4298226598917846,0.24417084882368786,-0.3977097699325058,0.3757654126756178,0.8184952016522903,-0.46827883144595284,0.2565097142710577,0.212076272895574
4.839999999999961,0.514135523429488,0.4213398962884367,0.4920898821595073,0.622887779342106,0.6528315899481694,-0.4310352921389078,0.2673254963685776,-0.4185230280923215,0.3754452496053197,0.8188679375889376,-0.46587202017205076,0.2596851574946237,0.21206795036938703
4.849999999999961,0.3927226809111602,0.47040709227873656,0.6913966507765233,0.6283161329367141,0.647348090004506,-0.4314446032879731,0.28776311412688244,-0.43956791103064063,0.37329256772688785,0.818831255064936,-0.46366306428506276,0.2632319360332578,0.21269010906285524
4.85999999999996,0.26636344443460647,0.5235373334918916,0.9295823140524331,0.6359098261635122,0.6406582483478199,-0.4302671936937461,0.2942161893313925,-0.4303306494780875,0.3643508677786502,0.8179857175930642,-0.46179532410492635,0.26758468856796475,0.2145487691400065
4.86999999999996,0.12421453767103109,0.5662870620014822,1.179804271262527,0.645027846482686,0.6329995204557641,-0.4279633681511933,0.3300134121377256,-0.41447713819411997,0.35738861966416086,0.8165250967419706,-0.46017294998375213,0.27247584228258964,0.21739360338186905
4.87999999999996,-0.031944742398754694,0.6013902623237005,1.43888440015875,0.6554015655174406,0.6245219166328608,-0.42471499698608395,0.3824731835928873,-0.3950593098653665,0.3527195232794254,0.8145416260188492,-0.45876182033961094,0.27780396884183045,0.22107562671204598
4.88999999999996,-0.22060310441835737,0.6299290425206139,1.7054999192157854,0.6679962480692062,0.614436440650827,-0.4196680165189201,0.4066223490542142,-0.3838471590964875,0.3572036223202292,0.8115090495147412,-0.4577944758977946,0.28385460057005246,0.2264292399715059
4.8999999999999595,-0.42082332005466966,0.6435011220859082,1.9559409475878304,0.6818314569488548,0.6033319130933622,-0.41337290100583773,0.43197773116117044,-0.36337977779924324,0.36695639460341806,0.8077128872199232,-0.4572107238226935,0.2902551383900177,0.2329115371656491
4.909999999999959,-0.6255536199906144,0.6476754378327222,2.190951389706569,0.6966493005738743,0.5913790747035055,-0.406060069334857,0.45290075499032156,-0.3358698514965772,0.37882704923693705,0.8032824312774415,-0.45694391516445537,0.2969277088826815,0.2403192389539584
4.919999999999959,-0.7949773022180031,0.661114035236506,2.381977671575684,0.7127845457579846,0.5779231916042848,-0.3971243163001865,0.4199479950515222,-0.30148590733857106,0.37525015913336235,0.797739593473765,-0.45721853400802653,0.3039193327835326,0.24924662604562126
4.929999999999959,-0.9550564952139308,0.7018771693212078,2.5180847057409563,0.7294388184928284,0.5636401701195599,-0.38716010521328137,0.32488586556260707,-0.26667181718250316,0.3527246208867593,0.7915394836379117,-0.45781172410250137,0.3111252551351265,0.2587820512331451
4.939999999999959,-1.102947178021122,0.7597486429525897,2.6083438516715804,0.746461221045792,0.5487122693623281,-0.37633857722012615,0.19087424715781878,-0.23321970856256238,0.31758050057441406,0.7847984312369143,-0.45867869428076474,0.31849300471665015,0.26877798613210635
4.949999999999958,-1.1886716378096323,0.7927522320766994,2.6207748185864497,0.7634925037162921,0.5331210658851216,-0.36407367874228014,0.11269889335215874,-0.21834923853365554,0.29126796083059237,0.7772125038908109,-0.46008442575580155,0.325974055752207,0.27911045439403764
4.959999999999958,-1.2215983793592233,0.8174365205305849,2.5992711551411207,0.7800568728272504,0.5172736500259407,-0.3515306840132382,0.04637876248462766,-0.2044331582787179,0.25288805482421717,0.7693931747926522,-0.46158468400108477,0.33338261757888515,0.2893273176032712
4.969999999999958,-1.208609055401553,0.835521928050963,2.5508223769051637,0.7961931500231602,0.5012140436172864,-0.3388077742302167,-0.007914514947009111,-0.190570481040206,0.20660239505913672,0.7614073124355143,-0.4631339472204854,0.3407303891652589,0.29940981133298367
4.979999999999958,-1.103776741685674,0.846901400247643,2.4746766361835935,0.8112481912239771,0.4848384918795344,-0.32635724064690763,-0.020625043369432557,-0.16888685991898955,0.17093039347915445,0.7534604090981967,-0.4644423008537657,0.34797954223603,0.30887815960521126
4.989999999999958,-0.9837856750207286,0.8405600762251914,2.396718715179412,0.8255325686964913,0.4682645791631792,-0.3144927745590931,-0.0008554768573852643,-0.15417240100863436,0.13717914799403003,0.74574959540654,-0.465384786169455,0.3551664509744661,0.31785875662100066
4.999999999999957,-0.8551880861271535,0.8204064355408831,2.318611294575906,0.8391495415992536,0.45152565812713613,-0.30314818505010016,0.042695737760954915,-0.14476714717924158,0.10674243240981987,0.7382469667147835,-0.46600982550305253,0.36229268292742944,0.326426854123276
5.009999999999957,-0.7633585797452036,0.7925977180850374,2.2567702661045317,0.8515329726284858,0.434560689878304,-0.29290817588318013,0.07956107125922811,-0.1367141344660872,0.10166892655440997,0.7311725581746301,-0.4660411566550575,0.3692278637313673,0.33434787719900544
5.019999999999957,-0.6965633683180684,0.7744354060564131,2.2013604228601253,0.8632678454132731,0.41756794314097845,-0.2830853246146035,0.1413559439590144,-0.12830019122259795,0.11594836825725363,0.7242517074011802,-0.46586629419816733,0.37603457417282066,0.3419774398594037
5.029999999999957,-0.6518124561477332,0.7637840582166457,2.1538993921388103,0.8744509560687623,0.40054109298527135,-0.27360292344668946,0.21934431890990122,-0.11858184603272083,0.1442236545215799,0.7174511594638978,-0.4655209361643923,0.38273345594640723,0.34936614358099016
5.0399999999999565,-0.6495109654951259,0.754702984847301,2.151715455962335,0.8848250890281798,0.3833221375484166,-0.26442360387435826,0.2530097402682806,-0.09341571241712315,0.1595153310842324,0.71068671215098,-0.46499242834615967,0.38929416163509584,0.3564980849812158
5.049999999999956,-0.6935013700444932,0.7439998372183655,2.152507171114174,0.8948181626764397,0.36591954835757107,-0.25523823891136693,0.31196475790955214,-0.04792972073049563,0.18534885408632099,0.7037745091403581,-0.46449887145626895,0.39572767834756506,0.36368505716561617
5.059999999999956,-0.7771215156156638,0.7331241361599761,2.1548188952630096,0.9044709459595842,0.3483758849837754,-0.24602431699182356,0.3870394392340996,0.01179637794735472,0.2178993694314352,0.6967167958863711,-0.4640603225091102,0.40203614812525934,0.3709295915287969
5.069999999999956,-0.9134574849625025,0.7410319229287419,2.1430894873554514,0.9134510657265513,0.3308967778131865,-0.23640684404387705,0.39709125760000863,0.041131138478127785,0.223304500684201,0.6891681674417468,-0.4640871737190186,0.4079255832713293,0.3784140972732922
5.079999999999956,-1.0563829385179948,0.768970009024975,2.1160433420164693,0.92204658508421,0.31363999010944293,-0.2263024569025742,0.3790503553549455,0.057756985453101956,0.21890388556557197,0.6812517123998533,-0.46454405950881855,0.4135598755644188,0.38598086817374244
5.0899999999999554,-1.2027197557298097,0.8142435453547836,2.074849163455346,0.9302950397768739,0.29660163844118204,-0.21574455399466214,0.3378288573094205,0.06455646633513923,0.2060832310065107,0.6730057271742568,-0.46539417750679374,0.41896773858537795,0.3936063330664534
5.099999999999955,-1.3116928703258273,0.8809253184084761,1.9999995136380524,0.9378571147362728,0.2803052566785963,-0.20404400302785372,0.28852910376953184,0.08049761010670792,0.18407004324958387,0.6641497613529677,-0.46711189794434566,0.423994137668212,0.401077431610017
5.109999999999955,-1.3644853281419698,0.9456178816439225,1.9074248612734306,0.9449740175334915,0.2645851815909458,-0.19180584799768238,0.2110373013646975,0.09809480778777631,0.14746065597428726,0.6551228657960665,-0.46921391272399693,0.4288596685624296,0.40822573053675665
5.119999999999955,-1.3666249880965995,1.0084531193623336,1.8002014934739363,0.9516850138279344,0.24938630430611441,-0.1790991782174098,0.11226669004648723,0.1170443851697187,0.09903251971570533,0.6495934833195434,-0.4624602148557399,0.4389544231791433,0.4031059169532624
5.129999999999955,-1.2807294199346462,1.0667287685008437,1.6953044200209195,0.9575959184683611,0.23512657184870675,-0.1659159337670836,0.06284439836373384,0.13540933149950554,0.05803732080796086,0.7263027693236216,-0.24838999690141986,0.5702257301695177,0.1268646233768818
5.139999999999954,-1.173511748697808,1.1222052401657545,1.5958478026040146,0.9630874811165279,0.22130904286779307,-0.1525866906666764,0.0015673335928948137,0.1558873747565852,-0.008697526699906685,0.7590917451571078,-0.149755616152699,0.6334542780158134,0.004736454245673298
5.149999999999954,-1.049293581875521,1.1737182224449747,1.5014300346746223,0.9681955413299307,0.20789339410432103,-0.13913230329286305,-0.06786583390789891,0.17775397851531535,-0.0950595861722835,0.7545731825152092,-0.14915056529587337,0.6388945856680767,0.013454871307294138
5.159999999999954,-0.9535584202332124,1.184464454174573,1.417763329944616,0.9726004606990944,0.19515419973071635,-0.12564839575822503,-0.0881558527492514,0.18918377425793137,-0.12402257433458634,0.7498924961954611,-0.14829962132700533,0.6443356014183821,0.021127840955823624
5.169999999999954,-0.8546521908012725,1.1672631767422146,1.3366197439752103,0.9766019757390435,0.18283850297739004,-0.11248029253477825,-0.10002901550137089,0.19955042515329216,-0.14631527721990412,0.7452541364841901,-0.14737190894282856,0.6496360385054694,0.02831510014221933
5.1799999999999535,-0.7539594155507279,1.1256690397702076,1.2586089961510718,0.9802311789335932,0.170910197303109,-0.09961866883904592,-0.10438366220194496,0.20931315019989696,-0.1626735617878656,0.7406605063896197,-0.14636953278401546,0.6548018928254183,0.03505484507564569
5.189999999999953,-0.6841378533044857,1.083462428802893,1.2099999732369442,0.9832140361580145,0.1595511557538046,-0.08773654385807803,-0.10312368643560312,0.22926943088846208,-0.17533723413865693,0.7363133427030555,-0.14512393983388192,0.659589908644342,0.041040335212814846
5.199999999999953,-0.6755182336238993,1.0567800169537642,1.1672311111433373,0.98592312538763,0.14842080490094778,-0.07613071992121438,-0.10350661141572416,0.25589252480184915,-0.19903153366142012,0.7320116444305479,-0.14393678542653784,0.6642331616215766,0.04688444656786584
5.209999999999953,-0.7241539532655257,1.0434495759245082,1.1302248187904982,0.9883764391588004,0.1375035021152821,-0.06477626637878268,-0.10531888319460322,0.2874968110391611,-0.23148287295801784,0.7277486986318813,-0.14281788903599804,0.6687408016043234,0.05261070648294319
5.219999999999953,-0.8706662012776313,1.007613287866865,1.1146430516957702,0.9904056182296843,0.1269157372479209,-0.05357619229604386,-0.10540936145013302,0.279012611095951,-0.21843445736945696,0.723405647334519,-0.1423416117542577,0.6730094472581892,0.05869327818148004
5.2299999999999525,-1.0153083194733357,0.955867485671427,1.10491217079423,0.9922298181420462,0.11635934233105663,-0.04272638906815137,-0.09759291164670562,0.25791612058794744,-0.1871634145777492,0.7190831520074136,-0.14230027242750667,0.677037632020604,0.0651838099457995
5.239999999999952,-1.156370934180579,0.8897207438652099,1.1008546097921987,0.993859567072411,0.10582827990467185,-0.03221465065124408,-0.08262584955704325,0.22604510771379185,-0.14004756646257355,0.7147815440609068,-0.1426670339933194,0.6808366058088593,0.07205970927841476
5.249999999999952,-1.192800604171727,0.836874028335318,1.1131387180486618,0.9951592503398367,0.0950985926378064,-0.02259253028032135,-0.07463826897826692,0.24084497338093946,-0.14474692458556368,0.7105911176422565,-0.14348098930990577,0.6841864262549574,0.07950028079002507
5.259999999999952,-1.1807878577367763,0.7891185954682285,1.1306683729718146,0.99631207808404,0.08413482853456601,-0.013424978245893945,-0.06888333349423731,0.28840700994195145,-0.17509022817087527,0.706480464314425,-0.14416705432198712,0.6873852334411154,0.08695419416122653
5.269999999999952,-1.1228933329552613,0.7460865401352558,1.1527687394361745,0.9973230738358769,0.07294665484763535,-0.004697425353391812,-0.06527723781633848,0.36651966688807974,-0.22952491889738766,0.7024476495552985,-0.14472754681943711,0.6904383381673183,0.09441808139533327
5.279999999999951,-1.0556092297738293,0.6950476451746601,1.1396901512128819,0.9980562173165961,0.061466750393307984,0.003080822350010369,-0.06521863708817331,0.4073027802167798,-0.2709911985634695,0.6986380833535738,-0.14485879072170482,0.6932189296782687,0.10164212441548896
5.289999999999951,-0.9800744487380004,0.6378271449422366,1.115488110036136,0.9986454268358164,0.05015604275588826,0.010302035650894634,-0.06346043447566384,0.4322095218891814,-0.31941542335561,0.6949980158693578,-0.14484095030755678,0.6958226168153465,0.10861699391923103
5.299999999999951,-0.8962697077908264,0.5746734469974061,1.08054685241278,0.999094008068412,0.039011019666800685,0.016978329317363247,-0.060057067135425336,0.4417091131766492,-0.3744421196912213,0.691524016833436,-0.14467641618565097,0.6982534412668605,0.11534728422133438
5.309999999999951,-0.7489880248203684,0.5270308363599736,1.0584584598275186,0.9993091055739945,0.028230104703468758,0.02258824325060627,-0.05759250568851109,0.4505513255764154,-0.3938056531108309,0.6884359543411647,-0.14402209985320993,0.700392210773074,0.12140263654186753
5.3199999999999505,-0.5711596417435664,0.491347476986787,1.0377121854695934,0.9994231627452321,0.017608268950975656,0.027858504471945298,-0.04650660080181197,0.47464825688603784,-0.4192551739693322,0.6855217132146518,-0.1429321287601625,0.7024929578532021,0.12694196506299563
5.32999999999995,-0.3628887880995384,0.4675825622688464,1.0183034498471508,0.9994365243456325,0.0071449696091900675,0.0327902719231154,-0.026828769684066753,0.5139478559079792,-0.45076991604112226,0.6827807003515073,-0.14140798942042845,0.7045558122449885,0.13196703052884481
5.33999999999995,-0.16703965420335773,0.4270983671021726,0.9728024587921729,0.999274551547058,-0.0027959563611194525,0.03718806793568313,-0.007056127231751537,0.5432284593176068,-0.4678393231058619,0.6804170028443023,-0.13892347175320505,0.7066038971535684,0.13575204935609436
5.34999999999995,0.009246989175832665,0.3740930156752294,0.9049552821980136,0.9990541502305863,-0.0121920625908633,0.04118956211370582,0.036777625879405695,0.5720000329361576,-0.48980993653847904,0.6783019266620463,-0.1361573424804861,0.7085545886142568,0.13894801785926966
5.35999999999995,0.16554840519937908,0.30831810984262664,0.8143091349733713,0.998774407416361,-0.02103202199842026,0.04478690464419194,0.10523084317550088,0.6002761003992124,-0.5168320774527356,0.6764402893554344,-0.13310549290484347,0.7104056629353591,0.14154439732971671
5.3699999999999495,0.31338130285691607,0.22708223573586866,0.6855016950090311,0.9984692238522327,-0.028081556142151742,0.04735039326410555,0.14110935305446984,0.6048685697583587,-0.5256544953189775,0.6752245868787522,-0.12977577826412248,0.7119175860624765,0.14281099796646002
5.379999999999949,0.4404295840056716,0.1413079717761083,0.5467060578685201,0.9981973637907293,-0.03404947856103674,0.04929554245539536,0.17856839938304564,0.6122152903725115,-0.5323885271426051,0.6743736368656285,-0.12644184298678235,0.7131999583768995,0.14343045263459453
5.389999999999949,0.5457138854165492,0.05091366632893052,0.39778267540176704,0.9979607763592434,-0.03889793245602619,0.05060081012392077,0.21800506991948365,0.6226869506318494,-0.5371042574511717,0.6738997964420954,-0.12310617006917508,0.7142443489714636,0.14338262186548778
5.399999999999949,0.5718662824515243,-0.015008493408171654,0.225556734712164,0.9978505907385906,-0.0413029684197646,0.05084493332219064,0.21634487853126919,0.619246255485129,-0.5316575787583644,0.6740500808692574,-0.12020922891906366,0.7148201005823034,0.14224365510822115
5.409999999999949,0.5787775424740464,-0.07529891437246651,0.05045359841292439,0.9978163398245835,-0.04239280515245477,0.05064614305101255,0.20141761976724856,0.6011953341068067,-0.5145122721463934,0.6744512497611633,-0.11774245732338866,0.7151627740646208,0.14067761652317945
5.419999999999948,0.5662902881061822,-0.12993416592369797,-0.12735223189625355,0.9978618542755326,-0.04210548279123355,0.049987687610230966,0.17288227923922894,0.5676174443863881,-0.4849174122915741,0.6751123940122822,-0.11573234435634211,0.7152620039600779,0.13866952670681187
5.429999999999948,0.5842027030579342,-0.20172245077542417,-0.3007688469898997,0.9980532601001394,-0.03924944877240753,0.048407073664912266,0.1731033498483942,0.5486943943702124,-0.46411302180653685,0.6762659001531881,-0.11459484153954516,0.714892189492165,0.13585277013243927
5.439999999999948,0.6423386952468112,-0.2816433736303468,-0.4677681860468271,0.9983047081404843,-0.03512667683971265,0.04620583551902163,0.19257598534550519,0.534045625618745,-0.4421694306306274,0.6777423826114626,-0.11371577609827754,0.7142625951994447,0.13248775236565802
5.449999999999948,0.7442939613095363,-0.37014387440112645,-0.6277648673995928,0.9986190082191485,-0.029664929899053588,0.043340023057085036,0.2326596533190118,0.5237625374767438,-0.41873922610362857,0.6795643960969074,-0.11310101709622516,0.7133569376554366,0.1285354958271917
5.459999999999948,0.8695126220353467,-0.4453378585597775,-0.7641277899591752,0.9989665700418389,-0.02198624344704736,0.03927340966432564,0.24799273399809244,0.5245967638042403,-0.41277428599719385,0.6820127311185888,-0.11261628896009206,0.7120064579177049,0.12330581691802152
5.469999999999947,0.9995769932468175,-0.5227005066102578,-0.8827971339648353,0.9992836527143423,-0.013349236520144714,0.03455881449382732,0.25439067315041675,0.5304722045989667,-0.4106120211176009,0.684767271240969,-0.11208861065537777,0.7104321177004769,0.11742512922954816
5.479999999999947,1.1343650662277585,-0.602985084049651,-0.9821300840041094,0.9995649066472985,-0.0036968427481082894,0.02914749368047831,0.25146038302005586,0.541707613332057,-0.41218361766431316,0.6878490449066471,-0.11150761117558872,0.7086180983726161,0.11084687997629043
5.489999999999947,1.2744795605783303,-0.6927390799922246,-1.0858944371957877,0.9996805947271242,0.00720608342828266,0.022355743848123093,0.2403174509133478,0.5321188994738097,-0.40272480019122764,0.6914743494245729,-0.11063322818258038,0.7063533452173996,0.10318658399715558
5.499999999999947,1.422929061735092,-0.7691373402847482,-1.198486738103633,0.9996564142654653,0.018902462431129998,0.014855029641010393,0.19518502242717434,0.512079257679694,-0.3772082106739344,0.6953585858761469,-0.10964583292982917,0.7038473092648393,0.09487529227142928
5.5099999999999465,1.580894449473617,-0.8295072604151766,-1.3212101540344043,0.9994758513087051,0.03147248187316867,0.006585104227309773,0.1106620512030602,0.48072117366122163,-0.33339215492383434,0.6995220517504245,-0.10853900058937274,0.701078660058782,0.08584964301707015
5.519999999999946,1.7676702920360092,-0.8600256050271876,-1.4397282864462784,0.9988821376329525,0.045577382049387216,-0.002656741334775241,0.049960189500128455,0.4505988422188018,-0.3044975804803215,0.7039753832423805,-0.10711489552431243,0.697991347713268,0.07535492958687272
5.529999999999946,1.9679327974543432,-0.8942352800305224,-1.5463025527515113,0.9980175551743095,0.060339217809779924,-0.01242908913397836,-0.0059808193526235676,0.414611598407036,-0.270569211145202,0.7085408703786612,-0.10542300592051804,0.6947401919621408,0.06405633969083806
5.539999999999946,2.1828628187481316,-0.9344629182574347,-1.6387558825189659,0.996849602029264,0.07580852607544544,-0.02278695426293678,-0.057468843755220794,0.37151518195799227,-0.22980324956028614,0.7132256640322755,-0.10342635961993962,0.6913091832241394,0.05187031195831757
5.549999999999946,2.398813885839784,-0.9890769303021089,-1.6814818823766144,0.9950760032121119,0.09177537834676805,-0.03452388303046249,-0.03978391612599127,0.35066047653657273,-0.20708659923141642,0.7181122362067166,-0.10060820294758818,0.6874619177864003,0.03829332115458962
5.559999999999945,2.604195792244542,-1.0541844335704662,-1.6972531965357867,0.9929757482646309,0.10755443640323958,-0.047179382895208746,0.01724077576308653,0.33307934720466614,-0.17985085135016277,0.7231121680912562,-0.09724565658138215,0.6833276583964105,0.024148789096107938
5.569999999999945,2.796471888128549,-1.1313238630398674,-1.6829309036646665,0.9905109893296795,0.12307011986821222,-0.060880505249828756,0.11840298140347982,0.3181218930212865,-0.14589053635582777,0.7282391285703639,-0.093263691670631,0.6788657798690991,0.009392512411552745
5.579999999999945,2.9383571763530782,-1.214053324058179,-1.631918251584425,0.9874453615775759,0.1372952346991754,-0.07654604159674544,0.1733761117917942,0.301608264032039,-0.1150929119979168,0.7335518601814339,-0.08821204816701413,0.6737341389510668,-0.005930814316761079
5.589999999999945,3.0367634750370116,-1.2979915430592215,-1.5649260231802027,0.9840824468622322,0.15056979046784785,-0.09320287654101803,0.2376756979224992,0.28198751829004026,-0.07769830314544748,0.7389336278393468,-0.08270034595615325,0.6682258263024009,-0.021299666777793665
5.599999999999945,3.083832106542777,-1.3830439044438032,-1.480424028823268,0.9803876691087001,0.16273609527143176,-0.11096923126695908,0.31724750270134455,0.25854522111309547,-0.031706509013956566,0.7443890050399393,-0.07668552784705594,0.6622901900158716,-0.03668383580350568
5.609999999999944,3.062904593479036,-1.4774238564961526,-1.38808052000382,0.9761675819994421,0.1727226816220553,-0.13038622696640859,0.35285832280906676,0.243049061587019,-0.002658074852228496,0.7499338359466239,-0.07017391365733085,0.6556186669042434,-0.0515661708298228
5.619999999999944,3.0024401076677294,-1.5704231575848493,-1.3000681581007067,0.9716475695726181,0.18162516663053596,-0.15056450968424476,0.38645281155081956,0.22303371883244713,0.02717536344319245,0.7555245740164186,-0.0636059914873255,0.6485565832002934,-0.06602759084429055
5.629999999999944,2.896378181907291,-1.6608163270776273,-1.218375571145159,0.966782480026265,0.18930468698761985,-0.17159119832726744,0.4212301630402379,0.19644465938063754,0.05949904733268857,0.7611673462992856,-0.05700778171071162,0.6410496332556761,-0.07998433648610064
5.639999999999944,2.7025902456944597,-1.7375086406354237,-1.1543783645443693,0.9612941597372763,0.1954021314017279,-0.19349213291886455,0.4224782636821025,0.1792999273834758,0.0891911643889469,0.7668319346230479,-0.050910152220344326,0.6329352633305938,-0.0927980651724557
5.6499999999999435,2.4517500393553364,-1.80762773276242,-1.1105116356922262,0.9554291725842412,0.20105892292407287,-0.21557399930497922,0.4033353486277875,0.15265085031802522,0.12296761203239731,0.7724739078260294,-0.04541563852132599,0.6245846725544916,-0.10487555396483018
5.659999999999943,2.133274166391335,-1.8703104090552722,-1.0918236717302827,0.949122011508631,0.2062829649543054,-0.23781128759459022,0.3602343926276692,0.1123498854560689,0.16246929873134347,0.7780834620777924,-0.04067842056851604,0.6159782435052401,-0.11608131234030461
5.669999999999943,1.7389990508431976,-1.909572802508023,-1.109084705768453,0.941978678732621,0.21199911603006535,-0.25967634512406235,0.332584752550488,0.08361128421497467,0.19674899787121297,0.7835674795767114,-0.03795314804975032,0.6071872685265689,-0.1256825335994987
5.679999999999943,1.3266171362162642,-1.943037115890829,-1.1428682306002127,0.9343553449770631,0.2184475065934954,-0.281083059091732,0.2898416346900559,0.0475883290632199,0.2356351033689296,0.7889419982924086,-0.03651642744922564,0.5984063530199979,-0.1344321814082972
5.689999999999943,0.8978671593718499,-1.971164237956351,-1.195326705362286,0.9261660435369262,0.2258474666675778,-0.3019013664142721,0.22460302824699746,0.0002465916155720005,0.2814436464938673,0.7941800669293833,-0.036625231873851104,0.5896600438557698,-0.14219137032668575
5.6999999999999424,0.505161144351738,-1.9764068441525087,-1.2640280989202168,0.9170432459455619,0.2353662427384036,-0.32145755228171,0.20401633325555144,-0.022412922855639276,0.31317165402860153,0.7991398381299384,-0.03926041032483793,0.5811078153105926,-0.14856040796923536
5.709999999999942,0.14199694926763393,-1.9708012657111285,-1.3363221372620822,0.9074145539370964,0.24611152517283022,-0.3402488095604556,0.18397605904981382,-0.04321112820219001,0.34240520188802537,0.8039149693350174,-0.043126233181818574,0.5726887093494902,-0.1543495742135544
5.719999999999942,-0.1839901858269996,-1.9527655698214985,-1.4116355494541453,0.8971892646998969,0.25832150019285044,-0.3581190794513175,0.1590534478892514,-0.06450496297959514,0.36989723860356594,0.8084644532221377,-0.04841098519684346,0.564433123285152,-0.15949544432830515
5.729999999999942,-0.48011242938098786,-1.9179625306555559,-1.4847353165347765,0.8861212239786874,0.27283133063228404,-0.37420737502917056,0.15270751290337534,-0.07780709992607465,0.39100281390907315,0.8125600706756096,-0.05569507280593785,0.5565346564726572,-0.16380228457370827
5.739999999999942,-0.7418144895637382,-1.8738395012604372,-1.5546894990217897,0.874637709433571,0.2885013238200773,-0.3892274181792634,0.1464312947798813,-0.09095396515214257,0.4109381110019471,0.8163681488745385,-0.06390408916067515,0.5488529881721836,-0.16776618079609745
5.749999999999941,-0.9577557721078844,-1.8185571030164276,-1.6203885639324656,0.8626702393132912,0.3055302860549022,-0.40294853762201566,0.13762133709362495,-0.10500887230931827,0.43007941004021283,0.8198229412112419,-0.07317301314299356,0.5414355745210342,-0.1713509465505078
5.759999999999941,-1.084374293521645,-1.7594653946893488,-1.6654096602213952,0.8500913531421365,0.32398457551329907,-0.41476656401171413,0.14210996447410446,-0.11624797348909567,0.4448114263701946,0.8227279832609666,-0.0834728598725369,0.5343815657737288,-0.17461881095270923
5.769999999999941,-1.1709885641441975,-1.6997432207313272,-1.7030505189053067,0.8372206845227609,0.34290964391598727,-0.4256618951610927,0.15358055664685666,-0.1205806860865399,0.4577940578865913,0.8253525485726091,-0.09409217636333017,0.5274873813416053,-0.17781245471692597
5.779999999999941,-1.2119661599966802,-1.6396806385198583,-1.7329344034530019,0.8240108287759761,0.36231275567080645,-0.43547983402697044,0.17337751905997661,-0.11504631915544321,0.4688603732979938,0.8276450790840594,-0.10502584452894012,0.5207744915303414,-0.18094527477194808
5.7899999999999405,-1.2059845912704026,-1.5720345933723108,-1.7534147920328582,0.8103946405816977,0.38190696604347646,-0.443913867431445,0.18201783801398497,-0.1240987655537952,0.4791807246846463,0.829476537509046,-0.11602295835740767,0.5142890445474582,-0.18416856778438967
5.79999999999994,-1.1783349948584967,-1.4975968162485083,-1.7653847845230812,0.7966420035192706,0.4013933304228154,-0.45163810893907275,0.17812315806607898,-0.13550010007125987,0.48894802684077693,0.8310594332897195,-0.12690317595013775,0.5079467883795982,-0.18749192104262208
5.80999999999994,-1.1256321014104675,-1.414058178789112,-1.7659336102691228,0.7827509471347807,0.4206806975183284,-0.45851466715694705,0.15693504270879186,-0.14795638670722167,0.4979967130212476,0.8323413576255364,-0.13759282824918995,0.5017845903264766,-0.1909530710669596
5.81999999999994,-1.0670546029578851,-1.3324540934468865,-1.7452295691320827,0.7688750486049492,0.4392597617387525,-0.46429830518764414,0.15421120830633747,-0.1641003603170485,0.5065042743903055,0.8332366424166617,-0.14779156013877648,0.4959172048241992,-0.1945716355766308
5.82999999999994,-1.0107587996368441,-1.250577541484094,-1.7139706064131595,0.7550873375913151,0.4573413377279154,-0.46953238838170613,0.15272409773755238,-0.18228360078027583,0.5177141787368794,0.833944383483118,-0.15768273290807353,0.49022231046982395,-0.19823417745988348
5.8399999999999395,-0.9591970719552272,-1.1678979246504322,-1.6701499432457234,0.7414358965181609,0.47477426449297555,-0.4741098020875759,0.1496287978991334,-0.2029745177578578,0.5332937197913584,0.8344306610614068,-0.16718312034129798,0.48474282671538954,-0.20193578000871562
5.849999999999939,-0.918909087062263,-1.087800295879045,-1.6095034241902788,0.7282161618141373,0.4911527584239888,-0.4777282176838414,0.15818430371652006,-0.22455929095684465,0.5433184755840116,0.8346327385928037,-0.1761268745284533,0.4796438123063234,-0.2055363338489812
5.859999999999939,-0.8786702936768762,-1.0061177856643597,-1.5375272450753468,0.7153326519414219,0.5068811266641597,-0.4808399566113061,0.16672481615632284,-0.24777178534644093,0.5522012755678889,0.8346998568272888,-0.18474631642914677,0.47477471399240884,-0.20902475184607805
5.869999999999939,-0.8361199401884042,-0.9213143247354902,-1.4507251345483183,0.7029034692165175,0.5217776062178814,-0.48333246999162055,0.17276957245849392,-0.27343747693082354,0.5604082718636247,0.8346081376416562,-0.19295727261928694,0.47019820612212126,-0.2123525383560793
5.879999999999939,-0.7879145936740497,-0.8231794171827312,-1.3444357554047077,0.6914650548129478,0.535252182906608,-0.4849876175631368,0.1776186046356118,-0.2890830499225739,0.562690247273562,0.8343253964012775,-0.20044237041004886,0.4661441958701504,-0.2153834006506624
5.889999999999938,-0.7394330703054938,-0.7256931333088864,-1.231505555916732,0.6806771403499539,0.5478863251611407,-0.48621065473710573,0.1818039648235969,-0.299688505838705,0.5621328709231419,0.8339573812769329,-0.20749869122854173,0.4624027836875765,-0.2182145493826298
5.899999999999938,-0.6918046158379624,-0.6323883899228541,-1.1120144220683479,0.6707452765931338,0.5594474318163106,-0.48690669280406035,0.1851589111247912,-0.3042058943888802,0.5582108970283282,0.8334913567760263,-0.21400766424361994,0.45906196713800285,-0.22078119068051769
5.909999999999938,-0.6443954699283547,-0.5311223748926235,-0.9884421937044682,0.6621723679563134,0.5695033425809943,-0.48693106801374847,0.1875171512384563,-0.31031243631250993,0.5566940972758477,0.8329231582180568,-0.21973784717361391,0.456320619088611,-0.22293930157024913
5.919999999999938,-0.5904447775878229,-0.41863299094991885,-0.8619260014778564,0.6544652781730242,0.5786865357436491,-0.4865712924867821,0.18410120890465978,-0.3165789075529613,0.5537959059375424,0.8322930371472612,-0.22498908710365312,0.4539646525411127,-0.22488331804674816
5.9299999999999375,-0.5251953467074004,-0.28887792267079926,-0.7313875294132511,0.6479007921861427,0.5867524465278272,-0.48572203012817705,0.17101454343151,-0.3227162445884794,0.5479120510561194,0.8315824649695852,-0.2296151549403614,0.45211864188919626,-0.22656322890969416
5.939999999999937,-0.4876485786897576,-0.16675339930045274,-0.6120938409368716,0.64307289134302,0.5933569160795314,-0.48409619993036784,0.17576940724933868,-0.3300160258771751,0.5415501107647401,0.8307235258808149,-0.23337676956148826,0.4510869871535268,-0.2279145855278565
5.949999999999937,-0.4568250167444686,-0.05347757420906177,-0.4874376279512809,0.6391377374987375,0.5992662567591635,-0.4820436486128953,0.1979033178974886,-0.3361224559133055,0.5332427257092816,0.8297955339451831,-0.23675471940824117,0.45046843470815906,-0.22904243761419252
5.959999999999937,-0.4302154013862046,0.046264940651405545,-0.3501834995808156,0.6363001349991638,0.6043512708875857,-0.4794516616207878,0.24582601572331317,-0.3397966180912544,0.5216276298146443,0.8287865386569004,-0.23969371874605525,0.4503547666575351,-0.22986608648142623
5.969999999999937,-0.39705455494390895,0.17157645522401163,-0.23767083672285158,0.6353145664359663,0.6079851575790884,-0.47614745402243036,0.26068211249576256,-0.352442302654749,0.5103275113227602,0.8276821005801962,-0.24180410461188212,0.451059311012882,-0.23025070626245694
5.9799999999999365,-0.36004735435432494,0.29954634364685645,-0.12146741878806952,0.6352703894263911,0.6109436237816744,-0.4724081144742625,0.26725854006618033,-0.3612993692161152,0.49878763062275333,0.8265001205279786,-0.24351710625878917,0.4522096187290581,-0.2304364502746531
5.989999999999936,-0.31801383244887566,0.42464314743669196,0.00891835635791488,0.6363814027358714,0.613110181016246,-0.46809143464402514,0.2687358336994527,-0.3605528520114867,0.48671623966152755,0.8252057614962383,-0.24475659860745488,0.4539246497382089,-0.23039256267088867
5.999999999999936,-0.2886702372628626,0.5774357690066209,0.1606680769162387,0.6395599436144124,0.6137663075504978,-0.4628505625143224,0.2574495295448881,-0.3581751506789097,0.47056766122338717,0.8237489231129389,-0.24510058476536728,0.45661347580690337,-0.22991618679278017
6.009999999999936,-0.2738063973916989,0.7072784685838088,0.32151052382519163,0.6438584000101261,0.6135950413773942,-0.4570740874494483,0.2634746880260937,-0.35910787537031286,0.4490636481998934,0.8222200495536861,-0.24501216880115642,0.4598107722898284,-0.229105547475103
6.019999999999936,-0.2819340629787869,0.7850156127365739,0.49240176485858744,0.6495792539318299,0.6123673202105868,-0.4505961771365018,0.30614073441945655,-0.36678208426174813,0.4188541502152539,0.8206093477253759,-0.24440641908178304,0.4636423782258147,-0.2278098737721503
6.029999999999935,-0.26913855639978945,0.8564853859511212,0.6966676911475813,0.6571324117170474,0.609479253939609,-0.4434435274183826,0.34579020718539066,-0.3649776754984531,0.3985744522752827,0.8190408357231059,-0.24313794838823735,0.4681338007971223,-0.22558648281573115
6.039999999999935,-0.2383081190896626,0.9213127653906645,0.9068375009162504,0.6657699444079039,0.6054331161829712,-0.4360328576916059,0.3970504085019246,-0.3552352348928693,0.3767671966812456,0.8175291899510493,-0.24136588417380622,0.4729824823757288,-0.22283849501258615
6.049999999999935,-0.18009520689508945,0.9755437516835787,1.1165461457607606,0.6758498349410427,0.5997412463774325,-0.4283638231191303,0.4717973117453774,-0.3335361633234981,0.3484826642994781,0.8161123350691974,-0.2388570979732797,0.47828641493574736,-0.2194073968794151
6.059999999999935,-0.1238070719672571,1.0043261926125098,1.3142854909932384,0.6874891769294619,0.591754814740154,-0.4207534904750988,0.48903278861799354,-0.29883671429466513,0.32749638979008844,0.8149086740233186,-0.23532077692084016,0.4839640214985541,-0.21514866604959146
6.069999999999935,-0.07328370618128718,1.037492487318914,1.494718908701184,0.6999018439508091,0.582542154049489,-0.41308979379182387,0.4603004692471645,-0.2569792795746061,0.3030143087443923,0.8137871365911878,-0.23126443525722212,0.4898453767280769,-0.21043755610973325
6.079999999999934,-0.033488034686525406,1.0891692566297124,1.645329190877387,0.7132530353332691,0.5717727671229769,-0.40529735634257524,0.3622457040345206,-0.20588309510698694,0.26877038936254194,0.8127469604911722,-0.22656886275873525,0.495988314351371,-0.20514487976265325
6.089999999999934,0.015009940394052769,1.1525848356839659,1.741707213496481,0.7274318889345156,0.5593750479683922,-0.3971129386201957,0.2522346753564622,-0.18859443881486632,0.24364311345762807,0.8116390264394358,-0.22113820596158543,0.5024936356324543,-0.19944704298469182
6.099999999999934,0.06781255792484492,1.2174786083009843,1.7997374893148448,0.7418462102778034,0.5462757380300477,-0.3886661033429925,0.12351596810111454,-0.1828951325697558,0.2122623279482903,0.8104375421261829,-0.21535975906341479,0.5091700634441818,-0.19367637995180292
6.109999999999934,0.1258160284994461,1.2805170530430525,1.80174387040285,0.756398698006383,0.5324161503863225,-0.3798445725505062,-0.03856761940660311,-0.1868793477063351,0.16427174136626052,0.8090725283484343,-0.20917442469901612,0.5160463666678653,-0.18792506086151212
6.1199999999999335,0.1824995843562402,1.3376960318076068,1.7763194175784425,0.7706524668843477,0.5181528737397366,-0.37058806082240536,-0.09674173472309378,-0.1774112495246596,0.13852870192731126,0.8074465017728406,-0.20265575330666197,0.5230531654123067,-0.18250084653243276
6.129999999999933,0.23622444790219987,1.388672298226006,1.741783443443213,0.7846510322898884,0.5037394041123643,-0.36108459557241473,-0.1184005880489617,-0.16970635009876125,0.12171271310177574,0.8056662139653256,-0.19597713305526274,0.5301071982380953,-0.1772953478513822
6.139999999999933,0.2842909715915464,1.429175947933277,1.7003231507256784,0.7982446170342485,0.4891900089797238,-0.35125481903102723,-0.10960318346966164,-0.17177260067223946,0.11376069737629045,0.8036772843623328,-0.18911035676839208,0.5372023874131447,-0.17240497646964326
6.149999999999933,0.32540093288590244,1.471929663118766,1.6870037008285628,0.811364753504409,0.4744903984623594,-0.3409825430048499,-0.10272270584132477,-0.1718708782488873,0.1078735140821813,0.8014464422662649,-0.18205588994270752,0.5443413501109545,-0.1678105292793469
6.159999999999933,0.3664211298141153,1.5163504550620164,1.6880442624867087,0.8242733825083918,0.4595747652442991,-0.33041065723404456,-0.08118142776747815,-0.16946725166125853,0.10552476034605049,0.7990734860361127,-0.17483983705456868,0.551529693157539,-0.1633315889392013
6.169999999999932,0.4106189448427496,1.5633113657912383,1.7067179911411363,0.8369508848276804,0.4442614394418859,-0.31940073815284786,-0.026777233344629517,-0.16256834415011362,0.10988202977986002,0.7965082838084591,-0.1673628339278437,0.5588043688616096,-0.15896075042929927
6.179999999999932,0.49423257871361576,1.5868493406483988,1.75241477489746,0.8494120487673636,0.4281458749795491,-0.308027354517786,0.014805330391706745,-0.1340661179054872,0.10991435572276977,0.7937781982225302,-0.15939934591313024,0.5661371230358933,-0.15464521999742395
6.189999999999932,0.5984105884773155,1.5876914122723844,1.8032742201305818,0.8616931343155236,0.41139024411293734,-0.29669670348827376,0.07545688190280564,-0.09289116006473556,0.10157632594003567,0.7910276665831047,-0.15102853278545023,0.5734051667566088,-0.15038103772370118
6.199999999999932,0.728205736353377,1.549767402553547,1.8516132312450746,0.8736825701534242,0.39361537923778567,-0.2856520512285806,0.18566594478343537,-0.0345256314918589,0.07668676909244213,0.7883173575845182,-0.14199653416550473,0.5804974235132087,-0.14620335152039202
6.209999999999932,0.8374824015978201,1.5146607824337268,1.885401358933494,0.8850735432743583,0.37487885975956764,-0.2752792737489167,0.23342983237626555,0.004530269501848486,0.03505694771542712,0.7857469100894833,-0.13226253461604545,0.5871860149097837,-0.14222914477623055
6.219999999999931,0.9123163614267361,1.486984678620811,1.9137606725448875,0.8961085020540634,0.35566621311207564,-0.2650884299533037,0.26285472724516123,0.03729031406516518,-0.010921633124757194,0.7832023291938848,-0.12221318970421031,0.5936887159930788,-0.13831271124329267
6.229999999999931,0.9188377875638838,1.474951948567339,1.9377237564713412,0.9066548742926501,0.33589093747194204,-0.2549411939737814,0.2849113620971273,0.06632274369886729,-0.05755949468158163,0.7806389874979796,-0.11182784914209469,0.5999876388235612,-0.13441568482349886
6.239999999999931,0.8476348437445318,1.4569990230482974,1.9389801995713511,0.9165453951789431,0.3160245592233904,-0.24440413441476422,0.2726145207864018,0.07525306076689538,-0.06355133643204393,0.777957419436491,-0.10161331319523713,0.6061299089004195,-0.1302697348989299
6.249999999999931,0.7498537162913771,1.4407489484508025,1.9323554151696924,0.9260015791022355,0.2962535543114974,-0.23355080224596636,0.2418589859868263,0.07263754185953589,-0.05335590196795598,0.775182991106572,-0.09164190814355169,0.6121940596838816,-0.12592020589253544
6.2599999999999305,0.6355309978712631,1.4321624146251837,1.9206189815775287,0.9348152638236116,0.2767660771495005,-0.22217645606308511,0.1877245145597067,0.054558983096087484,-0.029031863225823247,0.7722578733382736,-0.08214910096640231,0.618166092992128,-0.12123409827231821
6.26999999999993,0.5978909727814866,1.4122440686345583,1.9028382496635743,0.9429115093291054,0.25750481956007826,-0.21044545323160968,0.14752046243210604,0.06669633104784264,-0.02429364681412994,0.7692045360667528,-0.07303177436645475,0.6240022899290799,-0.11630831639393023
6.27999999999993,0.5849531696542737,1.3940940070685128,1.8743906079317911,0.9505405643689551,0.23841479479384262,-0.19859630909005324,0.10620988480925887,0.09542557905143341,-0.041055101529243326,0.7660834569794468,-0.06406100694393178,0.6297299613056969,-0.11136639792217305
6.28999999999993,0.5830931808829583,1.387700635164331,1.8235163406510375,0.9574824448246999,0.21960057282431927,-0.18668760915920207,0.05308460726409214,0.14547203813017207,-0.09819318659445664,0.762878506735433,-0.05520776875444531,0.6352779178396645,-0.10654080916071668
6.29999999999993,0.5643125138875408,1.378313329255936,1.7534713228553416,0.9636535966341128,0.20150360351402236,-0.17459718967353494,0.026689447553799997,0.17943558193271494,-0.14600073700271354,0.7595305468198107,-0.04664961178236152,0.6406781489225692,-0.1019505429602872
6.309999999999929,0.5414000116914542,1.3615056326271822,1.6813915814771856,0.9693466641383109,0.18390035891511522,-0.16245140268491579,0.009052428952907563,0.20137438477748829,-0.18871042119864972,0.7561150029464939,-0.03831378546178097,0.645968650494243,-0.09749468504900272
6.319999999999929,0.5197891891662423,1.3278416156755706,1.6175467621685287,0.9743585726944041,0.16705569260272848,-0.15029151369864316,-0.004942320992789078,0.20386685850913686,-0.22493608889169742,0.7526270296911266,-0.03033911021731356,0.6510823735720795,-0.0932172669965901
6.329999999999929,0.5399294994739559,1.2947413261085245,1.567755474171439,0.9787119345010313,0.15082486323464056,-0.1383459897776393,-0.01125011135877437,0.21060207740924788,-0.24062836392757112,0.7491364404366774,-0.02258026260951359,0.6559502398237965,-0.08917191833187549
6.339999999999929,0.5978016420627253,1.2619363311265746,1.5269593054893027,0.9826783763970051,0.13487170176199176,-0.12657507973750529,-0.015441843348180322,0.22670501476492294,-0.24975777476331124,0.7456509381107327,-0.014814908729681747,0.6606549493244486,-0.0853470324355249
6.349999999999929,0.7238368855412027,1.2294863051166285,1.499324767451342,0.9861193813959901,0.11918923504362289,-0.11510368195659829,-0.01983696933782698,0.2643424392726359,-0.2570269701836571,0.7421808351616322,-0.006869823142870594,0.6651141112151486,-0.08192936168449234
6.359999999999928,0.8996042625259212,1.182658047368571,1.4610430530167515,0.9890375486067232,0.10372828922578038,-0.10411778260256732,-0.02361525291470863,0.3014988500045894,-0.2700589981839076,0.7387597343638276,0.001616969238587099,0.6692436724884897,-0.07926503025428593
6.369999999999928,1.0876072570773774,1.127172138051587,1.412681345496777,0.9916222463707148,0.0884977936316205,-0.09352588445874939,-0.029303981034207817,0.3413900196127752,-0.2910644293845072,0.7353935527912763,0.010477550644129831,0.6731224179144143,-0.07717044200023444
6.379999999999928,1.2687854125280413,1.0596774351993763,1.3454080443904048,0.9937193380145434,0.07371737349167481,-0.0836171006696079,-0.04070874815002146,0.389138335310094,-0.3291806986064913,0.7321376956288091,0.019920574639777096,0.6765829196011384,-0.07602217184469434
6.389999999999928,1.3958579710535386,0.996973584123668,1.2635570013166344,0.9953623931997333,0.05980315774906851,-0.07432295198363398,-0.0487099095170574,0.41408408437747657,-0.36331346043207857,0.7289837984819089,0.029630385970310296,0.6796334161474027,-0.07575315881030774
6.3999999999999275,1.4918863598864303,0.9300812492112547,1.1776147347708354,0.9967360616678778,0.04651834969219543,-0.06543506308603556,-0.060310603060997316,0.4262575022148197,-0.3860416492372073,0.7259064041464522,0.03940851582821338,0.6824197921511672,-0.07598847973019524
6.409999999999927,1.547237297564042,0.8471940401184122,1.0927832814022542,0.9977433102418871,0.03425878985022858,-0.05716067869863471,-0.08503699746157259,0.4221663824950448,-0.38001556242685935,0.7229565151623546,0.049147800060344166,0.6848163618684731,-0.07688439548435111
6.419999999999927,1.5754179648077713,0.7673546719314855,1.0078051353300896,0.9984529215380523,0.02306843078687667,-0.049623569386103794,-0.10011879604608048,0.4214599914963122,-0.3793373826650621,0.7201924261327762,0.05866489130772852,0.6868000430897946,-0.0782879298953596
6.429999999999927,1.5904944563492636,0.6908944022791258,0.9229078499066072,0.9989942794217819,0.012588423773540537,-0.042548652006208165,-0.11478433121700751,0.42259489051895366,-0.3806410459072223,0.7175461219653729,0.0679946664752197,0.6885318378612635,-0.07998979715456994
6.439999999999927,1.59260665438012,0.6214738135027333,0.8383841253456022,0.9993213465781968,0.0031881421500686014,-0.036137413131804325,-0.13723888517813274,0.42595580391217347,-0.38274856531952445,0.7150708984567243,0.07698392507847211,0.6899122930450547,-0.08209042270859648
6.4499999999999265,1.6002500700155406,0.5638490941612231,0.7406338736222988,0.9995018251794899,-0.005101494110985242,-0.030266446035398926,-0.15461937283120725,0.43334684308916344,-0.38717608746416654,0.7127202654198197,0.08561288476539226,0.6910106548607585,-0.08459303817261148
6.459999999999926,1.6146481601996716,0.5097590346982223,0.6324879249167942,0.9996056109507111,-0.012561300785026985,-0.024723810263318234,-0.1698247300609171,0.4401755564742538,-0.3918436432820357,0.7104337717230302,0.09398517218427016,0.6919429252332524,-0.087410893902217
6.469999999999926,1.6439707267006936,0.4545564042437604,0.5060975349781751,0.9996239280394034,-0.018619733004669986,-0.01963457368912595,-0.18352480227623694,0.44126062591869825,-0.394913103648867,0.7082167557251169,0.10194081222009803,0.6926546459635523,-0.09078108671143517
6.479999999999926,1.7177196903990017,0.3863533505059965,0.37607295295967236,0.9996074611364411,-0.023147307121952378,-0.01516394204871557,-0.18024266530277938,0.4429010766669168,-0.39827854218721376,0.7060879059531183,0.1095715918621709,0.6930945707038674,-0.09491308872688538
6.489999999999926,1.817046675836508,0.31528192574226593,0.24653929388631338,0.9995802594856696,-0.026662095233679822,-0.011129513759222637,-0.16230194182023033,0.44669680255064964,-0.4033518459648469,0.7040082678480658,0.11706052650329762,0.6933364424522501,-0.09962859352584787
6.499999999999925,1.948898552617905,0.24919767499887496,0.12246158848590993,0.9995567867130709,-0.02864324110378192,-0.00779948018094558,-0.11659161163064002,0.4566662877876716,-0.4134724966504044,0.7019883096738053,0.12445361400346504,0.6932487204160899,-0.1053570945567519
6.509999999999925,2.105414747478164,0.187679406341355,0.0064352646445114126,0.9995567281245875,-0.029269181021766486,-0.005104733644758933,-0.08540347606114096,0.4695585197562975,-0.42027542867973205,0.6999625032601371,0.13190671973340054,0.6928322566464906,-0.11213213208622624
6.519999999999925,2.280583441160096,0.12731156046818123,-0.10551792144806718,0.9995742296833378,-0.02901087997075235,-0.0028302562402216513,-0.05305515147249154,0.48425414097834585,-0.42537284965129607,0.697906606414617,0.1394608189568554,0.6921828139220616,-0.11965461681050372
6.529999999999925,2.4880202296756515,0.06541485590315128,-0.21350537198003888,0.9996218850579378,-0.027437812777990456,-0.001190872334467517,-0.00014238202694442925,0.5014476212917434,-0.4287478175532998,0.6957594269549818,0.14727461202639822,0.691154218917822,-0.1284029108173749
6.5399999999999245,2.6930326214355533,-0.017439669458899965,-0.3122572724520587,0.9996914966823698,-0.02471725427303336,-0.0003890903524267751,0.0405156464144188,0.510270634802923,-0.42919900557204455,0.693531092319289,0.15541159974006688,0.6896467293397603,-0.1383657926461507
6.549999999999924,2.8763437792022164,-0.11038056987011806,-0.4085706845444709,0.9997710531516381,-0.021240474413796864,-0.00025572750904962263,0.08336642212690816,0.5140760410443854,-0.42300018231534536,0.6912684342735647,0.16371582475442384,0.6877838527895023,-0.14910827427380932
6.559999999999924,2.9892490536706973,-0.21141241028208085,-0.5081061579246914,0.9998569815789918,-0.01663065356838203,-0.0013432835017238851,0.14885736584960052,0.5113035704473723,-0.3979354508885115,0.6889904617009002,0.17218438139457834,0.6853135153909635,-0.16097954618241855
6.569999999999924,3.022566811828074,-0.30431279075554407,-0.6027790824895588,0.9999202228961581,-0.011053249844594357,-0.0036353369233583822,0.17458398904020406,0.49568628316221824,-0.3753770742926643,0.6867561438916367,0.18038027558621048,0.6823508900406765,-0.17346369883104346
6.579999999999924,3.0068413226576887,-0.38933070365628714,-0.6905060006235023,0.9999561290736401,-0.0048668914112996635,-0.006710844477926935,0.1800442836701393,0.4664997233644401,-0.34761337031109557,0.68455990580887,0.1882919945491252,0.6790964035410078,-0.186236701341674
6.5899999999999235,2.924916103883841,-0.4575023513694857,-0.7603211640593904,0.9999262750827301,0.0021689233650092595,-0.010932963974579438,0.167305906887369,0.4067775281901039,-0.298235820867497,0.6824392283227602,0.19556909246157037,0.6754727998800711,-0.19920764725389495
6.599999999999923,2.7969837045158052,-0.540062556425827,-0.8111672213158425,0.9997960008076439,0.009675662067912653,-0.016206050808707625,0.16781992251046793,0.37149447880205944,-0.26622168594117196,0.6804905018243981,0.20208101441195098,0.671587307699047,-0.2119963395092337
6.609999999999923,2.6486624214774985,-0.6294222461100624,-0.8520437932866173,0.9995835852383729,0.017444890708298747,-0.022252719942580743,0.1819974689630703,0.3450336061130886,-0.23926398706753071,0.6787035766256289,0.20803091259313766,0.6675212587612613,-0.22460179317321985
6.619999999999923,2.4917796287701184,-0.723003842366616,-0.8836833097099183,0.9992150508890525,0.02549816788741127,-0.029618958844284532,0.22708720055492262,0.31578700562142087,-0.2059034410045366,0.6772612010440733,0.21302444442271268,0.6631709746954789,-0.23679917588815688
6.629999999999923,2.3436817980624522,-0.8056783587554283,-0.9008044210361879,0.9986682573400643,0.03361622502448028,-0.038071900122956595,0.2546282574804342,0.296769269069066,-0.18964495201891504,0.6761327776290421,0.21725252193190697,0.6585927816075744,-0.24860293019305807
6.639999999999922,2.198581437144504,-0.8877711361897032,-0.9100551290668071,0.9979861410380999,0.041735935607218846,-0.0472759709259392,0.2767782397619242,0.285499708356971,-0.18205103812101395,0.6752346459441537,0.2209601549240314,0.6538575141558391,-0.26012143971989343
6.649999999999922,2.051346116412812,-0.9844482227372182,-0.9117486821810479,0.997064190610478,0.04976217859130788,-0.05766153007537279,0.3054605604408403,0.28792803054723176,-0.18105427066088342,0.6747283538439146,0.22386839926810212,0.6488761938141563,-0.2711619369547646
6.659999999999922,1.9045386744822386,-1.082334006401484,-0.9120291383217608,0.9958760838620687,0.05765611602693176,-0.06920694985923975,0.318788618084524,0.2863742893431714,-0.17260790275662133,0.674639307317593,0.22606177718358225,0.6436416145935104,-0.28178681479065437
6.669999999999922,1.7611546824093043,-1.1773315599372751,-0.9123829806220132,0.9944884484369921,0.06545853783182112,-0.08151506716964234,0.31756940450580795,0.28242044935289734,-0.15960995089415295,0.6748307965683781,0.2277633658524655,0.6382458850749462,-0.2921220728897431
6.679999999999922,1.6306108156328787,-1.2588967160807014,-0.9153676132431847,0.9927519558176071,0.07311789684230736,-0.09492071723774953,0.2842069156581839,0.2755629350489273,-0.14093642048305485,0.6754415075058562,0.22870258435133897,0.6326318254774687,-0.301999465032011
6.689999999999921,1.5195134919942141,-1.3198551927765632,-0.9206624843094994,0.9906888190842188,0.08064462369003775,-0.10900397565943798,0.24896830814413995,0.26977367266779634,-0.11798469873141076,0.6763187322891002,0.22908982967132696,0.6268947280691781,-0.3115206153508191
6.699999999999921,1.422556010874377,-1.3674444013544589,-0.9277934802546866,0.9883893173176447,0.0881073375506878,-0.12349341360432965,0.2055511061465779,0.2627940990442535,-0.08822696838378409,0.6773475547822742,0.22911553878165508,0.6210881596514791,-0.32082062303435505
6.709999999999921,1.3493051003845622,-1.3965774427457107,-0.9383862429391187,0.9856963321113279,0.09554224905896927,-0.13845166593016375,0.1317101250455877,0.24899488425290528,-0.0379961370587488,0.67852708099732,0.22863273577230064,0.6152141444776186,-0.32984277794196304
6.719999999999921,1.2918064238673839,-1.426175121341147,-0.9355772909823604,0.9826688504271965,0.10282585462453958,-0.1536921757496363,0.1003652162966079,0.23673723431498905,0.002771347381413443,0.6797857087420346,0.22786194118231506,0.6092719992844394,-0.33866457940267286
6.7299999999999205,1.242929526868358,-1.4589257825157824,-0.9255598912954682,0.9793949241992765,0.10997052635325062,-0.16915829808632532,0.09623673293219823,0.22546761482707872,0.04091981755068555,0.6811095541161012,0.22690127411758237,0.6032635241153608,-0.347348004883527
6.73999999999992,1.2009494720571512,-1.504368649446356,-0.9102211196628045,0.9757015513435111,0.11680716762849952,-0.1850544299789617,0.12776189914210567,0.21549454463828435,0.08595725046405453,0.6825624844589449,0.22567559308533572,0.5971001024449327,-0.3558199913519193
6.74999999999992,1.1774730224404126,-1.5447647708117356,-0.8839536750024282,0.9716384873707011,0.1232147363213918,-0.20137542457744445,0.15786873870397536,0.21033128887152552,0.11716394940939331,0.6841504667786237,0.22431574218785752,0.590737036401349,-0.3641240204489799
6.75999999999992,1.1665080467704456,-1.5798020292575439,-0.8526487071130412,0.9673137657477217,0.1292782171041707,-0.21796802978433313,0.1864713405728339,0.20890717631228004,0.14076158779339362,0.6858196220079744,0.2228952125912631,0.5842279338187,-0.3723160825315336
6.76999999999992,1.1735847348794588,-1.6011519930973728,-0.8212813055067695,0.9625759507736048,0.13468028687743994,-0.23490433158219085,0.2112354271796134,0.21436583556293964,0.15872310179435728,0.6875747683567413,0.22147916941514204,0.577474429139805,-0.3803515853250117
6.779999999999919,1.183072222251899,-1.6162065721689751,-0.7881751470746651,0.9575252063730733,0.13948410842674439,-0.25198872614173706,0.22361505065363654,0.21811599132903883,0.17661921370658723,0.6893503048445518,0.2201382693696454,0.5705403162713779,-0.3882705943553356
6.789999999999919,1.189686917145566,-1.6285008260615106,-0.7562669693723689,0.9522466196900089,0.14386545937400957,-0.2691635870811132,0.23293827630600483,0.2216180454892822,0.1953292366936687,0.6911380843050445,0.21884309330172388,0.5634832593760787,-0.39610033326325855
6.799999999999919,1.1773833398262394,-1.641850986561917,-0.7338859252315848,0.9465935400488192,0.1475926332663665,-0.28643389466459923,0.25552188877047965,0.22776702896027812,0.21801974369732338,0.6929380024157379,0.21759550323121363,0.5562503701784584,-0.4037696882179979
6.809999999999919,1.1354241080758645,-1.657346632489431,-0.723533016931807,0.9405993828316512,0.15104260986141568,-0.3037492070933022,0.2758480200606597,0.22738792747854888,0.24151871708323375,0.6947675235584324,0.21620923072470033,0.548951510995421,-0.4112664110505255
6.819999999999919,1.068440169487551,-1.672457660827153,-0.7227165559601936,0.9343477659820362,0.15438375113504155,-0.32106147889954967,0.29452979105143756,0.22192810980263497,0.26612786068624283,0.6966201750475445,0.21466179770720648,0.5416428958323736,-0.41861556231989194
6.829999999999918,0.9494255103447412,-1.6804937829343392,-0.7399744334850611,0.9276476273680494,0.15785616829970345,-0.3382501683788427,0.3105376447867192,0.2071280434296909,0.29426866093619114,0.6985156299386629,0.21265311357952477,0.5344452494342321,-0.4256524629208604
6.839999999999918,0.7977963428877329,-1.6810992080619318,-0.780054298603097,0.9205692454058018,0.16194312640592737,-0.3551476702452792,0.3165947994154513,0.19359707419235214,0.31937050089081315,0.7004196447261368,0.21002257960571388,0.5275284447215169,-0.43238851872764394
6.849999999999918,0.6212970602879752,-1.6765660238990205,-0.8354458467559124,0.9132038319157401,0.16661262748354647,-0.3717817870180352,0.3136166131284092,0.1790395332396835,0.343748266607954,0.7023226762545305,0.20687154507887093,0.5208659880075692,-0.438890589789895
6.859999999999918,0.40102783311256557,-1.6647941948511713,-0.9106315171701374,0.9053380387755258,0.1726970928527268,-0.38781094186257453,0.2897852386820676,0.1558530525730802,0.37230204286741375,0.7041982848295848,0.20264603974398543,0.5147886619190419,-0.4449652067661145
6.8699999999999175,0.1707074026540264,-1.636856888371766,-1.0023293895225291,0.8970797853513139,0.18034698550475392,-0.40313572421179666,0.2708225581059745,0.13672071810461292,0.39819381688969346,0.705984821901989,0.19742122220948838,0.5093368512100082,-0.4507040663000664
6.879999999999917,-0.06550861921066616,-1.5986641229724685,-1.105223701055618,0.8885355009144557,0.1892448460683019,-0.4178629157357221,0.24968096783029695,0.11657189951200497,0.42383564404591295,0.7076786250531785,0.191436646381169,0.5043868551087202,-0.4561976607805633
6.889999999999917,-0.3054323992001946,-1.5502945744419958,-1.222440699663026,0.8795423112230584,0.20051647608078094,-0.4313255805853586,0.202909775967296,0.07942776056176595,0.45563950418927124,0.7091190158593914,0.18413774533825944,0.5004025321091289,-0.4613041578957496
6.899999999999917,-0.5518593412342212,-1.4988282527391177,-1.3517739426758182,0.8701528592508062,0.21385387021712063,-0.443685312854076,0.18287136100568205,0.05097470856361504,0.48108116058121864,0.7102992231685518,0.17576869130485634,0.4972062707298571,-0.46615945213170634
6.909999999999917,-0.7958026564812363,-1.4402382256485753,-1.4865198607924246,0.860470618016814,0.22877172323684747,-0.4551392018678063,0.17389988332051318,0.025633108384824944,0.5031899018897906,0.7112539626747675,0.16660440815576724,0.49462204543089155,-0.4708327507285483
6.919999999999916,-1.0055858209116415,-1.3502902064306928,-1.6151854590233778,0.8503234786884003,0.24642340164615661,-0.4647778800861803,0.1464941268350485,-0.008491114234631725,0.5256777590852061,0.7117129618640083,0.156158713411794,0.49313298194751426,-0.4752320484417135
6.929999999999916,-1.1865031390048977,-1.2530393632087773,-1.7307704229295746,0.8399060337233136,0.2658205703569531,-0.47283958335282983,0.13030457681058594,-0.03742098650722038,0.5392819073439021,0.711709470898874,0.1449834932788862,0.49242843607738773,-0.4794578732793601
6.939999999999916,-1.341396906558396,-1.1513057232678516,-1.8362729974694447,0.8292862136957001,0.28646372568980344,-0.4796861462673138,0.12020134705731421,-0.06211327203935351,0.5481721070410696,0.7113413033809534,0.13330275666989455,0.49229862563452226,-0.48356325034185205
6.949999999999916,-1.4349166112475165,-1.0467580593545613,-1.9243127014531363,0.8183416752645342,0.30883556470784534,-0.4844296730040901,0.1095871613102297,-0.07845597632957962,0.558112503360252,0.7103061150589745,0.12099175028110737,0.49303486216148784,-0.48751729393888393
6.959999999999916,-1.4846139628353643,-0.9337682577027739,-1.9954637681566332,0.8072330508153687,0.3318977658818278,-0.48769085068745177,0.107037139273815,-0.09661664898235094,0.5640300429636593,0.7087464603018252,0.10855215958073067,0.4942502735759815,-0.49144021287534356
6.969999999999915,-1.5016289641117366,-0.8157206696198757,-2.0533577456878715,0.7960107061336579,0.3553854211015892,-0.489836974005953,0.10731584328311793,-0.11534311588926205,0.5677097774531147,0.7067799413247561,0.09607266992810105,0.49580537961270105,-0.4953547204517307
6.979999999999915,-1.468296354980324,-0.695894206901162,-2.087616091031326,0.7846551936143746,0.3790943382368186,-0.4902190632026788,0.09648472960223589,-0.13110507330872584,0.5716441365312446,0.7041103043408315,0.08380362335649769,0.49779799009183734,-0.49932813956409833
6.989999999999915,-1.3953167092572913,-0.5785396598880792,-2.097680915659649,0.7733402211097584,0.4023811921864484,-0.4895618010379701,0.09446165835651849,-0.14872114140487158,0.57335939520951,0.7009846679281776,0.07198505960107793,0.49996089697959173,-0.5033743836912735
6.999999999999915,-1.2941575272777064,-0.4642266970744466,-2.0892110431666513,0.7620826152110969,0.42522931135800984,-0.4881655006016338,0.0978094779140175,-0.16646871920243664,0.5731760024614342,0.6975216427954416,0.06057171971355762,0.5022231945026563,-0.5074841897068707
7.0099999999999145,-1.1585840265407923,-0.36077457544031843,-2.050657489972528,0.7510539012855767,0.4467697831125241,-0.4858649309872268,0.10276825972533385,-0.17777757987592474,0.5688859567694621,0.6935726924536627,0.0501263182224549,0.5044864411475671,-0.5117372668235444
7.019999999999914,-1.0189201547880202,-0.2626639055880938,-1.9913251922678015,0.7403318491374776,0.4670466752726627,-0.48321981974996314,0.10910229384409026,-0.19145304068750316,0.5626841875205775,0.6894051045612589,0.0405011569713958,0.50665716506007,-0.5160521985992769
7.029999999999914,-0.877157677882225,-0.16781915232856176,-1.915922164377719,0.7298883129861038,0.4862860746804237,-0.48033446645284417,0.11571121356081342,-0.20653424641330698,0.5552630493712246,0.6850859630814666,0.03153954295612858,0.5087507778169376,-0.5204016169837672
7.039999999999914,-0.7379450655953842,-0.07343389604335633,-1.8144569637839343,0.7201275252018979,0.5035063646596151,-0.47720615573547726,0.11835673445758557,-0.22152146744076284,0.5473133627593695,0.6806191233560321,0.023816994748595527,0.5106883020721248,-0.5247323190457099
7.049999999999914,-0.5849777743983292,0.022913700988684595,-1.6997671964495715,0.7110622161383143,0.5191322842012797,-0.47405535801177023,0.12129860810421565,-0.23713664486391478,0.5414568069143222,0.676127848967933,0.01707446988888787,0.5125022096246261,-0.5290157847006307
7.0599999999999135,-0.4252806000619618,0.11819360275051968,-1.575612841548063,0.7025759310118955,0.5334711840642474,-0.4709165907734023,0.12348761659789928,-0.25213885587251467,0.5352255487288788,0.6716307971732957,0.011122516934469872,0.5142123736131775,-0.5332583131943381
7.069999999999913,-0.2790637488674036,0.19597324734996846,-1.4414198318799718,0.6952419585316882,0.545478620688791,-0.4679767926994072,0.11848910741194701,-0.25945688933018846,0.5161976070672868,0.667205149662483,0.006599591038338413,0.5157113772764318,-0.5374102078701322
7.079999999999913,-0.1375687432904717,0.2650648894658594,-1.2998604440646013,0.6887791424375088,0.5558821532768798,-0.4653039651617941,0.11768760487117902,-0.26439492775734696,0.49957989218183096,0.6629276916979366,0.0030230495786831217,0.5170427748411761,-0.5414431889155841
7.089999999999913,-0.00513195724787267,0.3274406506450926,-1.1537987250860382,0.6830325471328434,0.5650087823120059,-0.46283959814082876,0.11932283320860161,-0.26850422269734775,0.4825356527478573,0.6587807896286291,0.00019581694277315885,0.5182466764485215,-0.5453653272664264
7.099999999999913,0.07748366303948387,0.3799130431204464,-1.0091341049037688,0.678630752247255,0.5720024897832606,-0.46069672652054455,0.11910635149291696,-0.2782079561299144,0.4494249725772157,0.6549343145778984,-0.0014068102250589208,0.5192764903156701,-0.5489964389669022
7.109999999999912,0.13951272762098474,0.4356652969066025,-0.8612033541497423,0.6751743572890113,0.5777912710276887,-0.45855898072457185,0.12006364537503561,-0.2860188350016735,0.4326217462443027,0.6513116213979449,-0.002333645072110847,0.5203021911393321,-0.5523230371146278
7.119999999999912,0.18756857440944602,0.4928205217712434,-0.7123248141878279,0.6725002297878954,0.582611989638083,-0.45640362838446324,0.12242061036505988,-0.2944107263036707,0.42640883243627054,0.6478708283006658,-0.0027144489544970846,0.5213353987133541,-0.5553943292415042
7.129999999999912,0.23084385322339349,0.5434800483902054,-0.5738756493608855,0.6712848594950613,0.5858286984916153,-0.4540635855949281,0.1303655787090512,-0.31881095119455644,0.4197650751407973,0.6447465286042222,-0.0021684316927791,0.5224584373660051,-0.5579663338394427
7.139999999999912,0.2657173950033852,0.5806063639960111,-0.45840905790912373,0.6708680674356021,0.5881500675337427,-0.45167552923009957,0.1435809982342436,-0.33049842487649994,0.4078547318335138,0.6418149683727354,-0.0011093341486803285,0.523602150973753,-0.5602719132130769
7.1499999999999115,0.2978373311633226,0.611306181185805,-0.3564993163277483,0.671087680339222,0.5897430056989329,-0.44927016400005454,0.16130061912938692,-0.331679434314726,0.3900553483420619,0.6390433399393824,0.00036418256257721735,0.5247513807073014,-0.5623677772831588
7.159999999999911,0.35733885211084393,0.6671854204900054,-0.23695277160650272,0.6722660974753365,0.5901191983501712,-0.4470063271839259,0.18823832054787973,-0.31402887002574975,0.3498499966368257,0.636563322464339,0.0025063250861785194,0.5258212539679934,-0.5641685215635667
7.169999999999911,0.38460878193059345,0.7242908502791173,-0.09963464352509382,0.6744349903988477,0.5895507486274184,-0.4444751405237024,0.19822263426671868,-0.305406666790352,0.31387117561295474,0.6342618795275101,0.00523468645033381,0.5269998903987417,-0.5656377080094807
7.179999999999911,0.38242930216918103,0.7776945470127229,0.048254210720217156,0.6774084165725829,0.5882260404021663,-0.44170525288354456,0.20126453165974745,-0.30415712599235367,0.2824437966950868,0.6321253540171107,0.008412409297167536,0.5282751699871026,-0.5668065819083873
7.189999999999911,0.3059165500834788,0.7843220650152197,0.17883433848212366,0.6816328264484558,0.5858218618311002,-0.438376111199201,0.2531358509167104,-0.31471376978904103,0.2678589911702612,0.6304187371516498,0.01205478270626828,0.5297731807803727,-0.5672378195759058
7.1999999999999105,0.21915560504828696,0.8019023832912475,0.3196432328467445,0.6865939384439437,0.5829393059985983,-0.43444032239617764,0.2950012393949077,-0.3207120683906375,0.2554170682549341,0.6290144392497934,0.01580377676002379,0.5315263079350269,-0.5670625089574154
7.20999999999991,0.12434576134300726,0.8269523506563349,0.4703928432306045,0.692198506966806,0.579626214629153,-0.4299804167379185,0.33222319929318017,-0.3222813863122265,0.2431691706037808,0.62787365008897,0.019652586009311558,0.5334987586519104,-0.5663606029196753
7.21999999999991,0.02074300326763584,0.848700234969164,0.6513013635500767,0.6991623134908617,0.5752880250483574,-0.42446565371391337,0.39690981907850076,-0.3104218812624908,0.216064902434882,0.6272845355601049,0.023773120435591526,0.5359026380517311,-0.5645752636213816
7.22999999999991,-0.13405159876838424,0.879006404532435,0.84919615854799,0.7071364131862182,0.5702103046509446,-0.41801129730575526,0.43503915739593085,-0.2994085479926975,0.1952153030390922,0.6271054571792142,0.028042013746200717,0.5386953523495407,-0.561906058329204
7.23999999999991,-0.33481986815193965,0.9141814571171537,1.0587797626244908,0.7159804325492862,0.5645245086388859,-0.4106791418977926,0.45404067313865737,-0.28950893508213954,0.18013425621667434,0.62728278313525,0.03240485119420491,0.5418547616547138,-0.5584376161365977
7.249999999999909,-0.642332327102617,0.9325927876273391,1.2599718895052268,0.7264717235110537,0.5579855458599716,-0.40097027211957464,0.47568346320268096,-0.28572046951306473,0.17995594213357036,0.6281697025823213,0.03659431183152311,0.5460399071937505,-0.553058992248052
7.259999999999909,-0.9510226962045583,0.9283486397940561,1.433936063074454,0.7376220102200786,0.5512309126034804,-0.38971580404543493,0.4791953234827873,-0.2805845141479144,0.1814887406069728,0.6294984275856118,0.040311656671519244,0.5509044087678011,-0.5464039233877467
7.269999999999909,-1.2500553914930934,0.9102013923384654,1.5840884345311084,0.7493122401831732,0.544270333666867,-0.3771737434406161,0.46282979911822025,-0.2732711695353348,0.18280397337617138,0.6311940016794312,0.043633252841123765,0.5563315529215878,-0.5386759871296384
7.279999999999909,-1.4059449734138265,0.9335580302228599,1.6876546687320262,0.7616360008969075,0.5367053207479606,-0.3628576320276724,0.3608274383916992,-0.2500847092522818,0.163767911648109,0.6333803025226425,0.046379772164959705,0.5624935261915615,-0.5293539294605383
7.2899999999999086,-1.528078195727492,0.9883868294839815,1.7531319061963395,0.77420752042789,0.528702707311518,-0.3475876661938345,0.2621478977728063,-0.23332920800326934,0.13453432782788527,0.6355118343166407,0.0490886127861296,0.5690063928967151,-0.5194805440243383
7.299999999999908,-1.6163467625677514,1.0668220712400516,1.7869786021325471,0.7869704146423441,0.5203172299234314,-0.331510521633908,0.16328415834845444,-0.22099364243229033,0.09736936778273295,0.6375761828428649,0.051778461157910016,0.5758111254709876,-0.509157569804726
7.309999999999908,-1.5849524960310684,1.1362683218134986,1.7853843276538288,0.799746336882474,0.5112300398403677,-0.3143179135486647,0.02296877555511828,-0.20071148328509827,0.058842376222604645,0.6392611834567207,0.05461934126123005,0.5829494795370755,-0.498446508925537
7.319999999999908,-1.4875097898283336,1.197029551324723,1.7551654852656327,0.8122503262343301,0.5016780794563155,-0.2971203959841616,-0.05747782552400489,-0.18562835120022658,0.02400645514237699,0.6406207996232147,0.057768633863959314,0.5899755160174616,-0.48796350375098035
7.329999999999908,-1.3329921494932477,1.2508118577191198,1.7022849440045278,0.8244974848389628,0.4917155504726187,-0.2799605992313835,-0.08768186319046885,-0.17301564668574484,-0.009655993588517075,0.64168510003721,0.0612106741908049,0.5968820820873244,-0.47771686934355195
7.3399999999999075,-1.0950571354328882,1.3026135533625098,1.648682009470377,0.8360280305517807,0.4810132455656241,-0.2635114977462783,-0.06776748813210676,-0.1324213403039478,-0.0730998855878327,0.6420969023559017,0.0654904595192801,0.6032639003131396,-0.4684296474211231
7.349999999999907,-0.8498448136715258,1.317673065716804,1.5897633808991278,0.8470516348254677,0.46990294353783013,-0.24788999495245395,-0.038085931268664545,-0.106602180966491,-0.10826905300306255,0.642206028967453,0.07032497067075254,0.6091623859903013,-0.4598728409187676
7.359999999999907,-0.6004821207654194,1.301997411639735,1.5269693849586472,0.8576123299577441,0.45844146033221056,-0.23303234607609996,0.0021769269291410155,-0.09408565311963239,-0.11802770531043191,0.642054254460435,0.07564584188045752,0.6146198243329345,-0.4519727112307303
