time,seconds_elapsed,rotationRateX,rotationRateY,rotationRateZ,gravityX,gravityY,gravityZ,accelerationX,accelerationY,accelerationZ,quaternionW,quaternionX,quaternionY,quaternionZ
1681249183466783700,0.10978369140625,0.09876855462789536,-0.04307642579078674,-0.2790100872516632,0.07150615006685257,-0.034717753529548645,-0.9968357682228088,-0.07339853048324585,-0.0004078410565853119,-0.018484055995941162,0.9992086886417612,0.017372623150852102,0.03578139101301298,1.4742598520793747e-17
1681249183481817600,0.124817626953125,0.12298845499753952,-0.012829575687646866,-0.2583772540092468,0.07066597789525986,-0.03575636446475983,-0.9968589544296265,-0.07747168838977814,0.0006612874567508698,-0.017865777015686035,0.9992123112404768,0.017965052415912022,0.035323831063651064,-0.0020586516266396957
1681249183496851700,0.139851806640625,0.14024168252944946,0.01313944160938263,-0.253886342048645,0.07008969038724899,-0.037181153893470764,-0.9968475103378296,-0.08032862097024918,0.014583025127649307,-0.02744448184967041,0.9992036319954689,0.018745834842242758,0.03499754997140311,-0.004009684982967025
1681249183511887000,0.15488720703125,0.13601204752922058,0.010295983403921127,-0.2576451301574707,0.07015464454889297,-0.038923170417547226,-0.9967764616012573,-0.07107016444206238,0.03413190692663193,-0.046466946601867676,0.999193840584385,0.019477286279351386,0.035105621322934676,1.4696650292127651e-18
1681249183526920200,0.169920166015625,0.09855438023805618,0.0015365807339549065,-0.26553288102149963,0.06994859874248505,-0.04037393629550934,-0.9967332482337952,-0.047075673937797546,0.03869546949863434,-0.036393582820892334,0.9991811246576083,0.020272809534854858,0.03496278119970672,-0.0019804288593527563
1681249183541954000,0.1849541015625,0.05764886736869812,0.0015309881418943405,-0.292214572429657,0.06992151588201523,-0.04121750593185425,-0.9967005848884583,-0.04735375940799713,0.029941260814666748,-0.015826880931854248,0.9991665599906189,0.020768385986838167,0.034905166681384374,-0.004077441590951113
1681249183556988200,0.19998828125,0.022339612245559692,0.01335249375551939,-0.32920747995376587,0.07022499293088913,-0.041449274867773056,-0.9966696500778198,-0.07072852551937103,0.024450980126857758,0.027446627616882324,0.9991464316878012,0.020967649376586333,0.035007544602854775,-0.006430462782766168
1681249183572022300,0.215022216796875,0.003437293227761984,0.04402492195367813,-0.3735629618167877,0.07085040211677551,-0.04121188446879387,-0.9966352581977844,-0.08525469154119492,0.02195528894662857,0.039024174213409424,0.9991174391384174,0.02094400834447579,0.035266533290642665,-0.009061916686137426
1681249183587056000,0.23005615234375,0.019184565171599388,0.07066052407026291,-0.41359931230545044,0.0719490721821785,-0.04091062769293785,-0.9965689182281494,-0.1104775071144104,0.025148294866085052,0.040178537368774414,0.9990696967958681,0.020904132500462996,0.03575678107977458,-0.012008113378250923
1681249183602089200,0.245089111328125,0.06126203015446663,0.10286027193069458,-0.45648473501205444,0.073529452085495,-0.04100580886006355,-0.9964496493339539,-0.117413729429245,0.03429194167256355,0.030888795852661133,0.9989953141065232,0.02108133975168184,0.03647933837742574,-0.015275902259484138
1681249183617123000,0.260123046875,0.12043587118387222,0.14443515241146088,-0.48588868975639343,0.07566070556640625,-0.04180360212922096,-0.996256947517395,-0.12979888916015625,0.047235727310180664,0.01850426197052002,0.99888626534291,0.02163156726004094,0.037464630378964095,-0.018835771457106083
1681249183632157200,0.2751572265625,0.16659308969974518,0.1809135228395462,-0.5099804401397705,0.07841061800718307,-0.04335162416100502,-0.9959781169891357,-0.13895748555660248,0.04664751887321472,0.012655973434448242,0.9987382923595315,0.02258006914018542,0.038743790226861016,-0.022604097317783574
1681249183647191000,0.29019091796875,0.18484990298748016,0.20233359932899475,-0.5252358317375183,0.08164530247449875,-0.04537671431899071,-0.9956279397010803,-0.14458779990673065,0.03541272506117821,0.005118906497955322,0.9985545045689005,0.023789938971334985,0.040250065772140395,-0.026514080790682005
1681249183662225200,0.30522509765625,0.19083407521247864,0.21595406532287598,-0.539620578289032,0.08515574038028717,-0.04748664051294327,-0.9952353835105896,-0.14255930483341217,0.025803901255130768,0.003932952880859375,0.9983412898720218,0.025063744758507086,0.041882029843945,-0.030534591792701068
1681249183677258200,0.32025830078125,0.18701601028442383,0.21859566867351532,-0.5483456254005432,0.08883240818977356,-0.049656543880701065,-0.99480801820755,-0.13650086522102356,0.008396781980991364,0.0026816129684448242,0.9981005814450562,0.02638772689632347,0.043585197131387594,-0.03462951538499838
1681249183692292000,0.3352919921875,0.16342121362686157,0.20366385579109192,-0.5477083325386047,0.09241367131471634,-0.05153276026248932,-0.9943863153457642,-0.13532137870788574,0.004367843270301819,-0.00575101375579834,0.9978433356747736,0.02757897196761258,0.04523556305221426,-0.038755210531902326
1681249183707326200,0.350326171875,0.1110912635922432,0.174873486161232,-0.5504684448242188,0.09567159414291382,-0.0527920126914978,-0.9940120577812195,-0.12448018789291382,-0.003955423831939697,-0.013205349445343018,0.9975806898566809,0.028468743995600117,0.046728007384498234,-0.042883544560500794
1681249183722360000,0.365360107421875,0.0893438383936882,0.1547226756811142,-0.5506543517112732,0.09856288135051727,-0.05341155827045441,-0.993696391582489,-0.12259546667337418,-0.008615419268608093,-0.014848530292510986,0.9973157419311702,0.029042117852910942,0.04804527394241064,-0.04700530576962134
1681249183737394200,0.380394287109375,0.10648580640554428,0.14473022520542145,-0.5520570278167725,0.10127433389425278,-0.0539197139441967,-0.9933962821960449,-0.12754996120929718,-0.011967740952968597,-0.005123615264892578,0.997037659952197,0.02956663994697921,0.04927141558842438,-0.05112895266501485
1681249183752427000,0.395427001953125,0.16376374661922455,0.1374179869890213,-0.5591444969177246,0.10382033884525299,-0.05506774038076401,-0.9930704236030579,-0.1361689567565918,-0.004304207861423492,-0.0018483996391296387,0.9967334261109759,0.03041983311592969,0.05039263693750018,-0.05529763428977171
1681249183767461000,0.410461181640625,0.21857857704162598,0.12095512449741364,-0.5613917112350464,0.10623951256275177,-0.057065390050411224,-0.9927017092704773,-0.14252489805221558,0.014615438878536224,-0.025608837604522705,0.9963964904974083,0.03170829512017096,0.05141714988343079,-0.05953925113275701
1681249183782495000,0.425494873046875,0.24426592886447906,0.09165342897176743,-0.556412398815155,0.10833298414945602,-0.059669796377420425,-0.9923222661018372,-0.14318405091762543,0.021736450493335724,-0.03744763135910034,0.9960378661850141,0.03330001124283061,0.05224917694181591,-0.06379379277607743
1681249183797529300,0.440529296875,0.24812884628772736,0.06871375441551208,-0.5494942665100098,0.1100258156657219,-0.06243583559989929,-0.9919657707214355,-0.140436589717865,0.0076567791402339935,-0.028160572052001953,0.9956692114957527,0.034964727751455926,0.05286382249284157,-0.06801221472989483
1681249183812563200,0.455563232421875,0.2303575724363327,0.04638101905584335,-0.5345107913017273,0.11141085624694824,-0.06509895622730255,-0.9916399121284485,-0.14417147636413574,-0.00022392719984054565,-0.027784526348114014,0.9952963055888778,0.036568199232000546,0.053317942413999314,-0.07214676737164417
1681249183827596300,0.47059619140625,0.22365376353263855,0.03571079671382904,-0.5137999057769775,0.11254294216632843,-0.06758531928062439,-0.9913457036018372,-0.14258748292922974,-0.0037800297141075134,-0.029482543468475342,0.9949238608225002,0.03807111774778684,0.05364454204260148,-0.07615317079801331
1681249183842630100,0.485630126953125,0.2508390545845032,0.02409621886909008,-0.48478028178215027,0.11352580785751343,-0.07028990983963013,-0.9910455346107483,-0.13926738500595093,-0.005378425121307373,-0.03544372320175171,0.9945485045533733,0.03967061219640506,0.053883979111323,-0.07997537643212337
1681249183857664000,0.5006640625,0.2630246877670288,0.003038071095943451,-0.45947760343551636,0.11424984782934189,-0.07328049838542938,-0.9907456636428833,-0.1367107629776001,0.005165264010429382,-0.0514143705368042,0.9941746970118367,0.041394185121263416,0.05397866860137762,-0.08360343004207929
1681249183872698000,0.515697998046875,0.26547855138778687,-0.014714827761054039,-0.4406264126300812,0.11467880010604858,-0.07648778706789017,-0.9904536604881287,-0.1310819834470749,0.01034092903137207,-0.05004316568374634,0.9938033712446841,0.043205900010998555,0.05391135752941589,-0.08707399017911599
1681249183887731200,0.530731201171875,0.26463717222213745,-0.024680374190211296,-0.42583203315734863,0.1148780956864357,-0.07963758707046509,-0.9901822209358215,-0.1247657984495163,0.007021017372608185,-0.05058920383453369,0.9934359018862217,0.04497197258709108,0.05372522127744168,-0.09042267212149628
1681249183902765000,0.54576513671875,0.2528945207595825,-0.03510425239801407,-0.4234980344772339,0.11497117578983307,-0.08274564146995544,-0.9899165630340576,-0.12267685681581497,0.004147619009017944,-0.04722332954406738,0.9930648936501902,0.0467080136008354,0.05347974561361114,-0.09370402044097646
1681249183917799200,0.560799072265625,0.2501266896724701,-0.040330976247787476,-0.42833006381988525,0.11494608223438263,-0.08574266731739044,-0.9896643757820129,-0.11192484200000763,0.005099974572658539,-0.045018792152404785,0.9926834611064805,0.04838340156905377,0.05316816717936665,-0.09701424463943253
1681249183932833300,0.575833251953125,0.23645029962062836,-0.05496424436569214,-0.42838093638420105,0.11481434851884842,-0.08861774206161499,-0.9894263744354248,-0.10811573266983032,0.0034889504313468933,-0.041350603103637695,0.9922935944757788,0.0499915454413808,0.05279824270035497,-0.10033328420366121
1681249183947867100,0.5908671875,0.244356170296669,-0.06928592175245285,-0.4232458174228668,0.11445670574903488,-0.0914219543337822,-0.9892126321792603,-0.09993033856153488,0.004584193229675293,-0.03468257188796997,0.9919002096619611,0.051549673306511196,0.05230965886320693,-0.10363579572485508
1681249183962900200,0.605900146484375,0.26811712980270386,-0.07727593928575516,-0.41372501850128174,0.113973468542099,-0.09442682564258575,-0.9889861345291138,-0.0957849994301796,-0.0009863749146461487,-0.029141247272491455,0.991498414651629,0.053195880214579085,0.05174088323745343,-0.10688294094196636
1681249183977934000,0.62093408203125,0.31564709544181824,-0.0624900683760643,-0.38509711623191833,0.11345075070858002,-0.0980515405535698,-0.9886934757232666,-0.08938764035701752,0.012327663600444794,-0.015624761581420898,0.9910824918920771,0.055140703996008615,0.051115124021424624,-0.1100107956722948
1681249183992968200,0.63596826171875,0.35568082332611084,-0.008851079270243645,-0.3375633955001831,0.11345017701387405,-0.1024371013045311,-0.9882488250732422,-0.08586227148771286,0.020787321031093597,-0.017808914184570312,0.9906501154525899,0.057479223444191006,0.05071229732638913,-0.11285721872081189
1681249184008002000,0.651001953125,0.333061158657074,0.03630148619413376,-0.27813708782196045,0.1141585037112236,-0.107038713991642,-0.9876793622970581,-0.07984147220849991,0.028806887567043304,-0.050849080085754395,0.990228025360723,0.059945416638850876,0.05066417520453068,-0.1152742659103453
1681249184023036200,0.6660361328125,0.27424851059913635,0.05660595744848251,-0.2269282341003418,0.1153051033616066,-0.11118404567241669,-0.9870880842208862,-0.0619756281375885,0.02813044935464859,-0.07248222827911377,0.9898478711883978,0.06218830299640936,0.050878139764308314,-0.1172396471886183
1681249184038069200,0.6810693359375,0.18324445188045502,0.06019323319196701,-0.1886652559041977,0.11654459685087204,-0.114199198782444,-0.9865981340408325,-0.01806437224149704,0.014605090022087097,-0.1004684567451477,0.9895333449866761,0.0638549371871127,0.05121985142618857,-0.11884042665138525
1681249184053103000,0.69610302734375,0.12298030406236649,0.04252263158559799,-0.15319621562957764,0.11764323711395264,-0.11607885360717773,-0.9862483143806458,-0.0007914230227470398,0.010121822357177734,-0.10490769147872925,0.9892893736942251,0.06493034977328471,0.05157407070320697,-0.12012779409037816
1681249184068137200,0.71113720703125,0.1261082887649536,-0.006987398490309715,-0.13660100102424622,0.11820247769355774,-0.11761187016963959,-0.9859998226165771,0.04131291061639786,0.017163261771202087,-0.09223198890686035,0.9890916643842814,0.06579007846453556,0.051689073372785645,-0.12123420158300022
1681249184083171000,0.726171142578125,0.136683389544487,-0.08725320547819138,-0.13159798085689545,0.11776594817638397,-0.1193249449133873,-0.985846221446991,0.060166798532009125,0.0312359556555748,-0.07856112718582153,0.9889215069554363,0.06667476637659901,0.05129690580862851,-0.12230054536866634
1681249184098205200,0.741205078125,0.12276997417211533,-0.16607238352298737,-0.12900805473327637,0.11610660701990128,-0.12102142721414566,-0.9858362078666687,0.08443966507911682,0.03221527487039566,-0.0484960675239563,0.9887841946491882,0.06747282878849907,0.05029216479800739,-0.12338605197733818
1681249184113238000,0.756238037109375,0.10447751730680466,-0.22844548523426056,-0.1326960027217865,0.11337406188249588,-0.12244109809398651,-0.9859789609909058,0.08938473463058472,0.01962737739086151,-0.03530704975128174,0.988679347880871,0.06806275687780139,0.048764562633913926,-0.1245103356347156
1681249184128272100,0.771272216796875,0.11082553118467331,-0.2519122064113617,-0.12080259621143341,0.11000491678714752,-0.12377079576253891,-0.9861945509910583,0.08239316195249557,-0.00800410658121109,-0.01964956521987915,0.988592060125699,0.06856269525557122,0.046924152555718246,-0.1256312097233871
1681249184143306200,0.78630615234375,0.1499309241771698,-0.264810711145401,-0.09488631039857864,0.10639949887990952,-0.12550678849220276,-0.9863707423210144,0.07745365798473358,-0.009197801351547241,-0.017367660999298096,0.9885108122265392,0.06924025049078347,0.04494915773601468,-0.12661739601415764
1681249184158340000,0.801340087890625,0.1778060644865036,-0.29230836033821106,-0.06785948574542999,0.10241147875785828,-0.12779252231121063,-0.9864993691444397,0.08293703943490982,0.0012055933475494385,-0.012356221675872803,0.9884404853927501,0.070155715855098,0.042760981634941915,-0.12741734498086715
1681249184173374200,0.816374267578125,0.1894105225801468,-0.33475756645202637,-0.040381792932748795,0.09787340462207794,-0.13047675788402557,-0.986608624458313,0.09670668095350266,0.0035083740949630737,-0.007181048393249512,0.988388037459591,0.0712234329041155,0.040285246647292584,-0.1280371533318224
1681249184188407300,0.8314072265625,0.15983723104000092,-0.36423662304878235,-0.021356699988245964,0.09272996336221695,-0.1329997479915619,-0.9867686033248901,0.11855849623680115,-0.01656690239906311,0.027189135551452637,0.9883680557053428,0.072161788193666,0.037528493371459005,-0.12850314833243573
1681249184203441200,0.846441162109375,0.10056415945291519,-0.375959575176239,-0.003382759867236018,0.08723567426204681,-0.13492649793624878,-0.9870079755783081,0.12399175018072128,-0.02809840440750122,0.049813151359558105,0.9883836598141643,0.07277236471746772,0.03464371391705601,-0.12884778390858623
1681249184218475000,0.86147509765625,0.05414329469203949,-0.34139150381088257,0.03203701600432396,0.0818512961268425,-0.13600216805934906,-0.9873214960098267,0.1186797097325325,-0.04969729483127594,0.07837069034576416,0.9884466055857319,0.0729562464296643,0.031884589001112226,-0.1289736863247857
1681249184233509000,0.876509033203125,0.027556689456105232,-0.27679866552352905,0.08005141466856003,0.07714027166366577,-0.13666227459907532,-0.9876096248626709,0.11411339044570923,-0.05655977129936218,0.0759122371673584,0.9885504090596472,0.07296618470527053,0.029514663488562593,-0.1287364143088073
1681249184248543000,0.89154296875,0.002278445055708289,-0.22343741357326508,0.12092960625886917,0.07322339713573456,-0.13697123527526855,-0.9878649711608887,0.10078784078359604,-0.044181108474731445,0.04578733444213867,0.9886929564968976,0.0728444990063566,0.027589669087529852,-0.12813579255650798
1681249184263576000,0.906576171875,-0.015973104164004326,-0.19309361279010773,0.14917829632759094,0.06988601386547089,-0.13698217272758484,-0.9881051778793335,0.10581894963979721,-0.03982141613960266,0.019324660301208496,0.9888689604280537,0.07260678963074271,0.025993605467048195,-0.12724341792758537
1681249184278610200,0.921610107421875,-0.035047728568315506,-0.19845455884933472,0.14740249514579773,0.06669101864099503,-0.1367296427488327,-0.9883609414100647,0.11749782413244247,-0.03905162215232849,-0.008327901363372803,0.9890631407143567,0.07224684856779691,0.024493480529239765,-0.12623266379921314
1681249184293644300,0.936644287109375,-0.04855474829673767,-0.21605779230594635,0.13744014501571655,0.06328638643026352,-0.13618984818458557,-0.9886592626571655,0.12284033000469208,-0.03966769576072693,0.0013545751571655273,0.9892605278117059,0.07173441419651855,0.02290274819892686,-0.12527332573211544
1681249184308678100,0.95167822265625,-0.03023315779864788,-0.19953553378582,0.1097525805234909,0.05990982428193092,-0.1356477290391922,-0.9889441132545471,0.09957504272460938,-0.058505088090896606,0.054846882820129395,0.9894360794873693,0.0712290879854594,0.021315420520530592,-0.12445288678537264
1681249184323711200,0.966711181640625,-0.0014340546913444996,-0.17443311214447021,0.08192893862724304,0.0569269172847271,-0.13544142246246338,-0.9891486167907715,0.0753362700343132,-0.06159532070159912,0.07589483261108398,0.9895644630078569,0.07092376287102882,0.019887696420729184,-0.12384143850520521
1681249184338745000,0.9817451171875,0.033409200608730316,-0.1518803983926773,0.05187143757939339,0.054343417286872864,-0.13575336337089539,-0.9892511367797852,0.03575973957777023,-0.057728081941604614,0.07668399810791016,0.9896403684854158,0.07090868345361503,0.01861154241413872,-0.12344008934466336
1681249184353779200,0.996779296875,0.05309315398335457,-0.12484799325466156,0.03672710806131363,0.05217491090297699,-0.13642561435699463,-0.9892753958702087,0.030954979360103607,-0.057315245270729065,0.06506580114364624,0.9896759511355957,0.07110392898601342,0.01750793967827577,-0.12320371356594467
1681249184368813000,1.01181298828125,0.07970505952835083,-0.1013202890753746,0.02789260447025299,0.05125311017036438,-0.13772183656692505,-0.989143967628479,0.01902887597680092,-0.06151217222213745,0.05230015516281128,0.9896617305982347,0.07169153854163414,0.01698036459124082,-0.12305130248906297
1681249184383847200,1.02684716796875,0.09997145086526871,-0.08254873007535934,0.010401495732367039,0.05021500587463379,-0.13922181725502014,-0.9889872074127197,0.01677108183503151,-0.06167539954185486,0.05620217323303223,0.9896311385765936,0.07237534030572641,0.01637666978365805,-0.1229789107449608
1681249184398880300,1.04188037109375,0.1063237264752388,-0.06658521294593811,-0.005323405377566814,0.04967059567570686,-0.14116773009300232,-0.9887388348579407,0.012661565095186234,-0.060187265276908875,0.06620770692825317,0.9895575767032938,0.0733159875869218,0.015979446938262844,-0.12306612464468225
1681249184413914000,1.0569140625,0.10955361276865005,-0.06783902645111084,0.012899541296064854,0.04879971966147423,-0.14302131533622742,-0.9885157942771912,0.009733002632856369,-0.06399467587471008,0.06770890951156616,0.9894993438030756,0.07418891133349824,0.015430641514156017,-0.12308105590492029
1681249184428948200,1.0719482421875,0.12210647016763687,-0.06721717864274979,0.018478596583008766,0.04800067096948624,-0.1450914889574051,-0.9882531762123108,0.008548401296138763,-0.061543017625808716,0.061648011207580566,0.9894410873640135,0.0751736903916743,0.014910220406873075,-0.12301579472678946
1681249184443981600,1.086981689453125,0.14605963230133057,-0.071170374751091,0.01736193336546421,0.04698402062058449,-0.14723652601242065,-0.9879847764968872,0.0011269450187683105,-0.060206711292266846,0.06035721302032471,0.9893851826202468,0.07618213376602888,0.014279237273714418,-0.12292047552709252
1681249184459015700,1.102015625,0.16893337666988373,-0.061500176787376404,0.021548688411712646,0.04608749598264694,-0.14984500408172607,-0.9876347780227661,-0.0033781416714191437,-0.05694212019443512,0.05269825458526611,0.9893070871094412,0.07743070534720033,0.013678664004299967,-0.12283691000941407
1681249184474048500,1.117048583984375,0.1706596314907074,-0.059813059866428375,0.023640602827072144,0.045173607766628265,-0.1525341421365738,-0.9872652292251587,-0.006339989602565765,-0.053245872259140015,0.05010098218917847,0.9892295139054497,0.07871848169229197,0.013068051925012791,-0.12270943813540386
1681249184489082600,1.13208251953125,0.1769581139087677,-0.06831520050764084,0.019567297771573067,0.0442516915500164,-0.15539082884788513,-0.9868614077568054,-0.0012066476047039032,-0.06451882421970367,0.047469377517700195,0.9891401517325371,0.08009057400815565,0.012441235078644983,-0.12260769432719515
1681249184504116500,1.147116455078125,0.20508162677288055,-0.09509675204753876,-0.00723848445340991,0.04308426380157471,-0.15834465622901917,-0.9864434599876404,0.000784754753112793,-0.06228215992450714,0.047356605529785156,0.9890331800075014,0.08149792250419928,0.011677031091031296,-0.12261859012747424
1681249184519150600,1.162150634765625,0.256245493888855,-0.12173555791378021,-0.04830975458025932,0.04161131754517555,-0.1620635986328125,-0.9859026074409485,0.001387953758239746,-0.0463104248046875,0.048295795917510986,0.988859571551594,0.08327335929781193,0.010689175802392587,-0.12291524141059414
1681249184534184400,1.177184326171875,0.2869013845920563,-0.1265268474817276,-0.09491027891635895,0.03994809836149216,-0.166256844997406,-0.9852729439735413,-0.0057073719799518585,-0.04095752537250519,0.05506664514541626,0.9886209376307559,0.08527828580214224,0.009546392348864598,-0.12355179594638559
1681249184549217500,1.192217529296875,0.2672185003757477,-0.09751942753791809,-0.13275006413459778,0.0385700985789299,-0.17055200040340424,-0.9845935106277466,-0.0319630391895771,-0.054332032799720764,0.07046997547149658,0.9883319953980814,0.0873546214789046,0.0085099493845092,-0.12448561539814137
1681249184564251600,1.207251708984375,0.2216736525297165,-0.07494433969259262,-0.17159493267536163,0.037692468613386154,-0.17423997819423676,-0.9839815497398376,-0.041293542832136154,-0.07092298567295074,0.07460349798202515,0.9880243457304775,0.08915960586447291,0.007732111338904349,-0.12569280305873998
1681249184579285500,1.222285400390625,0.20046710968017578,-0.04252595454454422,-0.20928718149662018,0.03739906847476959,-0.1774199903011322,-0.9834243655204773,-0.052703626453876495,-0.0948883593082428,0.0825912356376648,0.9876972549015586,0.09074831038820413,0.0072503038752346595,-0.12714758141981095
1681249184594319600,1.237319580078125,0.20273345708847046,-0.038507506251335144,-0.22913812100887299,0.037447936832904816,-0.18034718930721283,-0.9828898906707764,-0.05333233252167702,-0.08633066713809967,0.07609057426452637,0.9873475355323115,0.09223340865111228,0.006931830620175296,-0.1288019479993189
1681249184609353500,1.252353515625,0.19939205050468445,-0.04017997533082962,-0.24283209443092346,0.03751763328909874,-0.18333658576011658,-0.9823340177536011,-0.04162224382162094,-0.06553426384925842,0.061939120292663574,0.9869714332692616,0.09375185385969186,0.006601476467808504,-0.13059313308916967
1681249184624386600,1.267386474609375,0.17654037475585938,-0.02922825701534748,-0.2406562864780426,0.037676069885492325,-0.18596582114696503,-0.9818336367607117,-0.047136515378952026,-0.06685706973075867,0.05634230375289917,0.9865989827103259,0.09509544110467026,0.006328751989427588,-0.13243636865233396
1681249184639420400,1.28242041015625,0.16382436454296112,-0.031081547960639,-0.2437242567539215,0.03791268914937973,-0.18829554319381714,-0.9813803434371948,-0.06408150494098663,-0.08447057008743286,0.051357150077819824,0.9862380195229159,0.09629360044101717,0.006112459369456771,-0.13425610925404427
1681249184654454500,1.29745458984375,0.15349796414375305,-0.05065285414457321,-0.2521798014640808,0.03804249316453934,-0.19046737253665924,-0.9809561371803284,-0.06398242712020874,-0.08661697804927826,0.04901033639907837,0.9858732723110697,0.09740524059642251,0.005843848077894339,-0.1361318267700387
1681249184669488600,1.312488525390625,0.16822773218154907,-0.06610770523548126,-0.25732555985450745,0.037886232137680054,-0.1926213800907135,-0.9805415272712708,-0.059263795614242554,-0.07536874711513519,0.04194289445877075,0.9854990713802756,0.09848771151795993,0.005423877580370727,-0.1380668755781908
1681249184684521500,1.327521484375,0.19706988334655762,-0.051626503467559814,-0.25824010372161865,0.037745535373687744,-0.19518668949604034,-0.9800395369529724,-0.06267839670181274,-0.07228463888168335,0.04115098714828491,0.9850926207580646,0.09977729600098686,0.004973678956241547,-0.1400442129190037
1681249184699555600,1.3425556640625,0.16811572015285492,-0.03253404051065445,-0.25287702679634094,0.03788791969418526,-0.1978299766778946,-0.979503870010376,-0.07188449800014496,-0.0682680606842041,0.023601770401000977,0.984678988719916,0.10112557909738075,0.004657187495718574,-0.1419831246825951
1681249184714589700,1.357589599609375,0.06605885922908783,-0.010171474888920784,-0.2404501587152481,0.038280390202999115,-0.19947147369384766,-0.9791556000709534,-0.06750096380710602,-0.07030391693115234,0.00921541452407837,0.9843212036272987,0.10198804259201166,0.00454158157540867,-0.14383863265457378
1681249184729623600,1.37262353515625,-0.05173914507031441,0.03830498084425926,-0.2136869877576828,0.03916256129741669,-0.19939324259757996,-0.9791366457939148,-0.04920284077525139,-0.09374336898326874,-0.03661036491394043,0.9840670365933151,0.10202218031799253,0.004810150736178769,-0.14553472677455329
1681249184744657400,1.387657470703125,-0.13411694765090942,0.12568329274654388,-0.17378032207489014,0.04099709913134575,-0.19783902168273926,-0.9793768525123596,-0.04935890808701515,-0.09642672538757324,-0.06864255666732788,0.9839258035077391,0.1013860635716472,0.005696868641488815,-0.14689644819576694
1681249184759690500,1.4026904296875,-0.1591949164867401,0.2095411866903305,-0.1346169412136078,0.04389663413167,-0.19545593857765198,-0.9797295928001404,-0.0457582026720047,-0.08202515542507172,-0.13245302438735962,0.983864138668636,0.10041504967546101,0.00721266860172299,-0.14790642716449898
1681249184774724600,1.417724609375,-0.13239899277687073,0.306513249874115,-0.08878447860479355,0.048096757382154465,-0.19322872161865234,-0.9799741506576538,-0.043854810297489166,-0.06353092193603516,-0.15906387567520142,0.9838322146908889,0.09962173093286208,0.00940349404605055,-0.14853102273865623
1681249184789758500,1.432758544921875,-0.1290053278207779,0.3130928575992584,-0.0435408316552639,0.052973825484514236,-0.19130584597587585,-0.9800999164581299,-0.023509100079536438,-0.01058320701122284,-0.24717974662780762,0.9838323550419641,0.09903149185320585,0.011950031322582677,-0.1487414342943512
1681249184804792600,1.44779248046875,-0.16886161267757416,0.175882026553154,-0.06559846550226212,0.05680498853325844,-0.18904630839824677,-0.9803237915039062,0.01034894585609436,0.007741376757621765,-0.27674102783203125,0.9838653463253338,0.09819318983953712,0.01400760840061495,-0.14889926286839855
1681249184819826700,1.46282666015625,-0.1936131864786148,0.01227151695638895,-0.1524936705827713,0.05841970816254616,-0.18619605898857117,-0.9807742834091187,0.07108163833618164,0.006050780415534973,-0.19828760623931885,0.9838752522319599,0.09689776203813269,0.014956226027080194,-0.1495885262279162
1681249184834859500,1.477859619140625,-0.15094003081321716,-0.08358603715896606,-0.2286132127046585,0.05831173434853554,-0.18330542743206024,-0.9813250303268433,0.06385013461112976,-0.0015242695808410645,-0.12466245889663696,0.9837939622828233,0.09546235888728945,0.014980341633960875,-0.15103646844067756
1681249184849893600,1.4928935546875,-0.02110608108341694,-0.1287039816379547,-0.2802332639694214,0.05741626396775246,-0.18170873820781708,-0.9816747307777405,0.003557860851287842,-0.0049214959144592285,-0.029158949851989746,0.9835803371550266,0.09462172285379282,0.014469185829459566,-0.1529936747187345
1681249184864927500,1.507927490234375,0.08323550969362259,-0.17233587801456451,-0.3059045374393463,0.05600539967417717,-0.1819290667772293,-0.9817154407501221,-0.01654616743326187,0.0036301016807556152,-0.01146388053894043,0.9832326574479533,0.0946528430722302,0.013532090498048936,-0.1552780344914292
1681249184879961600,1.522961669921875,0.1740872710943222,-0.20952638983726501,-0.3110652267932892,0.0539666973054409,-0.18354439735412598,-0.9815289378166199,-0.007229018956422806,0.0011713504791259766,0.015464484691619873,0.9827977343541732,0.09532952378233926,0.012157863118145882,-0.1577121898756758
1681249184894995500,1.537995361328125,0.2816033661365509,-0.21100205183029175,-0.31278324127197266,0.051667146384716034,-0.18661126494407654,-0.9810742735862732,-0.005722932517528534,-0.002643495798110962,0.03083324432373047,0.9822819178628003,0.09670570791399086,0.010529272161799549,-0.1601855844307643
1681249184910028500,1.553028564453125,0.38677626848220825,-0.16437089443206787,-0.30296388268470764,0.049735140055418015,-0.19131264090538025,-0.9802682995796204,-0.029563017189502716,0.021131351590156555,0.06556493043899536,0.9816741041276278,0.09892363333878845,0.008943036017596198,-0.16263477840636292
1681249184925062700,1.568062744140625,0.459566205739975,-0.09686189144849777,-0.27750858664512634,0.048629242926836014,-0.19734416902065277,-0.9791274070739746,-0.04051155969500542,0.029802650213241577,0.08667135238647461,0.9810045548098193,0.10187051851107813,0.007661094645250677,-0.16490592520804595
1681249184940096500,1.583096435546875,0.5086609721183777,-0.030221348628401756,-0.2587372958660126,0.04850899800658226,-0.20422564446926117,-0.9777212142944336,-0.05629097670316696,0.04565630853176117,0.0932149887084961,0.9802985782937389,0.1053238060748564,0.0068037833060370975,-0.1669590280192272
1681249184955130600,1.598130615234375,0.5238702893257141,0.009491709060966969,-0.23609642684459686,0.049160949885845184,-0.2116902619600296,-0.9760996103286743,-0.052075374871492386,0.0553029328584671,0.07573950290679932,0.9795673104498066,0.1091361165272041,0.006285299110925935,-0.1688130568518557
1681249184970164500,1.61316455078125,0.5051190853118896,0.05739052593708038,-0.21543829143047333,0.050341878086328506,-0.219077929854393,-0.9744077920913696,-0.022662434726953506,0.0658644437789917,0.040783584117889404,0.9788469821828018,0.1129583782026977,0.006041836482664758,-0.17047788417285398
1681249184985197600,1.628197509765625,0.4675741195678711,0.12476770579814911,-0.18589264154434204,0.05231895297765732,-0.2259606271982193,-0.9727304577827454,-0.01823081448674202,0.0719078928232193,0.03201085329055786,0.9781682595399569,0.11660057489212328,0.006251426580983993,-0.17190763360093428
1681249185000231400,1.6432314453125,0.43916183710098267,0.19082261621952057,-0.16140061616897583,0.055192720144987106,-0.23238448798656464,-0.9710567593574524,-0.022248990833759308,0.07004621624946594,0.009493649005889893,0.9775377655605761,0.12009599292751054,0.006969559624390147,-0.17305617013116653
1681249185015265500,1.658265625,0.4162956476211548,0.2068583071231842,-0.15555152297019958,0.058738842606544495,-0.23843973875045776,-0.9693793058395386,-0.016533024609088898,0.08072488009929657,-0.0037194490432739258,0.9769314304399208,0.12347187874652382,0.008064663911291535,-0.17405418776901468
1681249185030299600,1.673299560546875,0.4477270841598511,0.17375947535037994,-0.17498433589935303,0.062081657350063324,-0.24442309141159058,-0.9676793217658997,0.017172500491142273,0.09719102084636688,-0.021349608898162842,0.9763093546840904,0.12680063458191634,0.009052581685005261,-0.17509934148591325
1681249185045333500,1.68833349609375,0.46341708302497864,0.10641293227672577,-0.20604558289051056,0.06486263126134872,-0.25087276101112366,-0.9658445715904236,0.03433476388454437,0.10553279519081116,-0.018866121768951416,0.9756068621206878,0.1303227790516917,0.009679710939061874,-0.17639068453156423
1681249185060366600,1.70336669921875,0.4365316331386566,0.03325190022587776,-0.23496218025684357,0.06667929142713547,-0.25722217559814453,-0.9640491008758545,0.04472512751817703,0.10568714141845703,-0.002335786819458008,0.974859351501131,0.13371481144047148,0.00978831379812707,-0.1779714441954995
1681249185075400700,1.718400634765625,0.3952281177043915,-0.010760566219687462,-0.24310320615768433,0.06776978075504303,-0.26304084062576294,-0.9624015688896179,0.04813598841428757,0.08333805203437805,0.00779646635055542,0.9741078878558456,0.13677761322623763,0.009544439645407849,-0.17976315076990038
1681249185090434600,1.7334345703125,0.34373724460601807,-0.005989778786897659,-0.2444678097963333,0.0685613676905632,-0.2681165635585785,-0.9609436988830566,0.025295443832874298,0.02600538730621338,0.031240999698638916,0.9733968395607585,0.13943951350390713,0.009206508184167557,-0.18157763221963996
1681249185105468400,1.748468505859375,0.27660277485847473,0.00330305565148592,-0.24106375873088837,0.06951885670423508,-0.27237316966056824,-0.9596770405769348,0.00268574059009552,0.012653321027755737,0.046331703662872314,0.9727358709232986,0.14170427407400218,0.009021458590390954,-0.18336732079498336
1681249185120501500,1.76350146484375,0.21044735610485077,0.004274843260645866,-0.24039903283119202,0.07055932283401489,-0.27560484409332275,-0.9586778879165649,-0.020876705646514893,-0.0011895596981048584,0.07879513502120972,0.9721452116670014,0.1434592696380467,0.008971157186671812,-0.18512846284437603
1681249185135535400,1.778535400390625,0.17264431715011597,0.031148800626397133,-0.243742898106575,0.07184630632400513,-0.27807995676994324,-0.9578672647476196,-0.02370481938123703,-0.0014000535011291504,0.09911787509918213,0.9715951477645308,0.14485667516365217,0.009106228401036275,-0.1869129199392928
1681249185150569500,1.793569580078125,0.1687452346086502,0.028376450762152672,-0.24348057806491852,0.07319964468479156,-0.28029265999794006,-0.9571195244789124,-0.05006731301546097,-0.016658663749694824,0.13076460361480713,0.9710667646576318,0.14612907014728374,0.009301568413367614,-0.18865088571558872
1681249185165603600,1.808603515625,0.13904182612895966,0.04390721023082733,-0.2170897126197815,0.07470211386680603,-0.2823091745376587,-0.9564105272293091,-0.04621396213769913,-0.01593911647796631,0.12654608488082886,0.9705586590521256,0.14731816498724792,0.009596207134933707,-0.1903185306144403
1681249185180637700,1.8236376953125,0.1139533594250679,0.07290796935558319,-0.17087587714195251,0.07635542005300522,-0.28382647037506104,-0.9558307528495789,-0.04640240967273712,-0.020998358726501465,0.12421149015426636,0.9701351164127922,0.14826857347582587,0.01005316810605364,-0.19171142496712826
1681249185195670500,1.83867041015625,0.14110535383224487,0.1295803040266037,-0.12164682149887085,0.07837441563606262,-0.2854427695274353,-0.9551857709884644,-0.054204486310482025,-0.029880106449127197,0.13908469676971436,0.9697781862499231,0.14930389820386716,0.01074503408942008,-0.1926735237832081
1681249185210704600,1.85370458984375,0.15701620280742645,0.20327982306480408,-0.05064135417342186,0.08108451962471008,-0.2875383794307709,-0.9543306231498718,-0.06956413388252258,-0.008970379829406738,0.1758120059967041,0.969466953178335,0.1506494379396054,0.011807891401906273,-0.193129815803501
1681249185225738500,1.868738525390625,0.1429234892129898,0.3313344419002533,0.021014725789427757,0.08493237942457199,-0.2897435128688812,-0.9533284902572632,-0.0798817127943039,-0.007421433925628662,0.19394433498382568,0.9692442798847255,0.1521607608738938,0.013522648241298405,-0.19295013698872768
1681249185240772600,1.883772705078125,0.15022119879722595,0.47105932235717773,0.11550474166870117,0.09037791937589645,-0.29168805480003357,-0.952234148979187,-0.10334788262844086,-0.02964678406715393,0.202356219291687,0.9691466952544875,0.1536920642340404,0.01617602180395511,-0.192020457816934
1681249185255806500,1.898806396484375,0.14551806449890137,0.5873574614524841,0.18465985357761383,0.09736338257789612,-0.2940464913845062,-0.9508191347122192,-0.11857309192419052,-0.03459733724594116,0.19628727436065674,0.9691207166030866,0.1555730644331511,0.01968370139181024,-0.19030162547799384
1681249185270839600,1.913839599609375,0.1337769776582718,0.5843640565872192,0.21704868972301483,0.10493621975183487,-0.29641711711883545,-0.9492762088775635,-0.04681548476219177,0.01832565665245056,0.012600183486938477,0.9691404567130919,0.15750196002078157,0.02355931921929686,-0.18816160409991411
1681249185285873700,1.928873779296875,0.02805986814200878,0.5690855383872986,0.2945652902126312,0.11192381381988525,-0.2980259954929352,-0.9479734301567078,0.010085470974445343,0.03984725475311279,-0.016702473163604736,0.9692856335481392,0.15896151995027408,0.02728608377868812,-0.18566693979804386
1681249185300907500,1.943907470703125,-0.09815585613250732,0.6252641081809998,0.38002800941467285,0.1188652366399765,-0.29810255765914917,-0.9471039772033691,0.033310674130916595,-0.00678330659866333,0.00829172134399414,0.9696664321874902,0.1595963028733758,0.03125756098450333,-0.18248047796133063
1681249185315941600,1.958941650390625,-0.2513193190097809,0.7709760069847107,0.4644952118396759,0.1267942488193512,-0.29640254378318787,-0.9466090798377991,0.008108720183372498,-0.024840742349624634,0.05081135034561157,0.9702686723309519,0.15936961750790596,0.036010911385162304,-0.1785588954922739
1681249185330975500,1.9739755859375,-0.4249143600463867,1.032116174697876,0.5861963629722595,0.13720481097698212,-0.29249247908592224,-0.9463735818862915,-0.024991661310195923,-0.05054035782814026,0.1397024393081665,0.9711110755570426,0.1581704167182283,0.04237122540669606,-0.17358011657395378
1681249185346008600,1.989008544921875,-0.5374007821083069,1.3142837285995483,0.7318393588066101,0.15102969110012054,-0.28728851675987244,-0.9458622336387634,-0.053953275084495544,-0.08282867074012756,0.17738384008407593,0.9721032769476613,0.15649719081761282,0.050769267151696024,-0.1671715392971865
1681249185361042400,2.00404248046875,-0.6651239991188049,1.47330641746521,0.7560296058654785,0.16784240305423737,-0.2804338037967682,-0.9450851082801819,-0.005733013153076172,-0.07230362296104431,-0.021086156368255615,0.9731463453183522,0.15409122582310375,0.06093725040594597,-0.15977766887792824
1681249185376076500,2.01907666015625,-0.7786284685134888,1.4582544565200806,0.7885785102844238,0.185549795627594,-0.2722882628440857,-0.9441559314727783,0.0882234126329422,-0.00014215707778930664,-0.12188410758972168,0.9741273690366914,0.1509536482280597,0.07165921663620443,-0.15216388954711635
1681249185391110700,2.034110595703125,-0.9303165078163147,1.4245452880859375,0.8345571756362915,0.20270003378391266,-0.26268720626831055,-0.9433494210243225,0.21906815469264984,0.009925365447998047,-0.10508197546005249,0.9751781647696408,0.1468248364381445,0.08226636178139296,-0.14388342736944632
1681249185406144500,2.04914453125,-1.1417045593261719,1.385360836982727,0.7516942620277405,0.21963240206241608,-0.2504243850708008,-0.9428941011428833,0.22624468803405762,-0.01642131805419922,-0.0689619779586792,0.9762041576515119,0.1411895451491101,0.09283573697312227,-0.13591350238289907
1681249185421177600,2.064177490234375,-1.3124887943267822,1.3365198373794556,0.7624416947364807,0.23615442216396332,-0.2355809360742569,-0.942726194858551,0.19028297066688538,-0.0825190544128418,0.0388871431350708,0.977220750766084,0.13406918870815435,0.10325861319647729,-0.12807381738065712
1681249185436211700,2.079211669921875,-1.4600428342819214,1.3109660148620605,0.8193193674087524,0.25217708945274353,-0.2187381535768509,-0.9426347613334656,0.17810550332069397,-0.1057094931602478,0.10651421546936035,0.9782409275935929,0.12570553372569662,0.11349329020548546,-0.11984166252374479
1681249185451245800,2.094245849609375,-1.448732852935791,1.3202505111694336,0.8755163550376892,0.2681308388710022,-0.20126894116401672,-0.9421234726905823,0.1469539999961853,-0.11728881299495697,0.22108465433120728,0.9791413944899507,0.11681075905416699,0.12366690380667245,-0.11110311461328948
1681249185466279700,2.10927978515625,-1.1013906002044678,1.3219759464263916,0.9098482131958008,0.284227192401886,-0.18638549745082855,-0.94046550989151,0.11953562498092651,-0.09593263268470764,0.256536066532135,0.9796963047324841,0.10905925449912904,0.13369117074030198,-0.10211744265469824
1681249185481312800,2.124312744140625,-0.6981855630874634,1.4155962467193604,0.9541981220245361,0.30088990926742554,-0.17811501026153564,-0.936877965927124,0.07971009612083435,0.01332007348537445,0.24396109580993652,0.9796751179268421,0.10456047401102464,0.14362493529327053,-0.09314394237262122
1681249185496346600,2.1393466796875,-0.5345750451087952,1.4196202754974365,0.8012045621871948,0.3186599612236023,-0.17359845340251923,-0.9318366050720215,0.0828598141670227,0.11018291115760803,0.10555791854858398,0.9791259997892637,0.10201249540425728,0.15386734427048687,-0.08503339746477594
1681249185511380700,2.154380615234375,-0.5132144689559937,1.4282885789871216,0.8719341158866882,0.336262047290802,-0.1706124246120453,-0.9261853098869324,0.1596333384513855,0.08308801054954529,0.07057929039001465,0.9783323382859962,0.10013182992591145,0.16395412427383446,-0.07719228172472666
1681249185526414800,2.169414794921875,-0.6833634972572327,1.530693531036377,0.9257646203041077,0.35450413823127747,-0.16709783673286438,-0.9200027585029602,0.18818995356559753,0.03355291485786438,0.11226356029510498,0.9773809850357781,0.09775690709482446,0.174476919524191,-0.06875878098208853
1681249185541448700,2.18444873046875,-0.9695577025413513,1.6249244213104248,0.9674955606460571,0.37391218543052673,-0.16093645989894867,-0.9133943319320679,0.14415425062179565,-0.10140790045261383,0.21829545497894287,0.9762964710099188,0.09374776059738979,0.1857799890911656,-0.0595186672770801
1681249185556481800,2.199481689453125,-1.1606509685516357,1.7618556022644043,1.0099958181381226,0.39466944336891174,-0.1519871950149536,-0.9061655402183533,0.12330543994903564,-0.15926159918308258,0.26345008611679077,0.9750013213895474,0.08800047534321964,0.19792210842137795,-0.049549701711498605
1681249185571516000,2.214515869140625,-1.0192694664001465,1.9080957174301147,1.0587660074234009,0.41735437512397766,-0.14301101863384247,-0.8974202871322632,0.11388039588928223,-0.14882858097553253,0.2885335683822632,0.973232009186557,0.08195645405027603,0.2111231803769688,-0.039110495628892704
1681249185586549800,2.2295498046875,-0.8737450838088989,1.9362021684646606,1.0738568305969238,0.44103196263313293,-0.13736169040203094,-0.8869174718856812,0.09554335474967957,-0.10227760672569275,0.25885045528411865,0.9708993428272935,0.07734409845139219,0.22485363089868016,-0.028518519946540134
1681249185601583600,2.24458349609375,-0.782696008682251,1.7988961935043335,1.0235010385513306,0.46376731991767883,-0.13357289135456085,-0.8758299946784973,0.21582865715026855,0.08018237352371216,0.056371986865997314,0.9682837803965698,0.07351912272162471,0.2380754838911125,-0.018485447858010106
1681249185616617700,2.25961767578125,-0.8233283758163452,1.653838872909546,1.0345171689987183,0.4841860234737396,-0.13050983846187592,-0.8651769161224365,0.2522031366825104,0.07959125936031342,0.04979300498962402,0.9656679077395586,0.06980291488166379,0.25007818374100926,-0.00860337919603885
1681249185631650600,2.274650634765625,-0.9405187964439392,1.6350942850112915,1.0013309717178345,0.503394603729248,-0.12675954401493073,-0.8547080755233765,0.20496416091918945,-0.045802101492881775,0.10304486751556396,0.9629913411727852,0.06545250557104104,0.2614611460819004,0.0013370053149979345
1681249185646684700,2.2896845703125,-1.0841090679168701,1.710693120956421,0.9237616062164307,0.5229288935661316,-0.1212865337729454,-0.8437030911445618,0.12483721971511841,-0.0773371234536171,0.13194167613983154,0.9600668279554476,0.06000817870103165,0.27303381149962247,0.011102667020187924
1681249185661718800,2.30471875,-1.2633798122406006,1.8078279495239258,0.8928271532058716,0.5434669852256775,-0.11370443552732468,-0.8316940069198608,0.01827007532119751,-0.13298439979553223,0.19125211238861084,0.9567721136783354,0.05321116903921707,0.28516938026253935,0.02083412434965123
1681249185676753000,2.3197529296875,-1.3948858976364136,1.9159983396530151,0.8592918515205383,0.5651286244392395,-0.10446279495954514,-0.8183625340461731,-0.022419214248657227,-0.14195139706134796,0.2158692479133606,0.9530144707415162,0.04519661413942621,0.2979530188790999,0.030737631639341307
1681249185691786800,2.334786865234375,-1.4247037172317505,2.0466558933258057,0.8603845238685608,0.5879983305931091,-0.0946347713470459,-0.8033071160316467,-0.06437766551971436,-0.1253206878900528,0.25501304864883423,0.9486817362594234,0.036514056627822075,0.3114693866036227,0.04070116211581579
1681249185706819800,2.34981982421875,-1.4313315153121948,2.1994268894195557,0.9131814241409302,0.6121818423271179,-0.0856313705444336,-0.7860665917396545,-0.08749312162399292,-0.1237955167889595,0.25292450189590454,0.9436318254914873,0.02779003221168546,0.32587484695421304,0.050915643935406145
1681249185721853700,2.364853759765625,-1.623042345046997,2.3707234859466553,0.9506869912147522,0.6377005577087402,-0.07680090516805649,-0.7664461731910706,-0.10436010360717773,-0.10938684642314911,0.26476770639419556,0.9377725951799311,0.018500977472443832,0.3412251933010631,0.061691643804321065
1681249185736887800,2.3798876953125,-2.0606274604797363,2.5487513542175293,1.006222128868103,0.6645615696907043,-0.0655209943652153,-0.7443554401397705,-0.11904460191726685,-0.1338198333978653,0.2579662799835205,0.9309994454840196,0.0069274190507943876,0.35745530560063365,0.07360661431973742
1681249185751921700,2.394921630859375,-2.6107676029205322,2.7269480228424072,1.060752272605896,0.6926853060722351,-0.05045100674033165,-0.7194733023643494,-0.10506927967071533,-0.18505315482616425,0.28182077407836914,0.9231063140392114,-0.008061161974440244,0.3744307194010731,0.08724394253362573
1681249185766954800,2.409954833984375,-3.214580535888672,2.8941073417663574,1.0806870460510254,0.7218745946884155,-0.031047020107507706,-0.6913271546363831,-0.10039937496185303,-0.2173202931880951,0.28336822986602783,0.9138491732248729,-0.027050071490476852,0.3919243815319131,0.10268101958440676
1681249185781988900,2.42498876953125,-3.7989163398742676,3.07094407081604,1.1072700023651123,0.7518687844276428,-0.007353653199970722,-0.6592718362808228,-0.04616504907608032,-0.23545946180820465,0.31349241733551025,0.9029261264157263,-0.05029957127048036,0.40967551598577584,0.1198353858764581
1681249185797022700,2.440022705078125,-4.314823150634766,3.242901563644409,1.177543044090271,0.7824344635009766,0.018588397651910782,-0.6224554777145386,-0.03428077697753906,-0.2519563138484955,0.30102914571762085,0.8899219632328798,-0.07713462836890153,0.4275774947829296,0.13880431490350614
1681249185812056800,2.455056884765625,-4.784952640533447,3.4103896617889404,1.228127360343933,0.8131053447723389,0.04529810696840286,-0.5803514719009399,0.024159669876098633,-0.24642419815063477,0.2973315119743347,0.8745060629940101,-0.10708952319665734,0.44537187983328674,0.1594204480715218
1681249185827090700,2.470090576171875,-5.155335426330566,3.521092653274536,1.338555932044983,0.8433331847190857,0.07106919586658478,-0.5326709747314453,0.03955566883087158,-0.24820846319198608,0.2698841094970703,0.8563756869278752,-0.139598945123842,0.46279223087747134,0.18153836527502296
1681249185842123800,2.485123779296875,-5.349721908569336,3.5833795070648193,1.441902756690979,0.8721165060997009,0.09319974482059479,-0.48034003376960754,0.14739948511123657,-0.1767416149377823,0.2606745660305023,0.8355816553606827,-0.17330468643255606,0.4793698607538155,0.20487384120649493
1681249185857157600,2.50015771484375,-5.455361843109131,3.444873332977295,1.5596925020217896,0.8984954953193665,0.11009111255407333,-0.4249541759490967,0.19465959072113037,-0.12390030175447464,0.2259184718132019,0.8124549587384104,-0.20709975599255365,0.4946034875015304,0.22889783412171444
1681249185872191700,2.515191650390625,-5.491584300994873,3.120990037918091,1.6972037553787231,0.9210662245750427,0.12048967182636261,-0.37029609084129333,0.3234558701515198,-0.01332719624042511,0.23377573490142822,0.7878567274389677,-0.2398920448486715,0.5072511788200174,0.2538303125600312
1681249185887225900,2.530225830078125,-5.317251682281494,2.813386917114258,1.7364388704299927,0.9396480917930603,0.12441357225179672,-0.31872043013572693,0.3871646523475647,0.050345346331596375,0.22020971775054932,0.7625553436070547,-0.2707792811342311,0.5170283963946671,0.2790512156046344
1681249185902259700,2.545259765625,-5.023436069488525,1.898982286453247,1.9277043342590332,0.9537431001663208,0.12166949361562729,-0.2749013900756836,0.4208449721336365,0.1672556847333908,0.17939668893814087,0.7380786084629678,-0.29819574156027623,0.5230952094239714,0.30445155536701585
1681249185917292800,2.560292724609375,-4.356005668640137,1.6754070520401,1.6424305438995361,0.9635980129241943,0.11386416852474213,-0.24189646542072296,0.47881537675857544,0.22358396649360657,0.17184340953826904,0.7160877979690522,-0.32084106380392674,0.5254643457733426,0.32888679595893616
1681249185932327000,2.575326904296875,-3.433673143386841,2.3216159343719482,1.7269190549850464,0.9730663895606995,0.10334484279155731,-0.20606206357479095,0.5235308408737183,0.326479971408844,0.044547826051712036,0.6941948219415196,-0.3402787382823807,0.5302634729818377,0.3480294694605229
1681249185947360800,2.59036083984375,-2.5019328594207764,2.3086211681365967,1.906264305114746,0.9823310971260071,0.0841665118932724,-0.16715794801712036,0.3734886646270752,0.4081278145313263,-0.10339564085006714,0.6720022825864411,-0.3542346751114275,0.5393874504716978,0.36330703156278127
1681249185962394600,2.60539453125,-1.8403189182281494,1.7315603494644165,1.5227742195129395,0.9889156818389893,0.06347624957561493,-0.1342262625694275,0.6651981472969055,0.3354495167732239,-0.16089390218257904,0.652971166898712,-0.3636360183490398,0.5483208145971948,0.3751557602314809
1681249185977428700,2.6204287109375,-1.311637043952942,1.0051581859588623,1.2297431230545044,0.9925379157066345,0.046102408319711685,-0.11288607865571976,0.8298650979995728,0.3402501344680786,-0.12519675493240356,0.639181870677729,-0.36945595558860866,0.5541292793516791,0.3845643109078104
1681249185992461600,2.635461669921875,-0.938323974609375,0.6756934523582458,1.0548930168151855,0.9945082068443298,0.030816782265901566,-0.10001961141824722,0.8631884455680847,0.4518339931964874,-0.08036978542804718,0.6293439530617336,-0.3723447308786023,0.5579870931434993,0.39234691302850966
1681249186007496000,2.650495849609375,-0.8333418965339661,0.4458751380443573,0.7828497886657715,0.9956635236740112,0.018092580139636993,-0.09125307947397232,0.6870911717414856,0.4804883599281311,-0.12236989289522171,0.621766287489174,-0.37416599446072885,0.5606899919491846,0.39878990887518034
1681249186022529800,2.66552978515625,-0.9179002642631531,0.19946777820587158,0.3572252094745636,0.9962153434753418,0.010618267580866814,-0.08626864850521088,0.3539128303527832,0.38258546590805054,-0.17334431409835815,0.6162258874515519,-0.37674015667520866,0.56118849732982,0.404227642698616
1681249186037564000,2.68056396484375,-1.0927479267120361,0.08439977467060089,-0.028275325894355774,0.9964062571525574,0.009546090848743916,-0.08416356891393661,0.2130511999130249,0.29753702878952026,-0.1784096360206604,0.612360163633959,-0.38107846793309974,0.5591935414650369,0.40877479866038613
1681249186052597800,2.69559765625,-1.490737795829773,-0.0615190789103508,-0.19639109075069427,0.9964357018470764,0.013232736848294735,-0.08331210166215897,-0.03284311294555664,0.1753811538219452,-0.18908774852752686,0.6090132156241174,-0.3875300277701699,0.5551255958096649,0.41322998219233803
1681249186067630800,2.710630859375,-1.4663094282150269,0.04216763377189636,-0.4292597770690918,0.9963258504867554,0.01931813172996044,-0.08343745768070221,-0.1176941990852356,0.1385950744152069,-0.2099127173423767,0.6054936596350081,-0.3955969316588062,0.549349013811654,0.41844503636422137
1681249186082664700,2.725664794921875,-1.5764970779418945,0.45131492614746094,-0.7311386466026306,0.9964516758918762,0.030359158292412758,-0.07850194722414017,-0.21198201179504395,0.0864926427602768,-0.29001301527023315,0.6017960292639809,-0.40574842363939034,0.544166557727882,0.4208237492424479
1681249186097698800,2.74069873046875,-1.7509242296218872,0.12482922524213791,-0.49245685338974,0.9964526295661926,0.04178822413086891,-0.0730491355061531,-0.20079821348190308,0.11148630082607269,-0.2794288396835327,0.5973960464383257,-0.41685252888897883,0.538246598522321,0.4238427896393788
1681249186112732700,2.755732666015625,-1.8436527252197266,-0.04893990606069565,-0.23487722873687744,0.9962417483329773,0.0489727221429348,-0.07144354283809662,-0.026484668254852295,0.1789020299911499,-0.1830882430076599,0.5926885792056851,-0.42641415947845046,0.5314594940572098,0.42946723958664024
1681249186127766800,2.770766845703125,-1.5783250331878662,-0.163481667637825,-0.1095438152551651,0.9960092306137085,0.053282126784324646,-0.07160204648971558,0.0022055506706237793,0.19079747796058655,-0.18488287925720215,0.5879368484264196,-0.43451473322188144,0.5247817872514976,0.4360405890739346
1681249186142800000,2.7857998046875,-1.1346744298934937,-0.18609456717967987,0.017635706812143326,0.9957718253135681,0.05555193871259689,-0.0731613039970398,-0.03849637508392334,0.2300315797328949,-0.19594264030456543,0.5843680033868693,-0.44009270754223145,0.519362838543021,0.44169530403874663
1681249186157833700,2.800833740234375,-0.667519211769104,-0.13301484286785126,0.24283313751220703,0.9956946969032288,0.05463283509016037,-0.07488277554512024,-0.07026433944702148,0.27823764085769653,-0.21024292707443237,0.5815822729847798,-0.44300095324207,0.5160511275733316,0.4463222186621415
1681249186172867800,2.815867919921875,-0.39123016595840454,-0.030529474839568138,0.32912755012512207,0.9958476424217224,0.05062541738152504,-0.07566091418266296,-0.09788316488265991,0.33121052384376526,-0.22040534019470215,0.5792182035985799,-0.4437029518820559,0.5150701250620529,0.44981859233537375
1681249186187901700,2.830901611328125,-0.653952419757843,-0.021252887323498726,0.24616262316703796,0.9960411190986633,0.046765126287937164,-0.07560071349143982,-0.0952078104019165,0.31183168292045593,-0.2347019910812378,0.5766514553139386,-0.44463032094050825,0.5142990596156698,0.45307132787305854
1681249186202935800,2.845935791015625,-1.1323169469833374,-0.039305128157138824,0.09777767956256866,0.9961279630661011,0.045152951031923294,-0.07543358206748962,-0.06828683614730835,0.2454048991203308,-0.2005367875099182,0.5731915521179597,-0.44768877165753207,0.511720599301675,0.45734908089539644
1681249186217968600,2.86096875,-1.507372260093689,-0.05237485468387604,-0.051757484674453735,0.9960956573486328,0.04631704464554787,-0.07515409588813782,-0.05391120910644531,0.21999460458755493,-0.18184959888458252,0.568731952550811,-0.4532070742794371,0.5069776136326294,0.4627321119011239
1681249186233002800,2.876002685546875,-1.587813138961792,-0.1756373941898346,-0.28119680285453796,0.9958706498146057,0.05037880688905716,-0.07552076876163483,-0.027792155742645264,0.26708030700683594,-0.1769663542509079,0.5642543437450027,-0.46012109011464264,0.500527918360757,0.468377311692327
1681249186248036900,2.891036865234375,-0.9771865010261536,-0.34259656071662903,-0.5282220244407654,0.9952406883239746,0.05814153701066971,-0.0782027319073677,-0.010407865047454834,0.3157445788383484,-0.18527072668075562,0.5619993849825864,-0.466450904549929,0.49327698980611445,0.4725019758271692
1681249186263070700,2.90607080078125,0.03514968231320381,-0.48122528195381165,-0.6400704979896545,0.9941754937171936,0.0676174908876419,-0.0839226245880127,-0.0065961480140686035,0.4327181875705719,-0.18501347303390503,0.5639533810759776,-0.4692000959783421,0.4877396403739879,0.47319966275424985
1681249186278103800,2.921103759765625,1.1146159172058105,-0.4558165967464447,-0.6753200888633728,0.9928620457649231,0.07647992670536041,-0.09151896834373474,-0.021411240100860596,0.5149660110473633,-0.1701233983039856,0.5699563728452393,-0.4674633487635164,0.4855085288512532,0.47000977108742775
1681249186293137700,2.9361376953125,1.879574179649353,-0.5022013783454895,-0.7701147794723511,0.9912993311882019,0.08518202602863312,-0.10034923255443573,-0.04813814163208008,0.5479814410209656,-0.21944446861743927,0.5795664354033455,-0.4618916635595668,0.4862936116078895,0.4629011892768386
1681249186308171800,2.951171875,2.3017237186431885,-0.7043720483779907,-0.7885851263999939,0.9893121123313904,0.09340269863605499,-0.11197086423635483,-0.04065793752670288,0.4592248499393463,-0.1834697127342224,0.5916508100584715,-0.4534398935722576,0.4882692195514382,0.45380032533325027
1681249186323205600,2.96620556640625,2.4683878421783447,-0.9316896200180054,-0.9609241485595703,0.9865490794181824,0.10177978128194809,-0.12791380286216736,0.0528033971786499,0.3183862268924713,-0.08154356479644775,0.605824246815292,-0.44282095778190084,0.48984966939953023,0.44377243874668354
1681249186338239700,2.98123974609375,2.1603167057037354,-1.0405218601226807,-0.9313609600067139,0.9829773306846619,0.11113926023244858,-0.14630021154880524,0.053964197635650635,0.2652950882911682,-0.03535562753677368,0.6202974152671175,-0.43233015580038503,0.48983725110077264,0.43402915752695365
1681249186353272600,2.9962724609375,1.6664124727249146,-1.0739115476608276,-1.1275850534439087,0.9787611961364746,0.1214013546705246,-0.16519209742546082,0.055250704288482666,0.1357855498790741,0.0322880744934082,0.6335703981287235,-0.4235642586524261,0.4878496421746663,0.4256579918307619
1681249186368307000,3.011306884765625,1.1758971214294434,-1.1868457794189453,-1.4244369268417358,0.9732811450958252,0.136477530002594,-0.18465621769428253,0.037476420402526855,0.0187501460313797,0.04299364984035492,0.6463497663846707,-0.41771859638836767,0.4828903220784397,0.4178040960692067
1681249186383340800,3.0263408203125,0.6341530084609985,-1.3100255727767944,-1.443988561630249,0.9664729237556458,0.155145063996315,-0.20459753274917603,0.026141822338104248,-0.10224282741546631,0.07332617044448853,0.6581427103119454,-0.41473897157428363,0.4750713831051181,0.4112748251392456
1681249186398375000,3.041375,0.5241096019744873,-1.2218037843704224,-1.433968424797058,0.9588499069213867,0.17406684160232544,-0.22429390251636505,0.023205816745758057,-0.07450324296951294,0.10986828804016113,0.6686844173134651,-0.4132112813908836,0.4659500866159116,0.4062120132693561
1681249186413408800,3.05640869140625,0.31881090998649597,-1.0454500913619995,-1.3947120904922485,0.9508900046348572,0.19300200045108795,-0.2419886440038681,-0.025597035884857178,-0.008736878633499146,0.10809279978275299,0.6784192094508005,-0.41238127139462055,0.45710760949624435,0.4009261027478505
1681249186428441900,3.07144189453125,-0.0648651197552681,-0.8731701374053955,-1.2697772979736328,0.9432810544967651,0.21145838499069214,-0.255941778421402,-0.03423869609832764,-0.054933711886405945,0.11562198400497437,0.6859953239566111,-0.4134518507462361,0.44842689821239856,0.3967131472355533
1681249186443475700,3.086475830078125,-0.26907646656036377,-0.7787190079689026,-1.2301777601242065,0.9359052777290344,0.22980445623397827,-0.26696649193763733,-0.0281294584274292,-0.14571328461170197,0.1505725085735321,0.6918934413270384,-0.41610339276223957,0.4397439210245678,0.3934039079621764
1681249186458509600,3.101509521484375,-0.2784404158592224,-0.668188214302063,-1.1148793697357178,0.9286806583404541,0.24742217361927032,-0.2762872874736786,-0.013076961040496826,-0.15844815969467163,0.15244698524475098,0.696897426466848,-0.419233751669917,0.43139242258437216,0.3904839932569181
1681249186473543700,3.116543701171875,-0.12430676817893982,-0.5885570645332336,-0.9396321773529053,0.9220835566520691,0.26267915964126587,-0.28418612480163574,0.01878875494003296,-0.07240203022956848,0.13785430788993835,0.701279638622015,-0.4218157334845808,0.4242386332671583,0.3876855800794048
1681249186488577500,3.13157763671875,-0.08342666178941727,-0.5933315753936768,-0.7355408668518066,0.9161191582679749,0.27467992901802063,-0.2920217514038086,0.03615140914916992,-0.08591344952583313,0.11852937936782837,0.705308694399442,-0.42323369546196876,0.4181654690159165,0.3854226316358306
1681249186503610600,3.146610595703125,-0.14508576691150665,-0.5049492120742798,-0.5693976879119873,0.9109041094779968,0.284016489982605,-0.29931318759918213,0.052184879779815674,-0.1252487599849701,0.10555717349052429,0.7086000152517627,-0.42418101081574516,0.41281215437952923,0.38411279470631177
1681249186518644500,3.16164453125,-0.20674726366996765,-0.33984366059303284,-0.4362329840660095,0.9067661166191101,0.29171693325042725,-0.3044281303882599,0.024828732013702393,-0.15647825598716736,0.11112982034683228,0.7108339022151524,-0.42542626473576833,0.40840963607816727,0.38331355244408927
1681249186533678800,3.176678955078125,-0.24735668301582336,-0.14568935334682465,-0.19088368117809296,0.9041906595230103,0.29715457558631897,-0.3068198263645172,-0.025177597999572754,-0.17450445890426636,0.154079407453537,0.7118115644985219,-0.4268962311215602,0.4054006639883773,0.38305901542013154
1681249186548712700,3.191712646484375,-0.4003453552722931,0.10737379640340805,-0.020217932760715485,0.9036241173744202,0.30008232593536377,-0.305637001991272,-0.0001817941665649414,-0.16028130054473877,0.17593738436698914,0.71112754086801,-0.42890045219030914,0.4040122494712855,0.38355709848761455
1681249186563746800,3.206746826171875,-0.6142218708992004,0.4118537902832031,0.08780200779438019,0.9050326943397522,0.3015802502632141,-0.2999423146247864,0.12653779983520508,-0.20190981030464172,0.19392430782318115,0.7085903270588461,-0.4321099597819596,0.40411609997431447,0.38454002947331334
1681249186578779600,3.221779541015625,-0.9413222074508667,0.4201359450817108,-0.030759789049625397,0.9072539210319519,0.30448755621910095,-0.29013416171073914,0.23584306240081787,-0.23942410945892334,0.18159842491149902,0.7045690702430203,-0.4374158423323372,0.4044753400283427,0.38555104320752304
1681249186593813800,3.236813720703125,-1.2166835069656372,0.02673408016562462,0.14931172132492065,0.9083570241928101,0.30873948335647583,-0.28207728266716003,0.4352099299430847,-0.29546430706977844,0.17370939254760742,0.7001849682257596,-0.4437275820466537,0.4025756939943781,0.3883037230096085
1681249186608847600,3.25184765625,-1.4001867771148682,-0.11696583032608032,0.3498903512954712,0.9093054533004761,0.3107319474220276,-0.2767840623855591,0.5045740008354187,-0.2748127281665802,0.18105041980743408,0.6952038301706371,-0.4496552074797723,0.3992720482136993,0.39380678832167954
1681249186623881500,3.266881591796875,-1.4951270818710327,-0.1693321019411087,0.4419124126434326,0.9106510281562805,0.31116095185279846,-0.27183419466018677,0.3825925588607788,-0.1841467320919037,0.13918957114219666,0.6894389871783557,-0.4556089505809808,0.3956050871038069,0.4007382679418
1681249186638915800,3.281915771484375,-1.5196154117584229,-0.2968575656414032,0.4200134873390198,0.9117732048034668,0.31127431988716125,-0.2679141163825989,0.2651066780090332,-0.17930108308792114,0.11190834641456604,0.6835646048742161,-0.4614186940248625,0.3913256055397971,0.4082848683347091
1681249186653948700,3.29694873046875,-1.3891961574554443,-0.25835466384887695,0.32795068621635437,0.9123879075050354,0.3120681941509247,-0.2648806869983673,0.0766257643699646,-0.18490144610404968,0.041247934103012085,0.6781261937386263,-0.4669676401069656,0.3866534439386456,0.41543376195100695
1681249186668982800,3.311982666015625,-1.077872633934021,-0.14620733261108398,0.271756649017334,0.9129770398139954,0.31288614869117737,-0.26186907291412354,-0.017148733139038086,-0.18518531322479248,0.0044686198234558105,0.6733819252707409,-0.471781545455476,0.3827370257776201,0.42129735202295365
1681249186684016600,3.3270166015625,-0.768551766872406,0.09900827705860138,0.2441447526216507,0.9140624403953552,0.31298062205314636,-0.2579399645328522,-0.16009515523910522,-0.17368313670158386,-0.05759650468826294,0.6693688081156013,-0.47560946667087584,0.3805596608541486,0.4253415401360384
1681249186699050800,3.34205078125,-0.47366395592689514,0.31641247868537903,0.23003798723220825,0.9160348773002625,0.3120822012424469,-0.2519623637199402,-0.1877174973487854,-0.17032799124717712,-0.07025745511054993,0.6657667951749462,-0.47873399190103383,0.3805687677383928,0.42747621474718006
1681249186714084600,3.357084716796875,-0.2792530953884125,0.3059276342391968,0.220717191696167,0.918333888053894,0.31034180521965027,-0.24566426873207092,-0.12585341930389404,-0.19779297709465027,-0.039888665080070496,0.6627616168262719,-0.4809909672354592,0.38185802616307557,0.4284614670843983
1681249186729117700,3.37211767578125,-0.1641995757818222,0.15081927180290222,0.2427481859922409,0.9202637076377869,0.3079529404640198,-0.24141216278076172,-0.04659116268157959,-0.20146188139915466,-0.010235726833343506,0.6605681294123223,-0.48215619951516453,0.3831700931883947,0.4293668636254474
1681249186744151600,3.387151611328125,-0.15096452832221985,-0.026472950354218483,0.3059827983379364,0.9217585921287537,0.304678350687027,-0.23985910415649414,0.07908076047897339,-0.1821807622909546,0.05074164271354675,0.6589638280869313,-0.48229730769783896,0.38400489253884207,0.4309249895158412
1681249186759185700,3.402185546875,-0.28928646445274353,-0.2004210352897644,0.3946168124675751,0.9229493737220764,0.30057552456855774,-0.24045602977275848,0.10291433334350586,-0.17832210659980774,0.07904857397079468,0.6573911484472698,-0.48195667509308376,0.38404393672951914,0.43366469440499406
1681249186774219800,3.4172197265625,-0.5756153464317322,-0.32730603218078613,0.47688451409339905,0.9239339232444763,0.29605358839035034,-0.24227765202522278,0.08886826038360596,-0.19816845655441284,0.11727768182754517,0.6551919021600563,-0.4819167360142288,0.38290656023154007,0.4380210738954897
1681249186789252900,3.4322529296875,-0.9042446613311768,-0.34608450531959534,0.5455653071403503,0.9249258637428284,0.2916807234287262,-0.24379225075244904,0.05720609426498413,-0.20996984839439392,0.12481951713562012,0.6518045262154084,-0.48295299106789824,0.38060515261190875,0.4438998940139995
1681249186804286700,3.44728662109375,-1.1687020063400269,-0.2679212689399719,0.6188704371452332,0.9263337850570679,0.28737252950668335,-0.24356302618980408,-0.039264023303985596,-0.21974554657936096,0.11458051204681396,0.6469290502095787,-0.4853359010661619,0.37771357877514955,0.4508485944901154
1681249186819320600,3.462320556640625,-1.3619122505187988,-0.1723284274339676,0.6620916724205017,0.9282964468002319,0.2830321192741394,-0.24116121232509613,-0.08273059129714966,-0.2081419825553894,0.0974692702293396,0.640685362956528,-0.4889272920300344,0.3746591699972241,0.4583699461323823
1681249186834354700,3.477354736328125,-1.4557911157608032,-0.07290489226579666,0.700095534324646,0.9307249784469604,0.2786377966403961,-0.2368801236152649,-0.12570172548294067,-0.17460334300994873,0.05270659923553467,0.6334374446917764,-0.49338529624519417,0.3716596425398309,0.4660442220337482
1681249186849388500,3.492388427734375,-1.438036322593689,0.0385127067565918,0.7767223715782166,0.9337160587310791,0.2734135091304779,-0.231127068400383,-0.13063055276870728,-0.14925268292427063,0.0315573513507843,0.6254832399222077,-0.4981291111268931,0.3691935215609788,0.4736395677275627
1681249186864421600,3.507421630859375,-1.3582603931427002,0.1339114010334015,0.8716710209846497,0.937368631362915,0.2666356861591339,-0.22415517270565033,-0.11127299070358276,-0.10416007041931152,0.006030857563018799,0.6169975430076684,-0.5027285025005441,0.3676771181956564,0.4810318581656621
1681249186879455500,3.52245556640625,-1.20100736618042,0.16655057668685913,0.9874527454376221,0.9415516257286072,0.25775009393692017,-0.21689943969249725,-0.10083812475204468,-0.07426315546035767,-0.0056651681661605835,0.6083006190499232,-0.5066425200825911,0.36723784504692,0.4882827809183154
1681249186894489900,3.53748974609375,-0.9733943343162537,0.18960368633270264,1.0964471101760864,0.9460760951042175,0.24645434319972992,-0.21023930609226227,-0.07440239191055298,-0.035013288259506226,-0.03519830107688904,0.5997827386583636,-0.5093754150008449,0.36799053482122396,0.4953589719601231
1681249186909523700,3.552523681640625,-0.7467846274375916,0.2741539776325226,1.1839303970336914,0.9509012699127197,0.23283065855503082,-0.2039039433002472,-0.07706087827682495,-0.014599427580833435,-0.06149214506149292,0.5915942256746252,-0.5108877981051604,0.3701914135088609,0.501964479156093
1681249186924557600,3.5675576171875,-0.5856412649154663,0.40015798807144165,1.2570120096206665,0.9560416340827942,0.21733106672763824,-0.19685418903827667,-0.09909278154373169,-0.005127117037773132,-0.09788452088832855,0.5834806951290292,-0.5116714534458157,0.37385188383294116,0.5079147390985955
1681249186939590700,3.582590576171875,-0.48198115825653076,0.5499661564826965,1.328264594078064,0.9614842534065247,0.20022599399089813,-0.18830181658267975,-0.10421496629714966,0.00492839515209198,-0.10213391482830048,0.5751359162828477,-0.5121481021895142,0.3788844339495363,0.5131954653438094
1681249186954624800,3.597624755859375,-0.4177493751049042,0.6418049931526184,1.3989835977554321,0.9670752286911011,0.18159376084804535,-0.17829488217830658,-0.08197402954101562,0.02028001844882965,-0.10029998421669006,0.5663760233792003,-0.5124644249201352,0.38501009224773786,0.5180401400635007
1681249186969658600,3.61265869140625,-0.43700188398361206,0.6638719439506531,1.4195332527160645,0.9724418520927429,0.16212810575962067,-0.16754478216171265,-0.049468278884887695,0.03677019476890564,-0.10706757009029388,0.5572874009826505,-0.5127306701152741,0.3915799630923021,0.5226883631668002
1681249186984692500,3.6276923828125,-0.47175031900405884,0.6334341168403625,1.4261318445205688,0.9772911667823792,0.1423311084508896,-0.1569833904504776,0.004154086112976074,0.04983806610107422,-0.10607807338237762,0.5479879555156716,-0.5129421441018955,0.39799329291264024,0.5274474967354232
1681249186999726800,3.642726806640625,-0.5503116846084595,0.6312639117240906,1.387955665588379,0.9815306067466736,0.12277871370315552,-0.14670707285404205,0.01149606704711914,0.06630820780992508,-0.12540285289287567,0.5385354914555601,-0.5132784399807424,0.40396993402275677,0.532290356312667
1681249187014759700,3.657759765625,-0.6269484162330627,0.6890977025032043,1.3699028491973877,0.9852744936943054,0.10364685952663422,-0.13598355650901794,0.00123673677444458,0.0861114114522934,-0.1378505676984787,0.5287163262091252,-0.5140631142737249,0.4095696929065217,0.5370761930178832
1681249187029793800,3.672793701171875,-0.6780645847320557,0.6872089505195618,1.3256927728652954,0.9885634779930115,0.08487583696842194,-0.1246521845459938,0.003929078578948975,0.11042141914367676,-0.1481596678495407,0.518516746182143,-0.5153055994930673,0.41489040342866473,0.5417253898107981
1681249187044827600,3.68782763671875,-0.6490640044212341,0.6171180009841919,1.2340015172958374,0.9911993145942688,0.06695041060447693,-0.11420026421546936,0.04429268836975098,0.15080779790878296,-0.16053420305252075,0.508634517466936,-0.5165119274210643,0.4196609288807589,0.5462519224938945
1681249187059861800,3.70286181640625,-0.6033281683921814,0.6480194926261902,1.1314759254455566,0.9932658672332764,0.05039556324481964,-0.10432267189025879,0.05785107612609863,0.18236202001571655,-0.17433327436447144,0.49936954770490344,-0.5177157878587031,0.42403894399217484,0.5502648281945535
1681249187074895600,3.7178955078125,-0.49467751383781433,0.7547299265861511,1.084810495376587,0.9950180053710938,0.03467719256877899,-0.09347045421600342,0.08032989501953125,0.24999076128005981,-0.1787768006324768,0.490356516339633,-0.5191524417229895,0.42865547270810095,0.553430907730628
1681249187089928700,3.7329287109375,-0.3778636157512665,0.8303804993629456,0.942997395992279,0.9964926242828369,0.019832046702504158,-0.08129721879959106,0.11825352907180786,0.2924390435218811,-0.17614901065826416,0.4817612222964793,-0.5207477173687035,0.4337893548879958,0.5554770563794942
1681249187104962600,3.747962646484375,-0.31234559416770935,0.735910177230835,0.7257795929908752,0.9975633025169373,0.0077672856859862804,-0.06933410465717316,0.2882338762283325,0.34051457047462463,-0.13865840435028076,0.4744176478045363,-0.52251366215518,0.4385344016687825,0.5564125842646006
1681249187119996700,3.76299658203125,-0.03748393803834915,0.3518194854259491,0.756505012512207,0.9981836080551147,-0.002911290619522333,-0.060174353420734406,0.393951952457428,0.4211547076702118,-0.13417679071426392,0.46864142197009573,-0.5233243818177242,0.44276903171619253,0.5571914703022391
1681249187135030800,3.77803076171875,0.25046417117118835,-0.5754052996635437,0.7028180956840515,0.9979696869850159,-0.014315426349639893,-0.06206442788243294,0.6567240953445435,0.5369594693183899,-0.16208714246749878,0.466360739063297,-0.5198679483447778,0.4457635050848502,0.5599464988424754
1681249187150064600,3.793064697265625,0.4048757255077362,-0.8085341453552246,0.46605584025382996,0.9970385432243347,-0.023538969457149506,-0.07321293652057648,0.6220563054084778,0.5457404851913452,-0.17532217502593994,0.46769671697928383,-0.5135211330757912,0.4468663978055862,0.5637963243126554
1681249187165097700,3.80809765625,0.466747522354126,-0.5150250196456909,0.07654695957899094,0.9961234331130981,-0.028259459882974625,-0.0833047479391098,0.09564298391342163,0.4708253741264343,-0.24561363458633423,0.47048756565150807,-0.5081260852228077,0.44738742526058994,0.5659451304556689
1681249187180131600,3.823131591796875,0.5793830156326294,-0.14647658169269562,-0.34283167123794556,0.9957759380340576,-0.026941370218992233,-0.08777511119842529,-0.11133074760437012,0.42621809244155884,-0.2482386827468872,0.4740870749999691,-0.5053951230061022,0.4479823805805815,0.5649150325624948
1681249187195165700,3.838165771484375,0.7144261598587036,-0.07550680637359619,-0.6341668367385864,0.9958282113075256,-0.020085586234927177,-0.08900965005159378,-0.2200561761856079,0.38783764839172363,-0.22048431634902954,0.4790816845084973,-0.5043773029068906,0.448440309423923,0.5612357224552619
1681249187210199600,3.853199462890625,0.8352790474891663,-0.34364479780197144,-0.7729310989379883,0.9957441091537476,-0.010589847341179848,-0.09155061841011047,-0.14227426052093506,0.3846895694732666,-0.17990320920944214,0.4855765355367743,-0.5031891108111,0.4483585712089449,0.5567680973107056
1681249187225234000,3.86823388671875,1.0092791318893433,-0.7698187232017517,-0.9420125484466553,0.9949784278869629,0.0010234201326966286,-0.10008502751588821,0.07693630456924438,0.38543590903282166,-0.11895483732223511,0.4945720705942165,-0.5003231843973209,0.4468044278231382,0.5526672248889297
1681249187240266800,3.883266845703125,1.21141517162323,-0.8769813776016235,-1.0591793060302734,0.9934933185577393,0.014315778389573097,-0.11298637092113495,0.09425985813140869,0.37231141328811646,-0.09824100881814957,0.5057820851202239,-0.49597518104539257,0.44442708591250046,0.5483407286020826
1681249187255300900,3.89830078125,1.3729206323623657,-0.7254728078842163,-1.1118519306182861,0.9916741251945496,0.028372684493660927,-0.12560832500457764,-0.04213494062423706,0.3500758111476898,-0.0939350575208664,0.5178155449454677,-0.4912974569321862,0.44251853045875583,0.5428362926797519
1681249187270334700,3.913334716796875,1.5245898962020874,-0.6007524728775024,-1.1340371370315552,0.9897863268852234,0.04227626323699951,-0.13614608347415924,-0.09473627805709839,0.3318386971950531,-0.07456247508525848,0.5298726752619927,-0.486678238897746,0.4416687101244501,0.5360111849042526
1681249187285368600,3.92836865234375,1.7117679119110107,-0.6171660423278809,-1.178076148033142,0.9876253604888916,0.05617291107773781,-0.14642618596553802,-0.05238372087478638,0.3238014578819275,-0.019040092825889587,0.5424376220534872,-0.4815963424282472,0.4414202889626009,0.5281803432167294
1681249187300402700,3.943402587890625,1.8461123704910278,-0.7576046586036682,-1.2485860586166382,0.9849209785461426,0.07003119587898254,-0.1581973135471344,0.013843059539794922,0.32067009806632996,0.015680253505706787,0.5559000772727626,-0.47554955409970384,0.4413093724082918,0.5196863016805656
1681249187315435500,3.958435546875,2.029179334640503,-0.8317095041275024,-1.2874526977539062,0.9814448952674866,0.08428123593330383,-0.17222873866558075,0.1244359016418457,0.31894752383232117,0.06325054168701172,0.5703774468475399,-0.46856613115526385,0.4408303632620775,0.5106702102953307
1681249187330469600,3.9734697265625,2.3010265827178955,-1.0334656238555908,-1.3300055265426636,0.9772396683692932,0.09749745577573776,-0.18840578198432922,0.158258318901062,0.29289865493774414,0.073293536901474,0.5858396534896297,-0.46003554037634387,0.4406409061292858,0.5009937349894287
1681249187345503500,3.98850341796875,2.1461305618286133,-1.4865721464157104,-1.8165647983551025,0.9710322022438049,0.11351510137319565,-0.2102637141942978,0.18228811025619507,0.25780752301216125,0.11463697254657745,0.6038160019754706,-0.45013486619741006,0.43845951693997043,0.4904468428872412
1681249187360537900,4.003537841796875,2.094475269317627,-1.0092356204986572,-1.3412089347839355,0.963858962059021,0.12999890744686127,-0.2325429767370224,0.1374441385269165,0.09506821632385254,0.1762380748987198,0.6206930384793606,-0.44132773863355923,0.4346933875367388,0.4806367117228861
1681249187375571700,4.01857177734375,2.3482666015625,-0.8240616917610168,-1.3231492042541504,0.9580935835838318,0.14055761694908142,-0.24960051476955414,0.135259747505188,0.26084011793136597,0.1607486605644226,0.6354673103069705,-0.4319035568914489,0.4343490066885429,0.47008691180699685
1681249187390604800,4.033604736328125,2.3195724487304688,-1.0115885734558105,-1.4016363620758057,0.9514583945274353,0.15126444399356842,-0.2680414021015167,0.024264931678771973,0.2533376216888428,0.1475885510444641,0.6508447726782931,-0.42183193603018215,0.4336324682812765,0.4587176922366624
1681249187405638700,4.048638671875,2.1354732513427734,-1.1700564622879028,-1.4664360284805298,0.9435749650001526,0.16223382949829102,-0.28869834542274475,0.06440550088882446,0.14100410044193268,0.23608604073524475,0.6662178354367214,-0.4117278096265495,0.43142905745100985,0.447775804135898
1681249187420672800,4.0636728515625,1.9743422269821167,-1.3143260478973389,-1.6286284923553467,0.9340246915817261,0.17475512623786926,-0.31154242157936096,0.1082269549369812,0.08681103587150574,0.26427072286605835,0.6816524267503542,-0.4021628652169473,0.427192953404121,0.43717417821880317
1681249187435706400,4.078706298828125,1.78947114944458,-1.2580137252807617,-1.7694997787475586,0.9230430126190186,0.18940061330795288,-0.3348420560359955,0.1022104024887085,-0.029457956552505493,0.2659333646297455,0.6969686348119153,-0.3936176172610294,0.4214785204454304,0.42621110133681067
1681249187450739500,4.093739501953125,1.5979673862457275,-1.2312884330749512,-1.8704227209091187,0.9111344218254089,0.2059231996536255,-0.35697320103645325,0.05261075496673584,-0.049184903502464294,0.27916866540908813,0.7116674342261395,-0.3864779733141542,0.4149074365340969,0.41474837582391677
1681249187465773300,4.108773193359375,1.4071238040924072,-1.2312774658203125,-1.8474920988082886,0.8984182476997375,0.2229170948266983,-0.37835532426834106,0.02692049741744995,-0.06611776351928711,0.30836325883865356,0.7254602017118424,-0.38038843882877443,0.4075867753825353,0.40359044745620337
1681249187480807400,4.123807373046875,1.1747676134109497,-1.3086124658584595,-1.825665831565857,0.8845818638801575,0.2400057166814804,-0.39989033341407776,0.038681745529174805,-0.07283042371273041,0.33633753657341003,0.7384979275496186,-0.3750408292937407,0.3992483038391353,0.3931488551337307
1681249187495841500,4.138841552734375,0.8911421895027161,-1.3036839962005615,-1.7589079141616821,0.8697426915168762,0.25729018449783325,-0.4211289882659912,-0.006354570388793945,-0.08883315324783325,0.3710191249847412,0.750542478203563,-0.37073033820238827,0.389864755495287,0.3837324977439483
1681249187510875400,4.15387548828125,0.7399821877479553,-1.1828687191009521,-1.6542906761169434,0.8548377156257629,0.2742633819580078,-0.4404909312725067,-0.032282114028930664,-0.12033271789550781,0.3867495059967041,0.7612534192213014,-0.3675675468916662,0.380326998486274,0.37515179057754316
1681249187525908500,4.168908447265625,0.7245858311653137,-1.0275517702102661,-1.577823281288147,0.840532660484314,0.29001882672309875,-0.45759597420692444,-0.09012055397033691,-0.16448473930358887,0.36070263385772705,0.7708761320157789,-0.36490400762022923,0.3715468696962715,0.36680804332080585
1681249187540942300,4.1839423828125,0.7428737878799438,-0.8479303121566772,-1.4702963829040527,0.827172577381134,0.3040675222873688,-0.4725764989852905,-0.09378933906555176,-0.1696985960006714,0.3615383505821228,0.7796201359437781,-0.3623245631444396,0.3639129768507302,0.35844219018725154
1681249187555976400,4.1989765625,0.763664722442627,-0.7669925689697266,-1.338343858718872,0.8148710131645203,0.31606438755989075,-0.48588958382606506,-0.08083164691925049,-0.18091729283332825,0.36735934019088745,0.7875726294944124,-0.3596035740514834,0.3574080018711295,0.35024884578304943
1681249187571010300,4.21401025390625,0.6177537441253662,-0.6878830790519714,-0.9990643858909607,0.8036563396453857,0.3252362310886383,-0.4983551800251007,-0.06395602226257324,-0.19904601573944092,0.3867524266242981,0.7945343814470899,-0.35662496155779255,0.3516262806811398,0.3433551130031739
1681249187586044700,4.229044677734375,0.458599716424942,-0.3787929117679596,-0.7748360633850098,0.7952810525894165,0.33172035217285156,-0.5074344277381897,-0.0807729959487915,-0.23050877451896667,0.3912235498428345,0.7996000004539022,-0.35436473717856987,0.3474311538378256,0.3381673519963587
1681249187601077200,4.2440771484375,0.25916144251823425,-0.06759481877088547,-0.5588694214820862,0.7901259064674377,0.3369021415710449,-0.5120528340339661,-0.13144969940185547,-0.27052637934684753,0.36341696977615356,0.8028913315801953,-0.3532969989531623,0.345188097329858,0.3337543606396366
1681249187616111600,4.259111572265625,0.11644496768712997,0.2891387939453125,-0.3421003818511963,0.7888267040252686,0.3407948911190033,-0.5114796757698059,-0.10701817274093628,-0.2716267704963684,0.3230183720588684,0.8041349613793036,-0.3536964496568354,0.3451941412087026,0.3303133737685065
1681249187631145500,4.2741455078125,0.04103265702724457,0.4959985017776489,-0.22511914372444153,0.7904152870178223,0.34357598423957825,-0.507148265838623,-0.07558679580688477,-0.27861928939819336,0.29543256759643555,0.8040278710371364,-0.3549307055270038,0.34705916405265136,0.3272819341098838
1681249187646179300,4.289179443359375,-0.03597498685121536,0.6184783577919006,-0.039017453789711,0.7939389944076538,0.34513017535209656,-0.5005459785461426,-0.013009369373321533,-0.27242204546928406,0.24964570999145508,0.8029066220804771,-0.35661958670065746,0.3500706906937976,0.3249833210591851
1681249187661213400,4.30421337890625,-0.24262456595897675,0.7696066498756409,0.09587511420249939,0.7992446422576904,0.34574809670448303,-0.4915957450866699,0.009837448596954346,-0.28312599658966064,0.23240995407104492,0.8006708375587983,-0.35899459612590595,0.354012730081142,0.3236111334898837
1681249187676246500,4.31924658203125,-0.6121358275413513,1.037852168083191,0.33132144808769226,0.8068426251411438,0.346328467130661,-0.47860389947891235,0.08666634559631348,-0.3291623294353485,0.27006208896636963,0.796652060195984,-0.36312019992495514,0.35894535258664095,0.32349273993543043
1681249187691280400,4.3342802734375,-1.0936172008514404,1.3180949687957764,0.707431435585022,0.8179038166999817,0.3459866940975189,-0.45970290899276733,0.15046483278274536,-0.34060031175613403,0.31512588262557983,0.789835877020505,-0.3696481651962738,0.36538853096636453,0.32559323385281175
1681249187706314200,4.349314208984375,-1.567326307296753,1.2235229015350342,1.067493200302124,0.8313246369361877,0.3439050614833832,-0.4366105794906616,0.38211536407470703,-0.3182702958583832,0.4368699789047241,0.7802587517511099,-0.3782714756930463,0.3722974629932738,0.33091037586694366
1681249187721348600,4.3643486328125,-1.9753289222717285,0.9421038627624512,1.4111837148666382,0.8443741798400879,0.339671790599823,-0.41431328654289246,0.5121321678161621,-0.2867847979068756,0.46201229095458984,0.7690986525749837,-0.387737930857988,0.3774952312836729,0.3400647737290361
1681249187736382500,4.379382568359375,-2.1611101627349854,0.7645032405853271,1.5091925859451294,0.8571411371231079,0.3333362936973572,-0.39267826080322266,0.6054597496986389,-0.2357410192489624,0.39466190338134766,0.7566251434200161,-0.3976997392054776,0.3814390998817076,0.351934210583594
1681249187751415600,4.39441552734375,-2.2276506423950195,0.5741692185401917,1.542701005935669,0.8684288859367371,0.32622602581977844,-0.37337374687194824,0.49263983964920044,-0.21529462933540344,0.28410986065864563,0.7439878594478933,-0.40747689131515036,0.3837651833333814,0.3649232859367281
1681249187766449400,4.409449462890625,-2.2125120162963867,0.7072023749351501,1.5793770551681519,0.8794124126434326,0.3178737461566925,-0.3543872833251953,0.3127569556236267,-0.15494033694267273,0.1615162193775177,0.7309170750986211,-0.4170436224080324,0.38585096893694665,0.3780926779562396
1681249187781483500,4.4244833984375,-2.0479962825775146,0.952738881111145,1.5405076742172241,0.8910314440727234,0.3081969618797302,-0.3332832157611847,0.1953181028366089,-0.13903799653053284,0.09697037935256958,0.717200343192172,-0.42656355301472515,0.3891040075114472,0.39021196373963596
1681249187796517400,4.439517333984375,-1.7404273748397827,1.3181413412094116,1.6033917665481567,0.9035674929618835,0.296251118183136,-0.3095178008079529,0.01298224925994873,-0.1307390034198761,0.03228086233139038,0.7030833020329279,-0.4354310596245452,0.39451349324681306,0.40054079046581925
1681249187811551200,4.45455126953125,-1.2483768463134766,1.735790729522705,1.5671749114990234,0.9173802137374878,0.28106263279914856,-0.28181105852127075,-0.023733913898468018,-0.11118650436401367,-0.017581582069396973,0.6886335572233392,-0.44319601961122296,0.403325866306575,0.4082761726794481
1681249187826584300,4.469584228515625,-0.7641955018043518,1.7456274032592773,1.5451120138168335,0.930856466293335,0.26362013816833496,-0.2530033588409424,0.04268479347229004,-0.11133742332458496,-0.09648388624191284,0.674998092014335,-0.44910998385117357,0.4144858861103486,0.4133754970055058
1681249187841618400,4.484618408203125,-0.29867440462112427,1.43130624294281,1.5303293466567993,0.9425485134124756,0.24374040961265564,-0.22845816612243652,0.1541770100593567,-0.07891498506069183,-0.0991174578666687,0.6633586543727071,-0.4518377345596627,0.42616144717061555,0.41735418745517544
1681249187856652500,4.499652587890625,0.016501110047101974,1.0674158334732056,1.4898452758789062,0.9519468545913696,0.22269713878631592,-0.2102462202310562,0.3472781181335449,-0.02622494101524353,-0.035084545612335205,0.6541284178821241,-0.4515114746938615,0.43705180550960343,0.42099795459741524
1681249187871686400,4.514686279296875,0.1144002377986908,0.8039520978927612,1.4841700792312622,0.9595146775245667,0.20108523964881897,-0.19722206890583038,0.3498573303222656,0.007593974471092224,-0.002011895179748535,0.6466274580273766,-0.4490910965817052,0.44688494188398564,0.42483421052796866
1681249187886720500,4.529720458984375,-0.5070209503173828,0.4601376950740814,1.5625364780426025,0.9655579328536987,0.17953602969646454,-0.18832099437713623,0.23065489530563354,0.03066904842853546,0.031231820583343506,0.6393957675558843,-0.4464037695055724,0.45449221721058203,0.43050388521042426
1681249187901753300,4.54475341796875,-0.5669496059417725,0.7462877035140991,1.05203115940094,0.9707537889480591,0.16147707402706146,-0.1776580661535263,0.15229308605194092,0.03401853144168854,0.026458740234375,0.6308021295385328,-0.4466682974771751,0.46006347487523347,0.4369414015436341
1681249187916787500,4.559787353515625,-0.9202765226364136,0.6255751848220825,0.9979234933853149,0.9748874306678772,0.14933238923549652,-0.16521042585372925,-0.0012392997741699219,-0.06676706671714783,-0.06505990028381348,0.6227242074886402,-0.44909705259571625,0.4644422709433848,0.44138404982839297
1681249187931821300,4.5748212890625,-1.3799943923950195,0.344652384519577,1.0811935663223267,0.9783464074134827,0.13620220124721527,-0.15584422647953033,0.020799100399017334,-0.011247962713241577,-0.059228360652923584,0.6135856011470602,-0.45219604259843144,0.46647253170555397,0.44881502827379377
1681249187946855400,4.58985546875,-1.9124009609222412,0.3267205059528351,0.802025318145752,0.9809327125549316,0.12606357038021088,-0.14791591465473175,0.032891809940338135,-0.03760835528373718,-0.07002532482147217,0.6035806090346949,-0.45755346761109994,0.4654963654767056,0.45787385522142016
1681249187961889500,4.6048896484375,-2.1226389408111572,0.37744760513305664,0.6496270298957825,0.9830288887023926,0.11999783664941788,-0.1387617141008377,-0.04229402542114258,-0.057543620467185974,-0.09063886106014252,0.5927503255090995,-0.4655398345573568,0.46248438161112987,0.46693462425307675
1681249187976922600,4.619922607421875,-2.067042350769043,0.36493581533432007,0.6455805897712708,0.9849094748497009,0.11473362892866135,-0.12957516312599182,-0.08992034196853638,0.03431423008441925,-0.1417565494775772,0.5817378566077183,-0.4739368221207387,0.45890773188901196,0.475782299442661
1681249187991956500,4.63495654296875,-1.8487598896026611,0.32149192690849304,0.6138594150543213,0.9866297841072083,0.10908494889736176,-0.1210876926779747,-0.07703810930252075,0.08390820771455765,-0.17177420854568481,0.5712088436978673,-0.4815391111308871,0.4556053520135956,0.4840086334054588
1681249188006990300,4.649990234375,-1.5317175388336182,0.2600086033344269,0.6701977849006653,0.9881480932235718,0.10265855491161346,-0.11412519216537476,-0.05136525630950928,0.14494581520557404,-0.19607065618038177,0.5617156650900554,-0.48765199595151454,0.45291603378063555,0.491465244345084
1681249188022024400,4.6650244140625,-1.1770784854888916,0.2246096134185791,0.7352484464645386,0.9896075129508972,0.0943751111626625,-0.10849218815565109,-0.04231131076812744,0.1775670349597931,-0.20310747623443604,0.5532545905156269,-0.4918288697514128,0.45150666518902555,0.49815216514581734
1681249188037058300,4.680058349609375,-0.8643423318862915,0.2014733999967575,0.7800233960151672,0.9909663796424866,0.08474753051996231,-0.10394056886434555,-0.0467677116394043,0.1941983997821808,-0.21513593196868896,0.5459211149589424,-0.49426412873377434,0.4513675721113147,0.5039251198606526
1681249188052091400,4.69509130859375,-0.6244784593582153,0.19501416385173798,0.8731818199157715,0.9922600388526917,0.07356878370046616,-0.10003819316625595,-0.058330655097961426,0.20781853795051575,-0.20777730643749237,0.5393513200368192,-0.49523467828019113,0.4524638281805025,0.5090375640699657
1681249188067125200,4.710125244140625,-0.41334250569343567,0.21729764342308044,0.9471551179885864,0.9934812784194946,0.06073002889752388,-0.09647190570831299,-0.07192671298980713,0.22576898336410522,-0.20301228761672974,0.5332102600743621,-0.49501235013306216,0.4546722108469103,0.5137341677524652
1681249188082159600,4.72515966796875,-0.2870974838733673,0.2170230597257614,0.9799458384513855,0.9945774078369141,0.04677961394190788,-0.0928850769996643,-0.08168983459472656,0.2378425896167755,-0.2130536437034607,0.5274350381613045,-0.4939200823091073,0.45782137751260277,0.5179333312108596
1681249188097193500,4.740193359375,-0.20660600066184998,0.25197064876556396,1.0028101205825806,0.9954861402511597,0.032180801033973694,-0.08928585052490234,-0.08812218904495239,0.2348022311925888,-0.22231382131576538,0.5218273191748524,-0.49233950428460044,0.46147468669354563,0.5218613521102138
1681249188112227300,4.755227294921875,-0.18033216893672943,0.29195481538772583,0.9562783241271973,0.9962149858474731,0.01771398074924946,-0.08510053157806396,-0.08946138620376587,0.2492842972278595,-0.22480541467666626,0.5162928740371181,-0.4907439213967046,0.4654246872340669,0.525349440769059
1681249188127260400,4.770260498046875,-0.16642551124095917,0.2964899241924286,0.8906641602516174,0.9967347383499146,0.004119046963751316,-0.08064023405313492,-0.11775219440460205,0.25674518942832947,-0.23559808731079102,0.5109486108863348,-0.48935969225994785,0.4692621608860883,0.5284426323293657
1681249188142294500,4.78529443359375,-0.09826856851577759,0.28550809621810913,0.8087668418884277,0.9970503449440002,-0.008456037379801273,-0.07628388702869415,-0.10746288299560547,0.2715785801410675,-0.24486780166625977,0.5060394951149029,-0.4880247627362323,0.47295865367420215,0.531098904946029
1681249188157328400,4.800328369140625,0.01568959280848503,0.2609207332134247,0.7367430329322815,0.9971924424171448,-0.01997416652739048,-0.07216954231262207,-0.0840301513671875,0.3011326193809509,-0.25604695081710815,0.5018160763154563,-0.48653237442158564,0.4766565631751596,0.5331655317903952
1681249188172362200,4.8153623046875,0.1227916032075882,0.22521787881851196,0.665883481502533,0.9971855878829956,-0.03056127205491066,-0.06846047192811966,-0.06903928518295288,0.32276710867881775,-0.26146501302719116,0.49839058427313104,-0.48471721677360446,0.4804362424208146,0.5346372943367537
1681249188187396600,4.830396728515625,0.1851424276828766,0.191573366522789,0.5753759741783142,0.9970608949661255,-0.04006064310669899,-0.06530396640300751,-0.039053142070770264,0.3336702585220337,-0.252704381942749,0.49571427976651555,-0.48269375013264526,0.48410201615643755,0.5356484728042047
1681249188202429400,4.845429443359375,0.19813652336597443,0.1829010546207428,0.49744677543640137,0.9968846440315247,-0.04829726368188858,-0.062356460839509964,-0.027951598167419434,0.34593522548675537,-0.24555057287216187,0.4935800996552141,-0.4807559374181341,0.48754025237821313,0.5362433030537521
1681249188217463600,4.860463623046875,0.14298447966575623,0.14250434935092926,0.38956186175346375,0.9966891407966614,-0.055156055837869644,-0.05973827466368675,0.025497138500213623,0.35955363512039185,-0.21807849407196045,0.49180191752544034,-0.4791312114124857,0.4904733889975714,0.5366563867344291
1681249188232497400,4.875497314453125,0.04256419092416763,0.1793353408575058,0.2476779669523239,0.9965428709983826,-0.060009706765413284,-0.05745871737599373,0.06980246305465698,0.3652617633342743,-0.2013760805130005,0.4903203855303978,-0.47819332249015734,0.4925462292354227,0.536950181252644
1681249188247531500,4.890531494140625,-0.08639214187860489,0.2694186270236969,0.1938948929309845,0.9965416789054871,-0.06316957622766495,-0.053983110934495926,0.15809082984924316,0.38233765959739685,-0.1380181908607483,0.48851948117170235,-0.4784295302687349,0.4940785660109182,0.5369731714697856
1681249188262565400,4.9055654296875,-0.1814986914396286,0.08833752572536469,0.1508110761642456,0.9965260028839111,-0.06577140837907791,-0.05108846724033356,0.2296397089958191,0.4056304097175598,-0.11889439821243286,0.4865300099779924,-0.4790889432257131,0.49490357712861516,0.5374316659127951
1681249188277598500,4.920598388671875,-0.1843639314174652,-0.20580622553825378,0.03783551603555679,0.9963807463645935,-0.06704334169626236,-0.05225621536374092,0.41913139820098877,0.44572070240974426,-0.10997521877288818,0.4857014764526728,-0.47917027277690905,0.49423450135365127,0.5387227695463455
1681249188292632300,4.93563232421875,-0.06767667084932327,-0.4245375096797943,-0.021604374051094055,0.9961168766021729,-0.06701604276895523,-0.05709654465317726,0.45311713218688965,0.47877445816993713,-0.10765254497528076,0.48635420020271264,-0.47837223647567334,0.49255632190962956,0.5403775288010353
1681249188307666400,4.95066650390625,0.1459803730249405,-0.6895827054977417,-0.15951403975486755,0.9956830143928528,-0.06584431231021881,-0.06542067974805832,0.3597399592399597,0.5514552593231201,-0.1525663137435913,0.48885972464865385,-0.476278659226583,0.49035527968573694,0.5419654317650311
1681249188322700500,4.965700439453125,0.35194340348243713,-0.803715705871582,-0.4449883997440338,0.9951435923576355,-0.06173271685838699,-0.0766715332865715,0.25453609228134155,0.5512956976890564,-0.16336441040039062,0.49382114374849545,-0.47325163229725326,0.4875419209375859,0.542656967034741
1681249188337733600,4.980733642578125,0.5658493041992188,-0.7123119831085205,-0.8191891312599182,0.994732677936554,-0.05271623656153679,-0.0879085510969162,-0.021893322467803955,0.5311708450317383,-0.14336884021759033,0.500844259754281,-0.47075773872289783,0.4841826881883133,0.5413957098853176
1681249188352767500,4.995767578125,0.8614364862442017,-0.4564901292324066,-1.1144801378250122,0.9945954084396362,-0.039053790271282196,-0.09620194882154465,-0.13168036937713623,0.4947880506515503,-0.10170453041791916,0.5094644497520638,-0.46922555895586987,0.48137968276017945,0.5371656615950671
1681249188367801300,5.01080126953125,1.154854655265808,-0.37311720848083496,-1.3879681825637817,0.9945706725120544,-0.02173226699233055,-0.10176833719015121,-0.17203044891357422,0.41789621114730835,-0.04602824151515961,0.5195288734280455,-0.4682484100862018,0.4794363966499256,0.5300696908285906
1681249188382835500,5.02583544921875,1.432679533958435,-0.4602779448032379,-1.6258835792541504,0.9941840767860413,-0.0010715445969253778,-0.10768836736679077,-0.10548174381256104,0.3861728608608246,-0.0021595805883407593,0.531565314674209,-0.4669626224848034,0.4775999654029966,0.5208478301380659
1681249188397869300,5.040869384765625,1.683217167854309,-0.573298990726471,-1.7177112102508545,0.9930525422096252,0.021507974714040756,-0.11569041758775711,0.07500171661376953,0.37038350105285645,0.06323075294494629,0.5454194832010273,-0.46468397552885654,0.47562968056434435,0.5102576981548937
1681249188412903400,5.0559033203125,1.9316282272338867,-0.6630006432533264,-1.7628618478775024,0.9910615086555481,0.044182345271110535,-0.1258769929409027,0.13970625400543213,0.35794776678085327,0.08460202813148499,0.5605315950501234,-0.4610173604173126,0.4738401564054265,0.49874123266807047
1681249188427936300,5.070936279296875,2.2333264350891113,-0.7244616150856018,-1.809975028038025,0.9881654977798462,0.06685011833906174,-0.13805809617042542,0.2045224905014038,0.34997421503067017,0.094509556889534,0.5768437902259586,-0.45594877115743876,0.47231522462383313,0.48608672196773706
1681249188442971600,5.0859716796875,2.607266426086426,-0.8075131177902222,-1.7937159538269043,0.984380841255188,0.08841778337955475,-0.15223868191242218,0.21921712160110474,0.35349199175834656,0.10545529425144196,0.5943004384913814,-0.44897198609101446,0.4714921131334335,0.47215075332429224
1681249188458005800,5.101005859375,2.9137024879455566,-0.9384998679161072,-1.8147897720336914,0.979610800743103,0.10831905901432037,-0.1692032516002655,0.24028366804122925,0.38557741045951843,0.11195230484008789,0.6129323177182658,-0.43974028533262083,0.4711972549541932,0.45707291370707914
1681249188473023700,5.116023681640625,3.024308204650879,-1.127224326133728,-1.994502305984497,0.9734829664230347,0.12802915275096893,-0.1895774006843567,0.2464572787284851,0.3463971018791199,0.13168567419052124,0.7712255223796043,-0.08300370256880786,0.6311273121917184,-1.2147468241418882e-17
1681249188488057600,5.1310576171875,3.2516443729400635,-1.10856032371521,-2.193664073944092,0.9657559394836426,0.1491824984550476,-0.21227402985095978,0.2199283242225647,0.21254238486289978,0.16426998376846313,0.778109799655859,-0.07494468217633299,0.6230941189426249,-0.0261213498601277
1681249188503090700,5.146090576171875,3.061847448348999,-1.6471154689788818,-2.7193589210510254,0.954464852809906,0.17406636476516724,-0.24227654933929443,0.20634758472442627,0.13559553027153015,0.19334173202514648,0.7861371191822912,-0.0671896246488889,0.6118392606069343,-0.05591815850047782
1681249188518124800,5.161124755859375,2.9735944271087646,-1.3520675897598267,-2.1860320568084717,0.941827654838562,0.19798387587070465,-0.27159398794174194,0.20192557573318481,-0.09340006113052368,0.3522062599658966,0.7930142682005125,-0.06183200361682069,0.6003164190768996,-0.08321990258063362
1681249188533158700,5.17615869140625,3.132686138153076,-1.3526798486709595,-2.2970707416534424,0.9293200373649597,0.21539410948753357,-0.2999492883682251,0.2601330876350403,0.11546221375465393,0.34719064831733704,0.7987353584410716,-0.05404538607220038,0.5891557074136615,-0.10952807842614105
1681249188548192800,5.19119287109375,2.702569007873535,-1.4453037977218628,-2.5126984119415283,0.9144488573074341,0.2353619635105133,-0.3292236328125,0.0942639708518982,-0.034418925642967224,0.32676708698272705,0.8037180335317494,-0.048363080320422316,0.57710415188315,-0.1365623491857012
1681249188563225900,5.206225830078125,2.3471357822418213,-1.5556560754776,-2.4687721729278564,0.8974981307983398,0.25646618008613586,-0.35877862572669983,0.11995792388916016,-0.09914806485176086,0.36729320883750916,0.8081987326362391,-0.04562301885498505,0.5643839297970049,-0.16187673448067033
1681249188578259700,5.221259765625,1.9608585834503174,-1.6296496391296387,-2.4199059009552,0.8786831498146057,0.2769346833229065,-0.38887420296669006,0.19274330139160156,-0.18095684051513672,0.3407328724861145,0.8124369129332487,-0.04468348579843344,0.5509684913620696,-0.18542771461451685
1681249188593293600,5.23629345703125,1.6962811946868896,-1.7059595584869385,-2.388960838317871,0.8582114577293396,0.2972579300403595,-0.4184626340866089,0.18993014097213745,-0.20802447199821472,0.35223954916000366,0.8163367733634723,-0.045867355698707604,0.5372754189163714,-0.2069436803445761
1681249188608327700,5.25132763671875,1.3587911128997803,-1.6636762619018555,-2.3599305152893066,0.8361961245536804,0.3177771270275116,-0.44698309898376465,0.1331338882446289,-0.2576269209384918,0.3991926312446594,0.8196756728115261,-0.04871082674532173,0.5235797028197107,-0.2272079789978498
1681249188623361800,5.26636181640625,1.0090948343276978,-1.5783153772354126,-2.1589200496673584,0.8138129711151123,0.33752763271331787,-0.4730578660964966,0.14532411098480225,-0.2549927830696106,0.43799328804016113,0.8224477154135919,-0.05300223394430543,0.5105505156397693,-0.24517112746151146
1681249188638394600,5.28139453125,0.7270336747169495,-1.5469709634780884,-1.9369863271713257,0.7918494939804077,0.356115460395813,-0.49614131450653076,0.11740654706954956,-0.2348538041114807,0.4793415069580078,0.8247851809588597,-0.05850603121108157,0.49850414213150734,-0.26038465634227786
1681249188653428700,5.2964287109375,0.45656487345695496,-1.31992506980896,-1.8533073663711548,0.7703728675842285,0.37378302216529846,-0.5165385603904724,0.09867626428604126,-0.2713354527950287,0.48486143350601196,0.8266882338161184,-0.06477206039651281,0.48737593708824317,-0.2735982686211788
1681249188668462800,5.311462890625,0.38499900698661804,-1.152051329612732,-1.747780442237854,0.7498018741607666,0.39111414551734924,-0.5336918830871582,0.04675281047821045,-0.32336506247520447,0.46696531772613525,0.8277292444276277,-0.07133480713925215,0.47756194984861045,-0.28585018589371763
1681249188683496700,5.32649658203125,0.3051057755947113,-1.092099666595459,-1.5257880687713623,0.7311474680900574,0.406668096780777,-0.5477632284164429,0.0591815710067749,-0.3258880078792572,0.4740328788757324,0.8282581271500832,-0.07759117208681073,0.4691460275908056,-0.2964290940305834
1681249188698530600,5.341530517578125,0.14075303077697754,-0.9245627522468567,-1.4524539709091187,0.7135152816772461,0.42094969749450684,-0.5600868463516235,0.062363624572753906,-0.32059258222579956,0.49891453981399536,0.8284521118361644,-0.08353003354617436,0.46149680980287033,-0.306121770652688
1681249188713563600,5.356563720703125,-0.03822733089327812,-0.7406589388847351,-1.1283557415008545,0.6980685591697693,0.4343577027320862,-0.5692395567893982,0.09165006875991821,-0.359681099653244,0.49883562326431274,0.8283387960692975,-0.08968464950488098,0.45534259943272587,-0.31380674705789224
1681249188728597800,5.37159765625,-0.12313982099294662,-0.2928255498409271,-0.8156817555427551,0.6871318817138672,0.44518259167671204,-0.5741622447967529,0.008333265781402588,-0.4030682444572449,0.4878738522529602,0.8278000661815017,-0.09481540389054895,0.4515849064842035,-0.31910520568245787
1681249188743631600,5.386631591796875,-0.1382196992635727,0.16909362375736237,-0.553213894367218,0.6819435954093933,0.4534381330013275,-0.5738874077796936,-0.03089684247970581,-0.38614681363105774,0.45555567741394043,0.8262370197930547,-0.09812353041053566,0.45102999282387973,-0.3229181424191674
1681249188758665700,5.401665771484375,-0.1814282089471817,0.5064125061035156,-0.228725865483284,0.6821569800376892,0.4588231146335602,-0.5693356990814209,-0.04328674077987671,-0.3710240125656128,0.3990172743797302,0.8239996132048756,-0.0995952197390266,0.4532250383316134,-0.32510370008749034
1681249188773699800,5.416699951171875,-0.22495241463184357,0.7531927824020386,0.04442950338125229,0.6869598031044006,0.4614548683166504,-0.5613784193992615,-0.0021452903747558594,-0.3812393248081207,0.3744736313819885,0.821463413425534,-0.09961031452856131,0.4575899551720527,-0.32540313013524436
1681249188788733700,5.431733642578125,-0.24272757768630981,0.9723871946334839,0.35373353958129883,0.6954569816589355,0.4614657461643219,-0.5508075952529907,0.03466081619262695,-0.38323384523391724,0.332378089427948,0.8187642703375827,-0.09830155130887769,0.4636086944469931,-0.32408165043408416
1681249188803766800,5.446766845703125,-0.2804986536502838,1.2516493797302246,0.7867244482040405,0.7084110975265503,0.4576493501663208,-0.5373182892799377,0.03287619352340698,-0.37676241993904114,0.31177818775177,0.816053157584464,-0.09524671995364765,0.47145405655230055,-0.32049420048384525
1681249188818800600,5.461800537109375,-0.34818214178085327,1.6429998874664307,1.180083990097046,0.7266194224357605,0.44939544796943665,-0.5196806788444519,0.10104787349700928,-0.36481592059135437,0.29508668184280396,0.8130465003052589,-0.09014378252508813,0.4816988162026861,-0.3143180576882155
1681249188833834800,5.476834716796875,-0.4708012044429779,1.887986421585083,1.5292627811431885,0.7492967844009399,0.43748581409454346,-0.4971523880958557,0.15164315700531006,-0.3689737915992737,0.27748700976371765,0.8093724302419151,-0.08347840685830894,0.4944240688811513,-0.3057654151558532
1681249188848868600,5.49186865234375,-0.6644160747528076,1.8772368431091309,1.8858366012573242,0.7742137312889099,0.42200902104377747,-0.47170066833496094,0.32379353046417236,-0.3590054214000702,0.297887921333313,0.8057150345382266,-0.07616186057741173,0.5082804689554546,-0.29440390757866214
1681249188863901700,5.506901611328125,-0.8663933873176575,1.6107726097106934,2.1919753551483154,0.7990201115608215,0.40323296189308167,-0.4460606873035431,0.42700833082199097,-0.3204234540462494,0.30860960483551025,0.802862510244476,-0.06912204860665079,0.5217200334912752,-0.2800754582628777
1681249188878935800,5.521935791015625,-1.0696214437484741,1.3355467319488525,2.46177077293396,0.8223147392272949,0.3810022473335266,-0.4226534068584442,0.5343137383460999,-0.27245113253593445,0.3226626515388489,0.8013898307173213,-0.06267765171096301,0.5336148559115966,-0.26287104249127335
1681249188893969700,5.5369697265625,-1.363539457321167,1.4351449012756348,2.6160097122192383,0.8447943925857544,0.35670238733291626,-0.398855596780777,0.5003594160079956,-0.22382882237434387,0.29109814763069153,0.8001451871625616,-0.05709967246620161,0.5452630757355312,-0.24330121032233176
1681249188909003800,5.552003662109375,-1.6921852827072144,1.686845064163208,2.7828876972198486,0.8678566217422485,0.3306673467159271,-0.3707883656024933,0.28022992610931396,-0.21241170167922974,0.23751822113990784,0.7977440427129756,-0.052292779463809336,0.5584543730317989,-0.221356334758274
1681249188924037600,5.56703759765625,-2.033785820007324,1.7157789468765259,2.691619396209717,0.8901790380477905,0.30415183305740356,-0.3392240107059479,0.23834574222564697,-0.20420673489570618,0.20009449124336243,0.7940985797125707,-0.04904806765404318,0.572697372951439,-0.19753351026781588
1681249188939071700,5.58207177734375,-2.1749072074890137,1.739216923713684,2.4868555068969727,0.9098533391952515,0.2795577049255371,-0.3066179156303406,0.2642037868499756,-0.19587844610214233,0.16454344987869263,0.7894243949264143,-0.048054049171290705,0.5868405671590415,-0.17354596276836584
1681249188954104600,5.5971044921875,-2.136173963546753,1.7506905794143677,2.425589084625244,0.9273633360862732,0.25512054562568665,-0.273698627948761,0.2594958543777466,-0.17331811785697937,0.10875123739242554,0.7838010169451308,-0.047768388009251046,0.600723619483237,-0.15001800728935713
1681249188969138700,5.612138671875,-1.9868309497833252,1.6572381258010864,2.307448148727417,0.9426384568214417,0.2297784984111786,-0.2421458512544632,0.28435128927230835,-0.0957910567522049,0.04753538966178894,0.7777377075323787,-0.047289399350622485,0.6137514060187858,-0.12726732854338063
1681249188984172800,5.6271728515625,-1.7752203941345215,1.5059032440185547,2.143991708755493,0.955355167388916,0.20446674525737762,-0.21328392624855042,0.29916149377822876,-0.05242814123630524,0.012859880924224854,0.771615303417625,-0.04651035396356787,0.6254556939143376,-0.10607509690499502
1681249188999206700,5.64220654296875,-1.5170176029205322,1.2497305870056152,1.9767310619354248,0.9655066132545471,0.17966508865356445,-0.1884613186120987,0.32430368661880493,0.02823592722415924,-0.01661670207977295,0.7659598243737133,-0.04526743688157072,0.6353898025183712,-0.08681207773583875
1681249189014240800,5.65724072265625,-1.2382928133010864,0.9372225403785706,1.7905683517456055,0.9731968641281128,0.15589696168899536,-0.1690690517425537,0.31621670722961426,0.08984589576721191,-0.023908689618110657,0.761359894088672,-0.043459854618274125,0.6430993034792042,-0.0697557729150229
1681249189029273900,5.67227392578125,-1.2949906587600708,0.4969146251678467,1.679489254951477,0.9786367416381836,0.1334010362625122,-0.15644273161888123,0.2308816909790039,0.140036478638649,-0.016927465796470642,0.7584981198700995,-0.04190858949750288,0.6480912762258988,-0.053870388630443904
1681249189044307700,5.6873076171875,-0.9755743145942688,0.6176261305809021,1.146023154258728,0.982589066028595,0.11498153209686279,-0.1459386944770813,0.1531836986541748,0.1433955729007721,-0.01429373025894165,0.7558663694502604,-0.04116615582380813,0.652177890377186,-0.04044088887145717
1681249189059341600,5.702341552734375,-1.1463392972946167,0.5730786323547363,1.0131690502166748,0.9855889081954956,0.1017325296998024,-0.135148823261261,-0.02700120210647583,0.1053139865398407,-0.05700498819351196,0.7527918112899189,-0.04172332795507726,0.6562657614117728,-0.029648484137163297
1681249189074375700,5.717375732421875,-1.6337915658950806,0.34775257110595703,0.9570838809013367,0.9879475831985474,0.08945068717002869,-0.12632687389850616,-0.022111833095550537,0.1523706018924713,-0.005402103066444397,0.7502411646587875,-0.04434355646006535,0.6594468980982187,-0.01737362461539939
1681249189089409500,5.732409423828125,-2.2605955600738525,0.2796265184879303,0.7236820459365845,0.9895684719085693,0.08061614632606506,-0.11939737945795059,-0.01895660161972046,0.06220614165067673,0.058011382818222046,0.7481241636044975,-0.05120106248586126,0.661573699365841,-0.0030281167060647544
1681249189104442600,5.747442626953125,-2.4922587871551514,0.27891677618026733,0.6583978533744812,0.9908634424209595,0.07468507438898087,-0.11230152100324631,-0.04880112409591675,0.03162292391061783,0.06100160628557205,0.74564715197064,-0.06137070575389745,0.663387424731032,0.012689952207551505
1681249189119476700,5.762476806640625,-2.4358396530151367,0.17760615050792694,0.5738731622695923,0.9919134378433228,0.06945785135030746,-0.10622262209653854,-0.06427067518234253,0.14021317660808563,0.048361435532569885,0.7431732885128347,-0.07209901590267029,0.6645979401082381,0.028367732659122274
1681249189134510800,5.7775107421875,-2.5307281017303467,0.11743522435426712,0.5131855607032776,0.9926807880401611,0.0652768686413765,-0.10160558670759201,-0.05820202827453613,0.2150423228740692,0.04636896401643753,0.74087706210554,-0.08322097364657066,0.665034944687667,0.04363391277652365
1681249189149544700,5.792544677734375,-2.7330126762390137,0.12147603929042816,0.4849703907966614,0.9933374524116516,0.06174786016345024,-0.09730469435453415,-0.024984002113342285,0.24033038318157196,0.0383601039648056,0.7383192901735405,-0.09538584299910118,0.6650181918955212,0.05947397760452611
1681249189164578600,5.80757861328125,-2.8598666191101074,0.10834292322397232,0.4728058874607086,0.9939349293708801,0.05863688141107559,-0.09303294122219086,-0.003395378589630127,0.21284747123718262,0.0276033952832222,0.7353432092918715,-0.10862297522021085,0.6645935440132289,0.07607164890693505
1681249189179611600,5.822611572265625,-2.767463207244873,0.07262194156646729,0.5100046992301941,0.9944770932197571,0.05521867796778679,-0.08925396203994751,0.03266829252243042,0.23329448699951172,0.008947081863880157,0.7321294121930603,-0.12184821366867486,0.6637213501270077,0.09280901011107717
1681249189194645800,5.837645751953125,-2.4966325759887695,0.046457983553409576,0.5838242769241333,0.9949900507926941,0.05054324492812157,-0.08625776320695877,0.040242552757263184,0.27047115564346313,-0.014068603515625,0.7288800004318314,-0.13368045243849397,0.6625712465857779,0.1089171719156721
1681249189209679600,5.8526796875,-2.1397721767425537,0.0627613216638565,0.6681889891624451,0.9955042600631714,0.044094476848840714,-0.08382832258939743,0.01711481809616089,0.3206668496131897,-0.07777732610702515,0.7256538130176511,-0.14328708208580707,0.6614791398137435,0.12385814370100846
1681249189224713700,5.867713623046875,-1.7532706260681152,0.15822792053222656,0.7652079463005066,0.9960606098175049,0.03580107539892197,-0.08112670481204987,-0.010922670364379883,0.33604031801223755,-0.11282765120267868,0.7222963022066257,-0.15041581120065997,0.6609173403959108,0.13730044721878806
1681249189239747800,5.882747802734375,-1.367258071899414,0.30977508425712585,0.9009886980056763,0.9967198967933655,0.02522829920053482,-0.07689741998910904,-0.0689396858215332,0.3542425334453583,-0.14015871286392212,0.7184439729293535,-0.15500464563178332,0.6614566117069517,0.1492887097656174
1681249189254780700,5.89778076171875,-0.9686983823776245,0.45796215534210205,1.027365803718567,0.9974220991134644,0.01199338398873806,-0.07075155526399612,-0.08247435092926025,0.375579833984375,-0.14717429876327515,0.7140168258835893,-0.15691188403850595,0.6633271311270627,0.15986234904213972
1681249189269814800,5.912814697265625,-0.6090964078903198,0.48133647441864014,1.0719516277313232,0.9979830980300903,-0.0031104024965316057,-0.06340648233890533,-0.050763070583343506,0.3906988799571991,-0.16533786058425903,0.7093550568828805,-0.1564106296766837,0.6662075306877029,0.16887511358460752
1681249189284848600,5.9278486328125,-0.32093918323516846,0.3958359360694885,1.043196439743042,0.9982060790061951,-0.018557071685791016,-0.056925106793642044,-0.016013026237487793,0.39944693446159363,-0.1741538643836975,0.7052532840335949,-0.15411951101625168,0.6691671110454869,0.17629651084618816
1681249189299882800,5.9428828125,-0.07905497401952744,0.4202355444431305,1.0105708837509155,0.9981270432472229,-0.03384793922305107,-0.05096316337585449,-0.0004767179489135742,0.3974953591823578,-0.18948471546173096,0.7016076317636161,-0.15052625552882384,0.672205523189156,0.1822870166021442
1681249189314916600,5.95791650390625,0.15250779688358307,0.5185195207595825,0.9522111415863037,0.9978485107421875,-0.04863204061985016,-0.04396912828087807,-0.0291748046875,0.3968680799007416,-0.2256230115890503,0.6979298065535409,-0.1459951562258349,0.6757964556294437,0.18675799622576994
1681249189329949700,5.97294970703125,0.357666939496994,0.7033117413520813,0.8970780968666077,0.9974334836006165,-0.06262015551328659,-0.03471914306282997,-0.0809599757194519,0.3961314857006073,-0.2728216052055359,0.6938335526301316,-0.14079432412890616,0.6803068329400161,0.18961724165947494
1681249189344983800,5.98798388671875,0.5149109363555908,0.9066334366798401,0.9025631546974182,0.996843695640564,-0.07624077051877975,-0.022133948281407356,-0.07280200719833374,0.4194261431694031,-0.28540682792663574,0.6888569825407753,-0.13505068965585748,0.6860716705937763,0.19116223629518936
1681249189360017700,6.003017578125,0.6107059121131897,0.9784075021743774,0.9089328646659851,0.9959161281585693,-0.09000813961029053,-0.007060369476675987,0.07612073421478271,0.45660051703453064,-0.26712465286254883,0.6831375852837726,-0.12879105408789243,0.692735649124017,0.19197233384924675
1681249189375051800,6.0180517578125,0.4299013614654541,0.8321986198425293,0.9332382082939148,0.9945384860038757,-0.10412275046110153,0.007193300873041153,0.20759469270706177,0.48472270369529724,-0.25404977798461914,0.6775570278667853,-0.12246027973055432,0.6989993778823198,0.19318357494088265
1681249189390085600,6.033085693359375,0.4401896893978119,0.44128304719924927,0.6326531171798706,0.9931655526161194,-0.11539275199174881,0.017521362751722336,0.49673330783843994,0.5203609466552734,-0.20489919185638428,0.6734304410818481,-0.1172625440178436,0.7035695965132529,0.19424452747499787
1681249189405118700,6.04811865234375,0.6667383909225464,-0.06276091188192368,0.7101835608482361,0.9918887615203857,-0.12521201372146606,0.021878786385059357,0.6057064533233643,0.5554030537605286,-0.21220147609710693,0.6717281758298922,-0.11127828495013327,0.70608536045072,0.19452997759848795
1681249189420152600,6.063152587890625,0.8301100134849548,-0.6409720778465271,0.5824402570724487,0.9907035827636719,-0.13488292694091797,0.017694666981697083,0.6676674485206604,0.6907453536987305,-0.23046302795410156,0.6733928072211651,-0.10334615753643589,0.7058093969034172,0.19415160070208792
1681249189435187000,6.07818701171875,0.7749947309494019,-0.7638103365898132,0.28177759051322937,0.9899266362190247,-0.14133143424987793,0.008416515775024891,0.4837214946746826,0.6868789196014404,-0.22077298164367676,0.6772534706280924,-0.09581272013803521,0.7035823906913113,0.19266431301533804
1681249189450221000,6.093220947265625,0.8016299605369568,-0.557904064655304,-0.2622135281562805,0.9899291396141052,-0.14156490564346313,0.000009992643754230812,-0.00010657310485839844,0.5464873313903809,-0.19423902034759521,0.681340083668387,-0.0907741293526254,0.7012596193723649,0.18913182067006215
1681249189465255000,6.1082548828125,0.8657516837120056,-0.34773221611976624,-0.798500120639801,0.9910145998001099,-0.1336641013622284,-0.004899566061794758,-0.16583454608917236,0.4795503318309784,-0.18020468950271606,0.6849855537148452,-0.08870011396868355,0.6997731823641674,0.18233100858160525
1681249189480288000,6.1232880859375,1.0355125665664673,-0.34922730922698975,-1.2420852184295654,0.9929630160331726,-0.11814107745885849,-0.008202595636248589,-0.21569550037384033,0.4451826810836792,-0.14444619417190552,0.6887980089376768,-0.08890049090101358,0.6985666788609562,0.172216944700604
1681249189495322000,6.138322021484375,1.2981464862823486,-0.5317806005477905,-1.4110662937164307,0.9950865507125854,-0.09819874912500381,-0.012647273018956184,-0.14163190126419067,0.44113999605178833,-0.12181305885314941,0.6934847120172289,-0.08936940608037011,0.6969142508084775,0.15938214744980087
1681249189510356000,6.15335595703125,1.65386962890625,-0.8327622413635254,-1.4320799112319946,0.9968000054359436,-0.0771077424287796,-0.021076813340187073,0.08228635787963867,0.5067036747932434,-0.0729781985282898,0.699721330794034,-0.08838700731748536,0.6940096041108577,0.14466679495569174
1681249189525389800,6.168389892578125,2.0123605728149414,-0.9696426391601562,-1.4826797246932983,0.997884213924408,-0.05600844323635101,-0.033017631620168686,0.13274627923965454,0.5144434571266174,-0.049791689962148666,0.7071935110316782,-0.08531200972352224,0.69008191208147,0.1280084578809778
