seconds_elapsed,rotationRateX,rotationRateY,rotationRateZ,gravityX,gravityY,gravityZ,accelerationX,accelerationY,accelerationZ,quaternionW,quaternionX,quaternionY,quaternionZ
1.0,0.05879428519822976,-0.11980759776385065,0.034834471545459364,0.05197743136053276,-0.1367033070945535,-0.989247239688376,0.02840002213784032,-0.05821436281827812,0.06233098673299346,0.9896729046363774,0.07122981396535259,0.017394916024565537,-0.12317106218190772
1.01,0.07649579630809111,-0.10415761297734272,0.028958001587197583,0.05136427474603063,-0.13756551862657385,-0.9891598172196169,0.020467104625415823,-0.06100604374214195,0.05383962846583639,0.9896634455241895,0.07162067575687267,0.01704398751820045,-0.1230696825055773
1.02,0.09074132401507048,-0.09109805036952032,0.018367647659336038,0.05068780017599876,-0.1385386659335145,-0.9890586022976041,0.017799371774948117,-0.06160105927863957,0.054425037818978624,0.9896450714093145,0.07206390957698763,0.016651616593879946,-0.12301188084653741
1.03,0.10130367912347242,-0.07920078834141521,0.007103597640031005,0.050100829680841605,-0.13962992298435786,-0.9889351175859622,0.015909215212023164,-0.0613633012259929,0.058300579465006996,0.9896157108444935,0.07257261715042819,0.016293362394002395,-0.12299720164240464
1.04,0.10552917621624193,-0.06858194883217308,-0.003356515869500124,0.049738691156935445,-0.14092433297922194,-0.9887699015952558,0.013175588382348235,-0.06037340289722539,0.06495620276233467,0.9895667779107148,0.07319833029577319,0.016029132048618035,-0.12305521582540757
1.05,0.10806817349115795,-0.0672623919636885,0.004518725910744626,0.04920023946924755,-0.1421688431206937,-0.9886183716464924,0.011079861721056348,-0.062243630564213885,0.067018499671048,0.989526125376595,0.0737874497643819,0.015683039604556866,-0.12307418895097658
1.06,0.11213023046145931,-0.06771138506920621,0.014044706265648639,0.04863570576951693,-0.14344624217240287,-0.9884618889127857,0.009489849646560248,-0.06349144495125898,0.06646484074634396,0.9894873860020079,0.0743910485094538,0.015323819123833536,-0.1230676603009648
1.07,0.1204797764027146,-0.06729776236328756,0.01775562059746453,0.04810421771456681,-0.1448232202744399,-0.9882872082382567,0.00870191085552496,-0.061860721958810184,0.06243342803878872,0.9894486366719661,0.07504607530748715,0.014977660491902524,-0.12302425176156505
1.08,0.13493553438267208,-0.06933446931382978,0.017880523391482352,0.047456163628972994,-0.14624034846784587,-0.9881094241195705,0.004573546593446487,-0.06082730586849327,0.060956673139540535,0.989411145365387,0.07571380216207903,0.014572272411167285,-0.12296474275598855
1.09,0.1506519137873636,-0.06922892299926965,0.018202493501821893,0.04680402851128055,-0.1477602210118656,-0.9879145085299575,0.00022247455398666423,-0.059551290779713904,0.058819550779420623,0.9893695036582615,0.07643280510622633,0.014158662283380493,-0.12290369837099936
1.1,0.16586665532808273,-0.06279667647701771,0.020987363127738773,0.04620769454726814,-0.14949528104399912,-0.9876817029062871,-0.002774137129055881,-0.0573798094083505,0.05372510401185373,0.9893175575057972,0.07726330725736202,0.01375918387166192,-0.12284811377878267
1.11,0.1698502331483282,-0.06060410741209929,0.022659755712401492,0.04560210742857989,-0.15127327157576975,-0.987438501548922,-0.004951252101629747,-0.054978951822922416,0.051318779206595305,0.9892658860690297,0.07811467510099447,0.013354352880613193,-0.12276920655561571
1.12,0.17189613019890232,-0.061482173983442606,0.022840944099000327,0.04499262000874612,-0.15309495809092583,-0.987185952235748,-0.005332227680284483,-0.055458943537518374,0.04958435364903479,0.9892119705983426,0.078987846638239,0.012944997168427813,-0.12268946410371386
1.1300000000000001,0.17608564025661272,-0.06713747336576549,0.020131537075936595,0.04437939653593203,-0.1549951170362694,-0.9869173456110261,-0.0019177245504444834,-0.06295728083277619,0.04783391068400207,0.9891525302923537,0.07990051006664442,0.012528062531177697,-0.12262178800659912
1.1400000000000001,0.19176909690919303,-0.08241945222395482,0.005450285193320558,0.04363687672869802,-0.15694643419987486,-0.9866412995031146,-0.000157894320889723,-0.0633409060480343,0.04740998721308191,0.9890838160816999,0.08083174083007044,0.012038774250792668,-0.12261343249772484
1.1500000000000001,0.21489481992823622,-0.10020605597878578,-0.015115924717590537,0.04280175376204349,-0.15905794672481655,-0.9863397248556336,0.0009004478912996985,-0.05921879254061299,0.04753674157508276,0.9889998820297047,0.08183845001263311,0.011487561152510378,-0.12267548763161401
1.1600000000000001,0.24892651848410371,-0.11792488495379802,-0.04243452206081488,0.04182202205268799,-0.16153160506939884,-0.9859799762308771,0.0013016663266683566,-0.04859517658563066,0.048161445022326166,0.9888844061876461,0.08301938361228198,0.01083048819663767,-0.1228728055360731
1.1700000000000002,0.2722514950905608,-0.12423717782509722,-0.0726407406130951,0.040742920390759864,-0.1642529692500467,-0.9855738486287003,-0.002316645576077729,-0.04351557811197096,0.051830980131457226,0.9887349764171488,0.08432016809382224,0.01009250766093972,-0.12324759817567627
1.1800000000000002,0.28321483945000914,-0.12109384478242971,-0.10199755712413404,0.03969000313782882,-0.167061314714461,-0.9851456881469683,-0.010624979650612737,-0.04346253047446174,0.05795164268748924,0.9885668196177406,0.08566717724296495,0.00935226969218154,-0.12372669752714911
1.1900000000000002,0.27012189840966877,-0.10179827636456493,-0.12716836397321585,0.03877336563143432,-0.1699184273140077,-0.9846937330046442,-0.02809009802313211,-0.05235917566445056,0.06819784916657605,0.9883746169113232,0.08704834375784393,0.008662833810994175,-0.1243478688397371
1.2000000000000002,0.24364212631293578,-0.08583339188924233,-0.15285818161549974,0.03811579181680518,-0.17246108887430983,-0.9842767279511654,-0.03679299152172808,-0.06292036999913544,0.07260970098413246,0.9881727399831056,0.08828897495826091,0.008107300092860162,-0.12511051830585326
1.2100000000000002,0.21779690997787504,-0.06901797375651801,-0.17848540727637055,0.03763883248749037,-0.1748213123766935,-0.9838796915639089,-0.043379406473857775,-0.0753040667573071,0.07606372668041643,0.9879645506500732,0.0894500350246217,0.007644032696880686,-0.12595874933842707
1.2200000000000002,0.20369089816980723,-0.04745415135786795,-0.20355725942679379,0.03744367074664565,-0.17693656938241697,-0.9835090678732238,-0.05096908176611291,-0.09124517728544332,0.08137695111730955,0.9877469787842684,0.09050679778554331,0.007323547560762087,-0.12692642808196322
1.2300000000000002,0.20163005725657562,-0.04046393850659164,-0.21947344063347782,0.03742414465613873,-0.17892204553648694,-0.9831501064952142,-0.05302623903972297,-0.09049708754980881,0.07925550327764838,0.9875178008198952,0.09151036982324201,0.007086883342811373,-0.12799649875572963
1.2400000000000002,0.2021377133627946,-0.03880569293874107,-0.23157963734075077,0.03746036310472722,-0.1808801726888272,-0.9827907833654017,-0.05124452557713538,-0.08262284934781054,0.07356749313042056,0.9872804797706717,0.09250413422224842,0.006872931348689233,-0.129121300718614
1.2500000000000002,0.19991513726263263,-0.039918155523325,-0.2406883456888432,0.037506722526700655,-0.1828686050880369,-0.982421037921541,-0.04345542161061606,-0.06878987579008912,0.06415448618507402,0.9870303109031271,0.09351414600781524,0.006653192377920953,-0.1303127286612614
1.2600000000000002,0.18776859156106737,-0.03460940581981198,-0.241725374088508,0.03759822174543727,-0.1846739410555464,-0.9820794999672057,-0.044427066966982065,-0.06620710640238202,0.05909231080788193,0.9867819870409894,0.09443526681158339,0.0064627557099864435,-0.13153069115394114
1.2700000000000002,0.17432980151938116,-0.02955043632273057,-0.2411896277437872,0.03771720418809407,-0.1863708240621074,-0.9817548354643565,-0.05008226170905797,-0.06991903113510445,0.05547567600493748,0.9865362322447253,0.09530373119862423,0.006291151305805038,-0.1327527155098878
1.2800000000000002,0.16587159696392698,-0.03078317470950438,-0.2432303244504567,0.037874594289408293,-0.18792046622971426,-0.9814533220501853,-0.0613534218847825,-0.08163485917078836,0.05215974209027097,0.9862961333123569,0.09610070104900778,0.00614728171204736,-0.13396313748890748
1.2900000000000003,0.158618235494669,-0.04094856276717432,-0.24798718044784188,0.03797813077741876,-0.18939048658092134,-0.9811664768011007,-0.06403155414488607,-0.08555269710242883,0.0501739870789531,0.9860541295921108,0.09685404182238634,0.00597703705445432,-0.13520176573344608
1.3000000000000003,0.15599187540509338,-0.05326952991835688,-0.2530510347900295,0.03801603645907096,-0.19083206963727098,-0.9808859391759465,-0.06318351105984381,-0.08471252919951791,0.04781374097418255,0.9858099159898487,0.09758851479424888,0.005772742467098711,-0.13645945175377985
1.3100000000000003,0.16578955478975563,-0.06354950686964848,-0.25647379683020344,0.03791209758932385,-0.19226483323223134,-0.9806101564923205,-0.06004485751749376,-0.07723063538730113,0.0431127483975737,0.9855610118159368,0.0983085331275471,0.005493394124667582,-0.13774657234979326
1.3200000000000003,0.18263920542383633,-0.058871925539279016,-0.25778252731142026,0.037815930597481034,-0.19390318073178034,-0.9802906992384152,-0.06096995934402366,-0.07382771978231148,0.04154720445110984,0.9852959813876883,0.09913207442156184,0.005198928151729474,-0.13905488593896698
1.3300000000000003,0.19229653705323999,-0.048478944455891695,-0.25735595372250486,0.037769008670564784,-0.19562245843839474,-0.9799512275862748,-0.064196102781395,-0.07162247093980585,0.038257845731941215,0.985024429909554,0.0999995722269464,0.004921502579053617,-0.14036385943124766
1.3400000000000003,0.17303764578311875,-0.035779573187381675,-0.25378869761890993,0.03786371574701132,-0.19738064361164503,-0.9795949281713876,-0.07031955047836946,-0.06895083984255435,0.02658496625859347,0.9847493021362093,0.10089638410788654,0.004710987960297169,-0.14165352857442245
1.3500000000000003,0.11758034602713618,-0.021460795558025554,-0.2467236293470693,0.03808225884803235,-0.19864279479787772,-0.9793314175997673,-0.06971390860093174,-0.06927615319434469,0.016478095716463286,0.9845018247022462,0.1015526441175708,0.004599943050013152,-0.14290191435247565
1.3600000000000003,0.04717223072832992,-0.0023992140945954315,-0.2361592025960503,0.03842182925227215,-0.19945893085272562,-0.9791525611197329,-0.06456721417340737,-0.07406197909699747,0.0018681383359033478,0.9842804528660568,0.10199351591519985,0.004584641438743237,-0.14411056849709403
1.3700000000000003,-0.031182504751355367,0.02984547365335532,-0.21835736296854935,0.03900861578708663,-0.19940689451398796,-0.9791399534582331,-0.052396001269905,-0.08965300779273291,-0.028613420731006735,0.9841113906579669,0.10201622302730264,0.004763283391765263,-0.14523874555671437
1.3800000000000003,-0.09215816660639353,0.08117752368866643,-0.19410661138034707,0.040062685140193136,-0.19863065745132877,-0.9792545042487629,-0.04927941586996917,-0.09505996929180992,-0.05232709694331557,0.983997739975189,0.10171006691286937,0.005245222672894799,-0.1462028612200712
1.3900000000000003,-0.13802475294493824,0.13875055206267428,-0.16767764015261563,0.04144892273391355,-0.19746767483104102,-0.9794318187009305,-0.048797823743417394,-0.09418258306048885,-0.07858590117035306,0.9839161945084506,0.10123475413869701,0.0059330700319629864,-0.14705382940900252
1.4000000000000004,-0.1547067440698368,0.19453324529755073,-0.14162596203522823,0.043377708013869434,-0.1958824359518794,-0.9796664633162371,-0.04640261637356231,-0.08460258621657389,-0.12103294555220467,0.9838751747470268,0.10058883080637404,0.006941387796821922,-0.14772567250375304
1.4100000000000004,-0.14616682366644895,0.25668869516260473,-0.112333343771127,0.04593872068768671,-0.19437307278108723,-0.979848496052072,-0.044832779357730584,-0.07303331796710186,-0.14539113558511896,0.9838486173322646,0.10002934062782516,0.008277840959682814,-0.1482101035446592
1.4200000000000004,-0.1318853605744837,0.3075090754639808,-0.08193683915677247,0.04883490309277005,-0.192937693817118,-0.979993185349033,-0.04077548099315887,-0.05551726950421039,-0.17240023900163456,0.9838322359330658,0.09953239807226998,0.009788913221699393,-0.14856286859031143
1.4300000000000004,-0.12962802420004496,0.3118855793439054,-0.05184249239809269,0.05207894261066834,-0.19165867034599757,-0.980076839958356,-0.027242291260825655,-0.020298470833879208,-0.23101155250491928,0.9838323292892431,0.09913979356906728,0.011482772603091676,-0.14870282632462453
1.4400000000000004,-0.14820306187195598,0.24700197499871734,-0.054165419218164375,0.05481919691290388,-0.1902174855918153,-0.9802077512351282,-0.007200561446288126,-0.0017567324148875952,-0.2614186456323144,0.9838482460836508,0.09862770361326315,0.012941112595606184,-0.14881745620660727
1.4500000000000004,-0.1724959701038333,0.15185854120443426,-0.07835758281856733,0.0570420832862305,-0.18862779662230825,-0.9803899387563735,0.019266532822723528,0.007493140769879721,-0.2652214461814725,0.9838668008431597,0.09800297778724251,0.014146897140116355,-0.14900046974233094
1.4600000000000004,-0.18895950473992668,0.04303284336287025,-0.13615601737682756,0.05811611569960536,-0.18673195031148798,-0.9806895839080055,0.05966294535900773,0.0063686388833601466,-0.21303807254656654,0.9838733897670864,0.09714132265983867,0.014777871124851896,-0.14945893397107154
1.4700000000000004,-0.1732506585084844,-0.03346923261758596,-0.1888159505117263,0.058368185846618216,-0.18481672425217796,-0.9810370856167774,0.06763095149169138,0.002436162161478414,-0.16315558708831934,0.9838364627673147,0.09621282471977163,0.014967733371966316,-0.15027944686283873
1.4800000000000004,-0.13245557609194236,-0.09000947728055567,-0.23596235753387404,0.05818424626285163,-0.18307810684502657,-0.9813748171673735,0.05526632577934232,-0.00200793257093237,-0.11106562777247797,0.9837635484811149,0.09534267756564296,0.01490756840058475,-0.15131511582760696
1.4900000000000004,-0.046094989188409596,-0.12002021155456771,-0.2702980450215679,0.057588613550451695,-0.18201605012723315,-0.9816074245573725,0.015162206953068143,-0.0042676378377441435,-0.04754033943605207,0.9836214532013191,0.0947835185677375,0.014567567072983241,-0.1526169747267319
1.5000000000000004,0.028215522455748796,-0.14932850038185197,-0.29236791097834697,0.05674935742725332,-0.18181288611535779,-0.9816939741216739,-0.005945184916047045,-0.0008792103495502118,-0.020794603604660636,0.9834159911780946,0.09463643318228589,0.01402622685145236,-0.1540734769932697
1.5100000000000005,0.09575971564572934,-0.17746270904514236,-0.3066159549763004,0.05572435803065313,-0.18215174526484346,-0.9816897307240989,-0.01526176870932697,0.0032911549618429674,-0.007751719245626263,0.9831727019081172,0.09474612567288165,0.013342648857451298,-0.15561359059823132
1.5200000000000005,0.15618985768815563,-0.2022000160321153,-0.3100485927797674,0.05436831306437457,-0.1832261840506454,-0.9815656781070765,-0.009064457867960934,0.0016557140846303782,0.01015971043679874,0.9828834123673372,0.09519622053949524,0.012428580109792475,-0.15723267154234857
1.5300000000000005,0.2244231297446941,-0.21021725117730478,-0.3118695504057152,0.05289011551497057,-0.18498021413529273,-0.9813160774590789,-0.006523913789855415,-0.0006146478210213352,0.022659683811989795,0.9825562443150393,0.09597381252720566,0.011395404956456393,-0.1588701601187602
1.5400000000000005,0.29562790006471135,-0.20478390785541653,-0.3114738552553419,0.05140951834830782,-0.18723818124293118,-0.9809667990415053,-0.008901946016970315,0.0005268184786383612,0.03546462464548744,0.982200867476619,0.09700146252070474,0.010317751683365413,-0.16051217809929824
1.5500000000000005,0.36558830801712994,-0.173765130945074,-0.30494207456587885,0.050124358882801034,-0.1903655094125914,-0.9804306697815257,-0.02476023281968669,0.016341709816553023,0.05856794190028235,0.9817965532861443,0.09847681371921893,0.009262596550414729,-0.16214136780373695
1.5600000000000005,0.4205293808303031,-0.13306658166500074,-0.29116011557833704,0.04922232919951249,-0.1941094951653935,-0.9797392611661953,-0.034639919288311616,0.02515228260967925,0.07535209962883481,0.9813636302599755,0.10029012093370133,0.008348592433846043,-0.1636879222342626
1.5700000000000005,0.4658926043110999,-0.08827452733667845,-0.2750897001542966,0.048613748051357514,-0.19823092253139876,-0.9789462037269081,-0.042544910468979805,0.03184556779350535,0.0875145716241123,0.9809135820004539,0.10231551245077392,0.00755062068577381,-0.1651704900007759
1.5800000000000005,0.4985490990147175,-0.04394706243182419,-0.2626035513623175,0.0485337644219185,-0.20280829163034642,-0.9780108427822526,-0.05304094672631669,0.04239098733825443,0.09186721938386415,0.9804439857469436,0.10461254480993397,0.006980360650465927,-0.1665361577903434
1.5900000000000005,0.5156449581961933,-0.011985458204849392,-0.2483408058803254,0.04880836863486928,-0.20765333184806062,-0.9769765878680001,-0.05435520903518589,0.050085954457163566,0.08519039773716428,0.9799627864648516,0.10707438585174896,0.006565699876593064,-0.16781038192147207
1.6000000000000005,0.5215386832727757,0.01544765574442224,-0.23352770466875789,0.04930779162135727,-0.21260887663495376,-0.9758892423096575,-0.04841804229566625,0.05661619694392608,0.07139293231996365,0.9794777417081827,0.10961139312554546,0.006255025911546298,-0.16902006870324798
1.6100000000000005,0.5090660981965931,0.04730812017621904,-0.21978670162287367,0.0500932999779691,-0.2175228712914621,-0.974763909403959,-0.028853677360861918,0.06364131081886217,0.04814158959608444,0.9789986068437562,0.11215381567589897,0.006093083865498477,-0.17012744828180704
1.6200000000000006,0.4880474823739908,0.08802676274991612,-0.2020039576016146,0.05124084914288438,-0.22220747529056784,-0.9736451123354156,-0.020647387979321308,0.06861238509186704,0.03679464513772454,0.9785383686780615,0.11461447601691685,0.006137136581288191,-0.17112798769680673
1.6300000000000006,0.4641676355156275,0.1326873440456222,-0.18295617581176452,0.05266350262926585,-0.22673081450558658,-0.9725297900961324,-0.018712572812957733,0.0716846875398593,0.029311158277099326,0.9780926666097408,0.11701965723115554,0.006337526976564694,-0.17204533712328285
1.6400000000000006,0.4452688698675374,0.1766245487884623,-0.16666501552376065,0.054575022841900474,-0.23100372146884712,-0.971416509797654,-0.021385310323697223,0.07044637135315703,0.014333573589137644,0.9776732860839863,0.11934467586948132,0.006815201662056789,-0.17280929977740705
1.6500000000000006,0.42886722461090804,0.1980420623808262,-0.15876728944206958,0.05678922386574419,-0.2351106291391821,-0.9703015511513685,-0.019675599349303692,0.07485386932794472,0.003544965499637105,0.9772647867543882,0.12161585422089036,0.00746258773822668,-0.1735054887572091
1.6600000000000006,0.4199217039905496,0.20303989336339479,-0.1577933700779594,0.05912448309986136,-0.23913000227056522,-0.9691831888701312,-0.012644620277870163,0.08262448002568736,-0.0057533348746314755,0.9768596652899603,0.12385589734790796,0.008178634061252757,-0.17417476088655223
1.6700000000000006,0.4408286956699372,0.18102381402767853,-0.17071933538395873,0.06134799585412069,-0.24310990004415686,-0.9680524243618369,0.009775008298519017,0.09357712824991969,-0.017480244172545588,0.9764458842451428,0.12607005865318535,0.008835759250218369,-0.17486995723992216
1.6800000000000006,0.45471992293367763,0.1437439526128133,-0.18882795017812332,0.06332110308635708,-0.24729762951969883,-0.9668615962658761,0.024821509387551115,0.10090884667795379,-0.020242749347646985,0.975996262422076,0.12837041088508774,0.009332085450535413,-0.175674877137481
1.6900000000000006,0.4604366997437634,0.09830267495602787,-0.20925112877888696,0.06506401690334664,-0.25157662459386726,-0.9656455349024664,0.03548658638297235,0.10554990522312745,-0.01703365349616188,0.9755239969217613,0.13069880239009984,0.009691750095810848,-0.1765659194520856
1.7000000000000006,0.44255265356759493,0.049636378463843646,-0.22848628254212264,0.06627244876625789,-0.2558002185506747,-0.964451198140274,0.042398196335447266,0.10565257544341418,-0.00603777004268569,0.9750267571696332,0.13295516276824093,0.009763992091187465,-0.17761743166195293
1.7100000000000006,0.41830761984923837,0.013832638572942205,-0.23855417872589732,0.06716043914046708,-0.2597894977177048,-0.9633221737730101,0.04623007385617097,0.09582623496389485,0.0021347846193326527,0.9745277893250254,0.13506618649559207,0.0096807111944897,-0.1787619842761516
1.7200000000000006,0.3897503296651645,-0.01025303234495386,-0.24324837770052835,0.0678539926781758,-0.2635808146580285,-0.9622464753282906,0.04570612746245506,0.07723879276361467,0.010290581843878568,0.9740322439288394,0.13706079594630483,0.009508489256434514,-0.17995618196523067
1.7300000000000006,0.3555005665623309,-0.00707968667115157,-0.24415605994673342,0.06838052608857395,-0.2669569917854279,-0.9612767558546266,0.030513469152727825,0.039103292881095646,0.025884990423711063,0.9735592817474663,0.13883139039203052,0.009283710149069946,-0.18116310575712943
1.7400000000000007,0.3144191303064822,-0.001931529972902019,-0.24298123578162123,0.0689795101507471,-0.26997545459764566,-0.9603905399300332,0.015421620945122446,0.020174442237921877,0.03783122056949106,0.9731081897191148,0.14042855102077162,0.00912569567217736,-0.182359202319319
1.7500000000000007,0.26986314121102567,0.003402057253958703,-0.240996039273823,0.06962485498327863,-0.2727023989535715,-0.9595752511390379,0.0002852984424329035,0.011243067015683221,0.04963894044583526,0.972675697061914,0.14188306558310898,0.009016334096594228,-0.18354673848196415
1.7600000000000007,0.22585622359594731,0.004048495264047045,-0.24055386025877531,0.07031697829104608,-0.2748521250561395,-0.9589106097591149,-0.015388559419549419,0.002034713064708829,0.07123377842289583,0.9722827875509448,0.1430504974678555,0.008982873349597324,-0.1847182590397088
1.7700000000000007,0.19410669953528578,0.015891319610726908,-0.2418444445121247,0.07111563142195168,-0.27667473073042775,-0.9583274897692908,-0.022099179726815608,-0.00128054727583262,0.08757979692535767,0.9719074422820493,0.14406330900667186,0.009029542765910696,-0.18589980825356583
1.7800000000000007,0.17226447635495087,0.030878723867130947,-0.24371734341463122,0.07197814583076641,-0.2782955138771981,-0.9577944213914654,-0.026273000597732223,-0.0028865166852990298,0.10220083587159708,0.9715436737427983,0.1449806293290761,0.00912525803296177,-0.18708222907686997
1.7900000000000007,0.16967099761350177,0.029034692518650027,-0.2435428609705544,0.07287832022598906,-0.2797672956930271,-0.9572970611867521,-0.043808040208934126,-0.013035796902597705,0.12325068972024929,0.971192219178677,0.14582696415417434,0.009255188642008444,-0.18823823879101548
1.8000000000000007,0.15604028525990057,0.03501937568210041,-0.23219249276052029,0.07384229129784277,-0.2811551776819176,-0.9568162672230736,-0.04841913086295146,-0.016350893964702205,0.1289602293161945,0.9708494341790038,0.14663767809788084,0.009427593345362766,-0.18936418243997294
1.8100000000000007,0.13671142616880474,0.046601012474959964,-0.2127970341700686,0.0748556850162874,-0.28245011205292253,-0.9563566735519454,-0.04623146652062242,-0.016409055835901278,0.1263292306775819,0.970519317319469,0.14740644586666765,0.009638653006236187,-0.19044791281153967
1.8200000000000007,0.12002380687371858,0.06589089707629156,-0.18205785422249016,0.07595538331746829,-0.28345934293145447,-0.9559710360301241,-0.046356812591345976,-0.01977421599341992,0.12477637260677968,0.9702375974996071,0.14803861104516963,0.009942601063674823,-0.19137439791524374
1.8300000000000007,0.1254449138839484,0.09689343467417473,-0.15004063515574317,0.07720992073339761,-0.28451053760978473,-0.9555577767996122,-0.04970448712717655,-0.024757386005087353,0.1305062860810961,0.9699840526513934,0.14870675456545387,0.010345986950477063,-0.1921186146112482
1.8400000000000007,0.1425124743830548,0.1360981276817228,-0.11536725386238844,0.07861409128273653,-0.2856281006663371,-0.9551101435911117,-0.05556285981937081,-0.028030896134559828,0.14233277936228142,0.9697506614803897,0.1494228947839391,0.010839030856613937,-0.19271387724768546
1.8500000000000008,0.15309559185664104,0.1851194381689701,-0.06813789462805267,0.08041671972338281,-0.2870219977374742,-0.9545413411314048,-0.06577934511574594,-0.014122770081559675,0.16676198666883396,0.9695436444844129,0.15031788191573256,0.011545991485380337,-0.19301738035179714
1.8600000000000008,0.15111492619127181,0.2569022658016342,-0.020635610690704558,0.0826957980280496,-0.28846177167220255,-0.9539109833575918,-0.07388458549458546,-0.008321763920170977,0.18340485802843517,0.9693737094824482,0.15128229935638002,0.012525940085070464,-0.19305457590162298
1.8700000000000008,0.14353581895351872,0.34305835319160377,0.028943110200738174,0.08538929895897447,-0.2899066737678463,-0.9532366672403125,-0.08185069135119019,-0.009286298884727824,0.1946501519084561,0.9692360918401586,0.15228924811750993,0.013745285155852726,-0.19287213029368602
1.8800000000000008,0.148389897949464,0.4359965003743845,0.09179324093173925,0.089011405428709,-0.2912000878227342,-0.952508765019624,-0.09745923822365284,-0.024069513269217566,0.20024532536168774,0.9691711833235208,0.1533077961141258,0.015510179295612691,-0.19225375324145044
1.8900000000000008,0.14827305422371945,0.519232641300702,0.14415035275481705,0.09327145618926201,-0.2926649725622238,-0.9516480180735462,-0.10965450859074445,-0.031697415135576716,0.19984232507044228,0.9691359343096488,0.15447121704963562,0.01762898200479681,-0.1913084785959565
1.9000000000000008,0.14458584783065603,0.5871197916397927,0.1872314564734654,0.09796464932051349,-0.2942347138935218,-0.9506966297686432,-0.11287569453859843,-0.030395367043761883,0.18170292027331533,0.969122283924735,0.15572621453266927,0.019991416988123584,-0.1901317124515316
1.9100000000000008,0.1367757445925083,0.5851285959908182,0.2087763234429929,0.10300205692484844,-0.2958116404570875,-0.949670284403769,-0.06514294818684659,0.0048087032121514744,0.05951532701965309,0.96913541493204,0.15700930475076302,0.022569455610538997,-0.1887081825755061
1.9200000000000008,0.09045837057116271,0.5781035361302748,0.24881186575670625,0.10779945393694582,-0.29707637057797254,-0.9487423827089478,-0.023499768359094456,0.027144339420785552,0.00059313679542752,0.9691999443239843,0.15810002880449195,0.025086397006356426,-0.18713939129820736
1.9300000000000008,0.01860465465539454,0.5732940502333883,0.3009675690082933,0.11244381744892645,-0.29803173100355174,-0.9479082967247393,0.011825343366547551,0.03635401399316784,-0.014830080113105668,0.9693141603616656,0.1590090735185008,0.027583599520518583,-0.18542823200544306
1.9400000000000008,-0.06535059017691927,0.6106624970609894,0.35781503041521867,0.11706106189842047,-0.29808265806074946,-0.9473299604200729,0.027274112753164013,0.005336641019561002,0.001795373896950777,0.9695674571928036,0.15943131374277328,0.030225317444942765,-0.18330868481599596
1.9500000000000008,-0.16022461573145036,0.6843131571359711,0.41425793855589166,0.12207843084160566,-0.29741363517986,-0.9469034224167859,0.023097703024046515,-0.014100995932299288,0.02552259730592192,0.9699104871205868,0.1595044397149591,0.03318383346336758,-0.18089127545215028
1.9600000000000009,-0.26353995433829086,0.7893595894890956,0.4730626535025836,0.12752712507510994,-0.2961272854895705,-0.9465925014000235,0.005778540190603133,-0.026649927836551287,0.05706904973425046,0.9703279753073742,0.1592851969193407,0.036458660801089345,-0.1782084025220903
1.9700000000000009,-0.3790087485840452,0.9630600599340712,0.5540136132516957,0.1344518335954912,-0.2935264597210455,-0.9464358571528979,-0.016238569960203876,-0.04374433096099288,0.11619600866353186,0.97088830977433,0.1584875343339594,0.040689298880987004,-0.1748967088522614
1.9800000000000009,-0.46999296257663925,1.145193991345518,0.6445623648432932,0.1427450909919006,-0.29040700650195755,-0.9461686605812814,-0.03659794277986231,-0.06347980418488078,0.15480314975147078,0.971508697343724,0.15749987636380533,0.04573671591582547,-0.17101189809435113
1.9900000000000009,-0.5458238481580975,1.3247709261747602,0.7334346525480827,0.15213845258123782,-0.2868364634731482,-0.9458109839256924,-0.050773254562829793,-0.08213456692176585,0.16429517908611277,0.9721720650191366,0.15633852270278942,0.05143982334772943,-0.16668392975866472
2.000000000000001,-0.6307804562347137,1.430546748061076,0.7495250814204457,0.16332162674191952,-0.2822769700911715,-0.9452940698041982,-0.018698977151522037,-0.07513370693652342,0.03228051410799651,0.972865874279818,0.1547381666370025,0.05820317764211667,-0.16176580941937996
2.0100000000000007,-0.7101018500796573,1.4673418518435297,0.7689275981621847,0.17485922334613538,-0.2772060108391947,-0.9447169080129806,0.03149863189451397,-0.04370855815943135,-0.061028858636953294,0.9735350907028101,0.15284791357116687,0.06518599058052837,-0.1567605944506712
2.020000000000001,-0.787944699122036,1.4561841391226231,0.791402383883555,0.18660311251658612,-0.2716985943536976,-0.9441063979870761,0.0962595095892129,0.0004761603712202121,-0.12085217034302292,0.9741919058018551,0.15070006882291392,0.07231067611003694,-0.1516553280577129
2.030000000000001,-0.888841792121986,1.4337620871396008,0.8219856368238845,0.1980107962217913,-0.265312338043206,-0.9435699380255834,0.18329243696324904,0.007172692024158051,-0.10967603347767484,0.9748908550089161,0.14795374083910565,0.07936614412911704,-0.1461474807266849
2.040000000000001,-1.013125809145875,1.4091951441413642,0.8020964006159217,0.20933313143055177,-0.25788336022099617,-0.9431710536994233,0.22187949482150549,-0.0003957025479680125,-0.09093230268644863,0.9755800879299614,0.1446172635356064,0.08640681612053647,-0.14076128344943287
2.0500000000000007,-1.1514232431985651,1.3825814807081027,0.7523058577112396,0.22057260763993716,-0.24957970061633175,-0.9428845462322815,0.22419824292395335,-0.02018268984796066,-0.06282469301653075,0.9762620081147433,0.1407843526364162,0.09342886337647849,-0.1354673756066444
2.060000000000001,-1.2650297761360443,1.3500922018814672,0.7594551040571594,0.23156313859177485,-0.2397057636143267,-0.9427728541266177,0.20027632748165636,-0.06415123684349636,0.00891708530259519,0.9769382509726054,0.13604785568438107,0.100362213114337,-0.13025237767417439
2.070000000000001,-1.3696342360106235,1.3266232294999898,0.7844695546838878,0.24235975818491504,-0.2290579818719066,-0.9426907840410816,0.18556682226254317,-0.09150035960425162,0.0650780825326163,0.9776158497780889,0.13083007198719487,0.10722234837003833,-0.12488562866382452
2.080000000000001,-1.4594497857309843,1.3114528553715854,0.8222661045483124,0.25301363795666737,-0.21782214047387713,-0.9426079514759165,0.1764720475844973,-0.10631666470533274,0.11252181448016649,0.9782881443459206,0.12523912860366979,0.11402675234121586,-0.11938344928563328
2.0900000000000007,-1.451926940067823,1.3176284475890259,0.8596455883625562,0.2636252907038555,-0.20620247596543848,-0.942267867312024,0.15575159327836208,-0.11401866113972152,0.1887284591014886,0.9788870908232642,0.11932276013101895,0.12079374183625644,-0.11357099520294033
2.100000000000001,-1.3157896490087106,1.3209109113638384,0.888656671784123,0.27429162349513464,-0.19557239063743814,-0.941488897182514,0.1364597782528195,-0.10911486061293811,0.23465347380154258,0.9793537831209169,0.11384391628540297,0.12750363300589204,-0.10766390153103628
2.110000000000001,-1.0820734283084557,1.3264612064485544,0.9119729753727389,0.2850254874039715,-0.18598926623347647,-0.9402936340539956,0.11762762156821926,-0.09069843888523989,0.2559336115807661,0.9796952896926685,0.10884372218179358,0.134167088002686,-0.1016875307451218
2.120000000000001,-0.8138594076781278,1.388737901535846,0.9414747580057067,0.29610961055155566,-0.18048769651730212,-0.9379071817473573,0.09113547926843249,-0.01802298870697691,0.24756867774753427,0.9796811961228902,0.10585111075194778,0.1407750781949652,-0.09571831318030048
2.130000000000001,-0.6362925960643921,1.4171185148689778,0.8963214923876233,0.30761222304840935,-0.1764064214239318,-0.9349708465987876,0.08090161728691317,0.04996275692575264,0.1916039283615574,0.9794673895289322,0.10359658759447583,0.1474995827725133,-0.09007576744889254
2.140000000000001,-0.5336467919415628,1.419996968528152,0.8042782120629672,0.31942488404332836,-0.17346869142127036,-0.9315910202798794,0.08619611308362299,0.10900546504728942,0.1040378742322991,0.9790915101388512,0.10193076850352704,0.154305679145834,-0.08469265101354398
2.1500000000000012,-0.5194385521322326,1.4257627930939538,0.8513248110582617,0.3311331197293983,-0.17148249906254723,-0.9278319944629408,0.13726293058126818,0.09098297152017384,0.08077142610266083,0.9785635968051849,0.10067982162239802,0.1610150201376838,-0.07947704016061655
2.160000000000001,-0.5768117437921452,1.4665648826785485,0.8920545562922733,0.34308046572498496,-0.1692987632087468,-0.9238744332191033,0.17030705735498922,0.06457308204133487,0.08615978471293778,0.9779767472213603,0.09924414563225863,0.16788727104677195,-0.07404005881804698
2.170000000000001,-0.6945037806341435,1.534361525709677,0.9273890225191446,0.35525960826386405,-0.1668580013949908,-0.9197455214823778,0.18647583706555024,0.028299483098667543,0.1163909162371865,0.9773387696682015,0.09760084863082918,0.1749168983765931,-0.0683991039403871
2.180000000000001,-0.8848692404246212,1.597040316622571,0.9551468509412739,0.3681691003517718,-0.1627596887377993,-0.9153498484064305,0.15718496854579228,-0.061471299069236054,0.18691928477597602,0.9766173923399047,0.09493411743131426,0.18243526875388555,-0.06225293304840844
2.1900000000000013,-1.0401233327897126,1.6754894427076201,0.9831897686014742,0.3815772854062166,-0.15763173582371798,-0.9107249325656614,0.1364553426708849,-0.12277172346087527,0.23496985210135646,0.975818206908124,0.09162544192732312,0.19026374888540729,-0.055837395023239346
2.200000000000001,-1.1557767735359108,1.766897300291321,1.0116771937771758,0.3954515172584232,-0.15167773703416204,-0.9058640434287817,0.12298050703999201,-0.15890191588242186,0.26431485118417825,0.9749403235037573,0.08779210481374657,0.19837722170104313,-0.04918980508088111
2.210000000000001,-1.0617367227381702,1.8641690625061211,1.0441167350750802,0.41054042282333847,-0.14570722413110412,-0.9000471293916553,0.11671142934126691,-0.15196238314807242,0.2809991550749501,0.9737634636818266,0.0837719178673522,0.20715792821778548,-0.042246156475107655
2.220000000000001,-0.9661845802190154,1.9183484855749229,1.0642708899474256,0.4259915671572725,-0.1409502371974565,-0.8935890339634228,0.1071913467796997,-0.13184755603887605,0.2777056600121409,0.9723810911068846,0.08027394306734756,0.21613182147327217,-0.03524671820878624
2.2300000000000013,-0.8710185500706489,1.932090436712615,1.0723488881413017,0.44171279018246556,-0.13724823193563782,-0.8865854489558994,0.09914538952877659,-0.09681370397502291,0.25278708369420094,0.9708210178228721,0.07722955664675882,0.22524956933315518,-0.028218071979225545
2.240000000000001,-0.8104551976203023,1.8407582607021091,1.038853593682445,0.4568357275038301,-0.13472802652162028,-0.8792103626197689,0.17915588006643712,0.024553680334560374,0.11810394902912355,0.9690812172908242,0.07468528749395634,0.23404438401648403,-0.02154434706535723
2.250000000000001,-0.7973350099365081,1.7466350419175123,1.027469922443922,0.47112375637586057,-0.13246933676740397,-0.8719919108713391,0.22893362959103564,0.07996940731992572,0.05400171580543803,0.9673413355968221,0.07218024991978339,0.24239980832875213,-0.014925142964627046
2.260000000000001,-0.8263088094128264,1.6533621530614135,1.0336731643711585,0.48467454376087254,-0.13041445947521033,-0.8649106683858848,0.2510017361783193,0.07640220531083468,0.05114732763218763,0.9655998362293097,0.06969227353403147,0.2503676797869026,-0.008350571365842665
2.2700000000000014,-0.9042644672107386,1.6408931588216649,1.0115975388636462,0.49745218805264124,-0.12791974472820453,-0.8579467429138992,0.21957813167542514,-0.007010089622938462,0.08657073468151913,0.9638193706738887,0.06679835935842265,0.2579396836437101,-0.0017381775441280105
2.280000000000001,-0.9916109940802129,1.6619938139804873,0.973730290194886,0.5103452821198691,-0.12481214104618864,-0.8507922890909195,0.17645344446191016,-0.05702287263534633,0.11332691129293071,0.9619507427690258,0.06351530870118596,0.2655789244148997,0.004811816754327324
2.290000000000001,-1.0878703183499134,1.7127310910523859,0.9231125754712255,0.5233597999387233,-0.121127454998451,-0.8434511304947022,0.12260135172945298,-0.07850464994004007,0.13318605879058834,0.9599977020891592,0.05986557174287822,0.2732884259010795,0.011306841149283334
2.300000000000001,-1.207112437341472,1.7773404216487658,0.9025364924034676,0.5370207326177591,-0.11608421459343904,-0.8354632758366353,0.05171810661131225,-0.1155184927293369,0.17263645613956624,0.9578062195170495,0.05534453381257726,0.28136041187914196,0.01777972994783524
2.3100000000000014,-1.3095756491890074,1.8458263561376478,0.8810467757122487,0.5510763483219406,-0.1104580053752906,-0.8270108886801129,0.003976624331017182,-0.1361343524563664,0.199899690752877,0.9554521180302469,0.05039579307961461,0.28966005370446046,0.02431305695261688
2.320000000000001,-1.3953759288715848,1.9181455886229144,0.8593098086880175,0.5655044691692256,-0.10430127950953956,-0.818115110687061,-0.023108766737110875,-0.14167808509328378,0.2165125439451972,0.9529432658291939,0.04505392347862008,0.2981751492179699,0.03090137403272597
2.330000000000001,-1.4152096041606441,2.0050540054279518,0.8600366126207706,0.5807165246436972,-0.09776405339076594,-0.8081008213696802,-0.05101792674397149,-0.13061597223571486,0.2425495058660626,0.9500612962553697,0.03927861768159021,0.30716572103622686,0.03752873414439366
2.340000000000001,-1.4270021073643004,2.0996338726939032,0.8786934513799886,0.5963846972363314,-0.09151256887301869,-0.7973284409978344,-0.07239365145872813,-0.12479178852307508,0.2542887816766,0.9469305264400525,0.033488736394646064,0.3164649171739228,0.044243343687781024
2.3500000000000014,-1.4336290939079102,2.2014798114910112,0.9136309135529169,0.6124876740546843,-0.08552554090368228,-0.7858314487706394,-0.08769526574298968,-0.12362283456401166,0.2530664380254262,0.9435616049297703,0.027678706558498082,0.3260588147939648,0.05104479003883959
2.360000000000001,-1.56114781921909,2.315419768192966,0.9385781849821976,0.6294617493405966,-0.07965185244144041,-0.7727806953685061,-0.09891453825522953,-0.11403873709273789,0.26094408553918863,0.9396642686047029,0.021499981958889153,0.3362692791790141,0.05821257377405344
2.370000000000001,-1.7728313420785862,2.431663894775678,0.9696971272448139,0.6468953038327097,-0.07293969859092578,-0.7588843329210364,-0.10938672859099392,-0.11775045954515703,0.2624395219918726,0.9354540901304802,0.014539252891499163,0.3467808947116528,0.06577023656312682
2.3800000000000012,-2.0647370508518645,2.550082497424926,1.0066294733543668,0.6647716562256535,-0.06540842036584026,-0.7441695686027724,-0.11894020515484004,-0.13420255036074635,0.25814447494095305,0.9309404831678948,0.006815453165156719,0.35758211328423156,0.07370848624000975
2.3900000000000015,-2.4306692718099123,2.66861211867365,1.0429008432613165,0.6834784920331127,-0.05538443989984936,-0.7276189204389295,-0.10964435430927962,-0.16828099992477275,0.27401157375913826,0.9256902734538794,-0.0031543787384731223,0.36887351050188727,0.08277951635808378
2.4000000000000012,-2.814741761986945,2.7834161434240943,1.067486442127012,0.7025457450826502,-0.043896142410893645,-0.7099652469711836,-0.10349173829340809,-0.195953322831015,0.2823435204054949,0.9199791575808656,-0.014475809025940405,0.38034025665558285,0.09245874440015449
2.410000000000001,-3.216336038961801,2.8946386072119648,1.0807669084540887,0.721964705360916,-0.030975838813917165,-0.6912308517750839,-0.10023644035282823,-0.2173747881651946,0.28345873108693104,0.913816357432805,-0.02711991928695637,0.39197771074924453,0.10273255594849372
2.4200000000000013,-3.605013908548023,3.012263648571438,1.0984488761805051,0.7419156953366991,-0.015215915649645032,-0.6699088777280265,-0.06416183718809276,-0.2294402706621446,0.30349619059017074,0.9065507636865175,-0.04258459898277705,0.40378508773214805,0.11414298553199498
2.4300000000000015,-3.970882484138916,3.1282623042689384,1.1306939692117806,0.7620571786636553,0.0012935566570561677,-0.6469999160493843,-0.0422036893739948,-0.24095832318918026,0.3093380609278247,0.8985914757476223,-0.05924444504242103,0.41564274534627976,0.12615825953808446
2.4400000000000013,-4.3140439997327,3.2426418639605523,1.1774369138692524,0.7823883015276792,0.01854921853680485,-0.6225110798085396,-0.034298725260315736,-0.25193139939324827,0.30104796843738574,0.8899416028368997,-0.07709410058654019,0.42755045822780446,0.13877566698133414
2.450000000000001,-4.626820257872363,3.3540534978255265,1.211112859815159,0.802788911453508,0.03631405030922129,-0.5945135419304447,0.004502687484426476,-0.24828497620275827,0.29857524512998057,0.8796913429817926,-0.09701391851060355,0.43938657457917857,0.15248602185669508
2.4600000000000013,-4.90673542438541,3.4467890815266617,1.2644365501719839,0.8230443339470755,0.053771705281462946,-0.5646740054975005,0.02922191273616817,-0.24701086894689714,0.28830673757507996,0.8685447501191015,-0.11777870221773416,0.45109973470989345,0.16669287441890882
2.4700000000000015,-5.153103914856851,3.5204256811442223,1.3378906132606705,0.8431510656405178,0.07091392817388496,-0.5329582439582728,0.03946290979985191,-0.24819771321098094,0.27004947677627544,0.8564849202501725,-0.13940307978987887,0.46268727537002896,0.18140510749980512
2.4800000000000013,-5.283468999924021,3.562150226168102,1.406678971306334,0.8623062624038649,0.08565697116044017,-0.4981760325023244,0.11064298627605111,-0.20109972108807697,0.26381346249556675,0.8426689026729561,-0.16181673020211265,0.473719693185043,0.19692039126863498
2.490000000000001,-5.383985966325452,3.5384553638495873,1.4801075762478548,0.8806724675749524,0.09867841916965608,-0.46237576448544676,0.16272818628122368,-0.15960266256423833,0.2494015107713667,0.8280805671384518,-0.18426603566398225,0.4843108508158851,0.21266596531529494
2.5000000000000013,-5.454253617939638,3.4463263443685137,1.5584568181769214,0.8982187641766753,0.10991391215205727,-0.4255352062378604,0.19416380436175837,-0.12445463827043234,0.22628308372414896,0.8126975714151001,-0.20674522579661675,0.4944436777794019,0.22864580827811326
2.5100000000000016,-5.479075644359655,3.2328362561001343,1.649717164127901,0.9132719025233398,0.11689875019845097,-0.3891710998511362,0.27897881008093617,-0.05151127017399994,0.23106239594543532,0.796351204266823,-0.22856792424708405,0.5028835672009987,0.24522041058061195
2.5200000000000014,-5.4358278715443875,3.022609988157891,1.7097522385053059,0.9270092235172148,0.12174464452657281,-0.3538007573304716,0.34383171401887014,0.007037057185302276,0.22943694458336014,0.7797646398363426,-0.2497706437224009,0.5103782054541969,0.2618966601641817
2.530000000000001,-5.319870351854555,2.818007457658951,1.7358495154215121,0.9393689715076335,0.1243546309089336,-0.3194951538471985,0.38620767567443925,0.049388914017876887,0.2204134943966114,0.7629353984957264,-0.27031532053721896,0.5168815317266497,0.27867236962678205
2.5400000000000014,-5.1262302616970725,2.2188954607976794,1.860788288971974,0.9488118271610195,0.12262953567765518,-0.29023189883765327,0.4090615912818697,0.12635348868396457,0.19367551601773458,0.746642027517257,-0.2886038316004106,0.5209726770687318,0.2955650044350324
2.5500000000000016,-4.8129800619712455,1.8284839226470422,1.8377510104486912,0.9568505786252236,0.11920829683179165,-0.26449418557546556,0.43912436110965236,0.1850172749673608,0.17701496790155197,0.7311444050273201,-0.3053363274584956,0.5238422520769865,0.312156543289596
2.5600000000000014,-4.3690019991413775,1.6797605511234985,1.6479854488875931,0.9634061162064252,0.1140161552853419,-0.24253914353133815,0.47768656611878624,0.22248713157959563,0.171990488417691,0.7165160071737959,-0.3204001098230899,0.5254182135040306,0.32841098835082255
2.570000000000001,-3.7604736203030127,2.0926514718257327,1.6969831208607462,0.9697115582870415,0.10707204591225096,-0.21875889393978348,0.5076872762175293,0.29002190172314823,0.08965114427341815,0.7019519321062588,-0.3333915895417943,0.5285630482244142,0.3412468453434225
2.5800000000000014,-3.1440542672212772,2.317576686892922,1.7826661023994816,0.975946198708422,0.09738351779887845,-0.1939692449858308,0.4768922579877057,0.3518591000924513,-0.0014384013954326022,0.6872965709826591,-0.3446167526516439,0.5330995380873682,0.35277829318613396
2.5900000000000016,-2.5242961998403346,2.3089330644729413,1.9019597162177102,0.9821087284973925,0.08462682422487156,-0.16809171249517277,0.37708993026132703,0.40616812840237787,-0.09984474778457561,0.6725349410116619,-0.35389970905752527,0.5391684596025711,0.36294034427024574
2.6000000000000014,-2.077725486232769,1.9386267668436297,1.6603817568063775,0.9865529389142755,0.07090052506638825,-0.14604312121459348,0.5605241934648405,0.361528630535649,-0.14026183257325664,0.6598000917133529,-0.36026253950630005,0.5451152604428389,0.370904087415483
2.610000000000001,-1.6783660946437031,1.509039232017641,1.4330090586881037,0.9900252924216342,0.05815406475178496,-0.12768905520748705,0.7156411053686162,0.336920105474032,-0.14995867993952133,0.6487470473158492,-0.3654188584933603,0.5501001403381598,0.3780379119034252
2.6200000000000014,-1.326712805096561,1.0258720898093228,1.2380991250905427,0.992434624984459,0.04659783646594838,-0.1134946100450075,0.8251694960925755,0.3401132412450819,-0.12621468592576324,0.6395750828271926,-0.3692899957024013,0.5539636466120097,0.3842960190112924
2.6300000000000017,-1.0739534780487985,0.7953922839518672,1.1184183392135398,0.9937923743954241,0.036370249427081947,-0.10469416665282963,0.8510816390970337,0.41129412306067736,-0.09665600767379073,0.6329181967480896,-0.3712952011666668,0.5565854991144813,0.3895193922482886
2.6400000000000015,-0.9066332982640625,0.6063187747878964,0.9727720105132867,0.994856959435219,0.026975759314858926,-0.09737328042909206,0.8100304036199911,0.4604838149433968,-0.09304825242557123,0.6270565021794934,-0.37289451114375594,0.5588030104201946,0.3942918440092468
2.6500000000000012,-0.8368043616293002,0.4534548879042217,0.7918221789933163,0.9956254196064394,0.01851224325295916,-0.09154221273767452,0.6928991217762536,0.4795432962900694,-0.12098466687596807,0.6220162101715032,-0.3741059264786682,0.5606008463260223,0.3985774092882274
2.6600000000000015,-0.8867979886648875,0.2901013821997703,0.5137785266553951,0.9960123730065109,0.01336747070946746,-0.08810202289327197,0.4764625539996791,0.41859612781477623,-0.15459489237584315,0.6182637584928502,-0.3757933278186511,0.5610051369817892,0.40222753436459324
2.6700000000000017,-0.9698889082943358,0.16525382652137025,0.2426017147911026,0.9962721091367549,0.010299469984810003,-0.08564273088071835,0.31202948424442123,0.3572974359690952,-0.17485042069786103,0.6150764655109843,-0.3780300962518896,0.560595323541509,0.40557967949075696
2.6800000000000015,-1.0861890098517586,0.0887162262484798,-0.013814360699488826,0.9963990955644708,0.00958631053453795,-0.08424253503696082,0.21833522664759786,0.3007273810100999,-0.17821962475660572,0.6125051753588472,-0.380915728423426,0.5592683766070901,0.40860422493073906
2.6900000000000013,-1.3425499410905912,-0.007187540456629143,-0.13379473723766644,0.9964247383868158,0.011860048234216932,-0.08362913763521347,0.05871336510212652,0.22086476649621037,-0.18511185188331336,0.6102594208267811,-0.3851278490059309,0.556640257831594,0.4115711357208616
2.7000000000000015,-1.4835841592695993,-0.031155320252969233,-0.26458467512926376,0.9964035328245788,0.01501479220275478,-0.0833488110899615,-0.05769102098231153,0.1646086680504996,-0.19518616085813456,0.6079825440378558,-0.3898923509304912,0.5534339736421294,0.41475716578379296
2.7100000000000017,-1.46733455004685,0.03781648290840656,-0.41948758196961783,0.9963304603333688,0.019062761774552704,-0.08343219719038267,-0.11413347402052901,0.14013878022894555,-0.2090388099853312,0.605641355696393,-0.39525840886342845,0.5495914246191573,0.4182261897359877
2.7200000000000015,-1.5349783128334666,0.29714800844844275,-0.6173905277669084,0.9964042648122059,0.026198893602688664,-0.08036165019306751,-0.17645431374367684,0.10612486676016376,-0.25983118034567143,0.6031892983573232,-0.40192333605392394,0.5461193099406775,0.41992744896291306
2.7300000000000013,-1.626795116760039,0.35716908761520966,-0.6623120563351282,0.9964519508946342,0.03365485848393133,-0.07692956739211419,-0.20875703726401057,0.09369984629191037,-0.28696094872330813,0.6005272445316017,-0.4089504177756543,0.5424594706427852,0.421694323631904
2.7400000000000015,-1.742817399239662,0.14000326307953354,-0.5035500392513779,0.9964525852423827,0.04125703677106134,-0.0733025652003158,-0.2013180015715462,0.1103246734955841,-0.27992075917766335,0.5976005439268688,-0.41633644468455433,0.5385217397757723,0.4237024740510127
2.7500000000000018,-1.808293953477214,0.01732088044315387,-0.33309621843258475,0.9963221605228005,0.046233164861698234,-0.07205577950057282,-0.09295304798617439,0.1531953972669309,-0.21982436328479102,0.5944836073498511,-0.4227681657489109,0.5340475191947603,0.4273225521248171
2.7600000000000016,-1.7683415409224439,-0.08145168668114716,-0.19930232236715212,0.9961757500021051,0.0501959128497695,-0.07148853285639228,-0.018341174643312995,0.18227845959585698,-0.1835976364309428,0.5913398376939798,-0.42871344379903314,0.529564079356705,0.4313330332808341
2.7700000000000014,-1.591858555121457,-0.15763925657720315,-0.11593667416626169,0.9960210906032541,0.05306231775576695,-0.07159396172242526,0.0007421538267660781,0.19019072898247785,-0.18479134056834529,0.5881792191048484,-0.43410154871184453,0.5251223958431946,0.4357053034172351
2.7800000000000016,-1.3058374624855895,-0.17737037649326226,-0.031430906687331686,0.9958634176856368,0.054676231815836425,-0.07255973320785611,-0.022793330857780212,0.21489483069996418,-0.1916757189332119,0.5857448849582787,-0.4379406919847129,0.5214535010768178,0.43951368148569686
2.790000000000002,-1.0041601576153583,-0.17126510296199074,0.0805515806939129,0.9957502771044143,0.055295158662248406,-0.0736422503669579,-0.04737173939485664,0.24349943526142617,-0.19993786811906208,0.5835897233589772,-0.4409052160113531,0.5184376095603718,0.4429879758778625
2.8000000000000016,-0.6934263403339038,-0.13595849668692192,0.23034431460440924,0.9956989742302609,0.05468380601970795,-0.07478730752295869,-0.06850257653596768,0.2755642668382923,-0.20944987295989642,0.5817367618417459,-0.44283967002758245,0.5162347858490663,0.4460656228512504
2.8100000000000014,-0.4990672431922243,-0.07053005653101357,0.29544638404602275,0.995787946976172,0.0521895337281802,-0.07535720255302122,-0.08710339110309807,0.31053492717975306,-0.21643889655479256,0.5801409123952234,-0.4434289580965402,0.5154530155355601,0.4484539391811659
2.8200000000000016,-0.46344060061944015,-0.027979761570063787,0.30632425367564126,0.9959008203871845,0.049564398401385976,-0.07564436774239282,-0.09714783124748824,0.325884159190364,-0.2243348412544103,0.5785127208820647,-0.443957843585494,0.5148581941341234,0.45071262184226474
2.830000000000002,-0.6381962522421842,-0.021809229486231665,0.25113825529629746,0.9960295157765686,0.04699663843527202,-0.07560432389048957,-0.0953682586804797,0.3129938846731862,-0.2338445820760109,0.5768053901837811,-0.4445747040979206,0.514345302505882,0.4528762524834608
2.8400000000000016,-0.943449185527832,-0.03217774700435928,0.15636298540625815,0.9960936753528774,0.04578946965809167,-0.07549956885395435,-0.07891576838264602,0.2716315050724576,-0.2140258845289057,0.5745575902213018,-0.4464812349202313,0.5127386263496474,0.4556601395307963
2.8500000000000014,-1.2337143614754253,-0.0428385709097279,0.05735036524580655,0.9961192291111082,0.045467667497794344,-0.07535802207678442,-0.06440033897557733,0.23853514397478026,-0.19548464574709112,0.5719858849804144,-0.44918066258318184,0.5104383178167764,0.4588044007029868
2.8600000000000017,-1.483203043976443,-0.05153261879499241,-0.042121178841055026,0.9960977391852047,0.04624202843021926,-0.07517210646320344,-0.05483759949374615,0.2216320881231763,-0.18305383379266546,0.569019336896445,-0.4528514652692271,0.5072832598711149,0.4623852200289243
2.870000000000002,-1.5556950485619896,-0.12642165410259604,-0.1895872522594977,0.9959604898613605,0.048757043815913136,-0.07537436518345607,-0.03822085976602255,0.24828012893667395,-0.178916115302697,0.5660421442566768,-0.4573604914147588,0.5031031251301017,0.466123320440987
2.8800000000000017,-1.4254586416749389,-0.2200287945396942,-0.3468763084250641,0.995703154532272,0.052442775389888806,-0.07623385389617691,-0.023169989592069166,0.2800192502140085,-0.17917433557266746,0.5636547912958787,-0.46180407244249233,0.4986000285714551,0.4694739847335709
2.8900000000000015,-1.0192997087447142,-0.3310818549641398,-0.5111853872846236,0.9952841350022907,0.057606163272013615,-0.07801776442636882,-0.011606810851000886,0.31238834040918084,-0.1846979973902471,0.5621549031681007,-0.4660143549898994,0.49377706602520377,0.4722175093026377
2.9000000000000017,-0.37363824108453225,-0.4252461042750122,-0.5949053581974222,0.9946056262151589,0.06379103918974616,-0.08161289478731965,-0.008135344099619744,0.3854834849165075,-0.18511735372671562,0.5631643447671995,-0.46808995463049785,0.4899756580257721,0.47291793224338113
2.910000000000002,0.3172922659002163,-0.4745841552022474,-0.6492837649896043,0.9938321947915931,0.06993388621123806,-0.08590809850445039,-0.010468402858485134,0.45421549120087873,-0.18112161980283,0.5655223969027668,-0.4687461583465854,0.4871564896009971,0.47236591340003364
2.9200000000000017,1.0353586399351282,-0.45768216988200844,-0.6727319703032454,0.992958482601175,0.07582922313521268,-0.09096122461463087,-0.020323476701359287,0.5089271574551908,-0.1712166671282465,0.5695156172498061,-0.46759086535561084,0.485672342983519,0.4702439814037197
2.9300000000000015,1.5672753323503366,-0.48326451010469784,-0.7314142724503281,0.9919373188862608,0.08162934123370262,-0.09674422366736428,-0.03722672208166996,0.5345026916171727,-0.19930884271120602,0.5756430691143389,-0.46416633781584343,0.48597309681385525,0.4658033108883972
2.9400000000000017,1.9880250680365799,-0.5541393452164798,-0.774859840992251,0.9907888115013755,0.08729392990407107,-0.10333484822848639,-0.04621646529321804,0.5251797315225596,-0.2102024965798825,0.5826709304836342,-0.4597203903994614,0.4868011484326208,0.46056316284638016
2.950000000000002,2.2688182657824054,-0.6886133732212127,-0.7871454111474356,0.9894670108457243,0.09276191869913449,-0.11106498843133501,-0.04124099987983289,0.46614319416135125,-0.18627385089984685,0.590708864648525,-0.4540986869457395,0.4881152260774366,0.45450971388357747
2.9600000000000017,2.3995926768268334,-0.8378580886927884,-0.8897865139294941,0.9876895966579092,0.09832191180432208,-0.121332919852151,0.014224680663986189,0.3765212121242818,-0.12361636398254666,0.5999737739924533,-0.44720421332640065,0.4891972955933203,0.44791172260223705
2.9700000000000015,2.3906346495331605,-0.9591574776943224,-0.9534627799904133,0.9856476159752399,0.10414199339381455,-0.1325542959412165,0.05309636828457249,0.3049867063315455,-0.06988632346987791,0.6094770883885036,-0.4401732142873118,0.4898465351806395,0.44131335987826664
2.9800000000000018,2.1857208179319865,-1.0315473535417992,-0.9337987948795814,0.9832718636510275,0.11036746039304335,-0.1447840344895229,0.053868475896114376,0.26967308117549765,-0.03916436974859996,0.619103931191147,-0.4331952466165924,0.4898382751365162,0.4348326064070074
2.990000000000002,1.8724960072311627,-1.0599795657816289,-1.0457097585371824,0.9805203952921571,0.11711945435053621,-0.15730938179966295,0.05471390419551237,0.18982392745536336,0.00406346682525504,0.6280321924626913,-0.42722186461476874,0.48867898002066473,0.4291508945017998
3.0000000000000018,1.5447972280295894,-1.1019117400981664,-1.201184611798599,0.9774025072667148,0.12513924533436807,-0.1700179071437913,0.05084386181481536,0.10676853901618702,0.034942346499339576,0.6367388331091866,-0.42211492247003723,0.48662006001086217,0.42371074705579104
3.0100000000000016,1.218535738461995,-1.1770288400610183,-1.3986327327186021,0.9737575049019433,0.1351670159389628,-0.18296427641695867,0.03902147068818973,0.028923584539945146,0.042063055260336095,0.6452389049456878,-0.4182267373750269,0.4833214167419734,0.4184868050867861
3.020000000000002,0.8626428849125881,-1.258072381054143,-1.4357423241348835,0.9693444079409539,0.14727171118310298,-0.19618694091420716,0.030922383583481677,-0.051211964518040415,0.06053290934686864,0.6531688338332905,-0.4159956794726153,0.47836915479701064,0.41402865720200893
3.030000000000002,0.6073694654856695,-1.2885532089470535,-1.4415497533993957,0.9646175522663321,0.15975044890633522,-0.20939144619624966,0.025427225848690272,-0.09549127022683061,0.08222018243741236,0.6607084638770455,-0.4143671459739456,0.47285134426490527,0.41004258375720687
3.040000000000002,0.5341739810802227,-1.2298723961324232,-1.4348848491336033,0.9595470948202255,0.17233628863907588,-0.22249250669745207,0.023474338725233013,-0.0770402572533615,0.10652620934093168,0.667720291073899,-0.41335100128553925,0.46678430457348125,0.40667504926239245
3.0500000000000016,0.40632740394023464,-1.1206276619467839,-1.4114466186597916,0.9542832203128809,0.18493015791349524,-0.234445577258491,-0.004792935693988587,-0.036772330642656545,0.10884967020330817,0.67426937844614,-0.41273509520185525,0.4608770567727262,0.40317942619436525
3.060000000000002,0.22715386182642677,-1.0042938271892208,-1.364866196021191,0.9490722890227454,0.1974110789326022,-0.24532193306587335,-0.027661457440986442,-0.01977292217563611,0.10989145997355673,0.6802290809003999,-0.4126370239972948,0.45503385896055765,0.3999196623232382
3.070000000000002,-0.028065219929822083,-0.889694195610967,-1.2817602927218124,0.9440108592829727,0.20968815946303931,-0.254603477592023,-0.03340983996573236,-0.050502789169904624,0.1148998298862206,0.6852686685669909,-0.4133491672063726,0.44925949988906344,0.3971172286188129
3.080000000000002,-0.18111294045562631,-0.8194035953818561,-1.247235161859469,0.939082375096059,0.2219019320012361,-0.2622176242064617,-0.03076099725106281,-0.10661021105516813,0.13551765766363208,0.6893528420439948,-0.4149612476807268,0.4434840916981277,0.39482935448982864
3.0900000000000016,-0.27127154610385473,-0.752808585308511,-1.2031497263254693,0.9342116959161433,0.23393436871013545,-0.26915145545647223,-0.024600880042608766,-0.14869857029526998,0.1510119199014261,0.6930664661978232,-0.4168372056634761,0.437786178324508,0.39271942699867607
3.100000000000002,-0.2775001888542082,-0.6792865269663452,-1.1264563931494547,0.9294060768613468,0.24565319205778538,-0.2753513935050653,-0.014588370819042391,-0.15716946060347187,0.15225877047229758,0.6963949801366749,-0.41891943472025733,0.4322309901711021,0.39077717966476816
3.110000000000002,-0.1913942017413497,-0.623216916875767,-1.0159093858205068,0.9249549778367674,0.2560384809087649,-0.28074811673243855,0.004919044231591117,-0.10985403425770043,0.14420584298478903,0.6993722590767909,-0.4206919131114335,0.4273523554995262,0.3889036032751967
3.120000000000002,-0.11490843975274231,-0.58965472364188,-0.8927116251717108,0.9207123426355429,0.2654381341628855,-0.2859875338178105,0.02278042573103143,-0.07550830287084762,0.1334115106199652,0.7022059177535545,-0.42214172266455924,0.4228424139991468,0.3871653286768861
3.1300000000000017,-0.08771655359488302,-0.592830545997614,-0.7569578766839982,0.9167450525234511,0.27342058781870754,-0.29119949350577223,0.034329400485513306,-0.08449558318353527,0.1205573059030063,0.7048858918460764,-0.4230848968407201,0.41880277698440377,0.38566010176107396
3.140000000000002,-0.11797178251215126,-0.5438144861562705,-0.6424575150520947,0.9131973758374965,0.2799108292235636,-0.296106850321682,0.04513431893099934,-0.10795144449488928,0.11126157330440412,0.7071526893123675,-0.4237644382159206,0.41516622178366097,0.3846887825997843
3.150000000000002,-0.15898736582506912,-0.46772612674948344,-0.5393756741817399,0.9099711980169474,0.2857525567243066,-0.3004663526512422,0.04601742984660466,-0.13228945718691854,0.10681352803194537,0.7091036455918586,-0.4244617536042232,0.4118196055954007,0.383932605350745
3.160000000000002,-0.2000022395194539,-0.3579042168667026,-0.45079959679283854,0.9072187631365498,0.29087459761892964,-0.30386861732979537,0.027821164683156378,-0.15306212573057754,0.11052023998300615,0.7105895419204842,-0.4252900489738159,0.40889121848902055,0.3834009799092693
3.1700000000000017,-0.2293161853778461,-0.23194127168743434,-0.29987867767218895,0.9053347913133025,0.29473893470060825,-0.3057573293796931,-0.002962577617104143,-0.16649642341924747,0.13499930393982648,0.7113772437326017,-0.4262432071301327,0.4067373822855852,0.3831720920081117
3.180000000000002,-0.2811529236976583,-0.08978597834187918,-0.1531824538611451,0.9040655065000593,0.2978013355979802,-0.306558532396716,-0.019655854527218707,-0.17136246625811388,0.1589079835676341,0.7116604590152996,-0.42733897721916336,0.4050939537562163,0.383169045365355
3.190000000000002,-0.38291680066061906,0.07854470166997324,-0.039660269717847196,0.9036886581710091,0.29974879498764667,-0.3057717500015728,-0.003029330037952558,-0.16190161065373784,0.17344731148304263,0.7112054652203442,-0.42867213021172496,0.4041704184250902,0.38350035658761145
3.200000000000002,-0.5182413981913783,0.27521357217886006,0.03932634918380672,0.9044005731244723,0.3009080330043617,-0.302497895744838,0.06967037566765401,-0.1832283574430868,0.18585239113413096,0.7097289419275733,-0.430669642433872,0.4040694954168087,0.38409892363067316
3.2100000000000017,-0.6850084364066149,0.41364610055523643,0.06214449093747122,0.9055133817349771,0.3022094095165063,-0.2978197687843382,0.15019214458603575,-0.2100281400579645,0.19125690941154208,0.7077201018490025,-0.43325818606226985,0.4041938417763726,0.3847588191898877
3.220000000000002,-0.9026007608480422,0.41915552109875936,-0.01672469408754798,0.9069909769100917,0.30414339548384844,-0.2912952301258235,0.22290373640543298,-0.23498324600137238,0.18305753688316148,0.7050450981270382,-0.43678774316857233,0.4044328139499036,0.38543136153817154
3.230000000000002,-1.0918855448325562,0.2050298360594107,0.06770055238952749,0.9078570809301212,0.3068124447972527,-0.2857287837588646,0.34485380934816345,-0.2700660304357929,0.17728482295104644,0.7021719104667419,-0.44086700485135005,0.4034366426978841,0.387056166325679
3.240000000000002,-1.2555750313281504,-0.0037215545772013685,0.19182218267939838,0.9085580334375875,0.3091617644672365,-0.28095544213881074,0.4499108911346671,-0.2910874292986906,0.17526524351576311,0.6991292701345687,-0.44498387785411536,0.40187552216496114,0.38947003791221957
3.2500000000000018,-1.3776344013294881,-0.09930524924161833,0.3252394301760062,0.909188892273392,0.3104870755006245,-0.2774345940780373,0.4960492230944253,-0.27735078739357705,0.18014821460270009,0.6958160072569998,-0.4489267080030384,0.39967806310949416,0.39313046687635383
3.260000000000002,-1.4516693711228679,-0.14536211058021647,0.3997904905074082,0.9100351084683909,0.3109645805591734,-0.2740999333304319,0.43842800446623176,-0.22564793268555045,0.1583508394532557,0.6920777703580662,-0.4528837007913818,0.39728359167199584,0.3975654717604349
3.2700000000000022,-1.5002064816380323,-0.1957835918379084,0.43737011038761175,0.9108837914286825,0.3111844667911374,-0.2710210871603546,0.35822349169416096,-0.1831416415636817,0.13353086566239386,0.6882205155127041,-0.45681401477404265,0.39471743172840684,0.40230359315808273
3.280000000000002,-1.5164949193156465,-0.2806072844842864,0.4228040178174797,0.911630208373612,0.3112598736551761,-0.26841364308354404,0.2800776378505851,-0.1799185531712958,0.11538473112449638,0.6843131641132635,-0.46067837156945335,0.39187093018794183,0.40732322213004685
3.290000000000002,-1.449480247036775,-0.27615197754467236,0.3705051554904532,0.9121037716009828,0.3117012392293619,-0.266282838311952,0.16374787178358713,-0.18231277323088663,0.07390951193835002,0.680640007100236,-0.464402733839994,0.3888130714415598,0.4121293070568613
3.300000000000002,-1.326010308432669,-0.23559337597783453,0.31654561180927,0.9125074770920275,0.3122342052235969,-0.26426945341508556,0.057593404801469905,-0.18495905943448768,0.03378324857927477,0.6771633026992837,-0.4679446645640975,0.3858585724048998,0.41662382916092006
3.3100000000000023,-1.118929785471305,-0.16099725250229696,0.27916748349163023,0.9128993454136144,0.3127782773580705,-0.2622662426956742,-0.0047818110670705405,-0.18514787700647853,0.009319052783781763,0.674007596428565,-0.4711466906293956,0.3832535205548274,0.4205240654321642
3.320000000000002,-0.9129172440537174,-0.01543815146255853,0.25703170925315955,0.9135558648954564,0.31293652967712543,-0.2597737483695124,-0.09337955136189677,-0.17905140434602282,-0.028629621847258247,0.6712418003213643,-0.4738229086603437,0.38157587527628195,0.42345404656891295
3.330000000000002,-0.7100339193609326,0.1421501956016507,0.24134539125336388,0.9144538528503403,0.312802338482072,-0.25675376313736936,-0.16557656187405997,-0.17301733810702588,-0.060108957013050975,0.6686540208772961,-0.47622950074545445,0.3805614680338411,0.42576514721216974
3.340000000000002,-0.5138889902227699,0.2867568227311208,0.23196226182251684,0.9157658212755595,0.31220475296069744,-0.25277775584122003,-0.18394959098761138,-0.17078565967551407,-0.0685304011393399,0.666258138284746,-0.4783077818988691,0.380567525487213,0.42718502821366955
3.3500000000000023,-0.3708688858683574,0.3108685995193031,0.22510960088859133,0.9172504831096823,0.3111619639131256,-0.24863223538389903,-0.15500676185223294,-0.18485014878779912,-0.05419990621575334,0.6641778020598768,-0.4799273714117259,0.3812504653026222,0.42799716858046466
3.360000000000002,-0.2569412143064273,0.27584807344580553,0.22498957663956284,0.9187081304518036,0.3098785419789356,-0.2448396743810418,-0.11048239849467421,-0.1985044734210833,-0.03413818622331995,0.6623362423527033,-0.4812169361944843,0.382112470212598,0.42863704711032885
3.370000000000002,-0.18040703382594137,0.17266920985846324,0.23964470496058898,0.9199918561547065,0.3082894571167249,-0.24201115209495774,-0.057756746342827056,-0.2009450470355778,-0.014412902413560639,0.660877123481808,-0.4819920545733187,0.3829852638034559,0.42923932144766336
3.380000000000002,-0.15726041239364041,0.05786458457890628,0.27590222704834305,0.9210474787395482,0.3062360661149719,-0.24059789085781527,0.019298892550931195,-0.19135274985223885,0.02173483704706157,0.6597269908327483,-0.48223018283392294,0.38360778025425396,0.43018379232674603
3.3900000000000023,-0.1771715474169796,-0.05942983999102265,0.32277574792872854,0.9219842023018533,0.30390101308290507,-0.2399722000360141,0.08359636311316257,-0.18144968617817833,0.05610478545666686,0.6586658620050536,-0.4822327701022352,0.38401229000506637,0.43144406480030134
3.400000000000002,-0.26917801884240045,-0.17513346556077264,0.38173171049307403,0.9227762647592251,0.30117196977573063,-0.2403692521681076,0.09944954592761565,-0.17888305571796675,0.07493347550192288,0.6576197755463496,-0.4820061942973216,0.38403826071017905,0.43326641190336723
3.410000000000002,-0.43811424708323243,-0.266373211004099,0.4373778484149599,0.9234611220350512,0.2982251164296799,-0.24140287103707944,0.09561347749257082,-0.1886378254914469,0.09891926712245329,0.6562480260834967,-0.4819359155926617,0.3834527521412222,0.43592904962960943
3.420000000000002,-0.6363927700720724,-0.3307789640390574,0.4895864900453811,0.9241173748878966,0.2952448611884695,-0.24255776522363873,0.08301259019133737,-0.20035103175049246,0.11867248533034522,0.6545654334505319,-0.4821083832883485,0.382480932877175,0.43910831573499925
3.4300000000000024,-0.8549950946511577,-0.34327029604772397,0.5352725573963495,0.9247772079854102,0.2923360566407865,-0.2435652675600554,0.06195109993184021,-0.20820124952634092,0.12368927067234152,0.6523121705121665,-0.48279769417243157,0.3809500498042228,0.4430188729659686
3.440000000000002,-1.0405232100307658,-0.30580590229905324,0.5833404603657819,0.9256513851813853,0.2894606511702198,-0.24367412814661812,0.007493700703981122,-0.21500740165701146,0.11954321538047875,0.649292125607772,-0.4841809377382176,0.37911508438968533,0.44748065603141113
3.450000000000002,-1.2035732880075514,-0.2506683281566118,0.6266711615618313,0.9266880133266654,0.28658915661455237,-0.24312953816154137,-0.04710902625428334,-0.21765129349693807,0.11149221341319605,0.6458021670167621,-0.48598408825940165,0.37716230806341516,0.45220607515969785
3.460000000000002,-1.3320893665661913,-0.18708361927718975,0.65542027728107,0.9279935009929153,0.2837020814245526,-0.24153194326882738,-0.07602132793180325,-0.20993304567833315,0.1001104685838915,0.6416491046109913,-0.4883729444259554,0.3751306319474694,0.4572089911418874
3.4700000000000024,-1.409865477316267,-0.12154298900077956,0.6815040055837885,0.929536938241412,0.2807875038398355,-0.23897443666144266,-0.10468020197942379,-0.19101048033223025,0.07460454440747305,0.6369831338396422,-0.4912044359499417,0.3731270144893915,0.46228995828693786
3.480000000000002,-1.452667058728002,-0.053300330808644644,0.7135784629946754,0.9312512760675141,0.2777185534826124,-0.23586784076662912,-0.12656898073061545,-0.170142749908053,0.048985268551987794,0.6320378570358223,-0.49421999750608675,0.37122571450050057,0.4673806663903779
3.490000000000002,-1.4408570563225165,0.02081160618114014,0.7645485375977189,0.9332408607964352,0.27424350043759227,-0.23204106591844376,-0.12984750172228451,-0.15328018475313793,0.03491736778614024,0.6267469377568341,-0.4973754533109909,0.3695853183315152,0.47243288243537185
3.500000000000002,-1.3976443816996034,0.08681472526167455,0.8247965245362723,0.9355654197961497,0.2699817794504458,-0.22759707632433476,-0.12082948234346741,-0.12642150876441083,0.018632843477239355,0.6211867839538975,-0.5004578629921711,0.3684257401571742,0.4773824129755277
3.5100000000000025,-1.3312909844522325,0.13950912646051972,0.8915279655915623,0.9380860285843073,0.26511177801741526,-0.22291079075154277,-0.10948337704772104,-0.09903265167457984,0.004024950878499852,0.61550599209067,-0.5033997693233903,0.3676017814132499,0.4822754151443537
3.5200000000000022,-1.2266922741065807,0.16121946009318022,0.9685415486895935,0.9408683967490835,0.2592014212818094,-0.2180845541413551,-0.10254250257143864,-0.07914636516913592,-0.0037547989366509636,0.6097211302821113,-0.506003224399969,0.36730959368411753,0.48709845215289027
3.530000000000002,-1.0867868739643052,0.1781190598676978,1.042148163741437,0.9438220893961153,0.25208167416945104,-0.2135572596256814,-0.08757217775191477,-0.05456683528755743,-0.020485448666445923,0.6040261867689871,-0.5080139380553729,0.36761555890540565,0.4918337464196795
3.5400000000000023,-0.9355567434796322,0.20372126042688177,1.1110544138911618,0.9468817666380369,0.2441795624219175,-0.20918147468500403,-0.07484628604358576,-0.031604734767272075,-0.03958865012201669,0.598415482118003,-0.509627941399107,0.36835802105299614,0.49646191005572415
3.5500000000000025,-0.7848246173692659,0.25996088646239257,1.1692449566035734,0.9500912887179058,0.23511760748522006,-0.20496743321046007,-0.07661460968577716,-0.01802621395013538,-0.05707831136382648,0.5929687958805854,-0.5106339209043403,0.3698219615366937,0.5008556412749212
3.5600000000000023,-0.6666486526650804,0.3368152876841981,1.2202736020589693,0.9534575532557463,0.22512277111726176,-0.20039812760391584,-0.08801725908428651,-0.009888883957841484,-0.07958993367360917,0.5875593981214356,-0.5112775068938203,0.37201175133075376,0.5049235205536361
3.570000000000002,-0.5687997593203896,0.4244971016205676,1.268588312583109,0.9569258884671165,0.2145520306308702,-0.1954646976205606,-0.09992497539307364,-0.003493412710570622,-0.09857491369345256,0.5821249311407666,-0.511748893868584,0.3746695148742153,0.5087726909517366
3.5800000000000023,-0.49984453449294053,0.5241502494585741,1.3159858904860748,0.9605463462421877,0.2031736501307175,-0.18977561640608617,-0.10333227847874168,0.00319556462271216,-0.1014016319359415,0.5765739422404076,-0.5120659630125856,0.3780171925482023,0.5122854566359262
3.5900000000000025,-0.45032525720311356,0.5952278786992682,1.363117647709198,0.9642397017487084,0.19104331059283627,-0.18337001320108773,-0.09325377452040134,0.012494267439082204,-0.10123008306260076,0.5708187030686078,-0.5123039982361466,0.3819033947110203,0.5155831079723896
3.6000000000000023,-0.42079112081173836,0.6452913986531024,1.4022302823900021,0.9679231131821554,0.17851833970844447,-0.17659645052041095,-0.0768383753710259,0.022885337233125948,-0.1013692098124996,0.5649400921803156,-0.5125064895769745,0.3860480804165426,0.5187745229305828
3.610000000000002,-0.43359715474655114,0.6599694919103404,1.415899128379503,0.9714927861961898,0.16557052905185962,-0.16944589437822505,-0.05521679095304346,0.033853973002954646,-0.10587074958064781,0.55889468752349,-0.5126835857167769,0.39041810769521457,0.5218663434913444
3.6200000000000023,-0.4539703701485597,0.6490084300137485,1.422755501823887,0.9748098876365638,0.15246076175569517,-0.1623874037350516,-0.02328320441858075,0.04315154672834611,-0.1065843753453029,0.5527462608807937,-0.5128339378858693,0.3947117443729157,0.5250123611272494
3.6300000000000026,-0.48380861665582797,0.6331010144425608,1.4202722247796187,0.9779418737624956,0.13933003287310128,-0.1554060897583548,0.005280998696233751,0.0523660500479446,-0.10904421254759779,0.5465371071972573,-0.5129937617866824,0.39891064098709306,0.528190821928651
3.6400000000000023,-0.5360629408005508,0.6316575237301253,1.3948797126563588,0.980761695800746,0.12632494869344896,-0.14857089759275188,0.01016444552338002,0.06332100375760363,-0.1218979006778649,0.5402498931555536,-0.5132174457021363,0.40288594538082434,0.53141200262211
3.650000000000002,-0.5873897986454751,0.6592448530330811,1.3792214154364637,0.983341960966031,0.11352240728378213,-0.1415188588802749,0.006532433946780649,0.07588932416737482,-0.13142526250349407,0.5337848174505804,-0.5136580783382292,0.4066791896769393,0.5346058230002048
3.6600000000000024,-0.6345653304756986,0.6888162560977427,1.3633150244450578,0.985764591291294,0.1008497549456188,-0.13429504794062894,0.0016379275764737589,0.0897338903911586,-0.13938674566476997,0.5271964680378706,-0.514248259280508,0.4103625417632949,0.5377689783793187
3.6700000000000026,-0.668565854383504,0.6875599303819955,1.3339081694041752,0.98795229808866,0.08836398733028931,-0.1267578518899385,0.003428770563734026,0.10590397946436632,-0.14624396553172947,0.5204120967764797,-0.515074713016104,0.4139016752826274,0.5408614466012416
3.6800000000000024,-0.6641635774238047,0.6536118710373333,1.2817419001547201,0.9898269280158982,0.07628354397917675,-0.11964220821646286,0.023276789165276514,0.12978004370740792,-0.15409122171671089,0.513779843260906,-0.5158838352788173,0.41717708557305655,0.5438951175622555
3.690000000000002,-0.6424554063538925,0.6215831109652046,1.219187085397743,0.9914979210473689,0.06455831849979407,-0.11277300184928213,0.04625180714623831,0.15536722415606705,-0.16252809939116722,0.5072957759771237,-0.516685879193947,0.42029353002498454,0.5468317671662638
3.7000000000000024,-0.6120341682286888,0.6421372697449428,1.150992083088753,0.9928724906494111,0.05354684484192497,-0.10620291120880412,0.055270182633409715,0.17635554727233907,-0.17170656579158156,0.5011331718612928,-0.5174866281956633,0.42320557125531255,0.5495009554984982
3.7100000000000026,-0.5517394867548803,0.6986869334024814,1.1093185990569596,0.9940978042054665,0.042932285421144856,-0.09916990401277015,0.06852429881612455,0.21447298719697572,-0.1764431158829356,0.49509004835354625,-0.5183979289754009,0.42623092922385325,0.5517681221221864
3.7200000000000024,-0.47832478222960306,0.7653202204885924,1.0649581354198805,0.9952244366920506,0.03259902644289483,-0.09176632778217209,0.08563880962150282,0.2559330796009141,-0.1784089373484418,0.48915326451015284,-0.5193757637326373,0.42937416285346186,0.5537173472744965
3.730000000000002,-0.40062085106121015,0.8156425451108069,0.970624879755641,0.9962053446858306,0.022724121046594135,-0.08366876180425457,0.11086539223130597,0.2841694320860542,-0.17666094661595266,0.48343572449443933,-0.5204369318898486,0.43278919166482493,0.5550784335525522
3.7400000000000024,-0.34704687664951406,0.7859458964912619,0.840827882909331,0.996996223308032,0.014157324182123017,-0.07567030641028437,0.19820466135786804,0.3150516153833883,-0.1585151107718611,0.4783071341887687,-0.5215783385998948,0.43602121209514033,0.555917086741537
3.7500000000000027,-0.275097173108544,0.6838593673262291,0.7299434089980502,0.997647364449026,0.00632015729368398,-0.06809280284863163,0.3025604704590425,0.3514426781882608,-0.13805106961290908,0.4736348711341054,-0.5226235284340078,0.4391082659365634,0.5565181365467764
3.7600000000000025,-0.0922696923917671,0.42837690193497785,0.7503807851099347,0.9980599680126394,-0.0007828240063309727,-0.06200008600288027,0.3728800989418642,0.4050814189851428,-0.1350700713094088,0.46979274621848993,-0.5231627882040237,0.4419249801856079,0.5570362218047649
3.7700000000000022,0.09665181156846042,-0.08011247600772042,0.7314958716201488,0.9980839565478582,-0.008223714093933656,-0.06105481259592602,0.5163599045662638,0.475100394462038,-0.14717835535202842,0.46757900446661327,-0.5217142608270622,0.4441639564166365,0.558474853684916
3.7800000000000025,0.2706899558913058,-0.6059419642626992,0.671805504503576,0.9978477199902018,-0.015523583330189404,-0.06352472880767325,0.652183092833547,0.53810966133241,-0.16382074925904316,0.46653573375093993,-0.519036603049146,0.4459079688254999,0.5604507729008802
3.7900000000000027,0.37339862712054267,-0.761010372641067,0.5143202906738266,0.9972283587073375,-0.02165873209330033,-0.07094029115552511,0.629123402423159,0.5439504578727283,-0.17262418766489204,0.46742437525922714,-0.5148149438241229,0.44664157096001567,0.5630115298352015
3.8000000000000025,0.4334196497142486,-0.6731266953506188,0.2863598796637531,0.9966163664816647,-0.025716719705244667,-0.07786869107951067,0.379200873435839,0.511179160627453,-0.20775042499318003,0.4689842466298222,-0.5110321826192787,0.4471067685228301,0.5647876541722511
3.8100000000000023,0.4810000396672858,-0.4683901371608681,0.023480195076008202,0.9960794622519946,-0.028092673240421747,-0.0838704127033415,0.06945322253391867,0.46518091840469583,-0.24594579937087196,0.4709430354844582,-0.5077805184290535,0.4474627089101032,0.5658147853252896
3.8200000000000025,0.5559208698965462,-0.2232457857008719,-0.2554744602165784,0.9958483217911639,-0.027215930314477502,-0.08684392768574725,-0.06821780237666744,0.4355098575265953,-0.24769188119513438,0.47333729169051825,-0.5059639866179448,0.4478584504763329,0.5651296035310999
3.8300000000000027,0.6410778642281734,-0.11405383584902898,-0.4759289789844974,0.9957998192292911,-0.02380928560022349,-0.08833911382194262,-0.1610022721622969,0.40868387626009683,-0.23555902068337262,0.47636887670999634,-0.504930128968247,0.44819158668889153,0.5632341291645275
3.8400000000000025,0.7291711620472916,-0.1082217488791023,-0.6510971674070961,0.995817950183726,-0.01892703145385564,-0.08931966816321735,-0.21056617111253856,0.3874535580199285,-0.21553310231252093,0.4798741073831524,-0.5042323341320736,0.4484303367192374,0.5606906370723151
3.8500000000000023,0.8095591947431194,-0.28657980092538676,-0.7433993561707362,0.9957620077331958,-0.012610725872513537,-0.0910098507603274,-0.1588277699688678,0.385359542097034,-0.18853966068665653,0.4841943045009253,-0.5034419812748261,0.4483759666960878,0.5577188951203027
3.8600000000000025,0.9139846929150077,-0.5364165081024751,-0.8494118929501946,0.9953977677223597,-0.005336805567175673,-0.09541099686517819,-0.043118509711606995,0.3850271620494088,-0.15233436656449015,0.48964549558979625,-0.5018927632322064,0.4476555838587612,0.5549131452750353
3.8700000000000028,1.0330266286240115,-0.7824084859614736,-0.9557776207058709,0.994803953166904,0.0025850428631942505,-0.101600712748429,0.0789715231883087,0.3838940072509727,-0.11652131989797546,0.4958890538679682,-0.499812369029917,0.44652513117057496,0.5521589362305602
3.8800000000000026,1.1674885399110555,-0.8536936231798025,-1.033717537727793,0.9938160509643056,0.011427186496188797,-0.11018275133355099,0.09049523823347681,0.3751635266061801,-0.1027423768930657,0.5033460119676069,-0.4969200553101446,0.4449437113628653,0.5492809291187575
3.8900000000000023,1.283747608033793,-0.8091261859902344,-1.0827694636085594,0.9926785678511115,0.02061135664587411,-0.11863928622777156,0.033173576202777576,0.3623528938020737,-0.0963125294529794,0.5111714351993175,-0.49388019812397194,0.44357231316758994,0.5458754914546459
3.9000000000000026,1.3900631334800515,-0.7113762241194915,-1.1143594256512772,0.9914607557628776,0.02994414405055167,-0.12679936089259777,-0.04808023542495225,0.3480145514144929,-0.0917454608442067,0.5191783086636692,-0.4907753672990361,0.44242247905280935,0.5420648811576819
3.910000000000003,1.4909477377587048,-0.6284170185157121,-1.1291161780293206,0.9902050643948788,0.03919227385660835,-0.13380867554392492,-0.08306863701072108,0.33588391942144297,-0.0788595585631933,0.5271982514650281,-0.4877028398028007,0.4418572110086196,0.5375250800163114
3.9200000000000026,1.607575118548525,-0.6080294156593754,-1.1535617970512824,0.9888282641757562,0.048437330852585045,-0.1407037586250587,-0.07595930597839054,0.32827539362585373,-0.04994667167721972,0.5354433342911215,-0.48442518419543124,0.44155857280264155,0.5325393875559495
3.9300000000000024,1.7263457659234662,-0.6324051795979923,-1.18572725023551,0.9873319052502311,0.05767668767433816,-0.1477034830067427,-0.04519738548884496,0.3234616708394641,-0.015272552687399644,0.5438984467790484,-0.48094019926886844,0.4414082532943391,0.5272586461195903
3.9400000000000026,1.8157065711239024,-0.7258195858510397,-1.2326277510149979,0.985533053622647,0.06689468967922617,-0.1555331877070821,-0.001145859387717614,0.3213788098308917,0.007822096230936472,0.552853158056944,-0.47691810651099403,0.44133447583669116,0.5216087339527594
3.950000000000003,1.9264537196134541,-0.7901265463924044,-1.2656431952696117,0.9833954536019418,0.07628501370095718,-0.16435518932425072,0.06237818535587296,0.31991412366883676,0.03655710121214534,0.5622536616498536,-0.4724847869340086,0.4410991529335349,0.5157294711892411
3.9600000000000026,2.0574676939403203,-0.852704197456825,-1.2918807348906194,0.9810073003671347,0.08565651259375287,-0.17391211790537783,0.12795545425304103,0.31623688479567413,0.06429561335531925,0.571986440354566,-0.46767843992903113,0.44081064839837286,0.5096632786006194
3.9700000000000024,2.2382871691148862,-0.9869024869024621,-1.3201847924935337,0.9782101893936044,0.094447294742926,-0.18467229481891997,0.1504524696953514,0.2989104530009055,0.07097572189679972,0.5822711429213083,-0.4620043087451312,0.44068463079267056,0.5032269611512894
3.9800000000000026,2.233743482150352,-1.2302841834944704,-1.5413551546962951,0.9745432946006644,0.10445513521386456,-0.19790034125472566,0.16869628147157997,0.2776559124526704,0.09125212952604234,0.5936481462841255,-0.45573492598584353,0.4396933632075308,0.49641241909821066
3.990000000000003,2.140988603382129,-1.4390563070516673,-1.769246121430453,0.9703181514435124,0.11515596026200488,-0.21248147420772992,0.17782417581698481,0.2416078518473337,0.12076897360890759,0.6054960044724915,-0.44925817221766773,0.4380846225205577,0.489470306227596
4.000000000000003,2.1066305906631104,-1.1215605843196321,-1.4530678168905142,0.9655469408758254,0.12612000269030757,-0.2273003078374201,0.14799664651360958,0.13336339329757368,0.16174234449186856,0.6167216002763807,-0.4434001974362366,0.43557961837388326,0.4829451934088375
4.0100000000000025,2.20356445188298,-0.9296408118827606,-1.3334461746320485,0.9613807827631599,0.1345374430160384,-0.23987495637591288,0.13650520405324607,0.1663232945753796,0.1695801345616787,0.6270435833242776,-0.43727686631455426,0.4345453595292866,0.4761020058333171
4.020000000000003,2.3455404822922157,-0.8418778875858969,-1.3306059622445314,0.9574632002142823,0.14157483072432114,-0.25135251137356907,0.12471456402835518,0.26012733509711733,0.15949837001319356,0.6369282628830555,-0.4309466915721059,0.43428093117603755,0.46900676670774216
4.030000000000003,2.326452987367328,-0.9666217133953728,-1.3828160147719353,0.9530494390490368,0.14869706597794963,-0.2636194824676359,0.05088025373603115,0.255136636825193,0.15074419890580448,0.6471574282704587,-0.4242469986695079,0.43380428622010364,0.46144390461109774
4.040000000000003,2.2412587626431204,-1.0789989949949468,-1.4292013966082355,0.948104874066446,0.1559306947169698,-0.27682862875832837,0.041340269220105585,0.20555223074283674,0.18523436767758605,0.6573842971745858,-0.4175337565998037,0.43269516259753915,0.4540631385933806
4.0500000000000025,2.120883017633177,-1.1831199116117077,-1.4811223743487967,0.9427101984431331,0.16336761888802848,-0.290766850922088,0.06837348445123158,0.1360969791680558,0.2386381321214374,0.667615420385812,-0.4108617146277178,0.43104548297609097,0.4468158387881578
4.060000000000002,2.0137065519330775,-1.27908097407618,-1.5890048576276563,0.9363578243083697,0.1716961722243893,-0.30596161154850815,0.09752136944331365,0.10005040682631211,0.2573852022753521,0.6778817545885786,-0.4044995820681646,0.4282278340355168,0.439764156463309
4.070000000000003,1.8965352723486508,-1.2906258001923212,-1.6879171920020035,0.9294028166609333,0.18091899331337558,-0.32134857203453754,0.10569475990881314,0.03787673885050743,0.26497048128150136,0.6880985811281835,-0.398566414496294,0.42478791183734294,0.4325601323823083
4.080000000000003,1.7729910526342534,-1.2557138467014635,-1.7781848292626155,0.9220182038848452,0.19082248522308026,-0.33674657950873893,0.09794204253971148,-0.031155583743099676,0.26707234505766986,0.6982335584525565,-0.39300320623604296,0.42091303756823434,0.4252246620992352
4.0900000000000025,1.6456038540402367,-1.2379363364905043,-1.8453181882163896,0.9140966779834182,0.20181321434999283,-0.3514680894999493,0.06494864312273008,-0.04427783505968943,0.2758763907885047,0.7080111150331503,-0.38825395626748355,0.4165419904555894,0.417599723210575
4.100000000000003,1.5184941656610988,-1.2312838659680185,-1.8608736945923838,0.9058390102643843,0.21299998769356418,-0.3658773841218993,0.04191253036806909,-0.05623627459947331,0.29132620477890775,0.7174111728444135,-0.38394210120384403,0.4118588848775053,0.41010186640280155
4.110000000000003,1.3881632672593907,-1.2375880922443565,-1.845711049881795,0.8972891826024079,0.22431154635025286,-0.3801126061936023,0.027880229014747095,-0.06666552443958808,0.3106459926096424,0.7265240953840572,-0.37995206763823186,0.4069063463551614,0.40273840131426514
4.120000000000003,1.2336113093134338,-1.289027546638029,-1.8311932858959235,0.8880858977493716,0.23567806065963642,-0.3944366395584826,0.03570323522871637,-0.07113045723470701,0.32925311206426344,0.735196152063422,-0.376395099685082,0.40136000347731715,0.39579316549860327
4.130000000000003,1.057941389353868,-1.306582413359716,-1.7981680307383554,0.8784695610708887,0.24712524455030072,-0.40863860363686094,0.02013114219595442,-0.07942199946229254,0.3506229943527824,0.743459116691181,-0.3732653241535621,0.3953831901051015,0.3892702272481847
4.140000000000002,0.8794944815450062,-1.2943745158608544,-1.750846581653468,0.8685941813006747,0.2585980625398393,-0.42262093226583053,-0.008352429960607378,-0.0912603676269807,0.37223123719672774,0.7513678150087932,-0.37048662776913327,0.38912981895835297,0.3830713071513002
4.150000000000003,0.7789486189640084,-1.2140128056999193,-1.6812591887059911,0.8586799603406067,0.26988798553256055,-0.4354997576047758,-0.025598442196922425,-0.11221267552364687,0.38269448613305385,0.7584923240798497,-0.3683828597299124,0.38278566710318823,0.3773637483157236
4.160000000000003,0.7337096258115798,-1.1195917238939113,-1.623137431022732,0.8490097560110077,0.2806822384318568,-0.4474596216022346,-0.055845818525410984,-0.13832049879755612,0.37613786434865415,0.7651737663290947,-0.3664824060688761,0.3767499248228375,0.3717525011957712
4.170000000000003,0.7259136451030415,-1.0145101888438945,-1.5700161918148428,0.8395626393479773,0.29103884520128154,-0.45868364900327147,-0.09038692949057513,-0.16486329617025958,0.3607633118400714,0.7715109984728858,-0.36471672467878347,0.370992603876552,0.3662006328503496
4.180000000000003,0.7380780957604292,-0.8950328520590278,-1.4984934038869342,0.8306760220936166,0.3003835011767363,-0.4686481221990347,-0.09282726527874975,-0.16833135460434445,0.36131919870135937,0.7773271760803635,-0.36300097668468895,0.3659148297822441,0.36063598671529706
4.190000000000003,0.751250934167205,-0.8153186316767229,-1.4171296724447433,0.8222159938906701,0.3089013355569686,-0.4779406474274707,-0.08856838652358706,-0.17421886728699834,0.3638837613351715,0.7828243787170557,-0.3612282139827887,0.36129197264166996,0.3551409030590092
4.200000000000003,0.7537316485995752,-0.7616070906863132,-1.3152469807738583,0.8141075601229741,0.31668877237382753,-0.486738195006462,-0.0796828174905427,-0.1821514285055262,0.3686795490045717,0.7880465595373773,-0.3594008012499377,0.3570144039103562,0.3497795462310453
4.210000000000003,0.6566756599043416,-0.7089856234897283,-1.0895675626857186,0.806647866281931,0.3227896316244935,-0.4950299683721528,-0.06845761391235716,-0.19421015873766084,0.3815792992451206,0.7926773263693899,-0.35741950975392317,0.3531685612402146,0.3451940238908637
4.220000000000002,0.5543464445426416,-0.5647409059117339,-0.909731350305907,0.8003196076561159,0.327819518574716,-0.5019723714216843,-0.07065593997124706,-0.21158084505200794,0.38853373152424475,0.796552534720229,-0.3557244834083654,0.34995493331792854,0.3412882981001802
4.230000000000003,0.4459252979980469,-0.3590160917672923,-0.7611112575485458,0.7949534400518535,0.33204965790613056,-0.5077279301472882,-0.08399352995902999,-0.23305191660546476,0.38945642548960757,0.7998091664633094,-0.3542968817926696,0.3472886062907562,0.33788690382623704
4.240000000000003,0.31325364485107443,-0.1519988295068889,-0.617444493669191,0.7915240995104434,0.33549672226469673,-0.510800217056729,-0.11770502320180593,-0.25967269346788757,0.37095874761893016,0.8019986476146738,-0.35358659387893,0.3457964653431599,0.334951264406827
4.250000000000003,0.20293790474840237,0.07294134407964513,-0.47347267733295656,0.7896140821832098,0.33843570068884926,-0.5118270367996157,-0.12182483399216502,-0.2709598813894806,0.3475018339287048,0.803381262872743,-0.3534543636284861,0.3451904783321277,0.3323987746391876
4.260000000000003,0.1119884906658669,0.30136313141108334,-0.33518739649019885,0.7889205810533126,0.3409592393199453,-0.5112237118740032,-0.10516074113822353,-0.2720399921512156,0.3213881938741111,0.8041286328946717,-0.35376938778690503,0.3453043544003614,0.3301342313836388
4.270000000000003,0.06182710050641704,0.4389583121189887,-0.25737594268822656,0.7899772458152444,0.3428091162945429,-0.5083426233408792,-0.08425378910557133,-0.27669114878283896,0.30303916984349677,0.8040574004872736,-0.35459036767358876,0.3465448963982525,0.3281178334489991
4.280000000000003,0.01104445812491845,0.5436944199839066,-0.1526477082572053,0.7917874837603514,0.3441812149656083,-0.5045772132188378,-0.0512179901121259,-0.2762059681455696,0.2776023195351167,0.8035912359832917,-0.3555883870506439,0.3482319081513655,0.3263868117312193
4.290000000000003,-0.04725398188821795,0.6267269845915435,-0.03165497760426814,0.794228578233699,0.3451639016819391,-0.5000574721615408,-0.011762383303421659,-0.2730062702815692,0.24870497734479463,0.8027845923012117,-0.3567492154162632,0.3502858483673699,0.32490842665654074
4.3000000000000025,-0.18470939299027406,0.7272517551098974,0.05807040905288248,0.797757692638569,0.34557491937618146,-0.49410411854261255,0.003434447825087306,-0.28012612993974173,0.23724041048758737,0.8012974337892521,-0.35832898101911764,0.35290794247909013,0.3239956998691849
4.310000000000003,-0.3848578373963919,0.8728604382438178,0.18650375207683223,0.8021692783221265,0.3459714944542764,-0.4865948888343112,0.03941063484938731,-0.30084642599574574,0.24690311538859522,0.7991239189370386,-0.36058263466762863,0.3559114084400058,0.32356556112357776
4.320000000000003,-0.6362654114518645,1.051896620371393,0.35017031328990655,0.8073969600846419,0.346311339072259,-0.47765667065302475,0.08986362597986287,-0.32973554736126526,0.2723204745461699,0.7963104651250232,-0.3634473508689185,0.35926825441001803,0.32359800682017925
4.330000000000003,-0.9565336411894397,1.2383064602035896,0.6003483815592554,0.8147545619270203,0.3460840010061071,-0.4650842491662524,0.13230063327396369,-0.33734378010444227,0.3022956765384589,0.7917765266588891,-0.36778957467471285,0.3635540802964298,0.32499519787633463
4.340000000000003,-1.273841903198139,1.2821146119893005,0.8444185094867945,0.8230098264840643,0.34519472786091226,-0.45091733118904115,0.2385972910414258,-0.33210475949882523,0.3614439567682174,0.7861922178053258,-0.3729289414076203,0.36801706438727955,0.32761616379820147
4.350000000000003,-1.585937231859031,1.2106860512091935,1.0831705464870818,0.8319198881665545,0.3437119620223161,-0.43559349474227244,0.38804604402000376,-0.3168340937222346,0.4380168383995095,0.7797496869651228,-0.37870328538367226,0.3725345577323621,0.33132795115144253
4.360000000000003,-1.8573161816873074,1.0235029293351565,1.3117729315825264,0.840599664028326,0.34089624328779367,-0.42076266836497045,0.47452544970113975,-0.2958918226306031,0.45474000141346677,0.7723266561235623,-0.38499980547194645,0.37599180248601577,0.33741690937607854
4.370000000000003,-2.0451654599590174,0.8753424797884164,1.4480259719303454,0.8491733731882666,0.3372902306151147,-0.40618052089515333,0.5472146937652135,-0.26759706526467686,0.43669478382478616,0.7644097685411518,-0.3914826480444932,0.3789777605600066,0.3445265825325152
4.380000000000003,-2.163843104238207,0.7566858675970372,1.510568839199801,0.8576047460025196,0.3330442617450638,-0.39188538844053683,0.6008260257438504,-0.23490124791170564,0.39012132496402296,0.7561061066166768,-0.39810130506313823,0.3815346364639131,0.3524676961145432
4.390000000000003,-2.2081061663068247,0.6300747178939241,1.53285880887601,0.8651134133416389,0.328314475756178,-0.3790439285846693,0.5257776535859087,-0.2213002064036354,0.3165815495694289,0.7476997216958781,-0.4046051158696704,0.3830819588866588,0.36110809443308817
4.400000000000003,-2.2220272816165023,0.6235854224308006,1.556324610575956,0.8725088026273147,0.3231235063729942,-0.36632107685183346,0.4258209389005192,-0.19287555653149271,0.23857149610797201,0.7391326146208353,-0.4110305282208924,0.3845399646694858,0.36981515935225057
4.410000000000003,-2.2064875115214146,0.7161938301622532,1.5779536729429648,0.879837897238395,0.31751938592764256,-0.35361446024659554,0.30845638866027686,-0.15435799917119924,0.15915257480295456,0.730414773495003,-0.41739223871421155,0.3859700939955792,0.3785364816789649
4.4200000000000035,-2.097057925897658,0.8795153406279831,1.5520992445867057,0.887566433384545,0.3110827584412529,-0.3395768401582227,0.23034054705589138,-0.14378036940648597,0.11621914607851941,0.7212909270719012,-0.42372453312708197,0.38813389106944446,0.38659776792407985
4.430000000000003,-1.9351359399404822,1.08682085692084,1.5635825690727847,0.8956314629216756,0.30381351485771946,-0.3245626565399642,0.12841118737158685,-0.13599273681003543,0.07323299604638704,0.7120201898601194,-0.42981742494112224,0.39108898192929087,0.39400205725698717
4.440000000000003,-1.72463004303993,1.331550016905688,1.6022290207674097,0.9040109517542244,0.29576349032941396,-0.3086282730549666,0.01180347314204026,-0.1301112684674783,0.030680023529509347,0.7026193915197863,-0.43568035444735437,0.3947964153718762,0.40078913569124425
4.450000000000003,-1.3973368156663681,1.609354446099272,1.5781389513799167,0.9131986463086784,0.28566068967776165,-0.29019880580050567,-0.012618716938485215,-0.11710569251905287,-0.002486570969526841,0.6930079728965425,-0.4408453094004115,0.40065806951578625,0.4059344166388112
4.460000000000003,-1.0728842073080447,1.7393560544833695,1.5591781636229156,0.9222647123902126,0.27474056060798857,-0.27136964168869493,0.00033969894929875705,-0.11124120528747332,-0.04617990321471553,0.6836913515792516,-0.445339549516335,0.40737084108498717,0.41012443447902597
4.470000000000003,-0.7513214773076197,1.7369348255388677,1.5447031979322325,0.9311798108247419,0.2630703626287024,-0.2523245595034965,0.04576811995571232,-0.1104407781091934,-0.09655671788330597,0.6746762024023858,-0.44918542002292716,0.414808774718432,0.41348552801940375
4.480000000000003,-0.44167964326044235,1.527863784185139,1.5348704917471885,0.9389567879276975,0.2498473408417484,-0.23599829945559117,0.11992728188176452,-0.08887496012788333,-0.09830844074381268,0.6669342185472205,-0.4509997861973299,0.4225747861024615,0.4161319580424383
4.490000000000003,-0.18585508227887965,1.3010490767209397,1.5158377849134155,0.9459127166376537,0.23620782080419095,-0.22193907025878093,0.22329892830037007,-0.06005420817055804,-0.07619642043855848,0.6600546254191177,-0.45172094751481273,0.43005972857474734,0.41865849987993076
4.5000000000000036,0.01876345144811898,1.061327475687397,1.4897141283127353,0.9521217386738998,0.22219771151565187,-0.20994524638754114,0.34733772089661913,-0.025443422993587855,-0.034320272957068444,0.6539550789319567,-0.4514555424119811,0.43727903849964656,0.4210866062617958
4.510000000000003,0.08388327139526155,0.8860786106808172,1.4859391428522217,0.957155647331923,0.2078220678008204,-0.20128193744146847,0.3490533422427168,-0.002948006151203688,-0.0123212512006169,0.6489656457634475,-0.4498455731457834,0.44381977164938674,0.4236383786953836
4.520000000000003,-0.10523652997257649,0.6824334152465587,1.5118681089508117,0.9616506218610176,0.19346882921339698,-0.19407604930340833,0.3077261026811713,0.015749690363980464,0.00973785268618429,0.6440714699937273,-0.4481412805081088,0.4495736776339608,0.42683811552088385
4.530000000000003,-0.5081353361994877,0.46545871431349783,1.553043524898461,0.9656545508841999,0.17920021963975852,-0.1881227149972555,0.22919774107751548,0.030731332765524408,0.031143064156228223,0.6392359670600668,-0.4464086884585158,0.4545958159117771,0.43062359217269136
4.540000000000003,-0.5480001796322919,0.6558071405530875,1.2134528167935192,0.9691108605167617,0.16718731141046536,-0.18102968146028356,0.1770710710485891,0.032959425728882046,0.027967987077970113,0.6335194357861617,-0.4465846537969948,0.45830184455885975,0.43490586044728763
4.550000000000003,-0.6902545547030794,0.7041611339580324,1.0331485250178467,0.9721963580147693,0.15723879025871682,-0.17331405618189955,0.09871295367880793,-0.0011538894231311117,-0.005479673587497402,0.6279830752367043,-0.4475158907719263,0.46159159854571574,0.43849180852717595
4.560000000000003,-0.9267789709477868,0.6216016912761118,0.9991013012992024,0.9749363559304743,0.14914667017968244,-0.16507794628025357,-0.0009275791136988252,-0.06598178050613164,-0.06497741646597639,0.622594947089419,-0.4491408860501797,0.46447098782939916,0.4414891568003484
4.570000000000003,-1.2325657480197045,0.4347425688416764,1.054489374952556,0.9772371352139962,0.14041297037942624,-0.15884790801449464,0.013731523357820784,-0.02905259198407223,-0.061098498924586644,0.6165162950205141,-0.4512022158949516,0.46582143978247476,0.446431959982011
4.580000000000004,-1.5633884835221268,0.33847552501717376,0.9850305770348046,0.9792372925167704,0.13270982323566846,-0.15311322046413983,0.024964585212116926,-0.020328129118011573,-0.06294750979133552,0.6101392566734057,-0.4540414745466094,0.466136279057838,0.45193545434091265
4.590000000000003,-1.9144220860293764,0.32720817147273534,0.8005602355435064,0.9809528641671325,0.1260052573829922,-0.14782791064810546,0.032169010094038476,-0.03780000317248186,-0.07022349327638609,0.6034764919861838,-0.4576302446366326,0.46546740973704226,0.45796096102309075
4.600000000000003,-2.054262093438431,0.3609493533892954,0.6991923582015376,0.9823471378761288,0.12197062838634931,-0.14173898478439192,-0.0178409252162261,-0.051059965204213305,-0.08393460799440977,0.5962727178191105,-0.4629423847814632,0.46346398558741614,0.4639877408142021
4.610000000000003,-2.1037392603765297,0.3731943077872621,0.6482514702581645,0.9836681810976095,0.1182083052485094,-0.13563880894443367,-0.05848426590787556,-0.026317172594717494,-0.10801596952874704,0.5890067120451313,-0.4683943330336346,0.4612685240068519,0.4699423309046151
4.620000000000003,-2.0659186634699322,0.36471217232888925,0.6454172936413305,0.9849183307589336,0.11470455032118183,-0.12953147082614758,-0.08985402605312266,0.0345695328809773,-0.14191107614941162,0.581683654735448,-0.47397595763148576,0.4588907317035503,0.4758246474487392
4.6300000000000034,-1.9207255033118278,0.3358149562337585,0.6243175791866238,0.9860626148036163,0.1109472640047094,-0.12388592949629787,-0.08128525666745462,0.06755755353299625,-0.16187767702681805,0.5746801572965884,-0.47903271006097814,0.45669411467993726,0.4812964907575982
4.640000000000003,-1.7423994868258383,0.300865688667662,0.6327596398795273,0.987139141827918,0.10692904180460656,-0.11875193419946964,-0.06842545872715321,0.1043849184805819,-0.1799251068411458,0.568024101035223,-0.48358984312323183,0.4547031477189364,0.4865101545459778
4.650000000000003,-1.5314871789418032,0.25998560951180505,0.6702400393089687,0.9881490412065064,0.1026531743050844,-0.11412153318258068,-0.0513593752146446,0.1449670046955148,-0.19607522702809596,0.5617101691013728,-0.48765470908811803,0.45291511830899406,0.49146958791169826
4.660000000000004,-1.2955986497927057,0.236439935154006,0.7135085533988763,0.98911977573121,0.09714343322101389,-0.1103747348026147,-0.04533713407506949,0.1666650423884824,-0.2007557750861358,0.5560822766920089,-0.4904329609693108,0.4519776753484167,0.4959174001234239
4.6700000000000035,-1.0735762719026738,0.21695252204754234,0.7500670286409703,0.990057239370206,0.09118879612834277,-0.10698579797138567,-0.04378618775146085,0.18307130126941995,-0.207088377643427,0.5508275255771683,-0.4926348357148186,0.45146063136379694,0.5000627648159716
4.680000000000003,-0.8655561213389769,0.20156319611243836,0.7798496157825878,0.9909611056182369,0.0847848970210987,-0.10395823457847794,-0.046750415486362246,0.1941338502410656,-0.21508924720732012,0.5459495775948726,-0.4942546770230165,0.4513681119584309,0.5039027139077016
4.690000000000003,-0.7057146948060053,0.19720175476636498,0.8416312592657983,0.9918219069944765,0.07735476155143876,-0.10135983576159352,-0.0544145589081991,0.20320571843996277,-0.21026949932141414,0.5415763546012671,-0.4949059760432286,0.45209255210958366,0.507306099814327
4.700000000000003,-0.5555410052848062,0.20228988512460147,0.8973346501184843,0.992658782624597,0.0693768350805128,-0.09887377387348657,-0.0627698687905125,0.21367949144904336,-0.20622149246827703,0.5373462184339151,-0.4951620864919812,0.45318488149235914,0.51057103998936
4.7100000000000035,-0.41510142909632874,0.21711200505578387,0.9465388640398343,0.993471104563184,0.060836985509578397,-0.09650161560074165,-0.07181344746587352,0.2256194424735923,-0.20305198385497614,0.5332614197840139,-0.49501420229596627,0.45465381333626814,0.5136950414644603
4.720000000000003,-0.3304235469633404,0.21711729417890663,0.9686923822512531,0.9942012268864954,0.05156726061331297,-0.09411604171164578,-0.07833922625776808,0.23369904543035808,-0.20960754799964235,0.5294170381273733,-0.49429493799822316,0.4567406141551921,0.5164922191709503
4.730000000000003,-0.2611819922017872,0.2282749824953149,0.9873073516140957,0.9948699884476003,0.042079297843416665,-0.09172624975472818,-0.0837608316932074,0.23686369867978563,-0.2160351026878653,0.525629545345275,-0.4934111904984948,0.4589976175304893,0.5191980189621773
4.740000000000004,-0.20764126089605955,0.2515211620898204,1.0025160462143399,0.9954744523744492,0.032368567116386755,-0.08933214282682751,-0.08803945779800582,0.23484133548100194,-0.2221947193529086,0.521899444177892,-0.4923598332624071,0.4614276987941132,0.5218108309410914
4.7500000000000036,-0.18946757241951023,0.27805233253567385,0.972457415926439,0.9959615664502328,0.022744089863005912,-0.08655576573208872,-0.08899574774962826,0.2442488871711687,-0.22393908840553137,0.5182171989667848,-0.49129870509265144,0.46405127321998674,0.5241366333789669
4.760000000000003,-0.17591711678500146,0.293394610795404,0.9354472975973059,0.996379995618654,0.013397893952885823,-0.08368448707509364,-0.09844308377292463,0.2516529632929999,-0.22823184635986501,0.5145961902587834,-0.49030445966819874,0.4666429991156996,0.5263314597669231
4.770000000000003,-0.16666648830606925,0.2964113390116022,0.8918011342813444,0.9967257319850955,0.0043546224208931335,-0.08071752289065352,-0.11726196619312419,0.2566159057467357,-0.23541106993875507,0.5110412172391642,-0.4893836784313279,0.46919566445262945,0.5283890329498215
4.780000000000003,-0.12227109307670656,0.2893755172780639,0.837608252856828,0.9969391991865287,-0.004027526376470116,-0.07781804220451653,-0.11108642360547846,0.2663547715213066,-0.24160332797372522,0.5077683163789574,-0.4884948788740598,0.4716568764026811,0.5301634573427076
4.790000000000004,-0.06260008410769063,0.27781234223456497,0.7862236551880613,0.9970948209292775,-0.012061169343470807,-0.07499611229936046,-0.10012852437649035,0.2808288854774641,-0.24836683414053864,0.5047175805995552,-0.4875576506951708,0.4741160857163189,0.5317457515300649
4.800000000000003,0.013200534412284942,0.26145776699508677,0.7383161670046934,0.9971893387437922,-0.01972258914381235,-0.07225940726078715,-0.08454196585004542,0.30048710414398305,-0.2558027773877289,0.5019083236446626,-0.4865649709607171,0.4765757939473589,0.5331203928127299
4.810000000000003,0.08459045417294299,0.2379523742460013,0.6911576689300978,0.9971880327584898,-0.026785062863363046,-0.06978342329019367,-0.07438622788858822,0.3150505182350293,-0.2595324983974929,0.49961238890161774,-0.48536464727069323,0.4790881062875303,0.5341123460172259
4.820000000000004,0.142025072325232,0.214839496597208,0.6379644706204041,0.9971471236383607,-0.033491559846598455,-0.06748677908527713,-0.05978940657494832,0.3261304225974276,-0.25876260565998027,0.49756501988788693,-0.48409303443957774,0.48156703012939284,0.5349492143472718
4.830000000000004,0.18349711354748688,0.19246117822575026,0.5777642871222504,0.9970641853639741,-0.0398099736151509,-0.06538726030012286,-0.039844416693736034,0.33338254610269874,-0.252935557557177,0.4957849021146945,-0.48274714538916147,0.4840052836850529,0.5356217898174134
4.840000000000003,0.19344337863124483,0.18603327835786382,0.5255928671442709,0.9969483014930277,-0.04532240083439554,-0.06342102666642684,-0.031961200188832174,0.34150542394181294,-0.24813435108895288,0.49435091252258023,-0.4814558272573193,0.48629844682171164,0.5360284651364546
4.850000000000003,0.1813696930621015,0.17062001013622347,0.46464857035261337,0.9968252088892727,-0.050382412235838,-0.06156050333061708,-0.011702592010299478,0.3500753723973023,-0.23719875755519326,0.493039512652104,-0.48026200277130454,0.4884319582997955,0.5363688850541737
4.860000000000003,0.14468525477108235,0.14375010029777624,0.3928888096437279,0.996695169712592,-0.0549445448553409,-0.05981901411720819,0.023848889865411275,0.35913367149755815,-0.2189256762356697,0.49185675298929893,-0.47918131460645624,0.4903829371229348,0.5366436480869851
4.870000000000004,0.07928450729678156,0.16586748812190177,0.29956012712698216,0.9965963569356953,-0.058234890143642026,-0.058292274676441075,0.053601498538243156,0.3631744931567449,-0.2074835904371105,0.490862131867277,-0.47853627687100847,0.49178826139568016,0.5368427504954476
4.8800000000000034,0.0039422090163502704,0.20631497786244835,0.23157011969385788,0.9965425139706257,-0.06095607689357744,-0.05641778509927083,0.09624452782883401,0.3703759360328942,-0.18240060862509205,0.48978102081640873,-0.478264065914326,0.49300515887411195,0.5369570667442768
4.890000000000003,-0.08183322767740756,0.26623396781644676,0.1957962529852823,0.9965417210488167,-0.06305786729912845,-0.05410598191895659,0.15496962532650022,0.38173398590196705,-0.14025804350400933,0.4885831474397902,-0.4784211797599015,0.49402439424800443,0.5369723587107288
4.900000000000004,-0.14629108976062255,0.1553721444296918,0.1667603232616954,0.9965318060081556,-0.06480823317773382,-0.05216003867949422,0.2031529481029148,0.39700764007630474,-0.12597385674879555,0.48726649458040194,-0.4788448343936882,0.49459816532525674,0.5372619353338179
4.910000000000004,-0.1823439081502655,0.0015681047272845805,0.11748443265341815,0.9964831536850987,-0.0661466157972404,-0.051432941083834754,0.28553783392843046,0.4174566391363408,-0.11626333080942795,0.4862856009978232,-0.4791129346178028,0.4947062065662691,0.5378125283797026
4.9200000000000035,-0.18424988020860383,-0.19409779948314834,0.04233252127914379,0.996386528317153,-0.06699271224339341,-0.05220973301456582,0.4115886595856532,0.44412490367019086,-0.11033024774253816,0.4857344563255197,-0.4791670354447128,0.494261133992294,0.5386713770168153
4.930000000000003,-0.11139246846385731,-0.3425918670882896,0.0006642283019516193,0.9962157329561091,-0.06702627005833915,-0.05528316027364477,0.4403846928316832,0.46639117579466005,-0.10852271312531188,0.4861096633165435,-0.478671213358531,0.4931850362403844,0.5397575886265331
4.940000000000003,-0.005605795322959871,-0.5015374861849363,-0.06166939385366568,0.995990832514405,-0.06667563585263805,-0.05951484242595302,0.4259895319267104,0.499889422973955,-0.12070073145247592,0.48708209614844045,-0.47776401794715345,0.49191688304335035,0.5408388406559542
4.950000000000004,0.13650840599386677,-0.6778325693402392,-0.15340014908631888,0.995702248622009,-0.0658962581392596,-0.06505164940039834,0.3638796098106598,0.5482331322177759,-0.15057517069817378,0.48874864829695874,-0.476371472898067,0.4904528575563311,0.5418950359369752
4.9600000000000035,0.2738480982948096,-0.7604397282537734,-0.3367446667931473,0.9953481258041073,-0.06329171655316532,-0.07240553060269272,0.2944263972491902,0.5513561989085265,-0.1592700802092631,0.4919399151711862,-0.4743993945501783,0.4886086663119917,0.5423947565894196
4.970000000000003,0.413121408184374,-0.777573849278402,-0.5520114133001577,0.995026069071458,-0.05915396483636591,-0.07988536855775102,0.1754760945037761,0.5455399035460732,-0.15764559159940325,0.4958297850369519,-0.47253836804270577,0.48658116596897005,0.542296242082511
4.980000000000004,0.5554103794290121,-0.7167726201570691,-0.8009275813346424,0.9947527311689065,-0.05315625415429816,-0.08736016798466642,-0.008403157609475631,0.5321529676482593,-0.144344653657875,0.5005015212912879,-0.47087944442302276,0.4843466237218248,0.5414572611022527
4.990000000000004,0.7480382240342577,-0.5546329291474001,-1.0011954995702623,0.9946480701359155,-0.044295213989769974,-0.09302029228528234,-0.08956196543773509,0.5087458468878809,-0.11768851285847177,0.5061574235173493,-0.4698133602325428,0.482455020135489,0.5387884658109331
5.0000000000000036,0.9440422444397071,-0.43301822442629956,-1.1914749857186637,0.9945884445557726,-0.03417727710807192,-0.09776904922685567,-0.1430400916617878,0.4731407589297234,-0.0860300339350998,0.512297878068134,-0.4689504630968848,0.4808325911364276,0.5351679392070756
5.010000000000003,1.139215978616283,-0.37756083974371113,-1.373391746777811,0.9945719908938518,-0.022655473972116397,-0.10147165839860743,-0.1698798600500519,0.42199441208354777,-0.04899569060701077,0.5189924571997754,-0.4683004904166808,0.4795399704102592,0.5304478936941508
5.020000000000003,1.3248430570096295,-0.42644689706733485,-1.5335377882231336,0.994334132178103,-0.009090911058352696,-0.10539053428329025,-0.13131232434720744,0.3984861365761073,-0.019187003996464096,0.5268934241469982,-0.4674616951585385,0.4783127679308315,0.5244272538831909
5.030000000000004,1.5020809688469454,-0.4915859069552736,-1.651320753120942,0.9938706303707937,0.0051832084910884285,-0.10990501545573929,-0.055486016893399305,0.38179904999016157,0.015954196988622077,0.5354030581700545,-0.46633141444676157,0.4770541767611258,0.5179142574693134
5.040000000000004,1.6687290385521132,-0.5667631920851948,-1.7124009877078112,0.9931179767672926,0.020202242755644924,-0.11522767378164209,0.06456469096256061,0.37129657061026994,0.05944935055596334,0.5446183221863337,-0.46481574547981536,0.4757436185027716,0.5108701059561237
5.050000000000003,1.8340855679540211,-0.6277778244661074,-1.7451327126558889,0.9918433204962334,0.03527888337550253,-0.12187706777097589,0.11429896070528868,0.36283086093140565,0.07621024791403709,0.5545975775358581,-0.46245711672055045,0.4745428422912416,0.5032633609174937
5.060000000000004,2.0138449698699525,-0.6797495690730034,-1.7757008111433468,0.9902723074782143,0.0503596125399794,-0.1291965043041442,0.1573695337196586,0.3557748687155961,0.08730196045077407,0.5649768834796937,-0.4596361029624889,0.4734245923730243,0.4952927115222838
5.070000000000004,2.214536136638115,-0.7206337169617557,-1.8070407357779377,0.9883458664636996,0.06543832930592744,-0.1372994354983177,0.20048562055481756,0.3504708219484424,0.09389249846018824,0.5758278378345809,-0.45626445186895376,0.472410200074623,0.48687486729515206
5.080000000000004,2.458746946021659,-0.774527167377723,-1.8001736457194717,0.9858840108353306,0.07985165385304445,-0.1466065129224241,0.21338078683292314,0.35209482006460757,0.10110792499152305,0.5873671005588982,-0.45174298816497127,0.4718190321405807,0.4776857666070469
5.090000000000003,2.689374172443684,-0.842610249603781,-1.7993625598745218,0.9831027368633486,0.0937502135187868,-0.1567842389090063,0.22486177922147416,0.3620890916052089,0.10719613015129167,0.599292741304695,-0.446498405991735,0.471413107612851,0.4681107345895694
5.100000000000003,2.893200432491579,-0.9297362204572396,-1.8133798316145342,0.9799299395367005,0.10698756736743828,-0.16806823979263785,0.23887421413845136,0.38343074067958266,0.11151762339115726,0.6116857548339765,-0.44035793078771124,0.47121698239327187,0.45808169414265454
5.110000000000004,2.9799440076800154,-1.0515265296094083,-1.92241921216424,0.9759408542870465,0.12012339067199325,-0.18140528454059082,0.24398102986261008,0.3621124100839477,0.12377057621150958,0.707733768789196,-0.2260915328896522,0.5669790134220435,0.18333295400789706
5.120000000000004,3.084436238118932,-1.122287893138865,-2.047178505902664,0.9714392487958893,0.13362399095039784,-0.19558042118220156,0.239440648350624,0.31099393235631007,0.1403038825098575,0.7730463415549476,-0.08087217615343317,0.6290026167850359,-0.006908823221752167
5.1300000000000034,3.2356515786266464,-1.109873311234929,-2.179653310878786,0.9662995254577791,0.14769438897633239,-0.21067735245201785,0.22179460056546269,0.2219588845480617,0.16197772132361604,0.7776254999894038,-0.07551162344429926,0.623659243305719,-0.024283747956983015
5.140000000000004,3.138743329433369,-1.4289208249044405,-2.5063746035395713,0.9590394161757122,0.16398471128829945,-0.23012108277534835,0.21184979679523142,0.1667704093862617,0.18156336574404228,0.7828848651794367,-0.07033157219476002,0.6163991461270363,-0.043846035314926673
5.150000000000004,3.038898509909224,-1.5703924795352366,-2.5806748827735824,0.9511787298622714,0.18028577212686533,-0.24990013076737955,0.2051977044065174,0.07604849543676359,0.23465218486564482,0.7879254236192658,-0.06579645177479668,0.6088429101454105,-0.06301758734029579
5.160000000000004,2.980196922543199,-1.3741410808211754,-2.2259319733975853,0.9427730847030277,0.19619452910774812,-0.26940065504727867,0.20225640060201533,-0.07626815646040519,0.34032108815328377,0.7924997663244676,-0.06223282466415187,0.6011784803131565,-0.08117737034651738
5.1700000000000035,3.067513798511292,-1.352429035190841,-2.2515834511177473,0.9344438158996696,0.20826196130036148,-0.2883334646530293,0.23628822663964677,0.029901231175359574,0.34924530687701627,0.7963916987127834,-0.05723519451632046,0.5937277224255434,-0.09875086470265772
5.180000000000003,3.0227890461130547,-1.3763457339318927,-2.352164696903781,0.9255203759972214,0.22049599671062303,-0.3074290307437796,0.21775269329485905,0.07716682812158568,0.34197232558204876,0.8000084570100355,-0.05259352834731305,0.5860764743068534,-0.11643547069849097
5.190000000000004,2.7366961968722183,-1.4379546484029082,-2.4955896623958296,0.9156287953678567,0.23377763524231002,-0.32690089090028407,0.10742468057258289,-0.02252676508605969,0.32838757286581527,0.8033226884441728,-0.04881393686318125,0.5780603698162757,-0.13441734355187893
5.200000000000004,2.4943368002983237,-1.5099541926510074,-2.4869640206109582,0.9045181953815012,0.24772596690067678,-0.3465385628066092,0.10931689268489149,-0.07234079276142386,0.35050950386928814,0.8063430719319999,-0.046757802572891236,0.5696519506401815,-0.15139289949233678
5.2100000000000035,2.2501634505033508,-1.5742316694381695,-2.456504619079532,0.8927747544682954,0.2616046622235126,-0.3663339210149219,0.1382302107208927,-0.11968561601337876,0.3606254123540232,0.8092626997226083,-0.04538715530537808,0.5610160728528217,-0.1677890520221936
5.220000000000004,1.9932266041352447,-1.6234493632491735,-2.4240006404504504,0.8802597473864359,0.2752195291842981,-0.38635235008571106,0.18664426522811597,-0.1741016905058554,0.3429584905632628,0.8120817754621548,-0.04476221378316503,0.5520926353449862,-0.18345426494027361
5.230000000000004,1.8070395162877735,-1.6740144303374176,-2.4019151698106858,0.86678138982479,0.28875014066944515,-0.40607622047446207,0.19110779612970827,-0.19669332443950324,0.34742258350182503,0.8147042000065877,-0.04537175989681003,0.5430076613000958,-0.1979365907250836
5.240000000000004,1.6130760238246422,-1.6955349886792834,-2.3818036709872423,0.8527837736066828,0.302316755124141,-0.4254941004404424,0.17592753121393787,-0.2202535135671018,0.36381541295035735,0.8171599492553269,-0.046568388135046344,0.5338988622132256,-0.21193966251661767
5.2500000000000036,1.388594150651532,-1.66741021069739,-2.3624941219250464,0.8381402522218987,0.31596511999250343,-0.4444645168449164,0.13814944560629303,-0.2532466332259808,0.39504630353476006,0.8193808216390924,-0.048459725810741615,0.5247891426400001,-0.22541848149742474
5.260000000000003,1.157071216708768,-1.6144364219355904,-2.2439790089589113,0.8232845562450553,0.3291700705639113,-0.4620241492822193,0.14016573449627898,-0.25610743660301866,0.4215745235910441,0.8212747065450535,-0.051186295509893974,0.516063905693922,-0.2375698977982143
5.270000000000004,0.9408310314153652,-1.5707294732205337,-2.10520815288236,0.8084974201315522,0.34202621666311556,-0.4786444699911064,0.13856756540605872,-0.25011879300181605,0.4480002903189545,0.8230134235299335,-0.05433425049138026,0.5076350796112457,-0.24885307125891662
5.280000000000004,0.7531994807989377,-1.5498786727609246,-1.9575743257241889,0.793886967287211,0.3543911340288053,-0.49399994546573806,0.11999635973534192,-0.2367220252406673,0.4755057804101448,0.8245683426310828,-0.05799546360157518,0.4996216411648495,-0.25897335162004587
5.290000000000004,0.572219054599762,-1.4170113392485837,-1.8890890226847115,0.7795564097450577,0.3662282602862172,-0.5078165682076916,0.10668545243568485,-0.25573566758660665,0.4825010777758729,0.8258744763000855,-0.0620926664291422,0.49213442840359,-0.2679480438967907
5.300000000000004,0.43956478422783174,-1.2800475597148788,-1.8282400093360156,0.7654863379999677,0.37789993792356597,-0.5206132405529835,0.08634212524248967,-0.2836948085989028,0.48061030681506733,0.826935520325134,-0.06633100582283484,0.4850446768521027,-0.2765086461116452
5.310000000000004,0.3919626749289546,-1.1683861696785496,-1.7580486677884388,0.7518035206790038,0.38942775235195126,-0.5320227906935522,0.05180518682143342,-0.31830235670705304,0.46870668709529284,0.8276279495983951,-0.07069622353284764,0.4785168931993691,-0.28465802141991353
