,seconds_elapsed,rotationRateX,rotationRateY,rotationRateZ,gravityX,gravityY,gravityZ,accelerationX,accelerationY,accelerationZ,quaternionW,quaternionX,quaternionY,quaternionZ
0,5.83974,1.1896823644638062,0.7817758917808533,2.1616756916046143,0.868776261806488,0.4248460829257965,-0.2544279992580414,0.3594494462013244,-0.1777605712413787,0.0389585494995117,0.7382955102822222,-0.0515609694611456,0.6083810240717129,-0.286589832102991
1,5.84974,0.9180346580311431,0.7298827512117212,2.159784085116431,0.8769729221974641,0.40861077234013327,-0.2526831810359446,0.38811951346591106,-0.18655400349401796,0.07425404887139862,0.7390794026518682,-0.04294599117546468,0.6097456144280822,-0.2830173879688921
2,5.85974,0.5128746666176961,0.6790179823999485,2.1430890095697417,0.8873097947195906,0.3878108483331085,-0.24937105935186427,0.3833143350136824,-0.19771788232968354,0.11115459388783856,0.7400916242441578,-0.032727176940312276,0.6117393581476012,-0.277386633548163
3,5.86974,0.04664039760107791,0.6474145077435518,2.113939457141812,0.8969992958600227,0.3681012604352832,-0.24454915225004042,0.33169054973802914,-0.20550148550887956,0.1305416325651905,0.7410252124555635,-0.02424575492814865,0.6141048589441961,-0.27045618083215783
4,5.87974,-0.4748402256079106,0.6090789182649475,2.0581431226434437,0.9060154562222709,0.3497753768362371,-0.2381450200420711,0.25177397589562645,-0.21451803888027485,0.13323236546261522,0.7418535102589544,-0.017761830587311907,0.6169311285452306,-0.2621304453213408
5,5.88974,-1.0433422187916028,0.5456132563400828,1.9639272715065674,0.9142497573108684,0.33322099998709703,-0.2303077184743626,0.17568002995571755,-0.22287792339741186,0.12310271017935559,0.7425977034150181,-0.013605240513524991,0.6202069932592749,-0.25235739692856424
6,5.89974,-1.5820657256311186,0.47445417240059506,1.8443375085473925,0.9216195014051333,0.3186892126194376,-0.22134995571507898,0.11451690960308054,-0.22752039801296764,0.10515398015757842,0.7432836522570115,-0.011942453885611671,0.6238427380181073,-0.24120761323491594
7,5.90974,-2.0369758624114174,0.4067348849711235,1.7240011367626018,0.9281522131564848,0.306104133564488,-0.21162140980114494,0.05223845446559633,-0.21978423952887072,0.08880941881598585,0.7438951200968141,-0.012589785514677394,0.6277163844162384,-0.22891721365973927
8,5.91974,-2.3850961751842363,0.33643376843989564,1.6240808153651873,0.9339544944857461,0.29509637385149545,-0.20150386578470766,-0.010644631026660287,-0.20190763832465877,0.04865021107212461,0.7444339802555305,-0.01516150343331565,0.631675468719677,-0.21572854271717035
9,5.92974,-2.588854543346044,0.2712801309423803,1.5423357100726098,0.9391482737214842,0.2851595057581335,-0.1914327887763378,-0.06732280315653491,-0.16225778238558775,0.0007714041256843968,0.7449157781312578,-0.019118235412490893,0.6355410739415966,-0.20194939263548836
10,5.93974,-2.676992522138028,0.22721981377031003,1.4677040791830107,0.9438347902280119,0.27591338863659526,-0.18169704137237386,-0.11222293322174737,-0.10175094448685476,-0.035718717693344906,0.7453093805101637,-0.023912169081444116,0.639197349585873,-0.18795927885066174
11,5.94974,-2.6845606947975527,0.2003624701779695,1.3944545610439065,0.9480998324734715,0.267126937053435,-0.17239363115457818,-0.15024518764586364,-0.04002153025650174,-0.06751101144388694,0.7455671567329544,-0.02913830501110815,0.6426098659198911,-0.1740505995210262
12,5.95974,-2.6412793801980947,0.18931666092140215,1.329704024833903,0.9520125812960921,0.2586529341944483,-0.16353411673131218,-0.1834316421492783,0.01662877780523412,-0.08336887511697717,0.7456563929396651,-0.03452158202404139,0.6457821836037889,-0.1604137293179987
13,5.96974,-2.559943169335647,0.1857238665369629,1.2750536070580127,0.9556308805403764,0.25036674716287594,-0.15511618322873935,-0.2033805194392747,0.06274180768015417,-0.07834040755997151,0.7455679981193843,-0.039862389953033074,0.6487270189755424,-0.14716474742536773
14,5.97974,-2.44159972150784,0.18490994354225732,1.2309206043635637,0.9590005598100677,0.24215499381281752,-0.14715896996665356,-0.2043629185300531,0.0972074174942806,-0.059655138040406785,0.7453127578505746,-0.044990347342752396,0.6514529257511936,-0.13439420809176572
15,5.98974,-2.2808893494157214,0.18290182170416694,1.2057733494509786,0.9621640464313019,0.23385191449565393,-0.13975593840160494,-0.19028662315427977,0.1265580824651995,-0.03803286988170519,0.7449328617167483,-0.049708683552389485,0.6539469195194231,-0.12218346757198252
16,5.99974,-2.0630551193981193,0.18643037137835616,1.1981520427428358,0.9651756316038169,0.2252351377232712,-0.1329807301621812,-0.1699938448664405,0.15502733729247456,-0.019842760136995118,0.7444660713570461,-0.053762860466556886,0.656213298195888,-0.11063077690415626
17,6.00974,-1.797755155207236,0.1926752268818806,1.208464565620148,0.968078473988932,0.21611451490973305,-0.12687619244125284,-0.15186559511970749,0.1838654537125785,-0.012262898894073365,0.7439422779574822,-0.05690484117413938,0.6582717349814472,-0.09984792500562113
18,6.01974,-1.5026149296831819,0.20672465828945163,1.235885124270024,0.9709100913727232,0.20631356910023557,-0.12143543762669667,-0.14179186145089226,0.21429458196418308,-0.016035386628661757,0.743383260046572,-0.058927430059896764,0.6601581438124217,-0.08990904112231023
19,6.02974,-1.1908691162867715,0.2285979215200501,1.274093861138133,0.9736884238996129,0.1957296607517749,-0.11660777884555773,-0.13718067813396845,0.2440186542288612,-0.02534449506237988,0.7428003063574338,-0.059696455509102,0.6619153445478763,-0.0808634773201369
20,6.03974,-0.8948762689084,0.25530996254028443,1.318655129200545,0.9764266518788444,0.18429190011837357,-0.1122590775831116,-0.1346242114881484,0.27035510431293336,-0.03536795787730085,0.7421845005884996,-0.05917881608589651,0.6636021339458061,-0.07267365763669259
21,6.04974,-0.6264040737055759,0.268866279879103,1.3628442958978475,0.979104827331247,0.17201781761905618,-0.10833236511438096,-0.13327118609122274,0.2933974212610216,-0.048725825968508024,0.7415518203982878,-0.057444719981353726,0.6652314673215333,-0.0652589641131513
22,6.05974,-0.42143421345358467,0.28658529520189285,1.4038250205802807,0.9816886627043367,0.15900942295651224,-0.10475426448595818,-0.12772710930477874,0.3115415245655729,-0.05862880673575055,0.7409120779596812,-0.054681530048695304,0.6668066176661931,-0.058475463482074407
23,6.06974,-0.28164808185737766,0.3358629520107984,1.4497214548199326,0.9841780522985298,0.1453483625693165,-0.1011686024640205,-0.12215162246843955,0.32271709499405365,-0.05891011628877052,0.740177455098637,-0.051128590686683774,0.6684302925405471,-0.05210880261156051
24,6.07974,-0.17504240588349979,0.40034903031403823,1.48665275536083,0.9865731342064068,0.13110106534783988,-0.09721713773049204,-0.11841807149860473,0.3283585719276863,-0.057951069874822986,0.7392471405981087,-0.04696501426661046,0.6702107430977433,-0.046004665941217264
25,6.08974,-0.07833743928940341,0.44430792669064867,1.514185136277614,0.9888322499131085,0.11639746298007786,-0.09287417485359419,-0.11878033575203178,0.3343375422745294,-0.06805033091144044,0.7381198352035285,-0.0423019034071693,0.6721379927312264,-0.040134226480260674
26,6.09974,0.018828575568378747,0.4623251696116885,1.5419150850438834,0.9909079256771857,0.10127812364274147,-0.08835038084793788,-0.10797492766342427,0.3466089370346963,-0.08886901031662903,0.7368722386307092,-0.03717144897441872,0.6741204951659463,-0.034488094556385386
27,6.10974,0.1075670293659194,0.47056559946298204,1.5558360534330076,0.9927593523227903,0.08584266247119882,-0.08378946261297794,-0.07876163612012871,0.36037190244959433,-0.10739688626024295,0.7355573461907532,-0.03162612165725719,0.6760915773173276,-0.029077371170001802
28,6.11974,0.17631697525169276,0.4796748194544579,1.5435538838776381,0.9943579950710122,0.07031705547930248,-0.0791759703388181,-0.050636573320092096,0.3787227606909902,-0.12257300757021414,0.7341736351450506,-0.025782785689726487,0.6780424980333668,-0.023936159508957888
29,6.12974,0.20349857460553322,0.4842530728413969,1.509551492904545,0.9956862611344929,0.05496843272358916,-0.0744969457101148,-0.04021460707973828,0.3963747622882627,-0.139406455515718,0.7327222242360503,-0.019834600804600117,0.6799650311396032,-0.01904663506914176
30,6.13974,0.1875584995563123,0.4920077086211738,1.4490061019195946,0.9967436073097389,0.04006497773896751,-0.06972921201375587,-0.043705557212446816,0.40992455401677885,-0.15123509391687587,0.7312013676672329,-0.01402079049844854,0.6818603322302814,-0.014343791593276933
31,6.14974,0.1349014562919729,0.4893674347441971,1.3590536693689592,0.9975395459850825,0.025927787008808392,-0.06489623392584817,-0.052467385342394486,0.42206013930376957,-0.15347448467096822,0.729622513307774,-0.008591587176060452,0.6837203517788624,-0.009792397922415635
32,6.15974,0.0604832168062274,0.4755459562835416,1.249852298529222,0.9980960679081682,0.0128236771587182,-0.060110409733307696,-0.058753105960539204,0.4283857171141677,-0.15567297473193578,0.7280269494092642,-0.003737348429209905,0.6855123785326105,-0.0053842618027690045
33,6.16974,-0.025363740324111546,0.4596276630874092,1.1187428930820853,0.9984503098638926,0.0009742993446375213,-0.055447200618563446,-0.05950350161580386,0.43381230026832174,-0.15600866113201026,0.7264430652927945,0.0004092076055355674,0.6872216471345556,-0.0011415877525704464
34,6.17974,-0.12428363029661663,0.4441694701735722,0.9795404110942612,0.9986491338776416,-0.00946980865899739,-0.050925411678882614,-0.059607946398207705,0.44311670962381144,-0.15904927030357044,0.7248804608693712,0.00375133125524523,0.6888551761707074,0.002925760784922863
35,6.18974,-0.23464715941586556,0.42716575315103655,0.8355303519164671,0.9987369528910667,-0.018442708992716647,-0.046599278419022803,-0.05702464587794309,0.45096778629833273,-0.16237052984731495,0.7233605737304538,0.0062213775647613385,0.6904061146413477,0.006837602919719545
36,6.19974,-0.3492527755795238,0.4085039245347196,0.692938294181769,0.9987556810071685,-0.025937934089717483,-0.04248455084533231,-0.04461900941111923,0.4579423586945234,-0.16313830836651308,0.7218915824760267,0.007794290497711894,0.6918789027088533,0.010611510047306856
37,6.20974,-0.46543291500222045,0.3804372403788303,0.5495981698028523,0.9987369837409943,-0.031980128949435395,-0.03866769436484116,-0.022475755131029795,0.4624223151725276,-0.16371485545399173,0.7205052421128437,0.008452155823875757,0.6932491889150664,0.014280118646891606
38,6.21974,-0.5803767955023421,0.3395282433253893,0.4131593273889783,0.9987053314841462,-0.0366063505680792,-0.03526287981966394,0.0024375411937896836,0.4665606769255461,-0.1622313065174809,0.7192432181390966,0.008210309268539571,0.6944788996284456,0.01785128968865452
39,6.22974,-0.6756489226549446,0.30434491770663635,0.26286768965478013,0.9986852080598659,-0.03977552981782372,-0.03230501820799081,0.019092941937954504,0.4717080094020795,-0.15846177762751784,0.7181215994333224,0.00709458760213816,0.6955550400782378,0.021266974599882277
40,6.23974,-0.7279619083720318,0.29095428330865253,0.09020935113577977,0.9987049258332918,-0.041328746138771286,-0.029655339798571913,0.017474684959279202,0.4795223102982796,-0.16078071977468927,0.7171003400782482,0.005152783897884004,0.6965235956925993,0.02436195434369621
41,6.24974,-0.7325460848544708,0.3177522757235283,-0.10021479273694679,0.9987925084725222,-0.041068041985000046,-0.026942306047898212,-0.005513378458592535,0.4896769701715791,-0.16210433834412988,0.7160630106858731,0.0024659033414657825,0.6975110452012596,0.026906534071591725
42,6.25974,-0.692566013274798,0.3542179608413879,-0.2723887233545049,0.9989532242230907,-0.038996936659900706,-0.023866385436362925,-0.033117780384104324,0.5027000793750763,-0.16054968609392084,0.7149176372369634,-0.0008012486416839517,0.6986162163425199,0.028729039806454686
43,6.26974,-0.6114912051738683,0.34845284414123356,-0.3998933999754751,0.9991575680852304,-0.03545923478200185,-0.02058184707578033,-0.025838004089000326,0.5219261915812214,-0.1588021132393286,0.7137246127881653,-0.00437291270556345,0.699777244489309,0.0297952049467597
44,6.27974,-0.49165844879650084,0.2966534408676104,-0.4934964660225486,0.9993675737813811,-0.030874774623641438,-0.017532303518821957,0.03825814390739547,0.5424607434982531,-0.16125084542833726,0.712641818326999,-0.007966444805097514,0.7008342871007337,0.030127121272419257
45,6.28974,-0.3206142650724749,0.23432778022407297,-0.5756152563444892,0.9995611412987173,-0.025459554755972388,-0.014999613905462245,0.12602582805953016,0.5649846698011104,-0.17004402881156697,0.7117729774709518,-0.011342172451091318,0.7016909133982333,0.029646321996366166
46,6.29974,-0.09452344461358306,0.17392847171932307,-0.6542391307842588,0.999726812937298,-0.019275641219581717,-0.013026867469671516,0.18431229354888273,0.5878055925123274,-0.19127164218576442,0.711139134545898,-0.014280867250284409,0.7023400947089111,0.02818209940079445
47,6.30974,0.16106679812576535,0.12682095635637525,-0.749971327458571,0.9998552889591124,-0.01226085758817104,-0.011530609928362329,0.18993808349068886,0.6052457694250611,-0.2275316779327311,0.7107115653096969,-0.016653467336305565,0.7028205492013674,0.025563114117795705
48,6.31974,0.42626815510493143,0.09699249533271088,-0.8606580336825824,0.9999331120786895,-0.0042494117328690136,-0.010402084367873782,0.16337023097579179,0.6136446290604082,-0.26074546729833964,0.710443538688293,-0.01844929647510407,0.7031772404212813,0.02166167830650584
49,6.32974,0.6842240037830589,0.07048979657903216,-0.9680900384585441,0.9999375965043567,0.00484475902393685,-0.009574703476981717,0.1320432794747502,0.6128026295621297,-0.27691790063948424,0.7102911856262195,-0.019699608509210778,0.7034375670807839,0.01644809858108241
50,6.33974,0.9229604581027965,0.03612522941035223,-1.0618249919669098,0.9998409998891801,0.014934688522561898,-0.009124779076018384,0.13037737352542453,0.6025359808959342,-0.2737369972991039,0.7102517115651997,-0.02042173772318977,0.7035769426022028,0.010002200602191515
51,6.34974,1.1579066388576291,-0.008560498053008798,-1.1407802159188565,0.9996162738368501,0.02586754227731894,-0.009214302044890432,0.17041434083431084,0.5883170589514145,-0.25345728521342825,0.7103483473990223,-0.02060540509358256,0.7035398101654351,0.00242089297417557
52,6.35974,1.382910462679668,-0.055374787923696184,-1.2178486720932158,0.99923855510442,0.037532104485217585,-0.009945239960423102,0.23848336147187685,0.5725112640110334,-0.22624402328203203,0.7105811328090605,-0.02023980619025283,0.7032906241858345,-0.006233979523924446
53,6.36974,1.6015701901468364,-0.10762831758681232,-1.2917026461325176,0.9986800782797383,0.049912326838296474,-0.011420111381009242,0.3031158394407548,0.5537209142814377,-0.19800304114294884,0.7109472959633997,-0.01935128224763201,0.7027911123030789,-0.01593504499228881
54,6.37974,1.8241512126267585,-0.1611540221496831,-1.3559641105434554,0.9979147283152756,0.06292361281790335,-0.01373612494153725,0.3534302726040707,0.5314377170383725,-0.17114911630314278,0.7114393362047435,-0.01793039456609624,0.7020043738116122,-0.02664715244867518
55,6.38974,2.0338667268323807,-0.2169768273947097,-1.4214397233129148,0.9969155703795931,0.07648699954332949,-0.016991980439835457,0.38697612469460335,0.5068767778748352,-0.15542101470934358,0.7120473367183137,-0.015968021789712804,0.700891204201847,-0.0383440729268944
56,6.39974,2.235660018571317,-0.2644145184734179,-1.5031053591590156,0.995645585754209,0.09065645964600993,-0.021192824914593775,0.39963643846442765,0.4764386832710579,-0.14563422202352191,0.712725388766073,-0.013536019999419141,0.6994422966900659,-0.051016120896945384
57,6.40974,2.4167524326852754,-0.3110161333668079,-1.5925594748926983,0.9940567496897048,0.10550916827694969,-0.02634687772509975,0.38632455897084356,0.44187184931965634,-0.13530067153241962,0.7134251047776079,-0.01072982057417578,0.6976462633304217,-0.06464927748428732
58,6.41974,2.559431927845304,-0.3752241775334115,-1.6894642048930348,0.9920932875433105,0.12108458166521642,-0.032583636153806994,0.3607577306523128,0.40457067414170944,-0.1271548388542563,0.7141455645757976,-0.007686330605940449,0.6954478514226047,-0.0791669692443753
59,6.42974,2.668816929252346,-0.4517953889997501,-1.7838650417437518,0.9896927154680909,0.13736727493510298,-0.04009242236714098,0.3425783155903965,0.36430828620529904,-0.12082103197482812,0.7149150568656178,-0.004555705450878482,0.6927708160211427,-0.09444808973781935
60,6.43974,2.73761294921554,-0.5413929864145316,-1.8808708734752186,0.9867844600454159,0.15433144087457773,-0.04902128833989835,0.3282747861863309,0.3208752389012056,-0.10819348037502563,0.7157563209942953,-0.001494513866235292,0.6895543991495446,-0.110362710928508
61,6.44974,2.776131530659035,-0.6263654671305757,-1.9841985551287307,0.9832853362473633,0.1719816823081083,-0.05943682942143349,0.3101670898126883,0.27045701191274535,-0.0882403259356764,0.7166672221395272,0.001351098726207175,0.6857679623145727,-0.1268142004360367
62,6.45974,2.7371703755304164,-0.7111495421738685,-2.092470958533488,0.9791413677091155,0.1902288928159006,-0.07107552728255385,0.28214011753692364,0.2195549529911789,-0.06607591591686743,0.717561096813478,0.0038149710329099086,0.681502392005548,-0.14359237309898112
63,6.46974,2.656722602700954,-0.7993357852742329,-2.202140803812461,0.9742553730864058,0.20915070852841283,-0.08387243304751463,0.24463305164479238,0.16312343630633402,-0.037486389772965,0.7184378705525182,0.005618586052615504,0.6767791194137818,-0.1604941632805729
64,6.47974,2.5434181345322266,-0.8840775742917705,-2.299230180203847,0.9685521180355567,0.22867952938930122,-0.09777681741656334,0.20402847762348905,0.11242363898749787,-0.00829450988172157,0.7193022310595754,0.006662561189829753,0.6716135921806329,-0.17739323843957425
65,6.48974,2.3936483782176956,-0.961642709977857,-2.3880095972614046,0.961979817472997,0.24871617082669747,-0.11260272640768773,0.1637480966913838,0.0585703575396687,0.021731126173049852,0.720134876216152,0.0068512525165271105,0.6660698982092734,-0.1941232640023127
66,6.49974,2.2488536292057657,-1.0251594226196534,-2.472919587109898,0.9544796551673973,0.26923152310458864,-0.12815752259430924,0.12600662678763877,0.005385051343191477,0.05225353617257472,0.7209012535258701,0.006139993173357527,0.6602126025847983,-0.21061381483411154
67,6.50974,2.1211283512332026,-1.0764650919690268,-2.53558079152417,0.9460363277423773,0.2900708451341886,-0.1442677395198103,0.09297186167913475,-0.036213862711081714,0.08277682660802554,0.7215601390759641,0.004632725525120535,0.6540959271870221,-0.226856662670534
68,6.51974,1.9912840554913902,-1.12254226542693,-2.581249464310992,0.936657598664434,0.3110421259953088,-0.16082026430565768,0.0644056430119011,-0.07221317649663558,0.10876200727239861,0.7221028269023934,0.002427941738775,0.6477502968145077,-0.24281274664402755
69,6.52974,1.874448052353897,-1.162113419109076,-2.6001250662710538,0.9263875321993503,0.33191735469063355,-0.1776926933671563,0.04682327966382488,-0.10140681340563387,0.13552071037338215,0.7225318505133089,-0.0003752871570571253,0.6412095285876744,-0.2584102524000075
70,6.53974,1.7534107513310524,-1.195657323605544,-2.6018432133339164,0.9152799260190645,0.35251009414854323,-0.1947760306178869,0.03467169442490334,-0.1280827954159085,0.1635312636945201,0.7228526461654096,-0.003685903460908525,0.6345031616825165,-0.2735968611051646
71,6.54974,1.6241854335690842,-1.2278652656080082,-2.583462878240396,0.9034021781632389,0.37267181768455476,-0.21194318235117368,0.02671950170269566,-0.1565849510153345,0.18754473949183997,0.7230886006963009,-0.007475563424399735,0.6276688102712079,-0.2882690598037441
72,6.55974,1.4906092849448151,-1.2568170739814244,-2.5538233308937768,0.8908223584851106,0.39231455332095794,-0.22905642403883877,0.023094585435190246,-0.1845237857054609,0.20937959093496256,0.7232477825329642,-0.011708761348836886,0.6207496313502974,-0.3023693220229542
73,6.56974,1.357059068005959,-1.2840023140013974,-2.5104411051623727,0.8776120646856473,0.41134857763751986,-0.24603608672239302,0.02406123696191249,-0.20664106235107285,0.22989968444221756,0.7233573949957087,-0.016345368197203516,0.6137670778224098,-0.3158478851326876
74,6.57974,1.2154356149774763,-1.3189387001716473,-2.4517687490477966,0.863855934391841,0.42969584256649046,-0.26279573384883786,0.027035274408007303,-0.22688386852423534,0.24822998128870194,0.7234559125448995,-0.021366666709916986,0.606745992107254,-0.32863159800012726
75,6.58974,1.0649906145090378,-1.34645774786929,-2.381671337692299,0.8496337646231658,0.4473212333383919,-0.27924272043275233,0.031248385914854893,-0.24222210587001683,0.2678622503322304,0.7235740456081671,-0.026761697484985587,0.5997144830335993,-0.34066519576733495
76,6.59974,0.9013256100940882,-1.371766400273858,-2.3039706575068615,0.8350312778173489,0.46424401363882434,-0.2952184532116631,0.03324344546147563,-0.25940937689370747,0.28504759804484525,0.7237234970916052,-0.03254320248177632,0.5927281373961725,-0.35188891279458673
77,6.60974,0.715699486272658,-1.377346763249329,-2.2156713394997,0.8201766856571528,0.4805076657652759,-0.3104513256444172,0.029609704200319924,-0.2782188684145435,0.30243601645745494,0.723889557110368,-0.038730019701248106,0.585891851701352,-0.36221988220457374
78,6.61974,0.5154767355809137,-1.3680771587154321,-2.1124476324679056,0.8052296392266812,0.49615299817346925,-0.32465233394534626,0.023806334931074515,-0.2994635556786183,0.3229376393646012,0.7240551438638265,-0.04532855878944719,0.5793221779487745,-0.3715714005041203
79,6.62974,0.3076375861893417,-1.352563038826409,-1.9957883775395857,0.7903446972053907,0.511195583716228,-0.3376393133135222,0.0289705297808179,-0.3191113011847564,0.347010568537864,0.7242247436637853,-0.05231646988270558,0.5730955327217945,-0.3798872458199137
80,6.63974,0.09672350136982258,-1.33088795722883,-1.8685102514972671,0.7756455576071812,0.5256655812434435,-0.34931340034305886,0.040319552827578736,-0.3379931513597171,0.37569211092232146,0.7244240868462486,-0.05968692838508532,0.5672530921158034,-0.3871222321636215
81,6.64974,-0.10502635956800653,-1.3005330350039999,-1.7301362534476885,0.7613550034218833,0.5395218028852555,-0.359484977299453,0.06253691870435343,-0.35518639932151347,0.4035698546093225,0.7246436171004323,-0.06735759543481237,0.5618861062879064,-0.3932331156319015
82,6.65974,-0.2943549251071561,-1.255182641569264,-1.5773373193200593,0.7476444449834312,0.5527490620575175,-0.3680694916105964,0.08258511493087288,-0.3689813413553484,0.42792744419406403,0.7248809266124258,-0.07525087847044867,0.5570443164933181,-0.3982226784933112
83,6.66974,-0.4668953530874019,-1.2014988758329304,-1.4150662099239697,0.7347037959479236,0.5652694691435884,-0.375051345672034,0.09845795522299368,-0.37833238977861067,0.4475839331379833,0.725145110523162,-0.08325004915568325,0.5527566485983566,-0.4021065088777019
84,6.67974,-0.6167981986836586,-1.1438555607195746,-1.2388431689064026,0.7226820209014321,0.5770047118269046,-0.3805025190395888,0.11115352108294971,-0.38469669889879826,0.4625362260753649,0.7254587918793999,-0.09124534027363385,0.5490168966469015,-0.40492009651335986
85,6.68974,-0.7410811565131539,-1.087844514819965,-1.0557993080829187,0.7117265017897363,0.5878316618590745,-0.38456297099540704,0.1239720762899044,-0.38811008891805887,0.47277868477601465,0.7258645239394789,-0.0991136483923379,0.5457947652413208,-0.40669654766634505
86,6.69974,-0.8508021555721329,-1.0299861707804516,-0.869677519581336,0.7019364256437788,0.597711963974008,-0.38732094216852037,0.13947334452316365,-0.38966227511326645,0.47807117655789444,0.7263761271318608,-0.10678130248708977,0.543078831468243,-0.40747771934267824
87,6.70974,-0.9538025181108988,-0.9690025307168034,-0.6812340928198719,0.6933868573019173,0.6066274497732216,-0.38885972328579954,0.15623968901732418,-0.3905195242935169,0.4754487596672257,0.7270064672032983,-0.11419939384584155,0.5408570462776733,-0.4072976837980901
88,6.71974,-1.0446282542048,-0.8993914089497295,-0.4901003916725487,0.6861685003889122,0.6145674809807156,-0.38919854630723416,0.17700582754028227,-0.3890045322045271,0.4717035394082092,0.7277465632383747,-0.12132147634654684,0.5391473759871399,-0.40618244850523155
89,6.72974,-1.1234422877034016,-0.8178179159872963,-0.3068801203344353,0.6803663501008251,0.6215019280821926,-0.3883736643749543,0.19929520265101378,-0.3852634633446805,0.4722706732436995,0.7285787446110362,-0.12808093954270477,0.5379654612168745,-0.40417769729825714
90,6.73974,-1.1880357631419058,-0.7272432067027763,-0.1323783227024325,0.6760012128926044,0.6274740735855704,-0.3863894421610373,0.22876945167259904,-0.3835527137409313,0.4713613173205498,0.7294553156373833,-0.1344463907188215,0.5373342985674943,-0.4013594122489221
91,6.74974,-1.2413757391069542,-0.6356058863554214,0.0315223078082941,0.67306204261051,0.6324932554714611,-0.3833256023663246,0.2609864620914826,-0.381785392064941,0.46904216303930263,0.7303477957534185,-0.14037772693732165,0.5372431917179276,-0.39781222052571374
92,6.75974,-1.2716373284471463,-0.5425144971353826,0.18382582943875425,0.6714840137020571,0.6365799637256963,-0.3793075808430001,0.2953436019591521,-0.3799564872330434,0.46571385663717596,0.7312417338098756,-0.14585799985967776,0.5376530751129849,-0.39362265061728047
93,6.76974,-1.284091034602041,-0.4628529730057482,0.32387980550021545,0.6712233135575725,0.639688381431375,-0.37450930972482716,0.3255734887244693,-0.3802232152133449,0.4558971610290038,0.7321392696641121,-0.1508302701038996,0.5385117764267202,-0.3888780711978362
94,6.77974,-1.2747878670320758,-0.3861651031066997,0.4341345714702445,0.6720812981912491,0.6418968682852656,-0.3691536871367169,0.3420294677947193,-0.3840287088563052,0.44157212574434446,0.7330366843451385,-0.15531503606002153,0.5397220609036301,-0.3837102275223133
95,6.78974,-1.2366617129758344,-0.26349881702744177,0.5384403015239309,0.673997447440285,0.6432348164304765,-0.36328432437814423,0.3359291079744091,-0.38655697325780825,0.421451664997642,0.733863545303945,-0.15924521236992656,0.5412932991936329,-0.37826673667772187
96,6.79974,-1.1843493612084572,-0.0938459488257225,0.6650803201080627,0.6771998292602399,0.6435528741606076,-0.3567055859566259,0.29963661659990753,-0.3838166883952326,0.3943297587307758,0.7345040447376109,-0.16241219769464588,0.5433867997314227,-0.372633648085082
97,6.80974,-1.1076250696147263,0.07160063047717102,0.8360391268563008,0.6819772163885303,0.6425062594662673,-0.3494156652216795,0.2575311330320481,-0.3768581909624679,0.35746188177192206,0.7349814780686987,-0.16459886653689929,0.5460761778965164,-0.3667551643210089
98,6.81974,-1.0390424491669217,0.21495067866974027,1.0306913343106208,0.6884509425101893,0.639835675033664,-0.3415316846054719,0.267643733816292,-0.3654705313159489,0.3213803878921726,0.7353904171022726,-0.16573411162304025,0.5493325006053278,-0.3605081528126906
99,6.82974,-0.9448090479532072,0.3437239379804653,1.2514620748483214,0.6966485607657608,0.635305642140092,-0.33326518624557794,0.3456668413037563,-0.34644660403003064,0.30499198166284974,0.7358301675207,-0.16575247590348224,0.5530762750089669,-0.3538163705805019
100,6.83974,-0.8243167136866938,0.45415574219251353,1.497744422835792,0.7066449340644843,0.6285848128573928,-0.3248566819381967,0.4485825950716188,-0.32181088876299563,0.30983487440606516,0.7363903560996735,-0.16449732058166153,0.5572361356587462,-0.3466366175601615
101,6.84974,-0.7045872745335569,0.5307211405149059,1.7473542662461632,0.718374295417073,0.6194566403158348,-0.3165591917444474,0.5365719349818003,-0.29757390841992826,0.308589714750641,0.737165999744183,-0.16191659967577895,0.5616967377179348,-0.33891806325528906
102,6.85974,-0.5848673853308802,0.5551184597422627,1.957188796396615,0.7314752668715983,0.6080070986197561,-0.3086573315798014,0.5876265185045898,-0.2759640532086579,0.28626716344140263,0.7382215032982741,-0.15814017160322066,0.5662710088218181,-0.3306919665956313
103,6.86974,-0.4582044375953346,0.6017903325669856,2.1112409026387877,0.745491457146162,0.5945466182653286,-0.3012571585335912,0.5791720496256278,-0.25689857655863096,0.24355934201932927,0.7395010917437337,-0.15333181177266075,0.5708420703943383,-0.3221282983253588
104,6.87974,-0.3363906350343754,0.7047746332921355,2.21445633970742,0.760145737046903,0.5794169869844727,-0.29403112168795126,0.47860575067639277,-0.25141264858821094,0.1780728103861885,0.7407795500615802,-0.14755446548593465,0.5755102988698273,-0.3134664306467196
105,6.88974,-0.25273596799362713,0.8168141194667087,2.2562432918171464,0.7751521124641653,0.5630775741113593,-0.2864987244933549,0.3029566291521742,-0.25744651926542206,0.09805468658107494,0.7418285587654386,-0.14099846020079676,0.5804049496014345,-0.3048599350986071
106,6.89974,-0.14505779877933586,0.93474375374709,2.2432993104331707,0.7901262177713153,0.5460215948928113,-0.278492378411527,0.1368322376285101,-0.2551479448650638,0.02930069853687532,0.7425168674803284,-0.13387267258825541,0.5855181719121273,-0.2965036671669375
107,6.90974,0.032374515703145645,1.0506391784615974,2.232098058862289,0.8048654529730117,0.5283519628164328,-0.2702436694887379,0.038678185577185775,-0.23159759081916506,-0.012750130952799166,0.7428267454759466,-0.1260657470255153,0.5907494259062896,-0.2886693356677879
108,6.91974,0.26189898793193506,1.145527182668046,2.247444888235906,0.8194111131981757,0.5097963411318064,-0.2620441717899757,0.012481930694092931,-0.19067476299303485,-0.04574286743415814,0.7428360146043497,-0.11732451567980066,0.5959964391459118,-0.28145402732379954
109,6.92974,0.5282542208246882,1.1976129850090984,2.273787704350566,0.8337391515019347,0.4901009627066776,-0.25430738399254976,0.044752327439007644,-0.14138169838488118,-0.06691509455750234,0.742686434136188,-0.10746684756010105,0.6010786697478872,-0.2749001372649046
110,6.93974,0.7804397125820604,1.212936287982952,2.2948687837956165,0.8477219855903215,0.4692476826143104,-0.2473140871301218,0.11142376811734094,-0.09876157596619174,-0.08663895593141371,0.7424865100243511,-0.09649390619845795,0.6058297474767266,-0.26901732077408114
111,6.94974,0.9914107325660476,1.2030593096015245,2.3074294699426643,0.8612243549154092,0.4474124216068009,-0.24104641531396054,0.1872390074294166,-0.07694639588002758,-0.10358207869128865,0.7422737056500203,-0.08458454968557917,0.6101798852164636,-0.2637281068257619
112,6.95974,1.1172294943264895,1.1536491598707432,2.3246581348616524,0.8741383105307284,0.42478581447961306,-0.23542797256885886,0.2549067995979176,-0.06770570328755657,-0.10569023757955612,0.7421003715486089,-0.0720134064055992,0.6140821331341672,-0.2588448625040398
113,6.96974,1.1553320012179655,1.0790144912423247,2.32035814420364,0.8863474235956632,0.4016607181068787,-0.2303104880818432,0.2986719821291889,-0.062257855562531,-0.09209837643470453,0.7420164161561613,-0.05918697620019534,0.6175258476236104,-0.2540993914619652
114,6.97974,1.1156854571683859,1.011715257023716,2.292605905618251,0.8977288493037549,0.3784800112037453,-0.22543460126400539,0.3131150151810129,-0.06378551788508122,-0.0642966622295355,0.7419872467348274,-0.046501949290981545,0.6205776858916812,-0.2493425982601785
115,6.98974,1.0157536121398545,0.9608108402286353,2.257872833971414,0.9082783725816531,0.3555423752588096,-0.22046440196442493,0.2962314392389477,-0.06500813847663359,-0.03056850091747076,0.7419497462977587,-0.03424178671421887,0.6233712772794129,-0.24442226790354524
116,6.99974,0.8546726931602899,0.9257330466333664,2.2113131042458622,0.9180267033104749,0.33308845243541835,-0.21508839227710932,0.24118960981308793,-0.06010479119044179,0.0016774231575690675,0.741838951582171,-0.02263426626587287,0.6260512684029084,-0.2392034200948606
117,7.00974,0.6190630864945844,0.8803114635110219,2.143469829908474,0.9269647071117185,0.3114066247464003,-0.20915770085398744,0.17108808517064975,-0.05417344689655097,0.0296071789608464,0.7416468725903981,-0.011972627086314285,0.6287090313435209,-0.23353296337425355
118,7.01974,0.2691323248954398,0.8119906320522561,2.050562329797421,0.9350352264850819,0.2909327282641821,-0.20261534550487173,0.10639317601284831,-0.05320968239689979,0.04421710894655989,0.7414096169018871,-0.0027143653559636386,0.6314134589430953,-0.22719579223646985
119,7.02974,-0.15287169868424377,0.7311397908609351,1.9316663164937853,0.9421837386807832,0.27209101599333074,-0.19555858940703616,0.04969930519865699,-0.06612807887825412,0.044291553465634154,0.7412034893139754,0.0046781749496001635,0.6341904819104748,-0.21998713384859803
120,7.03974,-0.6038076041915446,0.6672320335658367,1.7919633822683674,0.9484341529063878,0.25520368578325353,-0.18796871674970744,-0.010037402948799866,-0.08773533633287435,0.04388212856098952,0.7410136887412341,0.009945350941263675,0.6371153910884605,-0.21184932164234657
121,7.04974,-1.0372861625591256,0.6074914452762201,1.65878875306377,0.9538798484021984,0.24031289168906603,-0.1798686384302792,-0.07733026356498188,-0.11415423349278923,0.01911771710390523,0.7408151939603561,0.01305872673739929,0.640230181647768,-0.20278917740622932
122,7.05974,-1.3810380605028831,0.5525557056511831,1.5435037961035887,0.9586435447234095,0.227125930910953,-0.17148569514248133,-0.1340580266680518,-0.12366767599187711,-0.014389168224061397,0.7406220646357414,0.014275571297592026,0.6434694442975738,-0.1929184670732825
123,7.06974,-1.6368015361495638,0.5004709364535528,1.4297625801805727,0.9628166697266655,0.2153614469435122,-0.16308051257770564,-0.17128498248422597,-0.09896889881761073,-0.034370929130089954,0.7404284933887575,0.013961351916306815,0.6467335582456512,-0.18248562418433545
124,7.07974,-1.8097257086442942,0.4586047006152279,1.3295080754809454,0.9664727766944448,0.2048050089961633,-0.15484772123954374,-0.19261153299692949,-0.04864127087514385,-0.04921456766758708,0.7402161811535066,0.012461082512082033,0.6499385922423317,-0.17175152075930655
125,7.08974,-1.94577470254614,0.4267083439365331,1.2407755172909312,0.9697101347710196,0.19520692040246063,-0.14679771673448355,-0.20106217642971805,0.006831799467143665,-0.05709329026345177,0.7399472691648882,0.010052118205454097,0.6530690671472634,-0.16084533217857233
126,7.09974,-2.057702499453314,0.40174192950610216,1.158268559565777,0.9725907718121792,0.18642300466935185,-0.1389503657056411,-0.20068416086449173,0.05513191932645647,-0.05859913051395328,0.73960863079684,0.006881575575256364,0.6561069623866419,-0.14982744772295917
127,7.10974,-2.141052051387928,0.3782514659527233,1.0837586595381667,0.9751620416033199,0.17834408295244694,-0.1313248924732058,-0.19159077433793456,0.0934535608564143,-0.05603836527752482,0.7391898482438379,0.003076740805328713,0.6590347238153442,-0.13876053700377008
128,7.11974,-2.176582564094197,0.3555334732568145,1.027507402559858,0.9774691998191012,0.1708211367177568,-0.12396877674545469,-0.17342560216043726,0.1222418651196358,-0.04886923170444043,0.7386903723923127,-0.0011893011385142585,0.6618253506653915,-0.12772809163983068
129,7.12974,-2.143341843733813,0.33756967186151854,0.9972824680313387,0.979574775587869,0.1635337850864381,-0.11697955514350512,-0.14991600604727773,0.14395306348917336,-0.04929573057722667,0.7381293871689993,-0.005614731984647014,0.6644376333500989,-0.11682671713483733
130,7.13974,-2.029799945544715,0.3316727389584523,0.9876384967638613,0.9815379012972025,0.15619053549679296,-0.11037162478597588,-0.12503097472382768,0.17424507939787867,-0.04431693627986592,0.7374937478801693,-0.00984626401381214,0.6668704157623527,-0.10622029898649105
131,7.14974,-1.8469194883214077,0.3274723524496574,0.9912303579902378,0.9833987506192164,0.14855743679817526,-0.10417037029632217,-0.10656630484860487,0.21111156561765282,-0.045979206654447984,0.7367782785364686,-0.013530594147038633,0.6691270241075205,-0.09611174248654038
132,7.15974,-1.6124385035448436,0.32410967674792707,1.0045870980690177,0.9851717472834876,0.14048414784543706,-0.09845948848346002,-0.09199918982828897,0.2488729575968979,-0.059370746596052355,0.7360128037702185,-0.016409015449157342,0.6711933667406301,-0.08666049045855971
133,7.16974,-1.3641489191333207,0.3263856789343544,1.0283797820638643,0.986869177374509,0.13188076709125293,-0.09321897679613558,-0.07929900974057122,0.28874866088682705,-0.0745622896237117,0.7352075969074613,-0.018332619167354448,0.6730929826535811,-0.07794324798711916
134,7.17974,-1.1255768215477508,0.3310835056474123,1.047239770114604,0.9884885627902825,0.12276692934248053,-0.08838094229012948,-0.07064253252027793,0.3231206106840282,-0.0932813682107344,0.7343644388167938,-0.019288020439442763,0.6748609608869502,-0.0699697250297205
135,7.18974,-0.9054505870044941,0.3451079903209745,1.0624822105504144,0.9900237741523316,0.11320631225838741,-0.08383928011881696,-0.06807284772953252,0.34789558647102525,-0.11434278132062797,0.7334745252893998,-0.019337142042861112,0.6765398895497889,-0.06270220852180355
136,7.19974,-0.7209357924789869,0.3639405365150214,1.0719543232586644,0.9914688626458419,0.10328691039988228,-0.07945240746109503,-0.07414099010282181,0.3624109033129208,-0.1314632285394464,0.7325160708047914,-0.018592547228603252,0.6781797715104814,-0.05606877352624683
137,7.20974,-0.5662076820905263,0.38029608994682945,1.0789399322843325,0.9928130472474823,0.09310325319782996,-0.07513195934216188,-0.08236059969739165,0.3718284751564784,-0.14933492528074155,0.7314813974483346,-0.017186602090529128,0.6798074645662625,-0.04998540205273373
138,7.21974,-0.42763157947321145,0.40265704226309884,1.0798747824342523,0.994048001111013,0.08273390983496037,-0.070809416751456,-0.08719865149120257,0.37716401799615124,-0.16179326743564962,0.730364632341521,-0.015227207189879471,0.681441709064721,-0.04438524747029978
139,7.22974,-0.3017439072100114,0.43337939762151856,1.060856854116846,0.9951656305070525,0.07232706586891383,-0.0663656303813101,-0.08903429289319462,0.38173905817021536,-0.1686781715082353,0.729135905118401,-0.012810513776186675,0.6831195285546344,-0.039265828022927135
140,7.23974,-0.19306886451685132,0.45573307675584873,1.0278955924669353,0.9961527288275396,0.062070974969504894,-0.06178537453049005,-0.09304056423944085,0.3832396217010077,-0.17548671400172186,0.7277988395394697,-0.010046981858330084,0.6848397281882617,-0.03464101629755955
141,7.24974,-0.10747694610822042,0.4665663936616137,0.9870317251061467,0.9970028102685827,0.05211525778249633,-0.05710079158435288,-0.09754083025979665,0.3836866760616492,-0.18287170775692158,0.7263744159960036,-0.007057609370315055,0.6865848738613263,-0.030486131424932415
142,7.25974,-0.038906139503383834,0.47533905405412513,0.9353130615188463,0.9977158996203533,0.042567677024043474,-0.05236898233473,-0.09916753355071138,0.39055344752696924,-0.19220963573173377,0.7248909909840683,-0.0039448658275457954,0.6883305242323667,-0.026766682692536334
143,7.26974,0.0028512263589959195,0.47660866991372847,0.8683403906635675,0.9982985840141401,0.03356789969065581,-0.04759867813826437,-0.1007364470603362,0.3966567194311887,-0.2007889995219768,0.7233591016215986,-0.0008278789219148361,0.6900717247554626,-0.023454280402988924
144,7.27974,0.024866479850722687,0.46606111967411856,0.8031176906353783,0.99875805725476,0.025216192279874955,-0.04289349657225999,-0.09700607993978504,0.39879733281493246,-0.21318560969952122,0.7218216047391887,0.002165249051854988,0.691771387809966,-0.020485130560153005
145,7.28974,0.04571477158828777,0.44955693252273254,0.727877280773851,0.9991078668205186,0.0175488446530866,-0.03833558715920927,-0.09251151778208075,0.39972791573919464,-0.22175425292537404,0.7203117548376262,0.004987863202136455,0.693402132811203,-0.017835566276030765
146,7.29974,0.06169892002521624,0.4309627919208514,0.6418729146904681,0.9993642797656104,0.010689253096208476,-0.03393836186476058,-0.08916126214987048,0.4013422721363271,-0.2309427328664276,0.7188373075416079,0.007589411603365522,0.6949622423682855,-0.015540602638532899
147,7.30974,0.08109981517033418,0.4080063213510027,0.5530006278574023,0.9995444878013579,0.00470125096188777,-0.02974547160948816,-0.08929292368397634,0.40885069016148196,-0.2437284525615878,0.7174164980485639,0.00995947424773928,0.6964391434062648,-0.013634569705058091
148,7.31974,0.09893400927047964,0.3751405839328268,0.4611200006085863,0.999664953293241,-0.00039270934774395303,-0.025829415289726865,-0.08083756066212355,0.41954414947264984,-0.252400797757192,0.7160780029204366,0.012082984259347725,0.6978100285649497,-0.012117813224098993
149,7.32974,0.08911560910891791,0.3210312054402909,0.36527608173204523,0.9997393883818346,-0.004546175885122306,-0.022335426086451355,-0.06003012293102446,0.42955942065989555,-0.2612601481900892,0.7148759427989683,0.013892037064858817,0.6990271848676156,-0.010955149473477551
150,7.33974,0.04400012934323792,0.2664559036430588,0.26197400755795197,0.9997814646246208,-0.007707795755841662,-0.019405952566085804,-0.02915719363699079,0.43512877166074304,-0.26227669630128847,0.7138640417879103,0.015253182616484133,0.7000458763214953,-0.010049047383542394
151,7.34974,-0.042001800967235284,0.22525239062927147,0.13605990293000364,0.9998083821576945,-0.009708256472029143,-0.016982627724951006,-0.008029657704826275,0.4301691544410105,-0.25287284253294845,0.7130246419469884,0.01598102383486539,0.7008945962993419,-0.0093320455276001
152,7.35974,-0.15814072422838882,0.2129800830768987,-0.009345942626798987,0.9998365745089136,-0.010322477418105346,-0.014831777517883974,-0.00723310401714734,0.41589510167361976,-0.23960736163228452,0.7122775624113854,0.01586511708559984,0.7016639199797546,-0.008749543389236527
153,7.36974,-0.29716983843817096,0.20879191601585065,-0.1473734414777032,0.9998733631031317,-0.009492977869192882,-0.012749256753198096,-0.015468848602166222,0.39796442283952943,-0.22328182966056045,0.7115526194822598,0.014782608211990594,0.7024289389553274,-0.008217621740500166
154,7.37974,-0.4204856665206628,0.1952436905763257,-0.2616271973896035,0.9999145112607424,-0.007382393229021226,-0.010738841454737037,-0.0016311555394604143,0.3855566063828271,-0.20420782336356477,0.710852021085775,0.012777579034203197,0.7031831436421808,-0.007667959176123397
155,7.38974,-0.5118166544923305,0.1436926894393249,-0.3451716339425356,0.9999491014663685,-0.004285659544564004,-0.009053021216002221,0.05482269727473353,0.38264079625812125,-0.1864488617806504,0.7102648570293068,0.010047493488159547,0.7038262853221802,-0.007095089125568017
156,7.39974,-0.5667913235973603,0.05491233146506053,-0.40718716779370456,0.9999666324334132,-0.0004713276818148495,-0.008043140035281348,0.14970064995432913,0.3932307688791325,-0.18247213511041566,0.7099148535128927,0.006800823987964587,0.7042235675310411,-0.006521178313604281
157,7.40974,-0.5686280048588729,-0.05309544842006536,-0.46539241282093674,0.9999588041680607,0.003944679978006144,-0.008006481495818434,0.2457568511082781,0.41433672071787003,-0.19284460168219683,0.7099059698640228,0.0032349087036470225,0.7042618971786894,-0.006061224023228082
158,7.41974,-0.5057603906135937,-0.15081780982050788,-0.5344635773163646,0.9999170389876914,0.008980726011944109,-0.009004168236720332,0.30216735444078013,0.4422400808311598,-0.21039592967966617,0.710258210102711,-0.0004401280359975871,0.7039149034568674,-0.005934718406825987
159,7.42974,-0.3839498115629679,-0.21203019195439451,-0.6393113063097222,0.9998278284592167,0.014883567809002587,-0.010808929471172074,0.3010064487900471,0.4643405465900354,-0.23610440824170859,0.7108886629064275,-0.004099179412086382,0.7032618542023509,-0.006437918301939466
160,7.43974,-0.21038740922729374,-0.2234478542999347,-0.770923889592043,0.9996708860087197,0.021952892697613247,-0.012953037876154918,0.24375726817690938,0.472090673865139,-0.2625238209872704,0.7116274356382761,-0.0076446701878045645,0.7024696897691689,-0.007881098075949207
161,7.44974,0.0031360244749750743,-0.2186319268137038,-0.8998170219402957,0.9994195529960381,0.03033325665412501,-0.015148860839932015,0.16942404572878803,0.47807927546556006,-0.26739855556635045,0.7123643586758627,-0.010970950572174003,0.7016438526271321,-0.010477430778472695
162,7.45974,0.2617377765057914,-0.23212371709877103,-1.0068578101341097,0.9990459931876993,0.03986770173009188,-0.017441099093602738,0.13709995122448623,0.48712011869544436,-0.24512440842635905,0.7131003788113535,-0.013871866621970015,0.7007754685004598,-0.01433007783208187
163,7.46974,0.5629408225434342,-0.2607647479316466,-1.0990290562620229,0.9985223925976279,0.05033285829222446,-0.020090442241579923,0.17659329029187118,0.4977670570293254,-0.20800112336031765,0.7139043120088788,-0.016122946922150643,0.699781675134148,-0.01951592251851905
164,7.47974,0.8986574244912623,-0.27991655938907556,-1.1765196800890028,0.997825109413932,0.06154456209471768,-0.023219887157850512,0.26625010414030487,0.5042505298878969,-0.17087955595956358,0.7147871224543114,-0.017531659465197476,0.6986289868480732,-0.026111181936607834
165,7.48974,1.2644356923602196,-0.2977711590594367,-1.241587483629354,0.996935171817348,0.07334347433354883,-0.026847853714135745,0.3515966437087352,0.5096430670559301,-0.13910953370588786,0.7157125023449129,-0.01793151200461954,0.697319317819642,-0.03418760418068895
166,7.49974,1.6388616019129394,-0.3268611113712721,-1.291355180178122,0.9958373307607041,0.0855399357547659,-0.031119295930253088,0.409580185522353,0.5148396477068079,-0.1156550803142383,0.716680366070287,-0.017203275013466753,0.6958043193525536,-0.04375267371548168
167,7.50974,1.9936950573516952,-0.37329244171048964,-1.342153899016966,0.9945094201638591,0.09802149503596878,-0.03629482739814845,0.45102111341879536,0.5137726091523508,-0.10140674178468723,0.7177253673282429,-0.015340759846361235,0.6939854079080318,-0.05476184385838344
168,7.51974,2.3070639104007293,-0.41465437486177287,-1.4104159017882618,0.9929155362286302,0.11083822137841837,-0.04248252124671099,0.47710929891948367,0.5001744577692901,-0.08877054237355006,0.7188264225007621,-0.012494374325852172,0.6918094345013144,-0.067131950412811
169,7.52974,2.549621317437679,-0.4461254832113627,-1.490469007647142,0.9910115502378603,0.12410090517274304,-0.04961699972141561,0.47546269037632205,0.4736431369747651,-0.0701322186631755,0.7199066504716514,-0.008914221909124933,0.6892814604529801,-0.08072021043817333
170,7.53974,2.720778575657016,-0.5170814266799303,-1.5769733037986446,0.9887341528861662,0.13790012710545863,-0.057870175051818316,0.4532976585555704,0.4376346752563169,-0.04811293126373442,0.720984266756521,-0.004905619387508514,0.6863214023854405,-0.0953207483758645
171,7.54974,2.8181779623249814,-0.6084340794891865,-1.6764889927731847,0.9860004191366533,0.1522917368827563,-0.06755932021373666,0.4345747850817276,0.38994135026752175,-0.027010028317751622,0.7221429415339999,-0.0007823644360707044,0.6827997740996682,-0.11070568781683934
172,7.55974,2.84089633864103,-0.6920554538583561,-1.796857736856867,0.9827382177831215,0.16733954006692417,-0.07854120505457379,0.4183981904765116,0.3319889949768663,-0.004638996370010574,0.7233231573389306,0.0031528001877009107,0.6787600079463865,-0.12664341124127101
173,7.56974,2.8001247954729145,-0.7724119298419969,-1.9316863932877304,0.978841236505872,0.18324997151859598,-0.09069504013600428,0.37391923735946825,0.26591037597416367,0.012100460412618886,0.7244787619160619,0.006572107358363415,0.6742440164404714,-0.14297149925108715
174,7.57974,2.695071170669012,-0.854320445104428,-2.0672577860568557,0.9742103200809887,0.20010337276199822,-0.10391983879137301,0.30734838439406237,0.1973203657517983,0.029556042359284898,0.7255912110688729,0.00921589631709402,0.6692913348152975,-0.1594983378978208
175,7.58974,2.5240023814808827,-0.9357773763628574,-2.206219409355781,0.9687423830434837,0.21797217916725822,-0.1180750170014936,0.24331120184784655,0.13230394363624948,0.048907272306335126,0.7266503020258556,0.010822949181382905,0.6639585501869533,-0.17601005685703244
176,7.59974,2.3119907661332206,-1.0142103833834357,-2.350995626579799,0.9623247197997187,0.23695044454525652,-0.13300121079814692,0.18792931475105334,0.06869833787655874,0.0731439456513853,0.7276420571584742,0.01118901807155659,0.6583079203398291,-0.19235669929898475
177,7.60974,2.0743554627535326,-1.0787620565557643,-2.487028996225941,0.9548645801399721,0.25706663632706817,-0.14846774990434594,0.13332742414672338,0.009548309764919338,0.10054120683590133,0.7285329034254253,0.010199580544003066,0.6524234389394585,-0.2084186352623399
178,7.61974,1.8337531494236596,-1.131561174975884,-2.612942533493046,0.9462944415147353,0.2782894655611883,-0.16420527209480945,0.08086255500642336,-0.04156837170072754,0.12429222562759122,0.72927359013258,0.007831267881299555,0.6463969345950171,-0.22411770887977467
179,7.62974,1.6093172441766264,-1.1763198534417334,-2.7176850808225446,0.9365785925326081,0.3004574582078215,-0.18005021024280068,0.034873531922636515,-0.08551172756625836,0.14633226492953302,0.7298430967647304,0.0041815552951253825,0.6402724794323629,-0.23941948060682744
180,7.63974,1.4138017273946972,-1.2079064640523332,-2.7989147176332954,0.9257177117125555,0.3233406932265863,-0.19586227586320923,0.000265773013219138,-0.12435878662722744,0.1660546716839178,0.7302179598735449,-0.000575362260629902,0.6340807438435752,-0.2543261594861685
181,7.64974,1.254477986241375,-1.2326790020851266,-2.855227047832436,0.9137459770734566,0.3466605015895641,-0.21155015643132064,-0.024072519831503263,-0.15384592335788885,0.18502292906200213,0.7303888572853924,-0.006234946724664166,0.6278331299072077,-0.26884455984787203
182,7.65974,1.1294104177090256,-1.2511681602926694,-2.8838399608866547,0.9007234085899728,0.3701097176279314,-0.2270923862184327,-0.035497504594970045,-0.1757045351428541,0.2066931258347304,0.7303630880861048,-0.012570327905565492,0.6215166588304607,-0.28299692114553177
183,7.66974,1.0272543675158508,-1.257458570405298,-2.8938503487390697,0.8867308511038474,0.3934321678686198,-0.24242989355975783,-0.037378618676822184,-0.19548062738875943,0.2267694677606093,0.7301370485695504,-0.019393029158216536,0.6151383046852955,-0.29679499065684023
184,7.67974,0.9458524321391224,-1.2639943297858103,-2.8861829003356463,0.8718592290946572,0.4164133350006275,-0.2575142900590148,-0.035550099562968555,-0.21671363742839841,0.2447708387441388,0.729719048942782,-0.026562462940450143,0.6087057134814541,-0.31022723857228174
185,7.68974,0.8720005705218552,-1.273957278995157,-2.859375803552349,0.8561958502402918,0.43884840286646876,-0.27238509568007724,-0.03023917660485842,-0.23578203591405464,0.2658527897772738,0.7291507882144895,-0.0339616567377498,0.602194923587738,-0.32327506491694785
186,7.69974,0.8005310709780268,-1.2852519858272935,-2.8162764851998694,0.8398437914095391,0.46059254372482605,-0.2870051671761911,-0.021095297952156682,-0.2550246264385717,0.2843857553367511,0.7284650171526676,-0.04152864172645196,0.5956146801326139,-0.33588420005235636
187,7.70974,0.7188645096040702,-1.2972239163063848,-2.76254441938667,0.8228904131183008,0.4815689981278352,-0.30133066583797546,-0.011386249061023626,-0.2730547981057492,0.30259801097594347,0.7276927201317412,-0.049239254495337746,0.5889767814841487,-0.34800461351526535
188,7.71974,0.6290358358308694,-1.3053296122120701,-2.699689584570406,0.8054346542546164,0.501743275708195,-0.315261611920126,-0.005362758923550099,-0.2931888029960801,0.3199953605049476,0.7268544579552075,-0.05709278132213878,0.5823166213772759,-0.3595744958001318
189,7.72974,0.5249912338115578,-1.3050443241432053,-2.6237894603560044,0.7876042004557012,0.5211012257309384,-0.3286328307485363,-0.0017567441846542118,-0.31531382296868565,0.3348023643886518,0.7259565252244706,-0.06509184692428457,0.5756990324226207,-0.37052135501414546
190,7.73974,0.40287327793600075,-1.292034203444472,-2.532313648372875,0.7695591836669294,0.5396309767808951,-0.3412484872235254,0.0013981376896607862,-0.3380035202424027,0.3519568941128775,0.7250012466613169,-0.07323101595960833,0.5692061344972577,-0.38076544479612945
191,7.74974,0.27098453550443724,-1.2684624075400674,-2.42326628409485,0.7514850696625697,0.557329925468757,-0.35289583703083444,0.003850719570057685,-0.36005419075299505,0.3724498589142236,0.7239905537361683,-0.08150219907692098,0.5629318109795292,-0.39022159391596556
192,7.75974,0.12389794952712019,-1.2340239433198408,-2.296091252177006,0.7336003091033907,0.5741758221957567,-0.36338055816485715,0.010012881579403813,-0.3819791082071496,0.390972072089441,0.7229366270883569,-0.08987837012512684,0.5569693310220714,-0.3988015365258433
193,7.76974,-0.030583931172018953,-1.187238774860689,-2.145553147703546,0.7161848648910416,0.5901303315749632,-0.3724644887562884,0.022180570158207548,-0.4019629014977787,0.40931761272876277,0.7218454596718729,-0.09831086608599984,0.5514404829867925,-0.40640322606970236
194,7.77974,-0.18233114343172568,-1.1349272741143632,-1.9762975706762937,0.6994673486303171,0.605156483193966,-0.3800633367070602,0.04259889292772496,-0.42021607167919506,0.4298489385886312,0.7207551489564229,-0.10674838936825681,0.5464045517129527,-0.4129625939375541
195,7.78974,-0.33192668255602126,-1.075559554354664,-1.7836596118181467,0.6837134987693206,0.6191701740297497,-0.38612726415451104,0.0687057802061707,-0.4348814489666886,0.4484123983805496,0.7197072068676016,-0.1150971512625587,0.5419178558481486,-0.41842739234878484
196,7.79974,-0.4733063814705708,-1.0186496004741477,-1.5663651273812087,0.6691642131885931,0.6320809164382132,-0.3906866048165609,0.09983494482462879,-0.4469330347923002,0.462101827804307,0.7187683151833801,-0.1232739320783406,0.5380031852574875,-0.4227449552927582
197,7.80974,-0.6090139152448599,-0.9696061352106051,-1.3280469190191404,0.6560319718470199,0.6438045028848673,-0.39381868650731017,0.13766577119790696,-0.45576433391037513,0.46852939950361727,0.7180168411677075,-0.1312097649714042,0.5346616559038867,-0.4258641298088288
198,7.81974,-0.7372481955193741,-0.9236336042646172,-1.0778573656855155,0.6444867914336466,0.6542965653784256,-0.39560012222754093,0.17752492638239936,-0.4591085480321041,0.4688847543419348,0.7175174561356811,-0.13885868867272094,0.5318909215890553,-0.4277483730956109
199,7.82974,-0.8638444123555933,-0.8637162866028053,-0.8172556625329211,0.6347053028462325,0.6635290702031952,-0.3960488117066757,0.21398649964982192,-0.46018843724720504,0.46749891331679977,0.717291908133981,-0.14615807977668765,0.5297211222185783,-0.4283885197653365
200,7.83974,-0.9929088886926187,-0.7911288754045944,-0.5496322162336047,0.6268685440241191,0.6715164175129834,-0.39507642126109627,0.24368261356329207,-0.45938953996466025,0.46279106141577797,0.7173245078848538,-0.15306935730687357,0.5282270954584093,-0.42776545677930516
201,7.84974,-1.1263698140607363,-0.7008686411846976,-0.2793024338298126,0.6211348722236937,0.6782771468464159,-0.3925815354715343,0.26728682391281555,-0.4591295747354868,0.45770221851015325,0.7175804018975439,-0.1595571928261576,0.5274885037536264,-0.42587274918725476
202,7.85974,-1.2480893944788458,-0.6007045864772957,-0.01704749570667842,0.6175972904741113,0.6838303840876876,-0.3885103840944868,0.2887080865120802,-0.45749241281451924,0.4580217066008547,0.7180150848173056,-0.16559020165099406,0.5275594538204342,-0.42273698252976155
203,7.86974,-1.345867374975541,-0.48607721436340734,0.2289739037418835,0.6162440907097861,0.6881756813330072,-0.3829458957714369,0.3062107516363036,-0.45599867689853674,0.4605016472700638,0.7185798309410824,-0.17111324512755718,0.5284338319482641,-0.4184631130525416
204,7.87974,-1.4047450490308289,-0.3632978212488542,0.456037909405291,0.6169877092247784,0.6912963424613531,-0.37606235529182586,0.31527984343121235,-0.45424870942529355,0.45395433121216494,0.7192190737743812,-0.1760474453438073,0.5300677175924042,-0.41321750297577914
205,7.88974,-1.4271393164433945,-0.23842782596458936,0.6756003529530091,0.6197787924170141,0.6930774444488531,-0.36810476916334045,0.3198424018101721,-0.4461926728041444,0.4344127654963375,0.7199152677156558,-0.18027020084528186,0.5323969300942138,-0.4071442272988402
206,7.89974,-1.4206723146461686,-0.11200102364966717,0.8752064224970858,0.6245243020347319,0.6934259003563883,-0.3593150892109364,0.32141683433749146,-0.4354058065307529,0.4123708877930283,0.7206542160427801,-0.1836842450639724,0.5353494817191996,-0.40038174642590435
207,7.90974,-1.395761872400756,0.033078789177652765,1.0688974193195846,0.6311111728659534,0.6923142557550688,-0.3498117515060719,0.31770533046451443,-0.4265824067494021,0.3815214488208822,0.7213920407706607,-0.18623796664710948,0.5388932686262867,-0.39305000617925573
208,7.91974,-1.3592360417490035,0.22263377811294652,1.284306487293045,0.6396570724410073,0.6895971351418358,-0.3394850096415267,0.307714563116436,-0.4196495567814334,0.3448180175112319,0.7220487879130523,-0.18779329612653087,0.5431268576354442,-0.38519533544353196
209,7.92974,-1.3047686489216577,0.432653682798402,1.5228371841355737,0.6503829854167006,0.6850002272728926,-0.3281990772633044,0.30278674313286147,-0.4121628949706706,0.3180000812911205,0.7225708790584168,-0.18816219717839044,0.5481691995076725,-0.3767976235041864
210,7.93974,-1.2107173845434411,0.630769150692956,1.7754183139708009,0.6633264345691199,0.6782323092303613,-0.3160959241748019,0.32134860900674495,-0.39998696883142265,0.2966981588472019,0.7229839596804203,-0.18718629256702637,0.553990139384273,-0.36786676300112986
211,7.94974,-1.056451777433684,0.8017338785790316,2.0430331321699073,0.678399797756086,0.6689516138814002,-0.3035992276659504,0.37637199978202507,-0.3776965445573682,0.2771179265942694,0.7233856660169034,-0.18468074450299493,0.5604302985737178,-0.35846217332105224
212,7.95974,-0.8408102739258029,0.945679646867411,2.3156825782044748,0.6954445823373202,0.6568081823495293,-0.2912558113268476,0.4499390584444258,-0.34263909075985033,0.25814674020685696,0.7238954498136613,-0.18043386720494753,0.5672745465408418,-0.3486895983072008
213,7.96974,-0.5777160601247142,1.0560018145369632,2.5601158674225144,0.7141479788357853,0.6416336732641705,-0.2795453885627017,0.5120297808237649,-0.29961908902404677,0.2300408941333916,0.7245887904604288,-0.17431977083445999,0.574299511877276,-0.3387103501583395
214,7.97974,-0.2924442490765007,1.1573204771628567,2.741777892914803,0.7339701527477563,0.6235989668051578,-0.2687709636523249,0.5348651459095383,-0.2554645107820802,0.18192097391156367,0.7254488614827896,-0.16637897821509767,0.5812978152279723,-0.32877217705523526
215,7.98974,-0.018526277240772562,1.2884242975016953,2.8628344545209896,0.7543942479635445,0.6031266598214621,-0.2587165952148918,0.49687679605321283,-0.22210481372105198,0.12090340682503266,0.7262936665575837,-0.15676033410505733,0.588248552082143,-0.31912230398380204
216,7.99974,0.22476386333808918,1.442901927500352,2.933958455234968,0.7750312478201725,0.5806748071170994,-0.24886610649880928,0.3878807950344246,-0.20251430292518796,0.058881721350612606,0.7268896948354662,-0.14565249720322979,0.5952432316685137,-0.3099184613650357
217,8.00974,0.4634641351504967,1.5841048747003417,2.9606078503346063,0.7955069244373849,0.5566683112893752,-0.23889344051074368,0.25079590466300955,-0.18928413654493376,0.00849463934187677,0.7270952829266542,-0.13325720747472813,0.6022890699105863,-0.3012744173517835
218,8.01974,0.727300279003268,1.6939546183692018,2.9503993184666952,0.8154422743874252,0.531460182998799,-0.22886689308123323,0.14990434824746274,-0.17307319979628374,-0.03059535811549153,0.7268861296508053,-0.11970031022985214,0.6092528148542681,-0.2933591722580708
219,8.02974,1.0391900806178758,1.761516031864415,2.9259788742955113,0.8345584995280066,0.5052500710427096,-0.2191088036710509,0.11501591071153146,-0.1522851787702052,-0.06537187058886441,0.7263266567586503,-0.10499402307913834,0.6159271791942981,-0.28634971441703266
220,8.03974,1.3979440451592418,1.7729986110718623,2.8955695125405936,0.8526799766776878,0.47808122470907133,-0.21011873318517713,0.137364364697218,-0.11250403529544803,-0.0968499589349232,0.7255512137354986,-0.0890554606834684,0.6220510257647499,-0.28040958131776583
221,8.04974,1.7741635850668571,1.7342547063707758,2.850039072089955,0.8696481937020224,0.450061663789652,-0.20232426550159527,0.1984892197871404,-0.054193457589209626,-0.1212138286429369,0.7246872547616905,-0.0718786594345017,0.6273776727736782,-0.27565801182252664
222,8.05974,2.1102218051673645,1.6497462349552297,2.780320652327589,0.8852988911704183,0.4214861616483105,-0.19591185586956475,0.2801184899654175,0.002417103182820386,-0.13091636228148948,0.7238112200454936,-0.05364746691728844,0.6317378693739528,-0.27212419161301477
223,8.06974,2.3471376732086005,1.5322302035679236,2.695409949503423,0.8995321481468113,0.39273157586518653,-0.19078780824851205,0.3553854724518711,0.04768347539548133,-0.12338506258068607,0.7229632113278808,-0.03472844725966407,0.6350787333066428,-0.2696614267664505
224,8.07974,2.439089747108857,1.405415304570239,2.613643106439991,0.9123565040649216,0.3641504238210384,-0.1865679644408465,0.40574228925664924,0.07024179033837133,-0.10151019757574455,0.7221566217779721,-0.015626475370321097,0.6374942066647453,-0.2679052146464106
225,8.08974,2.3704420581954326,1.293068678012487,2.5321979370758934,0.9238573005870089,0.3360722256796625,-0.18265580107994198,0.415334015045961,0.06688023404443144,-0.06770948463480583,0.7213688454328139,0.0030988548305021977,0.6392144813577478,-0.2663722997789578
226,8.09974,2.158281940543092,1.2114660265183006,2.445656215630285,0.9341521900320167,0.30882815073744263,-0.17837901678168042,0.38191485552831655,0.041525163785468396,-0.02672665059087872,0.7205403492127126,0.020923225042442324,0.6405576345483547,-0.2645937912011188
227,8.10974,1.8052251141712725,1.155342563190177,2.3463236622515717,0.9433361923169817,0.28280569802438454,-0.17317144375147575,0.3201581665269738,0.0042533454650847975,0.013715156676194235,0.7196205470538948,0.03733823583712428,0.6418510752197127,-0.26216369728257144
228,8.11974,1.31185368393562,1.098926246815166,2.235962781967507,0.9514675115149756,0.25840382967581976,-0.16675001411871543,0.24954592055175223,-0.03201386081910484,0.04540401787217865,0.7186420321145938,0.051811112033612314,0.6433554108787102,-0.2586977501101591
229,8.12974,0.7053834675910935,1.0272580742608488,2.1051613830725513,0.9585786463223334,0.23598675064312713,-0.15913664024222057,0.18440097548733914,-0.0628926497182812,0.06979086956781226,0.7177173606555264,0.06381877761827481,0.645241828866505,-0.2538555486436102
230,8.13974,0.023874523080525817,0.9497986926818878,1.9560525432570652,0.9647094253620601,0.21585824138633428,-0.1504878060290763,0.12666124434468357,-0.09391000207578701,0.08368853006084748,0.7169501934249057,0.07294847062787639,0.6476287257180384,-0.2474149830420637
231,8.14974,-0.673145769350576,0.8595853594080315,1.8049969528013579,0.9699308271831063,0.19811622449697863,-0.14108845403642895,0.07163592743217789,-0.13062988910840345,0.07004171191600612,0.7164330938154463,0.07899057209044988,0.6505466357321446,-0.23926906155134567
232,8.15974,-1.31212926271261,0.7575367067161706,1.6581599384198424,0.9743371342531014,0.1826230748009371,-0.13134465403209913,0.022797105218539088,-0.15561197132716653,0.03248996971162504,0.7162309282420467,0.08201200758873846,0.6539103656975276,-0.22947982110398213
233,8.16974,-1.8305439547414601,0.6554246527494926,1.5233791239226413,0.9780345687817895,0.1690797794020713,-0.12168521289993355,-0.02010320736770859,-0.14319904910121758,-0.01034361557036137,0.7163472243617222,0.08236250137123918,0.6575488888970885,-0.2183097648112772
234,8.17974,-2.238312140967826,0.5651220864812675,1.404388942583606,0.9811387343771433,0.15712665872126688,-0.1124001591233326,-0.056280620549331514,-0.09414653399698292,-0.053765262632842994,0.7167229389347837,0.08052440897958396,0.6612946775056483,-0.20609099995154276
235,8.18974,-2.551232156118485,0.49492864212751786,1.3030926302433237,0.9837677680313821,0.1464167371477507,-0.10356263101717186,-0.08561822700306906,-0.028334633744902173,-0.09092676098938876,0.7172644608220019,0.07693141546006417,0.6650509814927755,-0.1930658076749299
236,8.19974,-2.7809920379310733,0.4324484701923928,1.2132347912131003,0.9860158822900871,0.13666078554439293,-0.09520509318972173,-0.1127975675078183,0.04164427870267806,-0.10726377658868667,0.7178821796380606,0.07197849197545211,0.6687352196292948,-0.17946157051716977
237,8.20974,-2.946995239853673,0.37740309730000976,1.130413338786011,0.9879371466315974,0.1277107649092827,-0.08742048368631387,-0.13391785434553866,0.1013196777150013,-0.10806017812726994,0.7185248867117487,0.06595695856072938,0.6722555826957688,-0.1654972192158816
238,8.21974,-3.038064100731488,0.33490180136651926,1.0596705569998328,0.9895885698570003,0.11940605083943848,-0.08020234571999474,-0.14448731286465152,0.15037313394455862,-0.10323856885133155,0.719131148470722,0.05915232072741784,0.6755639671656297,-0.15135504133314673
239,8.22974,-3.0284458612633647,0.30275572715903115,1.0094393804667179,0.9910282481464133,0.11150536043219964,-0.073537028154553,-0.14940712973115897,0.19033141405663898,-0.096508543948193,0.7196429709724588,0.05195189635682228,0.678615754211433,-0.13726090058326565
240,8.23974,-2.920572646160704,0.27277514769876643,0.9792606750873196,0.9923022220595982,0.10375124630946482,-0.0674667527718597,-0.14851173196030062,0.2244984569668223,-0.09088805265260479,0.7200322617546312,0.044793738831903795,0.6813577767540581,-0.12348191402669564
241,8.24974,-2.7118781455351364,0.24110264785086624,0.9692822533014872,0.9934417656871797,0.0959074109645892,-0.06209635143221871,-0.13950877636062106,0.2649535722674582,-0.09395833221856184,0.7203114686740824,0.038111766316028334,0.6837324546031708,-0.11029397667050336
242,8.25974,-2.4323340757078604,0.22373766664333744,0.967854372825119,0.9944689491614563,0.08783477740019006,-0.05742233185123093,-0.12678949416294766,0.3168395310223391,-0.1026801237079848,0.7204764658000552,0.032269209866412185,0.6857412367535907,-0.09795397757007654
243,8.26974,-2.1135831759654162,0.2216857588043232,0.9724399974857912,0.9954031511313112,0.07945100929495053,-0.053296033706323645,-0.12061249209323065,0.36547015696516283,-0.11295317937451119,0.7205002248278403,0.02750451311880068,0.6874529217509984,-0.08661853701065533
244,8.27974,-1.7715217255033193,0.23049196018434093,0.978956470625342,0.9962525687714857,0.0707318449127156,-0.04957309014165236,-0.1243475945706593,0.40540733777024174,-0.12239544557509902,0.7203695342376677,0.02395378763503502,0.6889395160511899,-0.07638477059368122
245,8.28974,-1.4247097657206098,0.24478236215205434,0.9855873420329682,0.997017119256763,0.06170732200381233,-0.04612711327554319,-0.13316284360781105,0.43704840292887986,-0.1333425886922075,0.7200816444450713,0.021672773077060538,0.6902651274794263,-0.06731067670550904
246,8.29974,-1.0915657347600336,0.2635991230779077,0.9895811715470526,0.9976937746045896,0.052415337795288876,-0.042864933147888376,-0.14213036948236885,0.46068458430669684,-0.14744657374697917,0.7196484377440917,0.02064377415065799,0.6914774459738341,-0.059388487570271056
247,8.30974,-0.7842588338751474,0.2837377666446915,0.9900123287446757,0.9982790149266934,0.042918109820937904,-0.039675496708200135,-0.1492726153671163,0.47760691506160263,-0.16351183724614504,0.7190734583729884,0.020782158792077038,0.6926253747876873,-0.05255995104038419
248,8.31974,-0.5176935127471847,0.30627819490878255,0.9801866452611456,0.9987679185061415,0.03331268775241332,-0.03646742215103955,-0.1574612100067985,0.48685881500091,-0.17822101938479895,0.7183615643290631,0.021945597692384626,0.6937461432151322,-0.0467349662456694
249,8.32974,-0.28831866134815287,0.33214040735969136,0.9589425400956509,0.9991569171179141,0.02375169877975758,-0.03314658301950161,-0.16783607854510715,0.48837034125804846,-0.19223879639239844,0.7175094905201013,0.023949914405679736,0.6948751251952773,-0.04182151324602387
250,8.33974,-0.10386562614695957,0.3593420906817505,0.9285347353238466,0.9994460224401669,0.014379803958409095,-0.02964489862326232,-0.17897391398644802,0.48508083660807005,-0.20540312103791783,0.7165168392891434,0.026607279718362936,0.696036832946392,-0.0377202864335372
251,8.34974,0.029026711227304915,0.3836768201994046,0.8824346063050239,0.9996393759249708,0.005336237402500084,-0.025923834141748803,-0.18885658274061673,0.47861200632155604,-0.2149939629281939,0.7153900557753513,0.029702185222832366,0.6972467901214431,-0.03430165337488883
252,8.35974,0.12025263819454528,0.4002324354985518,0.8247076768010498,0.999743257391078,-0.0032138272950223584,-0.022007213806628022,-0.1938829089519692,0.47167842938852456,-0.2211408713858376,0.7141512443518417,0.03302149003550917,0.6985005546133984,-0.031460469571919614
253,8.36974,0.17805846755615415,0.4086650355365212,0.7594519898767929,0.9997680022730935,-0.01116400341841336,-0.01795388274921303,-0.19215440222378166,0.46722165861187637,-0.22698274347367464,0.712831723323758,0.036390713976158624,0.69978272424189,-0.029091947399405887
254,8.37974,0.2097207553985149,0.40944372211461744,0.6929413743768784,0.9997265215388539,-0.018466969656184926,-0.013824494100487946,-0.1839806626012529,0.46353397928222967,-0.23170720757723992,0.7114607675148977,0.0396871377582087,0.701077718502078,-0.027103789149775456
255,8.38974,0.22832369540970754,0.39553698471986787,0.6226159252564227,0.9996321157283949,-0.0250678000808505,-0.00973785489362702,-0.16807911886516944,0.46239132782382647,-0.23571869132265694,0.7100845373366579,0.04282834767748064,0.7023491873252246,-0.025453609842181056
256,8.39974,0.24254570034388007,0.37591785828979485,0.5489245216514819,0.9994991619900537,-0.030942677348881044,-0.005818323200979099,-0.148204695345591,0.4651282368044103,-0.2455060394097023,0.7087500548325019,0.04577276339610772,0.7035578020464522,-0.02411966367772417
257,8.40974,0.2589381799925575,0.3613315460170122,0.4689895615712754,0.9993439728225978,-0.03604656445636283,-0.002062806065201944,-0.13137252417231207,0.4698192626990961,-0.25422048744323134,0.7074579064266937,0.04849917109164414,0.704708883153462,-0.023112076139217373
258,8.41974,0.27738335609905546,0.346091454572929,0.38708793761062,0.9991825098984976,-0.04031804427559198,0.0015808312275071396,-0.11979187228853892,0.476579924828854,-0.2612246415838235,0.7061902144523831,0.050996764579789786,0.7058244825014927,-0.02246142642330928
259,8.42974,0.2925879418002463,0.31859807925493244,0.3077445183058234,0.9990263879378515,-0.04377334063799326,0.005050472588395821,-0.10621740393564665,0.48574382386688564,-0.2701091244362991,0.7049705131877639,0.05326449972068999,0.7068853232008638,-0.02215731835637098
260,8.43974,0.3014146889129176,0.2671643111953398,0.2245686395100123,0.9988877309368389,-0.04641194688024938,0.008139057445675602,-0.07836032241592061,0.49475126670732206,-0.27765261129362756,0.7038733644656797,0.055284708068150425,0.707822143887787,-0.02219059398320494
261,8.44974,0.2976344153452021,0.1990575097703166,0.12118918503376619,0.998784696744156,-0.04811634463540456,0.010616043812017844,-0.03681851364422113,0.5027642304756244,-0.2856605438426961,0.702980847295784,0.056978892968364614,0.7085625349226518,-0.02257608035161121
262,8.45974,0.27522801376586353,0.13850662797297017,-0.01464638645806561,0.9987391933239094,-0.04863102835835576,0.012426092488680485,0.002146372665224173,0.5098238385748826,-0.2934637344109318,0.7023113955057435,0.05819962785123263,0.7091019926501541,-0.023351410917189307
263,8.46974,0.22623392331815265,0.10219260334746905,-0.18097395301249233,0.9987695236740101,-0.047637528592231665,0.013737229702170436,0.022037295139623082,0.5123048776165747,-0.29668314569162757,0.7018035655175903,0.05875619673980298,0.7095183508098756,-0.02454680566468476
264,8.47974,0.16013124349637575,0.0803161586182367,-0.3610499219988616,0.9988809570847805,-0.0448992520554089,0.014733254678383233,0.026632759420181926,0.5066086130242868,-0.2882857712310611,0.7013902756943002,0.05848089639799448,0.7098918361801385,-0.026156405237290476
265,8.48974,0.09914399245566663,0.051482330347791504,-0.5306600994421643,0.9990602117587412,-0.040403710241589695,0.015451545791896087,0.04570443265878474,0.49292527137581094,-0.2668466486641371,0.7010561705706954,0.0573481677914609,0.710236803378153,-0.028162962312636406
266,8.49974,0.05407848952435869,-0.011639277309294097,-0.6679547474043634,0.9992801039309107,-0.03437912624318226,0.0156932291090904,0.10603963181238274,0.48096686736391814,-0.24741888506857967,0.7008705484424925,0.05547773242072707,0.710470006089243,-0.03053345486082954
267,8.50974,0.03212770653406639,-0.11855313772819837,-0.7718226119184199,0.9995098304274803,-0.027165981025605617,0.015073838248518405,0.20631913334638366,0.47747886828521413,-0.24145882929741883,0.7009689057015084,0.05304786698781553,0.7104372710223489,-0.033221627846602084
268,8.51974,0.04921192965205512,-0.24928490753050522,-0.864999398033151,0.9997220354995574,-0.018987435772252186,0.013249176695935547,0.31356409233388,0.48189475633505807,-0.2463514016143195,0.701467809023226,0.05024591274087204,0.7099984043034895,-0.0362707866646026
269,8.52974,0.09752336451888025,-0.3749208803757869,-0.9770085767277836,0.9998874398339181,-0.009780488113508646,0.010126009334037723,0.3838214550984237,0.48837548495657535,-0.2606236947026788,0.7023862187440201,0.04717509615969036,0.7091084073837589,-0.0398318306546022
270,8.53974,0.16782358168794648,-0.479573686940458,-1.1133492675703365,0.9999646592864817,0.0006769783327607599,0.005837794450834471,0.39372802419608677,0.4897382022601714,-0.2829896656884927,0.7036571318845247,0.04384554620394406,0.7078086168003654,-0.04406731119474448
271,8.54974,0.25978922466228355,-0.5514220337936374,-1.2679306952652682,0.9998969754293554,0.012595397231963283,0.0006430362046768185,0.35543140609197277,0.4860721682428022,-0.2998771977181899,0.705164513558163,0.04026465684704381,0.706184270827542,-0.04912579064639542
272,8.55974,0.36105237283738273,-0.6010283349868695,-1.4262626502148998,0.9996173175723229,0.026070929172393027,-0.0051948321688569735,0.30605459841618715,0.4778742559164543,-0.29407155544626135,0.7067895649650264,0.03645412384993663,0.7043216984098031,-0.055091845454094804
273,8.56974,0.46425872369664234,-0.6493043472547411,-1.569811931195104,0.9990557543788723,0.0410208020382776,-0.011593271308008014,0.2818564603533566,0.4631641064863058,-0.26057876594482043,0.7084802394686279,0.032457695709912575,0.7022426293449604,-0.061956161358715546
274,8.57974,0.5702495320987454,-0.697949221372743,-1.691472499684099,0.9981462743002512,0.057242165192430965,-0.01859054615002113,0.3027919193116446,0.44384735447841966,-0.21030670693627584,0.7102292552726732,0.028348548169278658,0.6999253788811015,-0.06966187266072137
275,8.58974,0.6836918495612412,-0.7383341641704664,-1.8024355253560265,0.9968279042506402,0.07453805290667788,-0.026185639253005672,0.3581900379047609,0.41923722328674895,-0.16241121298619599,0.7120133042983278,0.024207535637828573,0.6973631249206917,-0.07816465346495476
276,8.59974,0.8067567927545828,-0.7641464799310315,-1.9027732642170814,0.9950440378902136,0.09277673800185482,-0.034314159578719944,0.4167574895166291,0.39086726132952127,-0.12474596774222671,0.7137824655732102,0.020103057734334833,0.6945738347850461,-0.08745319834207745
277,8.60974,0.9418222433595163,-0.7863060614637998,-1.982791387572875,0.9927509863703196,0.11176574999851262,-0.0429351364083542,0.45596564399003175,0.3634483988467808,-0.09640374935290882,0.7154951372051356,0.01613170871280733,0.691567981026162,-0.09750508376173343
278,8.61974,1.0781161410734028,-0.814715936581586,-2.0403829627764463,0.9899209847059601,0.1312396187142401,-0.0521109227546249,0.4775701899665725,0.3372841469367468,-0.07771922047964125,0.717150834843595,0.012394412464135618,0.6883204617351714,-0.10825799226712202
279,8.62974,1.1947587021611585,-0.8445309168169488,-2.0918910348337754,0.9865267617496752,0.15101139305539996,-0.06193797657799091,0.48883090964463355,0.3056552359880585,-0.06366656630642056,0.7187661094728882,0.008911788996889353,0.6847960196990203,-0.1196273390623457
280,8.63974,1.3019725453221749,-0.8720300747371243,-2.147909967917874,0.9825251330119578,0.17106306955776165,-0.07245410443581819,0.48568581004969597,0.2685151816092656,-0.04857511959627628,0.7203346304603586,0.005619905057442786,0.6809809514923022,-0.13156072456462656
281,8.64974,1.3975551186009298,-0.9013641206568517,-2.2044862598212416,0.9778717062796227,0.19137832210785316,-0.08367293275059684,0.4630255241876544,0.22963493013438893,-0.035328443058844416,0.7218403290991254,0.0024719397630322028,0.6768682926936409,-0.1440245713061517
282,8.65974,1.4793999114571383,-0.9357010482194346,-2.263673013048621,0.9725257929284804,0.2119098407716682,-0.09560179119286513,0.4261449666663604,0.1927766206920826,-0.02286195337022757,0.7232692195093704,-0.000571405310331222,0.6724518517246296,-0.15697080504858069
283,8.66974,1.5707941468129567,-0.9702917336519695,-2.321839264255838,0.9664446430348541,0.23260910620097833,-0.10826406974518694,0.3854182569468892,0.16376256770344122,-0.009354682234742458,0.7246079105741954,-0.003524368367923164,0.6677182214724077,-0.1703806409162029
284,8.67974,1.665175486737333,-1.0002644759223909,-2.3786965645465052,0.9595904442339231,0.2533887999677334,-0.12171869943620864,0.33949989102326894,0.14001106468046381,0.004767760145315583,0.7258477521964755,-0.006347270220092981,0.6626400055113579,-0.18426989466735877
285,8.68974,1.7509411976338443,-1.0274651982348069,-2.432246534678347,0.9519320664026143,0.27417578967876544,-0.13593934484780962,0.2878446267953118,0.10995250441164704,0.020397212154818902,0.7269615301170115,-0.009049773379801998,0.6572207030152589,-0.1986065172581652
286,8.69974,1.8210880481511236,-1.0518643240410297,-2.4799810148264534,0.9434414068752608,0.2948995106014632,-0.15090199780883706,0.23460134991773918,0.07514312044332273,0.04155128558593975,0.727931529150409,-0.011664155120681322,0.6514619811560538,-0.21333576841395413
287,8.70974,1.8661438296056794,-1.0760909505384606,-2.519644746548657,0.9341118269285811,0.31545416729476183,-0.16654204738835837,0.18459583452324616,0.03814365798371311,0.06737455233180734,0.7287434743659199,-0.014231736044124893,0.6453799497287948,-0.2283592405595673
288,8.71974,1.886706024965965,-1.0979082521394068,-2.55192526533474,0.9239500127048268,0.3357417129797531,-0.18275956973450258,0.1440588368874023,-0.003422995838414645,0.09837494676642673,0.7293874212175026,-0.016815574121112238,0.6390034074139961,-0.24355078676173977
289,8.72974,1.886322186543823,-1.1180291939733862,-2.5707407334750134,0.9129725849406173,0.3556672577781999,-0.19946173374872592,0.11293627163891806,-0.04443109217499845,0.13367645137373876,0.729861966722345,-0.019464725961401055,0.6323584439416057,-0.2587964523956057
290,8.73974,1.864448264486578,-1.1364393957216736,-2.5756115829402617,0.9012187888633617,0.3751176622243166,-0.21654644378523763,0.0866914792224937,-0.0834076100854125,0.1687941365960612,0.7301736151356853,-0.022211526484203905,0.625475400642113,-0.27397770506085106
291,8.74974,1.8205859508022253,-1.1498951013140546,-2.570485972656105,0.8887418645947845,0.3940050516724896,-0.23387721462649316,0.06634436858978118,-0.12039356004368312,0.20238658134503773,0.7303265408310173,-0.025092510050363576,0.6183987322801288,-0.2889767763523173
292,8.75974,1.7557168326973858,-1.1641436558998919,-2.5516331987533127,0.8756017698969412,0.4122678631230242,-0.2513141983381103,0.052763616120372066,-0.15289069537154978,0.23499381470629602,0.7303308654787228,-0.028148142877914978,0.6111751574141091,-0.30368135246969336
293,8.76974,1.6688078828636437,-1.1811228012512918,-2.5193633182775637,0.86186641962727,0.429859811824189,-0.2687223959308709,0.04558009923669929,-0.18249556083067298,0.2661447497548606,0.7302080489513546,-0.03142280531781648,0.6038503213658843,-0.3179766022504479
294,8.77974,1.5570189871190816,-1.2009201615428355,-2.4739364972630526,0.8476107667612968,0.44674464973719413,-0.28597950685411094,0.04367776271058078,-0.2103901820827946,0.2939778270782349,0.7299940641605511,-0.03496371442454218,0.5964653574207864,-0.33174389108672403
295,8.78974,1.4230532432124157,-1.221460185171159,-2.4202785975912913,0.8329074928648624,0.4629292507380741,-0.30294560872763293,0.04494122134134402,-0.23760102335871325,0.31899464197967653,0.729719946541202,-0.03882387564751901,0.5890691217911915,-0.34487899312242076
296,8.79974,1.2675451295621927,-1.2424128807961474,-2.361896034580131,0.8178130442472025,0.4784914805841521,-0.3194495657664389,0.04697697956890031,-0.2653784797190216,0.34158668146489046,0.7294020888496328,-0.04307540073774206,0.58172298057997,-0.35729794650339025
297,8.80974,1.0926291764540759,-1.262977667333901,-2.3017561603125194,0.8023743501936258,0.4935294570457753,-0.3353367340189544,0.04756828154940158,-0.2916599969634754,0.3621242527074713,0.7290566065890526,-0.04778477636924261,0.5744819097466065,-0.36893616525628703
298,8.81974,0.9006974017970937,-1.2788126946216694,-2.240222154411114,0.7866348513332663,0.5081641670317791,-0.3504398043195735,0.04544954328502481,-0.315759576917398,0.3803645129641455,0.7286878548112325,-0.053012687493029544,0.5674065800167631,-0.3797465517313501
299,8.82974,0.6925790759200904,-1.2878193520115768,-2.1774204342309202,0.7706541720191833,0.5225304878412605,-0.36454748681441146,0.04079186663009018,-0.33901688500203786,0.398632984347514,0.7282825222273931,-0.05881166240091441,0.5605775591607708,-0.38968732825869923
300,8.83974,0.47020599138546343,-1.2860197932611608,-2.1112240892575866,0.7545155656772652,0.5367395388090901,-0.3774463949321464,0.032695093249592425,-0.3612348728864044,0.4168263205497865,0.727822999468262,-0.06520907168492622,0.554079042349726,-0.3987214799502974
301,8.84974,0.2464748080822276,-1.268556429997114,-2.0406328024140965,0.7383221412604638,0.550872588659275,-0.38894397159939664,0.023947470036919268,-0.3838525657765133,0.43604074435513485,0.7272863583386171,-0.07219755070837314,0.5479907841250784,-0.40683176799225407
302,8.85974,0.03179148486003648,-1.236802460576832,-1.9616236662732198,0.7221927290443438,0.5649599489901163,-0.39890419917261166,0.01741927112013241,-0.40593038032503154,0.45497665532292764,0.7266535281205382,-0.07972809487784943,0.5423736357880213,-0.4140235995474296
303,8.86974,-0.16800220222140544,-1.2003430949698242,-1.8702042051343617,0.7062811474110393,0.5789529116381952,-0.4072557420649614,0.015457461492574131,-0.4245295607126545,0.4707497690281483,0.7259239725282037,-0.0877091114412225,0.53726797845496,-0.42030203217173356
304,8.87974,-0.34749739317367334,-1.1594880993852101,-1.7649597317545591,0.6907633571180603,0.5927408777108668,-0.41399486910937716,0.022714960869006297,-0.43668730779493664,0.48418368061956374,0.725116371937252,-0.09601876192583456,0.5326919249536559,-0.42567312510740823
305,8.88974,-0.5078546630954026,-1.1119724400732445,-1.6449571437128894,0.6757963747430635,0.6061997293109223,-0.4191894612749983,0.037080216046299797,-0.44277329570596535,0.496204116380739,0.7242639552876884,-0.10453466619200627,0.5286358952374578,-0.43015389687991645
306,8.89974,-0.6491161960483725,-1.0604290456917258,-1.5101383661566234,0.6615484280588111,0.6192064377348466,-0.4229033835181749,0.055295036257265714,-0.4479500855221126,0.5051061772820544,0.7233981904165241,-0.11313771164468597,0.5250972215474002,-0.43375585946960177
307,8.90974,-0.7746125753582902,-1.0067141889768552,-1.3574321668363807,0.648192874461271,0.6316336236074503,-0.42521416878674584,0.07679910906854802,-0.45412524506027446,0.5109682185870519,0.7225616939737152,-0.12171909952148263,0.5220702678368315,-0.43647476801257107
308,8.91974,-0.8946485157964476,-0.9517783651225926,-1.1838549659653916,0.6359159608377937,0.6433595766221293,-0.426185143416476,0.10200486610202003,-0.4603019124227914,0.5136201639752427,0.7218066426418817,-0.1301897772433606,0.5195568379336826,-0.43827760534597554
309,8.92974,-1.0104173351382237,-0.8919833348604366,-0.9911836514044529,0.6249197422316812,0.6542897877880018,-0.42582435156279,0.1305249584947662,-0.4661253182041769,0.5121606188690738,0.7211727564810944,-0.13847837506492097,0.5175850243079972,-0.43911500884726956
310,8.93974,-1.121598166819225,-0.8209144825079543,-0.7829078962436556,0.6154179846493669,0.6643404723055621,-0.4241103190106918,0.16229377242377124,-0.47050532622489755,0.5112199471578873,0.7206772635880093,-0.14650412361758014,0.5162031813037273,-0.4389525278195224
311,8.94974,-1.2286976082150785,-0.7364766458137952,-0.5611751803781224,0.607618471990393,0.6734309996608586,-0.42101891866048147,0.19405724015852593,-0.47363697910821134,0.5099764020444362,0.7203253834197119,-0.15418339240082737,0.5154648963182814,-0.43776721519146794
312,8.95974,-1.3215529115763942,-0.6444447866420783,-0.3250045639059132,0.6017136661597685,0.6814625860313651,-0.41656117023812583,0.22395617797438078,-0.4759809814285331,0.5056252908920783,0.7201291674492977,-0.1614315386241869,0.5154095945304688,-0.4355373617353086
313,8.96974,-1.3901732948122678,-0.5462897045242053,-0.08263480602192222,0.5978555053362534,0.6883029185006123,-0.41083643844950224,0.25561089472509096,-0.4754805766675541,0.5002476608421208,0.7201031727816866,-0.1681381706889832,0.516043516673801,-0.43228030008913754
314,8.97974,-1.422730102216776,-0.4489434544013293,0.15552941969738654,0.5960839211409552,0.6938245433265717,-0.4040701342809015,0.2852451675789718,-0.47085227607954355,0.48944036383362216,0.7202575020413936,-0.1741835249821567,0.5173165295415572,-0.4280875025268488
315,8.98974,-1.4172762323035568,-0.3608574770551738,0.39452853985014436,0.5963830675321583,0.6978787839470159,-0.39657832504287366,0.3065075383450521,-0.4616099245572235,0.46490175647637516,0.7206279001513375,-0.17945176955731776,0.5191348542765886,-0.42305700414347613
316,8.99974,-1.384393075537631,-0.2806890308346839,0.6315210001753412,0.598713254972229,0.7003186580264609,-0.38868615726270683,0.32032721742451126,-0.44761320278738953,0.42652062766840954,0.7212638324812649,-0.18384587353346216,0.5213945341937536,-0.4172674005796965
317,9.00974,-1.343644592174314,-0.1910953273625744,0.8606735068361313,0.6030204236414651,0.7010828539965862,-0.38055944428506333,0.3275712053379965,-0.43346132807611004,0.38375737160453843,0.7221615755728111,-0.18731080094215982,0.5240521655098288,-0.41079276103472095
318,9.01974,-1.3128730774260637,-0.05699266415536561,1.1009465688530538,0.6093977674388348,0.7001347285194492,-0.3720375803784134,0.32613585855939453,-0.4206389138938641,0.3448321846029079,0.7232368006070446,-0.18978892105438946,0.5272166751736851,-0.4036498221786671
319,9.02974,-1.3043445028874738,0.1323054721878117,1.3748021045801204,0.6181565031661228,0.697344044520541,-0.3626858368231625,0.3182886672037454,-0.41190923228689585,0.3168575063695289,0.7243656276088976,-0.19117892453351765,0.5311335058788252,-0.3957523977843024
320,9.03974,-1.3101523230971,0.3358708920513218,1.6865228152564393,0.6296041805387316,0.6924747013751064,-0.3521313165919933,0.32770097570175105,-0.40992965203445736,0.303256274828138,0.7254758079092463,-0.19138407318432293,0.5360030509669181,-0.3869480599418905
321,9.04974,-1.298655680448527,0.5085521944714266,2.0258164900617475,0.6438410904348811,0.6851762421111414,-0.34042066121057024,0.38287527943330807,-0.40628530415337905,0.29880470271733733,0.7266209645870058,-0.19031553328987455,0.541811097304299,-0.37710093394530375
322,9.05974,-1.2469531728326153,0.6288468433676943,2.360119541351735,0.6606707325435307,0.6751088937216186,-0.32800770997367906,0.48028409924908017,-0.39263394832564236,0.2992297135908955,0.7279284456169105,-0.18790644284926722,0.5483369928540732,-0.36618433423969166
323,9.06974,-1.1435110611524248,0.7026140308220264,2.6495095662371013,0.6795857587949541,0.6621433157193437,-0.3155033684787332,0.5817411320776456,-0.36625822506957706,0.2913161960662343,0.7294830752180222,-0.1841480971664928,0.5552662474915753,-0.35435611690427987
324,9.07974,-0.9914164118855354,0.7779729328489903,2.8771769978262336,0.6999631573076679,0.6463665816236736,-0.30338971512053187,0.6349933445542904,-0.3268205834677886,0.25505819998779267,0.7312572840348608,-0.17904211022909516,0.5623417816072228,-0.34193154682800614
325,9.08974,-0.819708015187236,0.905951594989844,3.0501025182635124,0.7213503860538194,0.6279688734835072,-0.2916528051912191,0.5964630036976403,-0.2842036806788535,0.18653816508813473,0.7330643605183834,-0.17255468173876823,0.5695371319305383,-0.3292444529693154
326,9.09974,-0.6651887743232764,1.0817417469349986,3.166050223535168,0.7434040657393537,0.6072828361448973,-0.2797885451141548,0.4633384051866313,-0.2522631368383606,0.10095272197701599,0.7346146246911222,-0.16474768700638945,0.577002544839492,-0.3165362384646476
327,9.10974,-0.5140949951237133,1.25727234977543,3.2172033518754946,0.765647685688475,0.5847933199774613,-0.2674024095561177,0.3001350984822191,-0.23184731271714587,0.023970024889651692,0.7356889505995112,-0.15582438631324574,0.5847905659096885,-0.304014226154985
328,9.11974,-0.31691265169008354,1.4032763109472057,3.2273761906553244,0.7875901206253534,0.5608617599370147,-0.25461308695888396,0.1910261156772219,-0.21350307847685393,-0.02419695897890342,0.7362428663392979,-0.1458972454528357,0.5927602291901213,-0.29192138603123907
329,9.12974,-0.03066371670585666,1.5108556104832471,3.2311757320783823,0.8089219031234268,0.5355345799628753,-0.2419344745390471,0.1678714283426034,-0.18488814839800471,-0.05329783763303101,0.7363741439046323,-0.1348367354998297,0.6006687863222081,-0.28051776272242196
330,9.13974,0.351931762739983,1.5708153213652087,3.232786500973539,0.8294474484433574,0.5086933263505217,-0.2300595066967516,0.21495188543346153,-0.13625694329755333,-0.0859750127269309,0.7362494417324082,-0.12237093504690776,0.6082262532811019,-0.2700779156034664
331,9.14974,0.7961126551510951,1.58831563956155,3.2125376611406993,0.8489561272849032,0.4803609113925071,-0.21955772989205188,0.2942498660378703,-0.07203924870118517,-0.12477204670559801,0.7360063641064094,-0.10830535915942346,0.6151632210637038,-0.26087386780702704
332,9.15974,1.2521769424622882,1.5642042073102964,3.1628680575413815,0.8672132167461201,0.45079712587224996,-0.21072897681671393,0.37241844543782254,-0.006500797208023455,-0.15895263320145275,0.7357238596671806,-0.0926434470226581,0.6212714886651978,-0.2531056982826804
333,9.16974,1.6603089997146456,1.4898746387175876,3.096510309850259,0.8840311692578575,0.42036503020248306,-0.20365234091656956,0.4352214161057647,0.04838427805143701,-0.17839404421883398,0.7354656005158728,-0.0755906833719194,0.626400525750944,-0.2467968094201372
334,9.17974,1.9715946720606161,1.3898803424033506,3.012863425908146,0.8993087598611015,0.389462481015245,-0.19815771272784155,0.4769008430463621,0.0831703824736006,-0.1768302683113262,0.7352690176120797,-0.05752846180936173,0.6304953625995311,-0.24177118355859062
335,9.18974,2.1701991888134815,1.2993832579779585,2.905191307575738,0.9130250665317684,0.35856423340682564,-0.19374443947014391,0.48521984747708835,0.09599135974352026,-0.15562886520288446,0.7350716289640182,-0.0389253361828002,0.6336591076483702,-0.23777866631157715
336,9.19974,2.2566174359691007,1.239130019016777,2.7813002060282668,0.9252368664314454,0.3281560928766843,-0.18970987540958664,0.444253052075238,0.09602992077893119,-0.11641219366867511,0.7347347116616441,-0.020239217103099928,0.6361199211486521,-0.23455828360063935
337,9.20974,2.2146459309467725,1.213827679643942,2.642022657368736,0.9360500668289203,0.2986928891496191,-0.18535164689519448,0.36030546997458257,0.09544576605785281,-0.06363444114322858,0.7341223526517807,-0.0019214760688166573,0.6381529525632471,-0.231815370896188
338,9.21974,1.9981497105977324,1.2006708511516095,2.4832438401284627,0.945569539689762,0.2706938002738089,-0.18003428920172496,0.26233055353392287,0.09322071738376479,-0.009581693685945223,0.733152407632727,0.015434427630034542,0.6400580995669217,-0.22913431619794045
339,9.22974,1.6233743057955992,1.1807606315785502,2.298908384483924,0.9538568671988573,0.2447414025932939,-0.17343095169612338,0.16995247970006502,0.07786453512382209,0.03808390766403125,0.7318531802942435,0.031126805765497596,0.6420752280638002,-0.22605991956613988
340,9.23974,1.1418041511803176,1.1527376785584547,2.0942972425056072,0.9609701777340045,0.2213388574956304,-0.16551681547588337,0.0819692420987537,0.04145936278687799,0.08076763373228864,0.7303076113586902,0.04458100619421812,0.6443718448726103,-0.22227041818487153
341,9.24974,0.5973767960473041,1.1003845391536742,1.8972582121050898,0.9670089078456515,0.20069296974560283,-0.1565050365632407,-0.0030773824125471666,-0.0172033769686512,0.08862901629499657,0.7286487783916015,0.055441753328297746,0.6470307687725493,-0.21752242413733144
342,9.25974,0.06313393265943607,1.0159774910480952,1.7230380129214997,0.9720953850915589,0.18263607661480788,-0.14688397312471826,-0.06694893727792355,-0.07163434863183704,0.050374985163476285,0.7270642711222861,0.06364175343786135,0.6499948098165962,-0.21168145099085356
343,9.26974,-0.417362062790117,0.9134048370255498,1.5600432237502375,0.9763454559232939,0.16688091193858087,-0.13718635018239714,-0.09707558461482957,-0.09124063040768808,-0.001817362201515519,0.7256955426509378,0.06934351267846355,0.6531389590289001,-0.20480638497893436
344,9.27974,-0.8453279104876756,0.8127606461970729,1.398904425562478,0.9798656395235972,0.1532279750468315,-0.12775414709934801,-0.1074897294392593,-0.07170129055947692,-0.04936527700665905,0.7245889193747769,0.07276302215304783,0.6563721363145625,-0.19705762203610708
345,9.28974,-1.249654050459224,0.7363286465711126,1.2472133498107265,0.9827744264171506,0.14152763336681776,-0.11863342219145559,-0.11556098569161455,-0.03025231230801619,-0.08233026584919007,0.723707594305899,0.07406703583897362,0.6596927691891141,-0.18853306734092626
346,9.29974,-1.6319177139925964,0.6798824928881879,1.1157290192963831,0.9851987654737033,0.13154677038505969,-0.10971460470506345,-0.13143074287761608,0.009084456364078838,-0.09410017354051496,0.7229881988542108,0.07340434635197376,0.6631372155193718,-0.17922739072020355
347,9.30974,-1.9810869302483702,0.6343450015846074,1.002425184002963,0.987241437034421,0.12300333833123897,-0.10094287021496232,-0.15443696452507868,0.04044137070587235,-0.08724329031454454,0.7223811640386332,0.0709571330571719,0.6666993462657135,-0.1691457404242472
348,9.31974,-2.2837102432416048,0.5959026437331286,0.9089960481093398,0.9889778482194619,0.11563280006512319,-0.09231322757430523,-0.17012808815239114,0.0710567982971537,-0.07262042760167936,0.7218414197175806,0.0669323277053329,0.6703393861142845,-0.158339831971035
349,9.32974,-2.506209093151366,0.5570456162226898,0.8485267160518308,0.9904734262356174,0.10906463728111032,-0.08390872684116162,-0.1673036212736303,0.10323520141396555,-0.061056911017811064,0.7213430409677167,0.06165791453936865,0.6739679541379381,-0.14692048757824125
350,9.33974,-2.642941032053189,0.5234684295287415,0.8184096868196379,0.991787627235661,0.10287620601762851,-0.07582293786608318,-0.14880063635822077,0.13433533776095097,-0.05646017334034921,0.7208597669561854,0.05554923348801259,0.6774880109276638,-0.13504618866882856
351,9.34974,-2.69137121636439,0.49464765327309923,0.8137331579113253,0.9929673691220902,0.09671571489726655,-0.06810675679358726,-0.12565282223134605,0.16627630614908345,-0.058295830840571855,0.720355872237304,0.049012275711528684,0.6808312119919183,-0.12290069285248843
352,9.35974,-2.64662537906405,0.47234788117998994,0.8289148308428834,0.9940456222071905,0.09029258177058513,-0.06080843192626003,-0.10820548496027946,0.20865111363916708,-0.0639516016908098,0.7197989765492392,0.04246603478538567,0.6839445034197249,-0.11071522700167984
353,9.36974,-2.5254092639339984,0.45874164617650065,0.8587017945975932,0.9950455210300558,0.08338552723982261,-0.05392312948890651,-0.09934766384056927,0.2587120975672837,-0.07447656047270976,0.7191542340854249,0.03628747413299503,0.6868123474718599,-0.09871400327741438
354,9.37974,-2.3450433415936605,0.4466855172040271,0.9059762052122655,0.9959774740136785,0.07583990653768635,-0.04746069088061135,-0.09689303939530237,0.31023082836967525,-0.09360907962527368,0.7184122669275009,0.030769465282916016,0.6894308127742999,-0.08707623939637738
355,9.38974,-2.11816946853955,0.43747971037675976,0.9598819363787894,0.9968422500596235,0.06753947556018787,-0.04144416695183383,-0.09832213093230098,0.36206990581887466,-0.11478810533315706,0.7175828394279413,0.026149737245089604,0.6918009764143467,-0.07594839469450346
356,9.39974,-1.8530183165414418,0.4328588089028746,1.015157450519992,0.9976316248091021,0.05846078565161025,-0.03584616729269862,-0.10141320392176553,0.4086431585147199,-0.1377637136885152,0.7166671678923884,0.022597610921829343,0.6939473628185912,-0.06546766928131958
357,9.40974,-1.5568069253055725,0.4262137458417609,1.0718436535899323,0.9983322122363222,0.0486091909853902,-0.030639294407040486,-0.10864136601508252,0.4453878131893334,-0.1665404495425849,0.7156744731594945,0.020243695200090023,0.6958943087842889,-0.05575150465299146
358,9.41974,-1.230126724342651,0.42315359403383346,1.1197977465420845,0.998926908666692,0.038038183501465234,-0.025778183581721268,-0.12003093069345201,0.4753725692333055,-0.19549827747162446,0.7146116033884576,0.01919323499329141,0.6976688077314073,-0.04692540561543474
359,9.42974,-0.8860507231372161,0.42658515251315526,1.1569151454421434,0.999396328192751,0.02689478712698832,-0.021169941672082047,-0.13036388424963355,0.5020290901339057,-0.22504330043595308,0.7134713495741697,0.0194921900312348,0.6993098785370692,-0.03912012295358164
360,9.43974,-0.5548287249249365,0.44047915245181424,1.1859691230155158,0.9997249951313246,0.01530254705198554,-0.016678953514755342,-0.13733349109039675,0.5252054877608651,-0.2516473355573007,0.7122367637985808,0.021117810348115433,0.7008658237179032,-0.03237967449684547
361,9.44974,-0.26555656831307,0.4633114329489845,1.1893529667386298,0.9999012132265863,0.0034645532412744227,-0.012113446047320054,-0.14383002669442524,0.5397192110561907,-0.26402289073042046,0.7108715063482072,0.023912251350261884,0.7024019113376978,-0.026668022632452156
362,9.45974,-0.050599479513705525,0.48031316474059293,1.158909041729913,0.999919596465247,-0.00827367899976567,-0.007386048921657809,-0.15148923228156422,0.5432942549732649,-0.26500223720987726,0.7093718706988156,0.027555969023892755,0.703948451610682,-0.02189191301760739
363,9.46974,0.08519604883880373,0.48835068232966605,1.1035903547677444,0.9997872013967071,-0.019595797985390462,-0.002529025419237631,-0.1567610749093142,0.5350477329129157,-0.2652734105994113,0.7077716251799593,0.03166975136794811,0.7054981809641568,-0.017883509838846456
364,9.47974,0.1711475513423159,0.48785738858811734,1.032045453753155,0.9995224247008867,-0.03029136337807372,0.0023944957789390027,-0.1573740435153073,0.5226832848437072,-0.2613458879786189,0.7061090546667692,0.035947271175499215,0.7070361442118328,-0.01447798346335365
365,9.48974,0.2221160901741508,0.4786697616217136,0.9419155089404204,0.9991529149120147,-0.0401595214243078,0.007303765408815601,-0.1547641409646457,0.5124898508020032,-0.2591396080496049,0.7044225386377054,0.04017203330294916,0.7085431872450482,-0.011597887115450522
366,9.49974,0.24879109334265573,0.45808062163844815,0.8340191544007215,0.9987134838716835,-0.04901906753474338,0.012089590518977704,-0.14864308003794036,0.5068585371440808,-0.27188556358303384,0.7027577601187629,0.044183078072527054,0.7099919562580362,-0.009210930704889346
367,9.50974,0.2590377847690092,0.4285564171316521,0.7110772953431328,0.9982427012637979,-0.05672040345237504,0.016647033765931737,-0.1363546596546755,0.5088064240925609,-0.2898379481993489,0.7011575250289114,0.04785183722250798,0.7113581305898737,-0.007296912317624351
368,9.51974,0.25259889560633747,0.3969162550310918,0.5801638767115103,0.9977798061285668,-0.06312578050484645,0.020931178588525508,-0.11966118356563953,0.514881940833857,-0.29965288424646497,0.6996422350663564,0.05106805086929558,0.7126395481573061,-0.005845588439086122
369,9.52974,0.22182069720462522,0.35863625881646166,0.44986249387289945,0.9973563222956081,-0.06821554838502474,0.024868565750402395,-0.0995265314140345,0.5168445611318637,-0.3054365471986989,0.6982421017886087,0.05374734798741891,0.7138233520998964,-0.0047915978444421385
370,9.53974,0.16686410837778468,0.30200612362049845,0.32049802881706063,0.9969995521199787,-0.07200619186918047,0.028319666044068825,-0.06934851801965713,0.5153428454495375,-0.30878016805292907,0.6970102868311021,0.055811238551348175,0.7148733698006904,-0.004053254473279217
371,9.54974,0.0906249876520259,0.22764009057517412,0.1805449701681484,0.99673795052487,-0.07447328078988337,0.031066417563984074,-0.0265918136773762,0.5154622208913704,-0.30742813993660806,0.696027258886653,0.057167538269330166,0.7157266750094182,-0.003567527480671228
372,9.55974,-0.009132702545146573,0.16377151315789545,0.016198973202842346,0.9966005723064215,-0.07546610883755996,0.03304070361331417,0.01433725343514259,0.5157262066216622,-0.302290905826316,0.6953191395705748,0.0576757648657721,0.7163754421490964,-0.003308332699790086
373,9.56974,-0.1221755466441458,0.1305847381214438,-0.17203391275493146,0.9966081375539119,-0.07473440978271896,0.03444227677516286,0.03374916957051517,0.5117844506471181,-0.29092769853310396,0.6948150895594701,0.05717808139764056,0.7169041531204821,-0.0032934255740136227
374,9.57974,-0.22897975717610847,0.12118103963532446,-0.3632256066639122,0.9967602186118281,-0.0721222035154874,0.03556316035844363,0.03177618746896329,0.5029020396295316,-0.2686419392261102,0.6944103617928956,0.05560177496300873,0.7174183293291092,-0.003553683384735445
375,9.58974,-0.3070657365006453,0.09942728166434969,-0.5295633339871013,0.9970319312715509,-0.0677440276941503,0.036498336229149456,0.04016107254264714,0.4919654646859901,-0.23951604929881465,0.6940704703857399,0.05305143864487196,0.7179364464811181,-0.004108377033519703
376,9.59974,-0.3356354705474963,0.029746499922717398,-0.6540171002572742,0.9973903404979604,-0.061944729999289974,0.03696277775173435,0.09580314720846259,0.4867543928026072,-0.21751765643393164,0.6938972982718118,0.049798739935679556,0.7183304922513395,-0.0049877381344337075
377,9.60974,-0.31875235794659285,-0.08371778597150772,-0.7548538312913231,0.9978100931106835,-0.05504176706272958,0.03650920325943461,0.1977833875373644,0.4965199739896778,-0.21477278727146998,0.6940502368500518,0.04612406699653034,0.718417620476541,-0.006251654419223812
378,9.61974,-0.25626784829956384,-0.20343511814406434,-0.8615953655849787,0.9982713054495029,-0.04709554105159107,0.03492278801298211,0.29578277888105714,0.5173045653265371,-0.2282966753026835,0.694602687004892,0.04221656615174684,0.7181054989937754,-0.008042756540976425
379,9.62974,-0.15519539747493197,-0.2954410220718737,-0.9885514498752296,0.9987455323092161,-0.03793516868210799,0.03233120464821507,0.33909244811955563,0.540112936213662,-0.25417546776675604,0.6955003867591731,0.03817071160678397,0.7174291974986081,-0.010565128732914557
380,9.63974,-0.04546392406007256,-0.3547280817856673,-1.1345043245511837,0.9991888437024427,-0.02736356039390221,0.029020109128032295,0.31632555334107276,0.5506442842609085,-0.2820284905351277,0.6966288147638879,0.03399550700046766,0.7164845252864369,-0.013957299544966825
381,9.64974,0.06847187183590135,-0.38718868491793434,-1.2832803618238713,0.9995442643990771,-0.015271247188653745,0.02527411947644092,0.2582046313630759,0.5439946091120825,-0.29156005906164917,0.697871038767669,0.029670536334578022,0.7153684873229615,-0.018271073568819695
382,9.65974,0.21408801271370864,-0.413365658695385,-1.4131421691086918,0.9997483618545746,-0.001743258889177193,0.021267096866184363,0.21290166797857615,0.5274622282078405,-0.27387393924190556,0.6991459017118702,0.025289410832495682,0.7141353529533204,-0.02353853423986057
383,9.66974,0.4134214281541873,-0.44203931215053394,-1.516555072602581,0.9997439846534861,0.012974309693122053,0.016969208542954334,0.22011862118857914,0.5130544876605999,-0.23842184728085764,0.7004395089886762,0.021087141336962056,0.7127662242447889,-0.029825128795067102
384,9.67974,0.6742356114637592,-0.4707182248109859,-1.59951183878882,0.9994833290235337,0.0286346006085694,0.012280984817711345,0.27902863046401355,0.509350198269824,-0.2037690468522877,0.7017530358891593,0.017354298665420913,0.7112214409118333,-0.03725634795990066
385,9.68974,0.9941701157294965,-0.49305861386772826,-1.6688104559347678,0.9989253897623521,0.04504336965010179,0.007142542481356417,0.3540459993446244,0.5155912177824643,-0.17719419949543777,0.703061005604476,0.014368281346001833,0.7094804186802183,-0.045986316685311335
386,9.69974,1.3377967371410553,-0.51681448809695,-1.7216884089246727,0.9980361273966962,0.06203276091159275,0.0014591817548613166,0.42096985500678785,0.5240949409879968,-0.1554208617172448,0.7043404260281163,0.012330435708631644,0.7075139412377731,-0.05611982912656119
387,9.70974,1.6700192498943716,-0.5579240205786102,-1.7559336191815174,0.9967945410010223,0.07936035556360505,-0.004976590266942816,0.47475463826006004,0.5227621363936515,-0.13605610307901006,0.7056106384450849,0.011323437368944665,0.7052532484616282,-0.06760152234541146
388,9.71974,1.962949021457854,-0.62888493622436,-1.783623691397928,0.9951809109926194,0.09683184565515311,-0.01250285915573779,0.5232276672132595,0.5069209737060674,-0.11322486258714112,0.706942112917783,0.011294545175043148,0.7025804020996512,-0.08028798057446582
389,9.72974,2.205867207487314,-0.7080139562683981,-1.8296011648001353,0.9931561888722936,0.1144311830160203,-0.021386895709377136,0.5634733048859847,0.4795244089293689,-0.08822679040879372,0.7083831079036851,0.012058408029035381,0.6993986291135622,-0.09403550962766066
390,9.73974,2.386842879147299,-0.7737702345189399,-1.9011077445131996,0.9906546301988873,0.13231202325873018,-0.03161204193899703,0.5725201998576424,0.4413076003921993,-0.06117655411873536,0.709884883332053,0.013336452712421287,0.6957100157533095,-0.10871840647778613
391,9.74974,2.5162284981733527,-0.8252877763377917,-1.993351617435609,0.98759059061827,0.15067945889151596,-0.043038257803838534,0.5350967325063035,0.39156649243681557,-0.03537566245478621,0.7113617857493002,0.0148244064824107,0.6915609652519115,-0.12421250151224197
392,9.75974,2.581086547262056,-0.8850755158269178,-2.096663773578862,0.9838661768301002,0.16966535510756636,-0.05567913873909866,0.47359466961250735,0.33245931430195386,-0.01198349265469331,0.7127905226007113,0.0162627866742259,0.6869429125043917,-0.14039318874957835
393,9.76974,2.5806759491301907,-0.9602308003532448,-2.2117895165482975,0.9794027334082663,0.18924914120020533,-0.06944255406261884,0.41719214093111545,0.2681821673845664,0.013812642953249386,0.7141456220060479,0.017402571840817144,0.6818869441290425,-0.1570226443314597
394,9.77974,2.533744543474285,-1.0359699108109193,-2.3343850147472636,0.9740887219532083,0.2095074441977501,-0.08432133735805927,0.3719864408920064,0.20580947052807763,0.03919945970855125,0.7154318636847018,0.017999515837715512,0.6763937099271291,-0.173940058713464
395,9.78974,2.4262460846445584,-1.1107244395745304,-2.452273536430749,0.9678200513890621,0.230474029284753,-0.10021751034406899,0.3307314555841667,0.14733102710957763,0.05873068761915341,0.7166405811651831,0.01784736411556828,0.6704959942929195,-0.19097676383091752
396,9.79974,2.2601969076855513,-1.1866435826974195,-2.5668594915732585,0.9605081349089637,0.25212907552755465,-0.11695344886687642,0.2864486846713208,0.08156195420552294,0.07986783297278854,0.7177678329654641,0.016739542047644974,0.6642544692948458,-0.20790562895546855
397,9.80974,2.056385339925869,-1.2543289029521816,-2.687271770470902,0.9520462925833868,0.2745497422361437,-0.1343067162300047,0.23963393144499429,0.015300042415536008,0.10656828026131451,0.7187889503491448,0.014495519040845142,0.6577429561767993,-0.22458145461604262
398,9.81974,1.8322319814828307,-1.3105886359246615,-2.799093843680205,0.9423428689518937,0.29777985120517925,-0.152022106301704,0.19146578045198248,-0.0447261912882558,0.13242253068806797,0.7196653354894306,0.011017264756614192,0.6510412378006539,-0.2409083274029759
399,9.82974,1.6130536995264457,-1.3529465261077993,-2.8932643828623585,0.9313637201844099,0.32171303599072837,-0.16983601881036078,0.14541446829805138,-0.09908967975584917,0.1585302747749671,0.7203583719398025,0.006333001437517154,0.6442255604144012,-0.2568055527265307
400,9.83974,1.4048985130395801,-1.3841601759502582,-2.9695982365055666,0.9191107260958532,0.34617698911476213,-0.18753649415082538,0.10806682466427725,-0.14135763580857877,0.18440599854804077,0.7208389217642673,0.000550077200744091,0.6373488771199646,-0.27223184717657656
401,9.84974,1.220422494533329,-1.4068961652479732,-3.0233054192587145,0.9056104125494547,0.3709721396493419,-0.20497785419007764,0.07987445283636577,-0.1710000972388795,0.20891622313361274,0.7210892421609004,-0.006181068672341757,0.6304383644738791,-0.2871814433858376
402,9.85974,1.0675206452067456,-1.4253083569581249,-3.0524162608547,0.8909197932698493,0.39585408201828337,-0.22209085683092217,0.06572656791138799,-0.194441981709245,0.23511991574983487,0.7211128192975608,-0.01367978652094361,0.6234941074777297,-0.3016600697958354
403,9.86974,0.933624315798657,-1.4366841413378428,-3.058352182083951,0.8751374494533467,0.4205537848141176,-0.23881308124028117,0.06150531834617745,-0.21908868806722845,0.2585107296910063,0.7209214167242038,-0.02176288697612236,0.6165189159386135,-0.31565634402394893
404,9.87974,0.8187153367389202,-1.441223792322353,-3.045586738727608,0.858372765867909,0.44485591961000026,-0.25507755933414256,0.06209222480526006,-0.24492567377817237,0.27980317392502646,0.7205277389889664,-0.03028583675259148,0.6095230726454167,-0.32915296420151335
405,9.88974,0.7212683715125268,-1.438590960577192,-3.010863476422942,0.8407546082195756,0.4685662717616985,-0.27082749335214823,0.06220466409910026,-0.2692247623136338,0.29994734293823133,0.7199429816490535,-0.03910710371172318,0.6025201060377076,-0.342142862014621
406,9.89974,0.6372437070028436,-1.4371383456195999,-2.956970147324143,0.8224226576660156,0.4915043029103775,-0.2860453548876769,0.06105020652723719,-0.2915659593315896,0.3169537236212055,0.7191992147747773,-0.048108961889712434,0.5955132229445141,-0.3546040025014478
407,9.90974,0.5622064445294839,-1.4350431871332496,-2.8927449558094045,0.8035033391278267,0.5135424588371398,-0.3007366386773558,0.05906199067119921,-0.31197811690007166,0.3336291024864089,0.7183343458251301,-0.05720688057002369,0.5884998207129264,-0.36651847015443184
408,9.91974,0.4893365873511303,-1.4273373813619354,-2.812962848569242,0.7841357711775342,0.5345930543293798,-0.31486046464445566,0.058508811332706516,-0.3322135525837696,0.34952860079468234,0.7173729224040085,-0.06633450744714844,0.5815003278410579,-0.37786332232830977
409,9.92974,0.41478594546601694,-1.4189655854447272,-2.717441800237018,0.7644860177298427,0.554574650700314,-0.32835256461762813,0.059977544107457266,-0.3489737866174894,0.3630212282499127,0.7163463005179753,-0.07543931598465456,0.5745486872384683,-0.3885890648099659
410,9.93974,0.328626928731601,-1.4053543815319638,-2.6100815412417617,0.7447170869310008,0.5734557963301598,-0.34112312442913195,0.06310993520854294,-0.36503199243892226,0.3781030274049296,0.7152849877326777,-0.08450163174448479,0.5676901225618207,-0.3986340584437103
411,9.94974,0.22071628875625712,-1.378637930165013,-2.4880171212091597,0.7250225123280181,0.5912576209285872,-0.3529748428874562,0.06730798169781586,-0.38280672862906107,0.39528266853851496,0.7141972336108183,-0.09352681390635068,0.5610172036980123,-0.40791294579123005
412,9.95974,0.09830995207717606,-1.341535495291673,-2.350625521646213,0.705616925367319,0.6080204136981001,-0.3636842102399342,0.07283139930300785,-0.4038412727755229,0.4152627648061432,0.7130854356486798,-0.10251960730483309,0.554638343681532,-0.4163383211991424
413,9.96974,-0.04130764671394575,-1.298506705159613,-2.1932593971036747,0.6867163871274815,0.623768943466377,-0.3730948446846268,0.08534499745798999,-0.4256307778384138,0.437241683769997,0.711973107453676,-0.11147352385630374,0.5486378880187539,-0.42382912142435564
414,9.97974,-0.18590579258205364,-1.2466214274417236,-2.017815372327854,0.6686034781247491,0.6384912931785477,-0.3810292151806186,0.10148236295910901,-0.44779687975338717,0.4584397256502132,0.7108859778030614,-0.1203506254091714,0.5431206130819694,-0.4302883837519325
415,9.98974,-0.32657371463472895,-1.186064693111806,-1.8211616690284007,0.6515243807554506,0.6521728054592555,-0.3874136175036057,0.12026829740616231,-0.46635223201955406,0.4771837969649592,0.7098561318559866,-0.12909274286378203,0.5381532228449637,-0.43566710760435345
416,9.99974,-0.4606293701495787,-1.117860005930792,-1.607957490343228,0.6357363242169727,0.664762146039409,-0.3922384665259862,0.13905373153856154,-0.4807868182376145,0.49165156594632337,0.7089252267525317,-0.13761138549891497,0.533785097297353,-0.43993289343878245
417,10.00974,-0.5836871024554906,-1.0469951640137953,-1.3704383653111512,0.6214835034424308,0.6761996110464349,-0.3955370892002321,0.1571735411396288,-0.4910705043348633,0.5018732466190708,0.7081412495557624,-0.14581582125750564,0.5300509365667736,-0.4430606582125572
418,10.01974,-0.6953178238252092,-0.9719354261246034,-1.113969036801775,0.6090120238904957,0.6863978184098538,-0.3973857787869164,0.17517862259218647,-0.49651081612478526,0.5066782540848666,0.7075668659348956,-0.15360934085423356,0.5269708795930769,-0.44501836814213946
419,10.02974,-0.7988121109147559,-0.8897189498406299,-0.8419320428974416,0.5985588116831477,0.6952853413737501,-0.3978351859966624,0.19216653152049096,-0.4985403230254402,0.5061909747063619,0.7072469699651593,-0.16090138914836935,0.5245783272807666,-0.4457793522831874
420,10.03974,-0.8875872762937254,-0.798980463120999,-0.5616314992654782,0.5903102240235495,0.7028142585251722,-0.3969441655075615,0.20852309644738548,-0.49779988807827485,0.5033921209016643,0.7072017845691941,-0.16760633588882834,0.5229029163125322,-0.44535110867868444
421,10.04974,-0.9617415954215812,-0.7040654959746866,-0.2812087630773882,0.5843656170215912,0.7089587222593338,-0.39481828342123104,0.22468898272176982,-0.4953748086617795,0.4968535649673773,0.7074382198934064,-0.1736545791288416,0.5219466482996319,-0.44377880216485077
422,10.05974,-1.0221084739812574,-0.6122060929244509,-0.010483716297302492,0.5807564767126874,0.7137062057447205,-0.39158361603303227,0.23999257570903648,-0.4883574278427517,0.4856742555869005,0.70795804085055,-0.17900026773265582,0.5216915588745619,-0.4411185077671317
423,10.06974,-1.0655155006430246,-0.5218073966238497,0.24579070740454823,0.579401297383376,0.7170895284950661,-0.3873902691205907,0.2546127681134566,-0.4781453994496136,0.4688501462232779,0.7087493188127826,-0.18363869886027598,0.5220899550276691,-0.43745459351290505
424,10.07974,-1.0957059094857526,-0.4190967776879722,0.4896871316742242,0.5802356694410681,0.71911526337247,-0.3823532862789564,0.2716945744240117,-0.46570621267303985,0.4454764506030853,0.8007515509197412,-0.3714534123664384,0.3921665814656182,-0.10813611990577288
425,10.08974,-1.145244653167189,-0.3041223032169438,0.7362474103581313,0.5832638775287684,0.7197947507147093,-0.37641700143167744,0.29141741485826095,-0.453754780145591,0.4236468960291157,0.8295694163143738,-0.43558038671021154,0.34936938023765113,0.0041375696142442455
426,10.09974,-1.2240031570819594,-0.16486086287616655,0.9877229999617471,0.5885769130759719,0.7191540319345622,-0.36929450689138943,0.31231210326457826,-0.44975981959697797,0.4059151854010059,0.8273652477095843,-0.43896325945999615,0.3502309671570383,0.0102881201360478
427,10.10974,-1.3321516344828284,0.021579414372300487,1.2501288237677526,0.5963269837801982,0.7171880494179812,-0.36056446314931473,0.33943942021256157,-0.4536702938695356,0.4017984149257366,0.824604019555101,-0.4422678373770667,0.3522980738511936,0.01730625594672787
428,10.11974,-1.4449586902993323,0.2330001824454263,1.5414089204310113,0.6067433664770254,0.713734071249946,-0.34985567158825087,0.37851138572546406,-0.4617227602461856,0.40813313051800687,0.8211443063116658,-0.4455309393656478,0.35576649610042077,0.0252143690052124
429,10.12974,-1.5270250295369272,0.42151200030936414,1.856870632486456,0.6199474624188401,0.70842273862228,-0.3372410172019696,0.44139023076150563,-0.46382150574878656,0.41911415824971254,0.8169696774524455,-0.44863659092644015,0.3606910496180823,0.034101490117780374
430,10.13974,-1.5280976845981642,0.5746541724185007,2.1751278559649134,0.6357983608634776,0.7008184896262155,-0.32329245004515006,0.5312875329584303,-0.4479881573164491,0.422616771901024,0.8122129804650089,-0.4513122635287636,0.3669633924186659,0.04397811197922982
431,10.14974,-1.4383687549670698,0.674917275343412,2.463924883800331,0.653931320718141,0.6905379586582686,-0.30888817473859936,0.6150517991844935,-0.4140338550249909,0.40659806710314733,0.8071084608591556,-0.45318835610442537,0.3743865647541749,0.054720940818563546
432,10.15974,-1.2645385418404693,0.7694531740897607,2.6936178943585696,0.6737597218480985,0.6774936164157714,-0.29480816007990884,0.6471434060601035,-0.3703788688580677,0.3589043284192492,0.8018829144486154,-0.4539785271814465,0.3827355838347334,0.06603296867713127
433,10.16974,-1.034261147851875,0.8859152162761199,2.877097713775674,0.694799018231155,0.6617412398380474,-0.2814193158464798,0.5976292608741529,-0.324344273070652,0.28262855761268424,0.7966632697967894,-0.45348356936722267,0.3919533425199135,0.07752175086454786
434,10.17974,-0.7755515828386429,0.9922741636458285,2.9987379448466904,0.7165911272188766,0.6434683976241167,-0.2688391481049558,0.47716609012278205,-0.2852687153189623,0.18184674138185017,0.7915146761354194,-0.4516346610272359,0.40197975965592736,0.08886822468826373
435,10.18974,-0.5020370340010025,1.051170910637079,3.0467877775353274,0.7384612412560304,0.6231234182495141,-0.25732137297940344,0.3325905864901938,-0.2559841745566601,0.06945264702073184,0.7865585557094421,-0.4484776559031937,0.41253551915233405,0.09981029742950875
436,10.19974,-0.20457975854975338,1.1030691134486865,3.05208538964848,0.7598500735275625,0.6011723762541462,-0.2470647506963448,0.2232535846900872,-0.22654460037669866,-0.023771530934816057,0.7819127563455796,-0.44406351370680447,0.4233806966285702,0.11010785458005129
437,10.20974,0.13832697583975423,1.1922910922989416,3.0403229832149172,0.7805904001771989,0.577803100144143,-0.2379968642935383,0.17168799356987938,-0.18483188621249688,-0.07279976733146372,0.7776200110914675,-0.43833519674099847,0.43455297511886937,0.11953300012003923
438,10.21974,0.4911537898227786,1.2920200306423073,3.029021811622043,0.8006599300826451,0.5530835214474703,-0.22991399861329234,0.165425825079463,-0.13207713027838783,-0.08577263181601512,0.7736815137240097,-0.4312128953232704,0.4461682770683699,0.1279079879674276
439,10.22974,0.8065250663959047,1.3577434964988826,3.0087709517782617,0.8199793136875991,0.5271426367500687,-0.22264588430991492,0.19688045703134738,-0.08915317980392273,-0.0880523999537215,0.7700776817096178,-0.4227486179093294,0.45817421231361893,0.1352515528283525
440,10.23974,1.0630300142798468,1.358484728986334,2.9750048905095747,0.8383458260515532,0.5002688316867456,-0.21616131808504604,0.27121591284154145,-0.06779201070629123,-0.0803930605019411,0.7668042793069597,-0.41313535245848665,0.47031701239401524,0.1417174388355219
441,10.24974,1.255463803188482,1.3015349403603285,2.940278975576518,0.8555753523260997,0.47274828037095024,-0.2105297366001553,0.3729442080573359,-0.0589017358623142,-0.05772314423606062,0.7638646017042325,-0.4026085539848487,0.4822856496213989,0.14754365311994955
442,10.25974,1.3887349970374454,1.2325323075595793,2.9118913144620695,0.8716459575982387,0.4447074224410336,-0.20565981164349562,0.4662444451288583,-0.05605332144616793,-0.0228871347989914,0.761205166732996,-0.3913550589699009,0.49393162855243816,0.152941432795416
443,10.26974,1.4378884047136076,1.1756409445393097,2.850168966060602,0.8865142859422008,0.41647099594775355,-0.20119284570723261,0.5152164768850616,-0.052102469340284896,0.014203852793342405,0.7586926936575189,-0.37970068879914853,0.5051622026058397,0.1580409098456238
