time,seconds_elapsed,rotationRateX,rotationRateY,rotationRateZ,gravityX,gravityY,gravityZ,accelerationX,accelerationY,accelerationZ,quaternionW,quaternionX,quaternionY,quaternionZ
1681410819677708000,0.0957080078125,0.04787186160683632,0.017082247883081436,0.12081947177648544,0.12436416000127792,-0.06884857267141342,-0.9898451566696167,-0.010777637362480164,0.006913095712661743,-0.008644163608551025,0.9974580853533085,0.03451201209867972,0.06234054453086681,-3.186484180830862e-18
1681410819687685000,0.10568505859375,0.0028122421354055405,0.022520050406455994,0.1328568309545517,0.1244795098900795,-0.06924407184123993,-0.9898030757904053,-0.004301190376281738,-0.01487768441438675,0.0005910992622375488,0.9974473310931266,0.03467189470213327,0.06242055954084401,0.0006191241429126806
1681410819697661200,0.1156611328125,-0.03616072237491608,0.03159716725349426,0.15594030916690826,0.12465769797563553,-0.06925275921821594,-0.9897800087928772,-0.0019006356596946716,-0.03270652890205383,0.014163613319396973,0.9974408148503515,0.034630940403391694,0.06253544113584444,0.0013442843008487394
1681410819707638000,0.125637939453125,-0.05877718701958656,0.030356934294104576,0.1589246690273285,0.12484236806631088,-0.06898041814565659,-0.9897757768630981,0.0022024139761924744,-0.03969273716211319,0.013610005378723145,0.9974383756471387,0.03444366856516633,0.06265577119581685,0.0021509847032634417
1681410819717613600,0.135613525390625,-0.05119569972157478,0.04636865854263306,0.1530579924583435,0.12508095800876617,-0.06861761212348938,-0.9897708892822266,0.0026046931743621826,-0.031800538301467896,0.022851943969726562,0.9974351071534671,0.03421148745865819,0.06280237380476544,0.0029467957158284415
1681410819727590400,0.14559033203125,-0.03980376198887825,0.0675496831536293,0.13702961802482605,0.12554149329662323,-0.06833460181951523,-0.9897321462631226,-0.0029979944229125977,-0.026056356728076935,0.026704251766204834,0.9974298138992181,0.03425534412981818,0.06293249556000614,-1.1994846800957948e-17
1681410819737566500,0.15556640625,-0.015241160057485104,0.08370069414377213,0.11520235240459442,0.12609930336475372,-0.06795158237218857,-0.9896876215934753,-0.01673939824104309,-0.02248736470937729,0.024721801280975342,0.9974184484814217,0.03402320052822547,0.06323464788860002,0.0006392516679098472
1681410819747543300,0.165543212890625,0.03309091925621033,0.10587118566036224,0.09800650179386139,0.12679077684879303,-0.06795169413089752,-0.9895992279052734,-0.021962717175483704,-0.001216500997543335,0.024679243564605713,0.9973958256442456,0.033988813028241596,0.06360138760315442,0.0011878176787215443
1681410819757519400,0.175519287109375,0.05802130326628685,0.12753599882125854,0.07253789901733398,0.12768103182315826,-0.06843627989292145,-0.9894514083862305,-0.020320013165473938,0.01565602421760559,0.02434825897216797,0.9973581696265265,0.03420545890805827,0.06406478465711402,0.0016084686309762789
1681410819767496400,0.185496337890625,0.0628332644701004,0.14446954429149628,0.08083805441856384,0.12888804078102112,-0.0692453607916832,-0.9892385601997375,-0.023464888334274292,0.01451198011636734,0.028392672538757324,0.9973040287670968,0.03458719165762822,0.06468724468356979,0.001990099962797205
1681410819777472500,0.195472412109375,0.0966692641377449,0.14579713344573975,0.10099312663078308,0.13022300601005554,-0.0705498531460762,-0.9889715313911438,-0.03038458526134491,0.020012646913528442,0.0327795147895813,0.9972360890933547,0.03521214236475766,0.06537843901841074,0.002448944695749739
1681410819787449300,0.205449462890625,0.10653527826070786,0.1465262621641159,0.12658680975437164,0.13158480823040009,-0.0721127837896347,-0.988678514957428,-0.022865787148475647,0.017699845135211945,0.033295273780822754,0.9971611036164214,0.03595835422289562,0.06608890954083062,0.003028025979579528
1681410819797425200,0.215425048828125,0.08214658498764038,0.14964614808559418,0.1450052261352539,0.13295824825763702,-0.07350969314575195,-0.9883918166160583,-0.005608230829238892,0.006523504853248596,0.022907257080078125,0.9970868518015295,0.036613710814430434,0.06680955377747888,0.0037090046913425714
1681410819807402500,0.225402587890625,0.0434589721262455,0.15011118352413177,0.1590508073568344,0.13426966965198517,-0.07451051473617554,-0.9881395697593689,0.007652506232261658,0.002061687409877777,0.017756938934326172,0.9970204737349743,0.03706277849443953,0.06750227648947359,0.004487402864388066
1681410819817378300,0.23537841796875,0.021711066365242004,0.1398439109325409,0.15889102220535278,0.13540953397750854,-0.07517872005701065,-0.9879333972930908,0.009366020560264587,-0.008866794407367706,0.010653793811798096,0.996964671663533,0.03734053609282393,0.06811005835128012,0.005317336802262432
1681410819827355400,0.24535546875,-0.013618762604892254,0.1312597393989563,0.14668305218219757,0.136415496468544,-0.07542174309492111,-0.9877764582633972,0.00556771457195282,-0.014437370002269745,0.008223295211791992,0.9969208872591889,0.0374078279808836,0.06864702472022571,0.006092428007315555
1681410819837331200,0.255331298828125,-0.06663137674331665,0.11911892145872116,0.14690914750099182,0.13733452558517456,-0.07511800527572632,-0.9876722693443298,-0.0008749961853027344,-0.01870838552713394,0.00918722152709961,0.9968897922888396,0.037200444176355325,0.06913747997944081,0.0068596843306011155
1681410819847308300,0.265308349609375,-0.12933437526226044,0.10704521089792252,0.14175784587860107,0.1381191611289978,-0.07423031330108643,-0.9876299500465393,-0.010372400283813477,-0.02682875096797943,-0.002070307731628418,0.9968736402490551,0.036699374077505786,0.06955695034613511,0.007627081248554165
1681410819857284400,0.275284423828125,-0.1800161898136139,0.09906105697154999,0.13897430896759033,0.13875779509544373,-0.07272768020629883,-0.9876522421836853,-0.0120181143283844,-0.04621468484401703,-0.005069255828857422,0.9968730001566386,0.03588941758668132,0.06989868578106363,0.008392850095238276
1681410819867261400,0.285261474609375,-0.21488086879253387,0.08833623677492142,0.15635380148887634,0.13936477899551392,-0.07084305584430695,-0.9877037405967712,-0.01145017147064209,-0.05508783459663391,-0.006955623626708984,0.9968787584777669,0.03488400150773526,0.07022268436925924,0.009205111405958791
1681410819877237200,0.2952373046875,-0.19657829403877258,0.04822024703025818,0.18668214976787567,0.13989587128162384,-0.06881952285766602,-0.98777174949646,-0.0018494576215744019,-0.045758821070194244,-0.008367717266082764,0.9968865389918271,0.033798420354801316,0.07051094881818117,0.010162539335146593
1681410819887214300,0.30521435546875,-0.1844436675310135,0.0662166103720665,0.14917828142642975,0.1404169797897339,-0.06749854981899261,-0.9877889752388,0.01409369707107544,-0.03473544120788574,0.00033169984817504883,0.9968820578444451,0.03307435662344263,0.07079271542418547,0.010990410846571331
1681410819897190400,0.3151904296875,-0.13903038203716278,0.051285065710544586,0.09667033702135086,0.14094007015228271,-0.06604579836130142,-0.9878126382827759,0.02023869752883911,-0.029108114540576935,-0.005091965198516846,0.9968798400885229,0.03229142614970046,0.07106991395499254,0.011709977207421772
1681410819907167500,0.32516748046875,0.07509579509496689,0.030777394771575928,0.13100722432136536,0.14130228757858276,-0.06625311076641083,-0.9877470135688782,0.0015354156494140625,0.0006859824061393738,-0.0019227266311645508,0.9968562476353265,0.03235183621129659,0.07127302666788267,0.012296707856193231
1681410819917143300,0.335143310546875,0.12559092044830322,0.04238265007734299,0.20613686740398407,0.1415010243654251,-0.06763307005167007,-0.9876250624656677,-0.004019185900688171,0.023687660694122314,0.0114593505859375,0.9968152286713489,0.03298516738238603,0.07141048181905896,0.013113174771880627
1681410819927120400,0.345120361328125,0.2319374978542328,0.02120380848646164,0.25063857436180115,0.14154508709907532,-0.07000414282083511,-0.9874535202980042,0.008967787027359009,0.05462317168712616,-0.00468820333480835,0.996757225070061,0.03409699961990052,0.07148877791513247,0.014206979422497488
1681410819937096400,0.355096435546875,0.21911491453647614,0.01152108795940876,0.2509711980819702,0.14147202670574188,-0.07283476740121841,-0.9872592091560364,0.017555251717567444,0.05629412829875946,0.018524527549743652,0.9966907410296166,0.035432960014574154,0.071518499285407,0.015404111889946587
1681410819947073500,0.365073486328125,0.16036677360534668,-0.004522219300270081,0.21126140654087067,0.1412568986415863,-0.07533339411020279,-0.9871025085449219,0.017053216695785522,0.004898719489574432,0.00518423318862915,0.9966339629021322,0.03661090054530555,0.07147297070769322,0.01649616625213057
1681410819957049300,0.37504931640625,0.04692357778549194,-0.004080933518707752,0.18282683193683624,0.14102661609649658,-0.07684239000082016,-0.9870191216468811,0.004221975803375244,-0.010239623486995697,0.008076310157775879,0.9965970544269459,0.037303085027159816,0.07140671653227104,0.017436038431822405
1681410819967026400,0.3850263671875,-0.11524715274572372,0.014136046171188354,0.2142685353755951,0.14108039438724518,-0.07687578350305557,-0.987008810043335,-0.017484039068222046,-0.047620780766010284,0.010858356952667236,0.9965762934629803,0.037247273208883554,0.0714718433533574,0.018442837301023404
1681410819977002500,0.39500244140625,-0.20277006924152374,0.008114905096590519,0.1729799509048462,0.14114388823509216,-0.07558385282754898,-0.9870995283126831,-0.03625479340553284,-0.08744116127490997,0.02265256643295288,0.9965794306102557,0.03652372541701848,0.07152797007577269,0.019476738604795946
1681410819986979600,0.4049794921875,-0.292624831199646,0.07003387808799744,0.30283698439598083,0.14128459990024567,-0.07341859489679337,-0.9872428178787231,-0.037845104932785034,-0.11130440980195999,0.03752058744430542,0.9965931505408108,0.03535565064634277,0.07161403446085139,0.020583920637065233
1681410819996955400,0.414955322265625,-0.3303346335887909,0.015493673272430897,0.30219727754592896,0.1413055658340454,-0.0706895962357521,-0.987438976764679,-0.04143664240837097,-0.11465901881456375,0.04603278636932373,0.9966052552569347,0.03386166818296359,0.07165126101789393,0.022303606025853826
1681410820006932500,0.424932373046875,-0.37842145562171936,0.009836265817284584,0.3031333386898041,0.14136789739131927,-0.06760434061288834,-0.9876461029052734,-0.007532894611358643,-0.09149915724992752,0.05432701110839844,0.9966196205017753,0.03219556993372363,0.07169663206285799,0.023926284423279532
1681410820016908300,0.434908203125,-0.3695709705352783,0.03263106197118759,0.2930828332901001,0.14132532477378845,-0.0643080547451973,-0.987872302532196,0.00851614773273468,-0.09900687634944916,0.060763537883758545,0.9966368139319335,0.0304270358888995,0.07168025450556507,0.025520605709192196
1681410820026885400,0.444885498046875,-0.3366515338420868,0.040006525814533234,0.35136115550994873,0.14151081442832947,-0.06126515939831734,-0.9880390763282776,-0.017288848757743835,-0.09503072500228882,0.06581318378448486,0.9966323735402914,0.028772118184247127,0.07178170659888687,0.027268159442477857
1681410820036861400,0.454861328125,-0.2597423791885376,0.03139466047286987,0.37384435534477234,0.14164938032627106,-0.05881348252296448,-0.9881682395935059,-0.03978152573108673,-0.08902903646230698,0.06697988510131836,0.9966105549989513,0.0274022510616962,0.07186798021157137,0.029183630208726555
1681410820046838300,0.46483837890625,-0.16582877933979034,0.025885965675115585,0.4233722388744354,0.1416994333267212,-0.05727582424879074,-0.9882513880729675,-0.03343816101551056,-0.06818205118179321,0.06564396619796753,0.9965689019202927,0.026481698870332523,0.07192384811119998,0.031242421651126763
1681410820056814300,0.474814453125,-0.15041573345661163,0.03392152115702629,0.4879200756549835,0.141740083694458,-0.05641636624932289,-0.9882949590682983,-0.02185159921646118,-0.03306128457188606,0.08553928136825562,0.9965045751080368,0.02588263623598699,0.07199030522048218,0.033560319781732594
1681410820066791400,0.48479150390625,-0.21318329870700836,0.03981051594018936,0.540077805519104,0.14182063937187195,-0.05539160966873169,-0.9883413910865784,-0.030507609248161316,-0.040754131972789764,0.09257423877716064,0.9964242715863247,0.025177530183182324,0.07207914228505918,0.036186639014907436
1681410820076767500,0.494767578125,-0.3503377139568329,0.047593072056770325,0.6140580177307129,0.14194487035274506,-0.05347418412566185,-0.9884291291236877,-0.039985477924346924,-0.0766986608505249,0.11158287525177002,0.9963345815927259,0.023999853112612955,0.07217642185457407,0.03914308550109373
1681410820086744300,0.504744384765625,-0.49067172408103943,0.05779963731765747,0.6856815814971924,0.14210818707942963,-0.050261203199625015,-0.9885742664337158,-0.04571826756000519,-0.12283460795879364,0.1313202977180481,0.9962318907107198,0.02214000984619677,0.072268163543791,0.0425362644032882
1681410820096720400,0.514720458984375,-0.6265683174133301,0.05471649393439293,0.7384400963783264,0.14233899116516113,-0.045731015503406525,-0.9887610077857971,-0.0430804044008255,-0.16575591266155243,0.15363222360610962,0.9961118957717282,0.01959301245832295,0.07235758505165531,0.0462795355354279
1681410820106697200,0.524697265625,-0.6760407090187073,0.0644460916519165,0.8093100786209106,0.1426011174917221,-0.04033223167061806,-0.9889581799507141,-0.032798707485198975,-0.1916930377483368,0.1725214123725891,0.9959632366589549,0.01658541689517611,0.07242821664700767,0.05036227279925805
1681410820116673500,0.534673583984375,-0.6481086611747742,0.09395897388458252,0.8810974359512329,0.14308111369609833,-0.034974925220012665,-0.9890927672386169,-0.029647111892700195,-0.1791822910308838,0.20941448211669922,0.9957623331221533,0.013566409003551905,0.07259171277400608,0.05480713876843853
1681410820126650400,0.544650390625,-0.5931195616722107,0.14408078789710999,0.9546303153038025,0.14394499361515045,-0.030131323263049126,-0.9891268610954285,-0.03649245202541351,-0.16940797865390778,0.22492098808288574,0.9954956347525625,0.01076699871802574,0.0729427378001405,0.0595969000057231
1681410820136626400,0.55462646484375,-0.4979563057422638,0.21041320264339447,1.0438169240951538,0.14539873600006104,-0.026192843914031982,-0.9890263676643372,-0.0573095977306366,-0.16116994619369507,0.23922479152679443,0.9951483654425313,0.008371283487003249,0.07359850743374112,0.06475338943700261
1681410820146603300,0.564603271484375,-0.4126488268375397,0.28340694308280945,1.1400424242019653,0.1475498229265213,-0.023296207189559937,-0.9887802004814148,-0.08179953694343567,-0.13855388760566711,0.26844334602355957,0.9947063547289998,0.006432218983406817,0.07462246575102707,0.07035326641500694
1681410820156579600,0.57457958984375,-0.3474474549293518,0.3491111099720001,1.2250289916992188,0.15044589340686798,-0.021336734294891357,-0.988387942314148,-0.09658220410346985,-0.1440686583518982,0.2895354628562927,0.9941636393629465,0.0048895357804487,0.07604017168206129,0.07637237409449293
1681410820166556400,0.584556396484375,-0.2732629179954529,0.3967621922492981,1.3017631769180298,0.15386241674423218,-0.020196672528982162,-0.9878858327865601,-0.10175350308418274,-0.16490782797336578,0.29466384649276733,0.9935259458047137,0.00368845633620064,0.07773975955519696,0.0827602134987668
1681410820176532200,0.5945322265625,-0.21481424570083618,0.44805094599723816,1.3831487894058228,0.15773853659629822,-0.01990015059709549,-0.9872803688049316,-0.09066075086593628,-0.15682727098464966,0.2822328209877014,0.9927886094242069,0.0028371300962719997,0.07969794170102225,0.08950550512118274
1681410820186509300,0.60450927734375,-0.21882334351539612,0.5139251351356506,1.4689229726791382,0.16219185292720795,-0.020101049914956093,-0.9865545034408569,-0.061758339405059814,-0.1213785707950592,0.29305779933929443,0.9919344670806554,0.0021451276677341815,0.08196436155887085,0.09666028768704166
1681410820196485400,0.6144853515625,-0.2983629107475281,0.5794405341148376,1.5426671504974365,0.16727925837039948,-0.020064199343323708,-0.9857053756713867,-0.04227910935878754,-0.10901002585887909,0.312228262424469,0.990954032351116,0.0012328232359948895,0.08453279959459706,0.10422497283915128
1681410820206462500,0.62446240234375,-0.4343199133872986,0.6520658731460571,1.590475082397461,0.17300300300121307,-0.019173989072442055,-0.9847346544265747,-0.04099905490875244,-0.13407015800476074,0.3123255968093872,0.9898457156046714,-0.0002112812182628529,0.08736493681705483,0.11212885824755485
1681410820216438300,0.634438232421875,-0.6021515727043152,0.7313852310180664,1.6089954376220703,0.17949126660823822,-0.01688685268163681,-0.9836146235466003,-0.052126020193099976,-0.16215991973876953,0.2946498394012451,0.9886089856659543,-0.0024647370963968634,0.09047990886889516,0.12024865491127187
1681410820226415400,0.644415283203125,-0.7461130023002625,0.8019874691963196,1.6322864294052124,0.18678538501262665,-0.01322545763105154,-0.9823117256164551,-0.0680413544178009,-0.14030861854553223,0.26884132623672485,0.9872363784871198,-0.005524425391590031,0.09388088948653354,0.1285314034602527
1681410820236391400,0.654391357421875,-0.8903167843818665,0.8609586358070374,1.659820556640625,0.19475805759429932,-0.008352226577699184,-0.9808157682418823,-0.08539816737174988,-0.09168453514575958,0.23124301433563232,0.9857196553860931,-0.009312278953306592,0.09749566238476234,0.13698465520333813
1681410820246368500,0.664368408203125,-1.0410693883895874,0.9142011404037476,1.6944098472595215,0.203329399228096,-0.002231469377875328,-0.9791078567504883,-0.09111613035202026,-0.07227733731269836,0.18540674448013306,0.9840428697461239,-0.01385414631835778,0.10126272031573608,0.14564894747821494
1681410820256344300,0.67434423828125,-1.1956496238708496,0.9830957651138306,1.7534222602844238,0.21260318160057068,0.005090583115816116,-0.977125346660614,-0.09190601110458374,-0.07433511316776276,0.1470777988433838,0.9821718180287166,-0.019153217866121335,0.10521631547516425,0.15460016000359803
1681410820266321400,0.6843212890625,-1.401633858680725,1.0506876707077026,1.8188470602035522,0.22269169986248016,0.013814635574817657,-0.9747910499572754,-0.09767630696296692,-0.0799006000161171,0.1401658058166504,0.9800624070620689,-0.025342015852062565,0.10937213639014888,0.1639305938490188
1681410820276297200,0.694297119140625,-1.6565518379211426,1.1073756217956543,1.8810698986053467,0.233524352312088,0.02444394677877426,-0.9720436334609985,-0.09196841716766357,-0.1089777797460556,0.1450173258781433,0.9776839399998012,-0.03268241431279395,0.113622308200712,0.1736551454461729
1681410820286274600,0.704274658203125,-1.9482591152191162,1.1477478742599487,1.9450808763504028,0.2450256198644638,0.03730258345603943,-0.9687986969947815,-0.06880173087120056,-0.15514636039733887,0.15965569019317627,0.974996588239283,-0.04134738135790168,0.1178602291396088,0.18379621282732608
1681410820296251400,0.71425146484375,-2.237391948699951,1.1763957738876343,2.0207271575927734,0.257129430770874,0.05255555361509323,-0.9649468064308167,-0.038928598165512085,-0.20250383019447327,0.18050777912139893,0.9719459240274614,-0.05143615600464209,0.12198731922401035,0.19440861694066414
1681410820306227500,0.7242275390625,-2.5091655254364014,1.1897730827331543,2.1007983684539795,0.26977023482322693,0.06990927457809448,-0.9603836536407471,-0.01383441686630249,-0.23301061987876892,0.20138096809387207,0.9684812376389158,-0.0628179907241761,0.1259447588662843,0.2055139808012144
1681410820316204300,0.734204345703125,-2.737990140914917,1.1753320693969727,2.1562089920043945,0.28278112411499023,0.08914743363857269,-0.9550327658653259,0.012018799781799316,-0.2515011131763458,0.2028203010559082,0.9645744132560006,-0.07537891879118723,0.12962111966867762,0.21705458249501344
1681410820326180400,0.744180419921875,-2.9145631790161133,1.1218186616897583,2.202117443084717,0.29586532711982727,0.10971972346305847,-0.9489074349403381,0.03828701376914978,-0.2324615716934204,0.16535335779190063,0.9602406123799678,-0.0888080882007426,0.1328887042455126,0.2288928170158219
1681410820336157400,0.754157470703125,-3.0539309978485107,1.058176040649414,2.2569401264190674,0.3088266849517822,0.13116790354251862,-0.9420303106307983,0.07804477214813232,-0.16008345782756805,0.10941922664642334,0.9554707232028753,-0.10286175028476621,0.13566250749482184,0.24102046261234328
1681410820346133500,0.764133544921875,-3.1989200115203857,1.0000624656677246,2.31931734085083,0.3216889798641205,0.15322242677211761,-0.9343656301498413,0.12420347332954407,-0.07869865000247955,0.06897866725921631,0.9502314048466055,-0.11741978551668739,0.13794848851466257,0.25346241267773867
1681410820356110300,0.7741103515625,-3.3837177753448486,0.9646655917167664,2.3781325817108154,0.334661066532135,0.17605367302894592,-0.9257467985153198,0.16117340326309204,-0.04118138551712036,0.056941866874694824,0.9444530686429681,-0.132610059264919,0.13978978485123075,0.2662364877893123
1681410820366086400,0.78408642578125,-3.5811595916748047,0.9559062123298645,2.4323272705078125,0.3479689955711365,0.19984152913093567,-0.9159590601921082,0.17046374082565308,-0.05465430021286011,0.047245681285858154,0.938069215329853,-0.14856853455903402,0.14123692163636706,0.27929528371682294
1681410820376063200,0.794063232421875,-3.8249902725219727,0.9608929753303528,2.49355149269104,0.3618985414505005,0.22473399341106415,-0.9047232270240784,0.16201210021972656,-0.07402309775352478,0.06448274850845337,0.9309768856833883,-0.16544742602306534,0.1423570936445629,0.29264947862311097
1681410820386039600,0.80403955078125,-4.142492294311523,0.97246253490448,2.556107997894287,0.376539021730423,0.2510828375816345,-0.8917263150215149,0.1553061604499817,-0.10487326979637146,0.10241967439651489,0.9230574522318857,-0.18348478193088502,0.14307405356394093,0.3063139227613595
1681410820396016400,0.814016357421875,-4.542764663696289,0.9845114946365356,2.6325151920318604,0.39201676845550537,0.2794007360935211,-0.8765033483505249,0.15362238883972168,-0.15015894174575806,0.1453479528427124,0.9141230908830695,-0.20303360550610283,0.14326786900509084,0.3203603225284335
1681410820405992200,0.8239921875,-5.029945373535156,1.0026203393936157,2.721923828125,0.4084776043891907,0.3101113438606262,-0.8584736585617065,0.15261870622634888,-0.21543070673942566,0.19271743297576904,0.9039419444284482,-0.22443264010028238,0.14280461011702966,0.33485200692140094
1681410820415968300,0.83396826171875,-5.552972793579102,1.027618408203125,2.8298513889312744,0.4261096119880676,0.343308687210083,-0.8370004296302795,0.14792609214782715,-0.28920120000839233,0.24253326654434204,0.8922501368163331,-0.24789790849433307,0.14158536011330217,0.34984263035431645
1681410820425944300,0.8439443359375,-6.065858364105225,1.0619418621063232,2.9545347690582275,0.44510799646377563,0.37854433059692383,-0.8115313053131104,0.14392715692520142,-0.35396257042884827,0.29111504554748535,0.8788028102983345,-0.27340424458244716,0.1395867442983269,0.36533731954017745
1681410820435921200,0.853921142578125,-6.556307792663574,1.094893455505371,3.0959813594818115,0.4656568467617035,0.41500312089920044,-0.7816240191459656,0.14640375971794128,-0.39788293838500977,0.3345109820365906,0.8633831333089675,-0.30076867861276235,0.1368436458046963,0.3812894459293571
1681410820445897200,0.863897216796875,-7.008164405822754,1.1274938583374023,3.260054111480713,0.4878816306591034,0.45162564516067505,-0.7469978928565979,0.15619194507598877,-0.4197807013988495,0.3732032775878906,0.8457923893918982,-0.3297044490779954,0.13340180057374465,0.3976609489454692
1681410820455874300,0.873874267578125,-7.3876118659973145,1.135451078414917,3.42974591255188,0.5117849707603455,0.4872407615184784,-0.7075822353363037,0.17254120111465454,-0.4133884012699127,0.41565102338790894,0.8258791956710715,-0.3598525806744223,0.12928656543572878,0.4143847096926105
1681410820465850400,0.883850341796875,-7.70888090133667,1.1305826902389526,3.5948662757873535,0.5372118949890137,0.5205029249191284,-0.6636866927146912,0.1934247612953186,-0.38054949045181274,0.4498194456100464,0.8036170521003058,-0.3906979928913222,0.12454610233345703,0.43132696349246
1681410820475827200,0.8938271484375,-7.968759059906006,1.0909905433654785,3.7274351119995117,0.5639011859893799,0.5504712462425232,-0.6156272292137146,0.2227810025215149,-0.32726579904556274,0.4609793424606323,0.7789988530143926,-0.4218883559482996,0.1191495115818777,0.4483016962754405
1681410820485803300,0.90380322265625,-8.087662696838379,1.0210341215133667,3.851896047592163,0.5914139151573181,0.5759627223014832,-0.5643551349639893,0.27223360538482666,-0.23236536979675293,0.4524776339530945,0.752225562823085,-0.4527940910442947,0.11313681275122846,0.46511775208282174
1681410820495780400,0.9137802734375,-8.087122917175293,0.9270599484443665,4.006279468536377,0.6196151375770569,0.5956619381904602,-0.511139988899231,0.3315262794494629,-0.11337745189666748,0.4546976685523987,0.7235301521731908,-0.482730357035077,0.10677731292684645,0.48174093883122393
1681410820505756400,0.92375634765625,-8.02026081085205,0.8163671493530273,4.157425403594971,0.6483654975891113,0.608765184879303,-0.4571950435638428,0.38602787256240845,-0.028244614601135254,0.4342457056045532,0.693129509853055,-0.5112194573416478,0.10028528659121816,0.4981658170893861
1681410820515733200,0.933733154296875,-7.8973894119262695,0.7118156552314758,4.291414737701416,0.6774695515632629,0.6150125861167908,-0.4034782350063324,0.42436766624450684,0.04305309057235718,0.40172338485717773,0.6612409505291762,-0.5380138796491455,0.09381867601516919,0.5142953402782101
1681410820525709300,0.943709228515625,-7.690104961395264,0.6182618737220764,4.421882629394531,0.7067105174064636,0.6142758727073669,-0.3510351777076721,0.44615209102630615,0.11083698272705078,0.37564748525619507,0.6281786026149476,-0.5628555042283742,0.08761334226754232,0.530008923753006
1681410820535686100,0.95368603515625,-7.397286415100098,0.5397337675094604,4.557823181152344,0.7359589338302612,0.6064966917037964,-0.30087608098983765,0.4596130847930908,0.1805211305618286,0.3488648533821106,0.5942655925685283,-0.5855239857743638,0.081997707697633,0.545239896973778
1681410820545662500,0.963662353515625,-7.027510643005371,0.46710091829299927,4.685057163238525,0.7649943232536316,0.5918624401092529,-0.253934383392334,0.4853414297103882,0.24790489673614502,0.3145574629306793,0.5598858638520332,-0.6058534492283549,0.07729426537615233,0.559906328554583
1681410820555639300,0.973639404296875,-6.602343559265137,0.36384856700897217,4.793637752532959,0.7934986352920532,0.5707878470420837,-0.2110954374074936,0.541691243648529,0.315824031829834,0.26526403427124023,0.5253976526790072,-0.6237153592110797,0.07369822536084349,0.5740253770948953
1681410820565615000,0.983614990234375,-6.071843147277832,0.21515320241451263,4.884766578674316,0.8209801912307739,0.5439743995666504,-0.17344573140144348,0.6243323087692261,0.38844436407089233,0.21111960709095,0.4912836813448005,-0.6389014444594235,0.07128867369605753,0.5876761334491175
1681410820575592200,0.99359228515625,-5.418143272399902,0.03273465484380722,4.964504718780518,0.8471515774726868,0.5120096802711487,-0.14205747842788696,0.7282726168632507,0.46720778942108154,0.1573924571275711,0.4581235741675532,-0.6511641781366061,0.07040220459788564,0.6009588729296038
1681410820585568300,1.003568359375,-4.643084526062012,-0.1745786815881729,5.007187843322754,0.8716514110565186,0.4757591187953949,-0.11780086159706116,0.8375923037528992,0.5474952459335327,0.08116437494754791,0.4265497421186132,-0.660314696683468,0.07130266735653853,0.6139672295984743
1681410820595545300,1.01354541015625,-3.7472732067108154,-0.3689036965370178,4.992674827575684,0.8941417932510376,0.4362305998802185,-0.10106115788221359,0.9338306188583374,0.6280088424682617,-0.004560284316539764,0.3972520760781458,-0.6662932988114304,0.07431460031474302,0.626674878341341
1681410820605521200,1.023521240234375,-2.773407220840454,-0.4996039569377899,4.9023613929748535,0.9142603278160095,0.39466652274131775,-0.09146900475025177,0.992584764957428,0.7072163820266724,-0.08457177877426147,0.3709211575773202,-0.6692645699674936,0.07968960235470807,0.638867839405684
1681410820615498200,1.033498291015625,-1.799398422241211,-0.5788673162460327,4.732456684112549,0.9317494630813599,0.35229480266571045,-0.08792988955974579,0.9966869950294495,0.768814206123352,-0.15781301259994507,0.3480236493436252,-0.6696119050564716,0.08749258804046976,0.650265072185725
1681410820625474300,1.043474365234375,-0.945430338382721,-0.5995635986328125,4.516139507293701,0.9465169310569763,0.3101408779621124,-0.08898545801639557,0.9382792115211487,0.8044831156730652,-0.20389187335968018,0.3286179451170521,-0.6678382652501168,0.09746447004730607,0.6606837651351652
1681410820635451400,1.053451416015625,-0.22519919276237488,-0.5502551794052124,4.253385543823242,0.9586784243583679,0.2689337134361267,-0.09279371052980423,0.8239908218383789,0.7993799448013306,-0.20206725597381592,0.31243037933618134,-0.6645852486802695,0.10922266859669943,0.6699136700467742
1681410820645427200,1.06342724609375,0.3238297700881958,-0.44591185450553894,3.928414821624756,0.9683924317359924,0.2294834405183792,-0.0977434515953064,0.6718360185623169,0.753030002117157,-0.18256069719791412,0.29914277411819684,-0.6604502492976985,0.12220369728776247,0.6777798186700983
1681410820655404300,1.073404296875,0.7326257824897766,-0.3305296003818512,3.528378486633301,0.975870668888092,0.19271759688854218,-0.10264749079942703,0.49136877059936523,0.6771554350852966,-0.16172641515731812,0.28846670103072364,-0.6559392529660527,0.1357201140938036,0.6841862196998845
1681410820665380400,1.08338037109375,1.0550230741500854,-0.23054517805576324,3.06494140625,0.98138427734375,0.1595170795917511,-0.1069558709859848,0.2996217608451843,0.5873701572418213,-0.13149334490299225,0.2802743000239792,-0.651360132722803,0.1491711792683475,0.6891476118633387
1681410820675357400,1.093357421875,1.331376314163208,-0.13560456037521362,2.5813870429992676,0.9852842688560486,0.1303887963294983,-0.11051634699106216,0.12180197238922119,0.5051397681236267,-0.1015504002571106,0.274519091513623,-0.6468578218038751,0.16222448445010892,0.6927463653107842
1681410820685333200,1.103333251953125,1.5605030059814453,-0.04542491212487221,2.1135475635528564,0.9879547953605652,0.10556679964065552,-0.11314224451780319,-0.02446901798248291,0.445046603679657,-0.07406794279813766,0.27110248605392484,-0.6425802021762809,0.17469848953419373,0.6950357171258409
1681410820695310300,1.113310302734375,1.7197872400283813,0.04229002818465233,1.6753909587860107,0.9897591471672058,0.08492686599493027,-0.11473637074232101,-0.13021618127822876,0.39526721835136414,-0.05004341900348663,0.26976588120324513,-0.6386349701069111,0.1864864334526191,0.6961283479655196
1681410820705286100,1.1232861328125,1.767978310585022,0.11544386297464371,1.263627052307129,0.9909758567810059,0.0683172270655632,-0.11532475799322128,-0.18512862920761108,0.3487207293510437,-0.019654572010040283,0.2701306786107245,-0.6351244518184583,0.19736907234268017,0.6961981670884727
1681410820715263500,1.133263427734375,1.6907002925872803,0.15964515507221222,0.8953579664230347,0.9918049573898315,0.05558602511882782,-0.11503539979457855,-0.19734084606170654,0.2965867817401886,0.017333216965198517,0.271720992984117,-0.6321587467776077,0.2070208158984883,0.6954749439162773
1681410820725239300,1.1432392578125,1.4348853826522827,0.17957597970962524,0.6125307679176331,0.9923839569091797,0.04633035138249397,-0.1141391396522522,-0.1641063094139099,0.24576862156391144,0.060565412044525146,0.2738898558787297,-0.6298159182296968,0.21508682235931567,0.6943010874066751
1681410820735216400,1.15321630859375,1.0281953811645508,0.1236482635140419,0.37809082865715027,0.9927720427513123,0.040003448724746704,-0.11315332353115082,-0.0918014645576477,0.2008717656135559,0.10962843894958496,0.2758901820817614,-0.6281071176697213,0.2211442676731818,0.6931532289484287
1681410820745192200,1.163192138671875,0.543721079826355,0.04371662810444832,0.1806730479001999,0.9929741024971008,0.03635792061686516,-0.11260959506034851,-0.0033041834831237793,0.17467111349105835,0.16836504638195038,0.2773017162616966,-0.6270040002861089,0.22485814875016388,0.6923935193407178
1681410820755169300,1.173169189453125,-0.002422966528683901,-0.04471443220973015,0.043431032449007034,0.9930124878883362,0.03496216610074043,-0.11271274089813232,0.07691872119903564,0.16346308588981628,0.20824788510799408,0.277779072604794,-0.6264994013206951,0.22614625433873267,0.6922393670386937
1681410820765145300,1.183145263671875,-0.5598876476287842,-0.14920872449874878,-0.03638056293129921,0.9929049611091614,0.03525327518582344,-0.1135653406381607,0.13954132795333862,0.16417907178401947,0.22504591941833496,0.2770002442583901,-0.6265534617082288,0.22505130240477617,0.6928590213557511
1681410820775122400,1.193122314453125,-1.0899099111557007,-0.24553072452545166,-0.08518166095018387,0.9926568269729614,0.03676513582468033,-0.11524298787117004,0.17549508810043335,0.18084043264389038,0.2418907880783081,0.2748323651720185,-0.62706664957609,0.2217339006194624,0.6943261365432692
1681410820785098200,1.20309814453125,-1.6019058227539062,-0.33336398005485535,-0.12551288306713104,0.9922809600830078,0.039327818900346756,-0.11760927736759186,0.17700010538101196,0.19735123217105865,0.2442113161087036,0.27128788779168417,-0.6280018305028344,0.21635402081994762,0.6965684320558885
1681410820795075000,1.213074951171875,-2.0892603397369385,-0.4093996286392212,-0.1688782125711441,0.9917802810668945,0.04292882978916168,-0.12053757160902023,0.1503707766532898,0.20815451443195343,0.22252719104290009,0.2663891800964254,-0.6293316592027877,0.208980565491549,0.6995039416264558
1681410820805051400,1.223051513671875,-2.54392671585083,-0.48082831501960754,-0.22999697923660278,0.9911498427391052,0.047669630497694016,-0.12389392405748367,0.10890203714370728,0.2212207317352295,0.20053869485855103,0.26022996949714533,-0.6310171053743407,0.1996758628199751,0.7030130940583895
1681410820815028200,1.2330283203125,-2.949035882949829,-0.5520212650299072,-0.3153880536556244,0.9903687834739685,0.05376604571938515,-0.12758943438529968,0.064028799533844,0.23290081322193146,0.17618852853775024,0.2529990253351103,-0.6329869962411604,0.1885013081327192,0.7069556803265746
1681410820825004300,1.24300439453125,-3.27439546585083,-0.6247698068618774,-0.40174537897109985,0.9894016981124878,0.06131976842880249,-0.13162247836589813,0.022927582263946533,0.24027019739151,0.14756779372692108,0.24494250169257395,-0.6350955853683056,0.17561992544748287,0.7112064169177388
1681410820834981000,1.252981201171875,-3.497677803039551,-0.6716701984405518,-0.4768180251121521,0.9882478713989258,0.0701744481921196,-0.13580165803432465,-0.012722790241241455,0.2401740550994873,0.12638680636882782,0.23628207419894257,-0.6372264794469371,0.1613740508823767,0.7155919393200724
1681410820844957400,1.26295751953125,-3.6197562217712402,-0.6823720932006836,-0.5375462770462036,0.986937940120697,0.08005271106958389,-0.13980498909950256,-0.056029558181762695,0.2334543913602829,0.11435316503047943,0.22725908320103427,-0.6393102913597694,0.14621852486834627,0.7198999963320132
1681410820854934300,1.272934326171875,-3.655940055847168,-0.6523750424385071,-0.5848064422607422,0.9855152368545532,0.09070556610822678,-0.1432911455631256,-0.11376535892486572,0.21918520331382751,0.09737731516361237,0.218100100571656,-0.6413319321651926,0.13056714421701715,0.7239323358624074
1681410820864910300,1.282910400390625,-3.621713638305664,-0.6022613644599915,-0.5928719639778137,0.9840433597564697,0.10173942893743515,-0.14597150683403015,-0.176563560962677,0.19725655019283295,0.0724850594997406,0.2089445344275619,-0.6432951819684736,0.11482837871132244,0.7275492207159155
1681410820874887200,1.29288720703125,-3.5276095867156982,-0.528833270072937,-0.5800616145133972,0.9825918078422546,0.11270923167467117,-0.14768323302268982,-0.2284564971923828,0.1745527684688568,0.05536745488643646,0.19987764547672376,-0.6452009190596389,0.09936880190640612,0.7306782756738499
1681410820884863500,1.302863525390625,-3.374748945236206,-0.4522729516029358,-0.5697628855705261,0.9811966419219971,0.12342093139886856,-0.14839331805706024,-0.2682296633720398,0.14910107851028442,0.050080835819244385,0.19105237977493844,-0.6470510157886578,0.08442940175824647,0.7332774025410649
1681410820894840300,1.31284033203125,-3.1538617610931396,-0.37999850511550903,-0.5320187211036682,0.9798711538314819,0.13366998732089996,-0.1482742726802826,-0.2979404330253601,0.13178721070289612,0.039158567786216736,0.18267718225961735,-0.6487859865937696,0.07028234129246724,0.7353682006785682
1681410820904817400,1.3228173828125,-2.8732101917266846,-0.31345462799072266,-0.45964252948760986,0.9786741733551025,0.14297544956207275,-0.14749664068222046,-0.3168851137161255,0.12615913152694702,0.020146653056144714,0.17483837107100497,-0.6503614102128175,0.05728625863081334,0.7370075348356455
1681410820914793200,1.332793212890625,-2.5426673889160156,-0.25193721055984497,-0.36462119221687317,0.9776585102081299,0.1509726196527481,-0.14625711739063263,-0.32275134325027466,0.12804962694644928,0.0023208409547805786,0.1676246643360264,-0.6517513997522166,0.04573349993853526,0.7382618653294636
1681410820924770300,1.342770263671875,-2.207118034362793,-0.19210954010486603,-0.2634059190750122,0.9768582582473755,0.15746907889842987,-0.14474569261074066,-0.31549668312072754,0.13224957883358002,-0.013381212949752808,0.16108990245072444,-0.6529524251591212,0.035781054645633185,0.7392042002781806
1681410820934746400,1.352746337890625,-1.8845237493515015,-0.1364302933216095,-0.16216960549354553,0.9762831330299377,0.16248056292533875,-0.1430787891149521,-0.31008434295654297,0.12810787558555603,-0.03016960620880127,0.15524075413076652,-0.6539945417801925,0.027417964387271204,0.7398917552983648
1681410820944723500,1.362723388671875,-1.5957391262054443,-0.08305862545967102,-0.05397836118936539,0.9759490489959717,0.16600704193115234,-0.1412990242242813,-0.3053099513053894,0.11954599618911743,-0.043454527854919434,0.1499864815173791,-0.6549255901603597,0.020565905921399823,0.7403740677851225
1681410820954699300,1.37269921875,-1.3506377935409546,-0.02301819436252117,0.05946963652968407,0.9758782982826233,0.1680394560098648,-0.13937169313430786,-0.295046329498291,0.11108963191509247,-0.04913550615310669,0.14517942451386504,-0.6558093459178044,0.015108106518953933,0.7406813622813689
1681410820964676400,1.38267626953125,-1.153860092163086,0.03750602900981903,0.1665467470884323,0.9760759472846985,0.1686590164899826,-0.13722263276576996,-0.2890337109565735,0.09937693178653717,-0.0523679256439209,0.14066994208576017,-0.6567119668250859,0.010866418212691558,0.7408261679214636
1681410820974652400,1.39265234375,-0.997756838798523,0.10853120684623718,0.25451788306236267,0.9765309691429138,0.16805274784564972,-0.13470616936683655,-0.28060805797576904,0.08563993871212006,-0.053450047969818115,0.13635613155544676,-0.6577146797126647,0.007636580121884114,0.7407834955624503
1681410820984629500,1.40262939453125,-0.8517459630966187,0.18524453043937683,0.3294031620025635,0.9772140979766846,0.16642633080482483,-0.1317385882139206,-0.2747604250907898,0.08087293803691864,-0.055059611797332764,0.13224080099797134,-0.6588647403711482,0.005287625271131921,0.740528040904887
1681410820994605300,1.412605224609375,-0.7185485363006592,0.2590777277946472,0.4011138379573822,0.9781038761138916,0.1638769805431366,-0.1282871961593628,-0.2689514756202698,0.08073675632476807,-0.06688804924488068,0.1283012120532071,-0.6601836508044163,0.0037346823751749194,0.7400558380592358
1681410821004582400,1.42258251953125,-0.5892730355262756,0.31690388917922974,0.4631800353527069,0.9791665077209473,0.160486102104187,-0.1244087666273117,-0.2522071599960327,0.08315107226371765,-0.08195121586322784,0.12455173812742137,-0.6616547639243321,0.00293108230273428,0.7393858746642411
1681410821014558200,1.43255810546875,-0.48315802216529846,0.36667492985725403,0.5065820813179016,0.9803497791290283,0.15640726685523987,-0.12021328508853912,-0.22708433866500854,0.0869399756193161,-0.10164964199066162,0.1210006428586279,-0.6632387666929471,0.002773899932893414,0.7385564194482206
1681410821024535300,1.442535400390625,-0.3958822786808014,0.40494853258132935,0.5376942753791809,0.9816055297851562,0.15181510150432587,-0.11577176302671432,-0.19405347108840942,0.0879615992307663,-0.12498153746128082,0.11762685042598152,-0.6649092890245113,0.0031231552006547453,0.7375974457483242
1681410821034511400,1.452511474609375,-0.32919806241989136,0.4412969648838043,0.5582741498947144,0.9829004406929016,0.14685289561748505,-0.11109064519405365,-0.16007018089294434,0.08678975701332092,-0.1409541368484497,0.11440901018910282,-0.6666631437954211,0.003863895490403826,0.7365161123557292
1681410821044488200,1.46248828125,-0.2748865783214569,0.4918528199195862,0.5656246542930603,0.9842135906219482,0.14166299998760223,-0.1060914397239685,-0.13948696851730347,0.08242765069007874,-0.15303343534469604,0.11133169534873276,-0.6685284974686911,0.004891825183014746,0.7352898127741797
1681410821054464300,1.47246435546875,-0.21380512416362762,0.5399012565612793,0.5646840333938599,0.9855271577835083,0.13636991381645203,-0.10069552063941956,-0.1279832124710083,0.08291420340538025,-0.1636783480644226,0.10843204652427979,-0.6705328253357712,0.006162100596432812,0.7338871271328219
1681410821064441000,1.482441162109375,-0.15425540506839752,0.5878865122795105,0.5665352940559387,0.9868324398994446,0.13098332285881042,-0.0948949009180069,-0.11781394481658936,0.09237489104270935,-0.17314110696315765,0.10573035076620753,-0.6726763190867944,0.007688946205370398,0.7323035579571125
1681410821074417400,1.49241748046875,-0.09712047874927521,0.625960111618042,0.5614686608314514,0.9881116151809692,0.12553757429122925,-0.08874652534723282,-0.10607731342315674,0.10319176316261292,-0.18166983127593994,0.10322799045268928,-0.6749351412261393,0.009449487593229201,0.7305596211230713
1681410821084394200,1.502394287109375,-0.04776015505194664,0.6451687812805176,0.548784613609314,0.989336371421814,0.12011536210775375,-0.08237579464912415,-0.08638232946395874,0.11767768114805222,-0.19312173128128052,0.10093166293273402,-0.6772609431796799,0.01138934438930259,0.7286979387333767
1681410821094370300,1.512370361328125,-0.015553749166429043,0.655892550945282,0.5388555526733398,0.9904891848564148,0.1147642508149147,-0.07589738070964813,-0.0659286379814148,0.13197043538093567,-0.20574945211410522,0.09881165540005502,-0.6796105805739938,0.01344498282802177,0.726763363131429
1681410821104347100,1.52234716796875,0.000992337940260768,0.6596385836601257,0.5282362103462219,0.9915624260902405,0.10949835926294327,-0.06938417255878448,-0.04470878839492798,0.1421496570110321,-0.21842724084854126,0.09681754460250083,-0.6819573764071656,0.015557997742060632,0.7247885783643112
1681410821114323500,1.532323486328125,0.002384638413786888,0.6543500423431396,0.511944591999054,0.9925516247749329,0.10434103012084961,-0.06288396567106247,-0.029630422592163086,0.15132005512714386,-0.23090887069702148,0.09489161388793269,-0.6842852104581663,0.017656943636520005,0.7227984704455388
1681410821124300300,1.54230029296875,-0.013489899225533009,0.6461010575294495,0.4902878701686859,0.9934474229812622,0.09938004612922668,-0.05644315481185913,-0.021462619304656982,0.1574712097644806,-0.24664229154586792,0.09300933443214308,-0.6865799748912755,0.019656041784371383,0.7208126098407465
1681410821134276400,1.5522763671875,-0.033760812133550644,0.6323066353797913,0.47383832931518555,0.9942536950111389,0.09461339563131332,-0.05007992312312126,-0.017813265323638916,0.16483186185359955,-0.2589411735534668,0.09113210755201688,-0.6888374176333302,0.021518625250748505,0.7188427913993906
1681410821144253200,1.562253173828125,-0.05687931552529335,0.609092652797699,0.45787474513053894,0.994973361492157,0.09001930803060532,-0.04387331381440163,-0.013237953186035156,0.17459869384765625,-0.26601749658584595,0.08924200570218739,-0.6910306556287663,0.023237369730075404,0.7169188970511645
1681410821154229500,1.5722294921875,-0.08716345578432083,0.5817246437072754,0.4321531355381012,0.9956068992614746,0.08562280982732773,-0.03789660334587097,-0.008424103260040283,0.18723493814468384,-0.2739168405532837,0.08733371428396541,-0.6931359303734196,0.02478469826881491,0.7150673939616734
1681410821164206300,1.582206298828125,-0.12328517436981201,0.5526643991470337,0.39946192502975464,0.9961510300636292,0.08153583109378815,-0.03217513486742973,0.001346588134765625,0.19968372583389282,-0.2808285355567932,0.08542229377856932,-0.6951485427010734,0.02609474518435106,0.7132956633621418
1681410821174182100,1.59218212890625,-0.1802413910627365,0.5265744924545288,0.3656560480594635,0.9966127872467041,0.07778214663267136,-0.02670576237142086,0.016357243061065674,0.2116771638393402,-0.28770166635513306,0.08346753875793349,-0.6970739883613039,0.027110394522686217,0.7116081852500253
1681410821184159200,1.6021591796875,-0.25462815165519714,0.49721673130989075,0.3309248685836792,0.997001051902771,0.07435730844736099,-0.021452179178595543,0.03463047742843628,0.22144964337348938,-0.28477656841278076,0.08140457445632801,-0.6989296681152011,0.02777102132612437,0.7099996866409063
1681410821194135300,1.61213525390625,-0.3450632393360138,0.47095876932144165,0.2935977280139923,0.9973196983337402,0.07130284607410431,-0.016424041241407394,0.05210369825363159,0.22592318058013916,-0.27489686012268066,0.07918698213586281,-0.7007168272939979,0.02799835075247308,0.7084784265981636
1681410821204112400,1.6221123046875,-0.43904176354408264,0.4421672224998474,0.24824532866477966,0.9975727200508118,0.06866085529327393,-0.011610643938183784,0.07106149196624756,0.22659680247306824,-0.26710647344589233,0.07679530806523874,-0.7024422617898491,0.02774071210815043,0.7070417352504133
1681410821214088200,1.632088134765625,-0.5331248641014099,0.41412946581840515,0.1992865800857544,0.9977632761001587,0.06648046523332596,-0.007017727475613356,0.08304744958877563,0.22978425025939941,-0.2678084373474121,0.07424259111435923,-0.7041048290017052,0.026972689496450236,0.7056891053547445
1681410821224065300,1.642065185546875,-0.6255971789360046,0.38223570585250854,0.15094885230064392,0.9978967905044556,0.0647692009806633,-0.002684292383491993,0.09367126226425171,0.23540177941322327,-0.27241653203964233,0.07153656875407145,-0.7056895876664474,0.025691626792885083,0.7044322609373875
1681410821234041000,1.652041015625,-0.7099786400794983,0.3649581968784332,0.08758985251188278,0.9979755282402039,0.06358499825000763,0.001455403515137732,0.0980634093284607,0.24186551570892334,-0.2782193422317505,0.06871487137745208,-0.7072176038990966,0.023894821816401478,0.7032429941734314
1681410821244018400,1.662018310546875,-0.7923176884651184,0.34335440397262573,0.03658507391810417,0.9980023503303528,0.06294290721416473,0.0054690842516720295,0.09730416536331177,0.24877896904945374,-0.2874211072921753,0.0658019218464915,-0.7087087713417574,0.02159675045115155,0.7020938294271543
1681410821253994200,1.671994140625,-0.8559997081756592,0.3127349615097046,-0.0042449128814041615,0.9979879260063171,0.06272729486227036,0.009257103316485882,0.10436815023422241,0.2556626796722412,-0.2984417676925659,0.06278986689113258,-0.7101215816312954,0.018865073459034872,0.701019991075692
1681410821263971300,1.681971435546875,-0.8920558094978333,0.2574980556964874,-0.0353960245847702,0.9979448914527893,0.06282319128513336,0.012635818682610989,0.12752830982208252,0.2648746371269226,-0.30589449405670166,0.0597243868599174,-0.7113843073516132,0.015820132966297678,0.7000823683802456
1681410821273947100,1.691947021484375,-0.8704858422279358,0.20055539906024933,-0.07604838162660599,0.9978768229484558,0.06326670199632645,0.0154647221788764,0.1531699299812317,0.2809869050979614,-0.3121567964553833,0.0567647667174117,-0.7124420777944607,0.01259550206875664,0.6993178249953156
1681410821283924200,1.70192431640625,-0.7932791113853455,0.14744094014167786,-0.11815113574266434,0.9977858066558838,0.06410489976406097,0.01773105189204216,0.16150087118148804,0.3097813129425049,-0.32490575313568115,0.05412974395753645,-0.7132863696902711,0.009385151618520441,0.6987164126917975
1681410821293900300,1.711900390625,-0.6735479235649109,0.07552734017372131,-0.15884824097156525,0.9976755380630493,0.0653453841805458,0.019332295283675194,0.15753692388534546,0.33974504470825195,-0.3436732292175293,0.051986381925953555,-0.7138807544511074,0.006357360727702941,0.6983060849318514
1681410821303877400,1.72187744140625,-0.5212088823318481,-0.026480408385396004,-0.21404407918453217,0.9975478649139404,0.06707361340522766,0.019990909844636917,0.15104228258132935,0.365314781665802,-0.3602008819580078,0.050498867090047646,-0.7141304962048678,0.0036179462562815567,0.6981794547967748
1681410821313853200,1.731853271484375,-0.3520537316799164,-0.1268261820077896,-0.29299136996269226,0.9973917007446289,0.06948787719011307,0.019523216411471367,0.14149373769760132,0.3843086063861847,-0.3692241907119751,0.0498145408301375,-0.7139749449605118,0.00117754993514244,0.6983959399656953
1681410821323830300,1.741830322265625,-0.16536228358745575,-0.20962050557136536,-0.3946128487586975,0.9971795678138733,0.07286160439252853,0.01800563558936119,0.11153930425643921,0.39381328225135803,-0.36805760860443115,0.050086539769126984,-0.7134436375775296,-0.0009970813430517924,0.6989195600032355
1681410821333806300,1.751806396484375,0.030420800670981407,-0.2576085329055786,-0.5211878418922424,0.9968761801719666,0.0774058923125267,0.015692945569753647,0.05489689111709595,0.38894855976104736,-0.358420729637146,0.05143676733517641,-0.7126274672417292,-0.0029267448301625158,0.6996483319025231
1681410821343783400,1.761783447265625,0.24065116047859192,-0.26878008246421814,-0.6563493013381958,0.9964414238929749,0.08329092711210251,0.012936698272824287,-0.012051105499267578,0.38182756304740906,-0.33952057361602783,0.05397143119757052,-0.7116508951156894,-0.00462086416577226,0.7004419108073304
1681410821353759200,1.77175927734375,0.4660975933074951,-0.2557803988456726,-0.7871901392936707,0.9958434700965881,0.09053255617618561,0.010005943477153778,-0.06598794460296631,0.37203773856163025,-0.3122826814651489,0.057746991431798705,-0.7106099964674613,-0.006033615609184967,0.7011865319237096
1681410821363736300,1.781736328125,0.7115309834480286,-0.24383175373077393,-0.8855043053627014,0.9950706958770752,0.09892545640468597,0.0069491071626544,-0.08433455228805542,0.3599827289581299,-0.28053927421569824,0.06275418402249758,-0.7095245380774843,-0.007034444133932959,0.7018457557449251
1681410821373713200,1.791713134765625,0.9734441041946411,-0.2545376420021057,-0.9537131786346436,0.9941312670707703,0.10812133550643921,0.00360275455750525,-0.05646336078643799,0.35125985741615295,-0.24508845806121826,0.06895288560414088,-0.7083404458039565,-0.007429007994018962,0.7024558333614429
1681410821383689500,1.801689453125,1.2525818347930908,-0.2813858389854431,-0.995286226272583,0.9930360317230225,0.11781258881092072,-0.0003027507336810231,0.011267125606536865,0.34748902916908264,-0.21274054050445557,0.07628645356318729,-0.706964331493443,-0.00707521221983132,0.7030874440867018
1681410821393666300,1.811666259765625,1.5433881282806396,-0.32583796977996826,-1.0171490907669067,0.991791844367981,0.1277654767036438,-0.005036488641053438,0.09786897897720337,0.35007888078689575,-0.18978780508041382,0.08474048024239635,-0.7052996280810794,-0.005847254234534558,0.7038021741236911
1681410821403642000,1.82164208984375,1.8262635469436646,-0.37421852350234985,-1.0133509635925293,0.9904170632362366,0.13769219815731049,-0.010739635676145554,0.18248045444488525,0.36056840419769287,-0.18034625053405762,0.09423197165538175,-0.7032900116773209,-0.0036526007247006027,0.7046207278744044
1681410821413619200,1.831619140625,2.061760425567627,-0.42888253927230835,-1.003211259841919,0.9889277219772339,0.1473637968301773,-0.017495587468147278,0.2529699206352234,0.36983293294906616,-0.17383450269699097,0.10458777407064569,-0.7008936587373834,-0.0005343123360445767,0.7055560294287863
1681410821423595500,1.841595458984375,2.2196643352508545,-0.4847952723503113,-1.0107706785202026,0.9873012900352478,0.1568353772163391,-0.025279616937041283,0.3058964014053345,0.36936402320861816,-0.15868043899536133,0.11562391721711548,-0.698104288516177,0.0032548691603707953,0.7065911312129162
1681410821433572600,1.851572509765625,2.283672332763672,-0.5533181428909302,-1.0175758600234985,0.9855116009712219,0.16616064310073853,-0.034023672342300415,0.3368913531303406,0.34818267822265625,-0.13399094343185425,0.12706024146116657,-0.6949343845777959,0.007373271273873753,0.7077199950543034
1681410821443548400,1.86154833984375,2.2358717918395996,-0.6396957635879517,-1.0427122116088867,0.9835201501846313,0.17542919516563416,-0.04373539984226227,0.35614049434661865,0.3119823634624481,-0.10610604286193848,0.1385869953745832,-0.6913766956396562,0.011426485094841107,0.7089861711424781
1681410821453525500,1.871525390625,2.129842519760132,-0.7229397892951965,-1.105568766593933,0.9812501668930054,0.18490400910377502,-0.05439557507634163,0.3670470118522644,0.27000632882118225,-0.07281708717346191,0.1499458088897037,-0.6874434123151715,0.014958858427557469,0.7104323711321575
1681410821463501600,1.88150146484375,1.993448257446289,-0.805107057094574,-1.2099970579147339,0.9785600304603577,0.19510042667388916,-0.06600242853164673,0.34806960821151733,0.23098605871200562,-0.03615528345108032,0.16123148746549593,-0.683144160629476,0.017687315453186973,0.7120433806571851
1681410821473478700,1.891478759765625,1.7893356084823608,-0.8682583570480347,-1.3357521295547485,0.9753902554512024,0.20619936287403107,-0.07807603478431702,0.2980167865753174,0.1791156381368637,-0.020022869110107422,0.17228908971120674,-0.6786653352467861,0.019373864273762052,0.71369082250459
1681410821483454500,1.901454345703125,1.5972784757614136,-0.9138063788414001,-1.472845196723938,0.9716532826423645,0.21845248341560364,-0.09038028120994568,0.23275351524353027,0.12430573999881744,-0.006711535155773163,0.18309870699405598,-0.6741036299578131,0.01985336027475316,0.7153076822771399
1681410821493431600,1.911431640625,1.4279286861419678,-0.9524711966514587,-1.5940052270889282,0.967298686504364,0.23185527324676514,-0.10284196585416794,0.168840229511261,0.08987632393836975,0.005704417824745178,0.19375374353838992,-0.669484204991233,0.01923323987864095,0.716854579165633
1681410821503407400,1.921407470703125,1.2488212585449219,-0.9955700039863586,-1.7114317417144775,0.9622867703437805,0.24632525444030762,-0.11544760316610336,0.11448019742965698,0.03971603512763977,0.01899666339159012,0.20422243649953878,-0.6648069247426985,0.017548516441440603,0.7183432906551627
1681410821513384700,1.931384765625,1.082271933555603,-1.0392454862594604,-1.836401343345642,0.9565468430519104,0.2619020342826843,-0.12816239893436432,0.07908248901367188,-0.00894176959991455,0.03143686056137085,0.2145201935818192,-0.6600756956982209,0.014794476267285634,0.7197654949767263
1681410821523360500,1.941360595703125,0.9388428926467896,-1.068186640739441,-1.9512600898742676,0.9500153064727783,0.2785860300064087,-0.14092865586280823,0.05315852165222168,-0.03699362277984619,0.04949791729450226,0.22471312454221404,-0.6552967222172683,0.011039915421663498,0.7210883454430689
1681410821533337600,1.951337646484375,0.8243796825408936,-1.0828832387924194,-2.0490834712982178,0.9426853060722351,0.2962135076522827,-0.15363019704818726,0.03267186880111694,-0.06026679277420044,0.06930999457836151,0.23483475055561573,-0.6504947465355861,0.0064408567740250255,0.7222658178173237
1681410821543313400,1.9613134765625,0.7367349863052368,-1.0942574739456177,-2.121119976043701,0.9345855116844177,0.3145160377025604,-0.1662220060825348,0.01261913776397705,-0.07347288727760315,0.08856987953186035,0.24489933992390228,-0.6456683072791928,0.0011969409501755793,0.7232809991715382
1681410821553290500,1.97129052734375,0.6723719835281372,-1.103632926940918,-2.1754751205444336,0.9257423877716064,0.33326226472854614,-0.1787101924419403,0.0005118846893310547,-0.08077502250671387,0.10891640186309814,0.25491083628707173,-0.6407997611665254,-0.0045354978533432054,0.7241378137601109
1681410821563266600,1.9812666015625,0.6292492151260376,-1.1065661907196045,-2.200047254562378,0.9162136912345886,0.3521789312362671,-0.19110867381095886,-0.001327216625213623,-0.09145200252532959,0.13292677700519562,0.2648517189954399,-0.6358722143866188,-0.010592008817594555,0.7248502661307314
1681410821573243600,1.99124365234375,0.6020282506942749,-1.113415002822876,-2.2070438861846924,0.9060655832290649,0.37102124094963074,-0.20344172418117523,-0.0003038644790649414,-0.10559454560279846,0.1585807204246521,0.274704425670663,-0.6308691910383071,-0.01682856757699127,0.7254367241019513
1681410821583219500,2.001219482421875,0.588087797164917,-1.1175495386123657,-2.1987056732177734,0.8953593373298645,0.38959962129592896,-0.2157408744096756,0.0065572261810302734,-0.12505796551704407,0.18238502740859985,0.28444480118568694,-0.625774613457946,-0.02314504058463866,0.7259213361775346
1681410821593196500,2.011196533203125,0.5720962882041931,-1.1226569414138794,-2.1744916439056396,0.8841633796691895,0.4077526926994324,-0.22802001237869263,0.015571236610412598,-0.14400440454483032,0.2021256983280182,0.2940355577072622,-0.6205817027817564,-0.02946773196808955,0.7263286304900485
1681410821603172600,2.021172607421875,0.5507237315177917,-1.132458209991455,-2.142983913421631,0.872541069984436,0.4253750443458557,-0.24026721715927124,0.019106268882751465,-0.16249656677246094,0.2207511067390442,0.3034197393971587,-0.6152940230044799,-0.03577229708804367,0.7266843951763634
1681410821613149700,2.031149658203125,0.49948984384536743,-1.1441614627838135,-2.099531650543213,0.8605451583862305,0.4424358904361725,-0.2524140179157257,0.02167224884033203,-0.1834484338760376,0.23430168628692627,0.31251280249841845,-0.6099350626905284,-0.04209769825317241,0.7270096216930725
1681410821623125500,2.04112548828125,0.4150315225124359,-1.1530883312225342,-2.0425424575805664,0.8482555150985718,0.45891815423965454,-0.2643047571182251,0.026164770126342773,-0.20591208338737488,0.24628397822380066,0.32116264134877026,-0.604559742928122,-0.04852974586879557,0.7273287731069179
1681410821633102600,2.0511025390625,0.29748597741127014,-1.1481910943984985,-1.9747428894042969,0.8357693552970886,0.474851131439209,-0.27569228410720825,0.027954399585723877,-0.2298712432384491,0.2666894793510437,0.3292470105996561,-0.5992608248566593,-0.055139063569529495,0.7276281724463741
1681410821643078700,2.06107861328125,0.14754775166511536,-1.1291974782943726,-1.8974671363830566,0.823213517665863,0.490278422832489,-0.2862633168697357,0.030744612216949463,-0.2565442621707916,0.2900626063346863,0.33663136561015755,-0.5941587918064473,-0.061997379414217665,0.7278811936351282
1681410821653055500,2.071055419921875,-0.022663922980427742,-1.1027480363845825,-1.8135632276535034,0.8106763362884521,0.5052749514579773,-0.295805960893631,0.029457271099090576,-0.2835037112236023,0.30613604187965393,0.3432314677454741,-0.5893324383105105,-0.06916861431936476,0.7280763721141361
1681410821663031600,2.081031494140625,-0.19018854200839996,-1.067447304725647,-1.7172675132751465,0.7983126044273376,0.51981520652771,-0.3041202127933502,0.028194904327392578,-0.30796223878860474,0.32174399495124817,0.3489873842802104,-0.5848664723235559,-0.07662315622420011,0.7281949767181335
1681410821673008400,2.09100830078125,-0.3506259024143219,-1.0291467905044556,-1.6095876693725586,0.7862958312034607,0.5338417291641235,-0.31104981899261475,0.030186712741851807,-0.32658153772354126,0.3360435962677002,0.3538480759409184,-0.5808335207427346,-0.08430601913004014,0.7282283637677963
1681410821682984700,2.100984619140625,-0.49121543765068054,-0.9869984984397888,-1.496688961982727,0.7747395038604736,0.5472632050514221,-0.316673219203949,0.03415948152542114,-0.33890438079833984,0.3429334759712219,0.35783878916619827,-0.5772153437463268,-0.09211857941015025,0.7282088872054585
1681410821692961500,2.11096142578125,-0.6127057075500488,-0.9552993774414062,-1.3742384910583496,0.7636961340904236,0.5600569248199463,-0.3210991322994232,0.03700876235961914,-0.3486310839653015,0.3445822596549988,0.3610128381098677,-0.5739780008593293,-0.09999844785077584,0.7281617147126566
1681410821702937600,2.1209375,-0.7177696824073792,-0.9246034026145935,-1.243708848953247,0.7532606720924377,0.5721192359924316,-0.32446572184562683,0.04286658763885498,-0.35722970962524414,0.3316219747066498,0.36338415800204155,-0.5710806157672051,-0.10786137263968103,0.7281379197303288
1681410821712914400,2.13091455078125,-0.8151952624320984,-0.8865865468978882,-1.1008821725845337,0.7435557246208191,0.5833601951599121,-0.3268267512321472,0.05096936225891113,-0.3635268211364746,0.32192859053611755,0.3649565500219315,-0.568522051973643,-0.1156256859579419,0.7281621119242843
1681410821722890500,2.140890380859375,-0.9083772897720337,-0.8321269750595093,-0.9436038136482239,0.7347394227981567,0.593723475933075,-0.3281016945838928,0.05467402935028076,-0.3679238557815552,0.32064002752304077,0.3657186266953493,-0.5663615240948037,-0.12322247111839224,0.7282176510478757
1681410821732867600,2.15086767578125,-1.0015267133712769,-0.7550575137138367,-0.7728254199028015,0.7270059585571289,0.6031143665313721,-0.32820019125938416,0.05486959218978882,-0.37502598762512207,0.3244921863079071,0.36564875177880246,-0.5646713449170807,-0.1305610135188337,0.7282863680286769
1681410821742843600,2.16084375,-1.0884697437286377,-0.668073296546936,-0.5823476314544678,0.7205548286437988,0.6114373207092285,-0.3270246982574463,0.053401410579681396,-0.38258594274520874,0.32969486713409424,0.36469769741247066,-0.5635260039300451,-0.1375721502578276,0.7283597730999617
1681410821752820500,2.170820556640625,-1.1575424671173096,-0.573029637336731,-0.38426676392555237,0.7155670523643494,0.618563711643219,-0.3245653510093689,0.05893850326538086,-0.388491690158844,0.33706220984458923,0.3628615715630105,-0.5629736973191649,-0.14414556433956613,0.7284326303822404
1681410821762797600,2.180797607421875,-1.1979310512542725,-0.4757995307445526,-0.1768539845943451,0.7121400833129883,0.6243596076965332,-0.3209855556488037,0.07611370086669922,-0.3904728293418884,0.34155428409576416,0.3601851112825422,-0.5629903237302671,-0.1501636143764254,0.7285324893939885
1681410821772773600,2.190773681640625,-1.205790638923645,-0.396385133266449,0.030415313318371773,0.710297703742981,0.6287067532539368,-0.3165517747402191,0.09940987825393677,-0.38624459505081177,0.33344313502311707,0.3567424863395221,-0.563505176591885,-0.1555185846234427,0.7287048338897927
1681410821782750700,2.200750732421875,-1.188591718673706,-0.3180849850177765,0.23344168066978455,0.7100093364715576,0.6315174698829651,-0.31156447529792786,0.12823212146759033,-0.3772297501564026,0.3105267584323883,0.35261484839539564,-0.5644260871231647,-0.16012795168564312,0.7290027397285245
1681410821792726500,2.2107265625,-1.1621958017349243,-0.24628937244415283,0.4344022274017334,0.7112548351287842,0.6327639222145081,-0.30614766478538513,0.15835875272750854,-0.36573511362075806,0.2792920768260956,0.34785200193651716,-0.565725548100618,-0.16395358388917244,0.7294331903763754
1681410821802703600,2.22070361328125,-1.130027174949646,-0.1699373722076416,0.6234400272369385,0.7139726281166077,0.6324602365493774,-0.3003953695297241,0.18605178594589233,-0.35388046503067017,0.25593113899230957,0.3425101788449555,-0.5673784986617143,-0.1669848799399661,0.7299894783976962
1681410821812679400,2.230679443359375,-1.1003262996673584,-0.10705775767564774,0.7834011912345886,0.7180017828941345,0.6307374238967896,-0.2943532466888428,0.2009587287902832,-0.34501659870147705,0.2447010576725006,0.336662921645918,-0.569355102451707,-0.1692871548790903,0.7306399868343769
1681410821822656500,2.240656494140625,-1.082509160041809,-0.035665757954120636,0.9194121360778809,0.7231307625770569,0.6277832984924316,-0.28804540634155273,0.20573270320892334,-0.34104007482528687,0.22220361232757568,0.3303974732851469,-0.5716206963029414,-0.17095929852975084,0.7313414614638379
1681410821832632600,2.250632568359375,-1.0592597723007202,0.06362354755401611,1.0450315475463867,0.7292899489402771,0.6237179040908813,-0.281268835067749,0.20074844360351562,-0.34599268436431885,0.19884076714515686,0.32376763999122243,-0.574252948568966,-0.17204398877058066,0.7319897223790933
1681410821842609700,2.260609619140625,-1.0204881429672241,0.1896781623363495,1.1766042709350586,0.7365168929100037,0.618488609790802,-0.27388831973075867,0.18050575256347656,-0.3483622074127197,0.18793541193008423,0.31683205123167135,-0.5773334123994437,-0.1724586277394199,0.7325037308789757
1681410821852585500,2.27058544921875,-0.9730066657066345,0.32077786326408386,1.3261559009552002,0.7448750138282776,0.6119371652603149,-0.26588401198387146,0.16554057598114014,-0.3453812599182129,0.1742548942565918,0.30960809818091956,-0.5808986070715864,-0.17208952097834812,0.7328607976158785
1681410821862562600,2.2805625,-0.9066488146781921,0.4493010342121124,1.4825466871261597,0.7543931007385254,0.6038950085639954,-0.25729745626449585,0.1802535057067871,-0.3347756862640381,0.1521337628364563,0.3020729765637901,-0.5849434350636729,-0.17085796913368084,0.7330762129592792
1681410821872538600,2.29053857421875,-0.8192643523216248,0.5684242248535156,1.6658891439437866,0.7650749683380127,0.5941597819328308,-0.24826309084892273,0.24459904432296753,-0.31242144107818604,0.13832342624664307,0.2942226448791852,-0.589426189912831,-0.16865710541477155,0.7331880375813145
1681410821882515500,2.300515380859375,-0.7077614665031433,0.6648224592208862,1.8811497688293457,0.7769719958305359,0.5823890566825867,-0.23903532326221466,0.34244340658187866,-0.2799597382545471,0.1383577287197113,0.28601101437645476,-0.5942654768899559,-0.16532055029225476,0.733290937830792
1681410821892491500,2.310491455078125,-0.6100910902023315,0.7321267127990723,2.120312213897705,0.7900923490524292,0.5682903528213501,-0.22978337109088898,0.4561539888381958,-0.24678760766983032,0.14256399869918823,0.27731015114742424,-0.5993806518629299,-0.1607829183335807,0.7334786676168318
1681410821902468400,2.32046826171875,-0.5523672103881836,0.7517157196998596,2.3539929389953613,0.8042897582054138,0.5517662763595581,-0.2206178605556488,0.5664377808570862,-0.22141343355178833,0.13977670669555664,0.2679568013346596,-0.6046628238296459,-0.15515778903581723,0.7338312122859308
1681410821912444700,2.330444580078125,-0.5140048861503601,0.7120718955993652,2.5323033332824707,0.8191205263137817,0.5330923199653625,-0.21178796887397766,0.6452653408050537,-0.20191550254821777,0.12639972567558289,0.25794211183936366,-0.6099072535078449,-0.14872509859510336,0.7344112281622166
1681410821922421500,2.34042138671875,-0.46934595704078674,0.6835057139396667,2.6406025886535645,0.8340719938278198,0.5127526521682739,-0.20349158346652985,0.6653023958206177,-0.18247604370117188,0.09436064958572388,0.24744695127622113,-0.6149497884342423,-0.14174261409074881,0.7351978924616602
1681410821932397600,2.3503974609375,-0.4117564260959625,0.744147777557373,2.6993401050567627,0.8488779664039612,0.49117544293403625,-0.1953285187482834,0.5945883393287659,-0.16099035739898682,0.04386964440345764,0.23676522796567825,-0.6199263809716494,-0.13426474765917312,0.7359393336397921
1681410821942374400,2.36037451171875,-0.358988881111145,0.834320068359375,2.6897196769714355,0.863312840461731,0.46885597705841064,-0.18672248721122742,0.43505752086639404,-0.13551238179206848,-0.008315503597259521,0.2261669637559545,-0.6250316477483684,-0.12638907574878797,0.7363490489926094
1681410821952350700,2.370350830078125,-0.2859881818294525,0.9005443453788757,2.608186960220337,0.8770129680633545,0.4464019536972046,-0.17769014835357666,0.2662365436553955,-0.10678699612617493,-0.05171060562133789,0.21593024162183927,-0.630203774029727,-0.11831367975777618,0.7363554340629148
1681410821962327600,2.38032763671875,-0.16228842735290527,0.9328173398971558,2.4843006134033203,0.8896645903587341,0.4243454039096832,-0.16860635578632355,0.16824251413345337,-0.07743674516677856,-0.08441495895385742,0.2063837375470149,-0.6352685478901444,-0.11013944429116941,0.7360088479579712
1681410821972303600,2.3903037109375,-0.0006284285918809474,0.9271344542503357,2.353187322616577,0.9011757373809814,0.4028737246990204,-0.15992268919944763,0.14438700675964355,-0.04639780521392822,-0.10942554473876953,0.1977325858018579,-0.6400568468631886,-0.1018130158238604,0.735434096312018
1681410821982280400,2.400280517578125,0.18550468981266022,0.8781884908676147,2.2380998134613037,0.9115761518478394,0.3819643259048462,-0.15209268033504486,0.17123323678970337,-0.013784945011138916,-0.1279061883687973,0.19004812592711087,-0.6444064064220971,-0.09324186606622263,0.7347979754518004
1681410821992256800,2.4102568359375,0.3643053472042084,0.7832856774330139,2.1238505840301514,0.9209038615226746,0.36161521077156067,-0.14550167322158813,0.22347486019134521,0.015673696994781494,-0.14113479852676392,0.1833156507084726,-0.6481682532639238,-0.08442204083391885,0.7342658328077046
1681410822002233600,2.420233642578125,0.5027338266372681,0.6637958884239197,2.0115342140197754,0.9291974902153015,0.34189653396606445,-0.1403529942035675,0.267228901386261,0.028449594974517822,-0.14204148948192596,0.17744074673278235,-0.6512512369587004,-0.07546742313056685,0.7339559848866039
1681410822012209700,2.430209716796875,0.5854358673095703,0.5390632748603821,1.89512300491333,0.9365077018737793,0.3229582905769348,-0.13656972348690033,0.2872166633605957,0.02851271629333496,-0.13055074214935303,0.1722788204850253,-0.653667858829649,-0.06658430345204222,0.7338970623807867
1681410822022186500,2.4401865234375,0.6073330640792847,0.42269715666770935,1.7820918560028076,0.942916750907898,0.3049010634422302,-0.13395313918590546,0.27700817584991455,0.02313244342803955,-0.1098518818616867,0.16765709187953778,-0.6554868771018169,-0.057968802366617014,0.7340761193202331
1681410822032162300,2.450162353515625,0.5713074207305908,0.3359047472476959,1.6714801788330078,0.9485307335853577,0.28779736161231995,-0.13214486837387085,0.23324722051620483,0.01934686303138733,-0.07450501620769501,0.1633664695866755,-0.656844815834976,-0.04982419335773181,0.7344275939783167
1681410822042139600,2.4601396484375,0.4478610157966614,0.27426066994667053,1.557267427444458,0.9534441232681274,0.2717750370502472,-0.13070127367973328,0.17062515020370483,0.015792161226272583,-0.03139291703701019,0.15919742792779135,-0.6579153453487029,-0.042388266002294464,0.7348516111970647
1681410822052115500,2.470115478515625,0.22060123085975647,0.22351573407649994,1.4386597871780396,0.9577237367630005,0.2570255994796753,-0.1292410045862198,0.09624660015106201,0.006676852703094482,0.011931315064430237,0.15486240734213988,-0.6588492658666647,-0.03601590263500238,0.7352810266274472
1681410822062092500,2.480092529296875,-0.1091109961271286,0.1671707034111023,1.3181309700012207,0.9614203572273254,0.24373887479305267,-0.1275234818458557,0.024465203285217285,-0.009302780032157898,0.047445252537727356,0.15003067328755013,-0.6597503358906225,-0.03110872969020748,0.7356986854532277
1681410822072068400,2.490068359375,-0.5244711637496948,0.09132707864046097,1.1960269212722778,0.9645759463310242,0.2320295125246048,-0.12552158534526825,-0.03171461820602417,-0.03364993631839752,0.06933863461017609,0.14439279884778128,-0.6606469920531797,-0.028013568084244538,0.7361464306793382
1681410822082045400,2.50004541015625,-0.9954685568809509,0.0001773526892066002,1.0828264951705933,0.9672155976295471,0.2219782918691635,-0.12336882948875427,-0.07474422454833984,-0.06522466242313385,0.07472372055053711,0.13770486904754703,-0.6615029364012615,-0.02700836157602805,0.7366966164062763
1681410822092022800,2.510022705078125,-1.4444031715393066,-0.09294433146715164,0.9844064712524414,0.9693994522094727,0.21349096298217773,-0.1211869865655899,-0.10782724618911743,-0.09216827154159546,0.06317301094532013,0.1298581329018412,-0.662280284105989,-0.028130648775857206,0.7373807393309888
1681410822101998600,2.51999853515625,-1.8199949264526367,-0.17141591012477875,0.9102970957756042,0.9712209701538086,0.20628361403942108,-0.11906752735376358,-0.1334981918334961,-0.09782406687736511,0.04327703267335892,0.1209427124044417,-0.6629468525249809,-0.03110796943216907,0.738177982882017
1681410822111975400,2.529975341796875,-2.1281063556671143,-0.2409673035144806,0.8606043457984924,0.9727706909179688,0.20002970099449158,-0.11707153916358948,-0.15605908632278442,-0.07715055346488953,0.01676015555858612,0.11110132365731501,-0.6634739262655185,-0.035589039234037216,0.7390483706230648
1681410822121951500,2.539951416015625,-2.367428779602051,-0.2996349334716797,0.8120918869972229,0.9741037487983704,0.19450286030769348,-0.1152859479188919,-0.1756111979484558,-0.04055680334568024,-0.0008641034364700317,0.1005066850350574,-0.6638180161413042,-0.0412633884486169,0.7399605170999856
1681410822131928300,2.54992822265625,-2.5551676750183105,-0.3394297659397125,0.7605570554733276,0.9752441644668579,0.1896597146987915,-0.11370181292295456,-0.1895843744277954,0.008277401328086853,-0.0043860673904418945,0.08936983538998747,-0.6639684776974507,-0.04790568885618668,0.7408535716378071
1681410822141904600,2.559904541015625,-2.7187118530273438,-0.3744255602359772,0.7143381834030151,0.9762185215950012,0.18546615540981293,-0.11224938929080963,-0.20209431648254395,0.05121302604675293,-0.007562696933746338,0.0778173585267806,-0.6639346845069881,-0.05537182797489068,0.7416665662982429
1681410822151881500,2.569881591796875,-2.8497414588928223,-0.4002225399017334,0.6946132183074951,0.9770774245262146,0.18170101940631866,-0.1109272912144661,-0.21177268028259277,0.08551102876663208,0.0011706799268722534,0.0658703216215364,-0.6637059935969492,-0.06348785407985444,0.7423779017271148
1681410822161857500,2.579857421875,-2.9551494121551514,-0.4198731482028961,0.6788161993026733,0.9778556823730469,0.17821061611175537,-0.1097242459654808,-0.21424484252929688,0.10953974723815918,0.016859114170074463,0.05357845681887884,-0.6632792830890737,-0.07210042226243928,0.7429613554749944
1681410822171834400,2.58983447265625,-3.019798994064331,-0.429484486579895,0.665181577205658,0.9785727858543396,0.1749201864004135,-0.10861945152282715,-0.21017074584960938,0.12293148040771484,0.026618674397468567,0.041039777369952186,-0.662660031622138,-0.08106761062989994,0.7433878085554978
1681410822181810700,2.599810791015625,-3.0352602005004883,-0.4367773234844208,0.66070556640625,0.9792494177818298,0.1717245727777481,-0.10761599987745285,-0.2053236961364746,0.13378700613975525,0.02553887665271759,0.02838554610973322,-0.6618582073137363,-0.0901981799108372,0.7436411962468078
1681410822191787500,2.60978759765625,-3.002671957015991,-0.4317426383495331,0.6673924922943115,0.9799113273620605,0.16845764219760895,-0.1067507341504097,-0.19832569360733032,0.1536860167980194,0.02352924644947052,0.015744832920889084,-0.6608871285020325,-0.09926146147724586,0.7437253668240305
1681410822201763600,2.619763671875,-2.9137561321258545,-0.42444631457328796,0.6808226108551025,0.9805784821510315,0.16500191390514374,-0.10601965337991714,-0.18915092945098877,0.1799231320619583,0.01947171241044998,0.003267550023709365,-0.6597854670661312,-0.10804309570131704,0.74363912007535
1681410822211740400,2.629740478515625,-2.795630693435669,-0.39047130942344666,0.6991991996765137,0.9812721014022827,0.1612560898065567,-0.10536456853151321,-0.18262708187103271,0.21099746227264404,0.012743651866912842,-0.008920314013526144,-0.658617281609459,-0.11636576220684115,0.7433725830956164
1681410822221716700,2.639716796875,-2.638246536254883,-0.3512348532676697,0.7204617857933044,0.9820107817649841,0.15715156495571136,-0.10468321293592453,-0.1801612377166748,0.23959235846996307,0.010612711310386658,-0.020710413543859958,-0.657463702256321,-0.12409622369839833,0.7429084019581816
1681410822231693600,2.649693603515625,-2.44167423248291,-0.2906106412410736,0.7465663552284241,0.9828081130981445,0.15261195600032806,-0.10391372442245483,-0.18352216482162476,0.26084035634994507,0.004105925559997559,-0.03196252685641395,-0.6564022884955631,-0.13106934362137765,0.7422502359160068
1681410822241669600,2.659669677734375,-2.2071893215179443,-0.23294416069984436,0.7750669717788696,0.9836759567260742,0.14756034314632416,-0.10299431532621384,-0.18373388051986694,0.2811660170555115,-0.004625976085662842,-0.04256138866203573,-0.6555107768634348,-0.13714395066649418,0.7414079984493784
1681410822251646500,2.669646484375,-1.9389162063598633,-0.17890968918800354,0.8141518235206604,0.9846130013465881,0.14188483357429504,-0.10200925916433334,-0.1778961420059204,0.3035804033279419,-0.02325020730495453,-0.052430530981083384,-0.6548135646379408,-0.14217793805844609,0.7404428618255352
1681410822261622500,2.67962255859375,-1.6363892555236816,-0.12056078016757965,0.8457545638084412,0.9856078624725342,0.1355406492948532,-0.10102479159832001,-0.16410517692565918,0.32789942622184753,-0.03493105620145798,-0.06144040681178332,-0.6543426403272697,-0.14602504351882623,0.7394170387891214
1681410822271599600,2.689599609375,-1.3285883665084839,-0.0662168487906456,0.8670126795768738,0.9866431951522827,0.12859906256198883,-0.09998750686645508,-0.146051824092865,0.3452780246734619,-0.0501895472407341,-0.06950660606985683,-0.6541444825992143,-0.1486648622471296,0.7383512804843533
1681410822281575400,2.699575439453125,-1.0356452465057373,-0.006814188323915005,0.8846806883811951,0.9876993894577026,0.12115131318569183,-0.09885584563016891,-0.13198643922805786,0.3607671856880188,-0.07497233152389526,-0.07660343957096959,-0.6542401503689205,-0.1501396065421492,0.7372651771124601
1681410822291552500,2.709552490234375,-0.782013475894928,0.04467536509037018,0.88849276304245,0.988756000995636,0.11328162997961044,-0.09761594235897064,-0.11763173341751099,0.3693845272064209,-0.08568792790174484,-0.0828076134826967,-0.6546142192962732,-0.15057307815372156,0.7361731479145851
1681410822301528600,2.719528564453125,-0.5719431042671204,0.0957690179347992,0.8672304749488831,0.9897801280021667,0.10527311265468597,-0.09619253128767014,-0.10019272565841675,0.37032824754714966,-0.08477675169706345,-0.0881781965069754,-0.6552408297578056,-0.15021048549042534,0.7350652687505629
1681410822311505700,2.729505615234375,-0.4049868881702423,0.1588025689125061,0.8262697458267212,0.9907566905021667,0.09737222641706467,-0.09444479644298553,-0.09346365928649902,0.3679141700267792,-0.07689617574214935,-0.09277704231495992,-0.6561191750935816,-0.14928238630552707,0.7339038020986899
1681410822321481500,2.7394814453125,-0.27007681131362915,0.21724724769592285,0.7826606631278992,0.991684079170227,0.08971862494945526,-0.09226728975772858,-0.09739702939987183,0.362017959356308,-0.0726039931178093,-0.0966828199568447,-0.6572474561054699,-0.14795991315716164,0.7326568796453139
1681410822331458600,2.74945849609375,-0.1737353652715683,0.2632299065589905,0.7361778616905212,0.9925550818443298,0.08240776509046555,-0.08968492597341537,-0.09781026840209961,0.3562062680721283,-0.0740724727511406,-0.09999416154730567,-0.6585803232748568,-0.14638817063829798,0.7313300587585743
1681410822341434400,2.759434326171875,-0.11332262307405472,0.2894730567932129,0.6823869347572327,0.9933569431304932,0.07551269978284836,-0.08683378994464874,-0.08231562376022339,0.35367143154144287,-0.08113497495651245,-0.10284182268983423,-0.6600310849305628,-0.14471375299710038,0.7299593073018281
1681410822351411500,2.769411376953125,-0.0810573622584343,0.298390656709671,0.627307116985321,0.9940800070762634,0.0690993070602417,-0.08384805172681808,-0.05647307634353638,0.3528216481208801,-0.09226895123720169,-0.1053225414196153,-0.6615231902690758,-0.14304909185584,0.7285817487728034
1681410822361387500,2.779387451171875,-0.07762880623340607,0.2998400330543518,0.569752037525177,0.9947215914726257,0.0632251724600792,-0.08081994950771332,-0.029893040657043457,0.35265326499938965,-0.09900492429733276,-0.10754088843939308,-0.662995993437344,-0.14151444569569843,0.7272173908061869
1681410822371364600,2.789364501953125,-0.10327237844467163,0.3048025667667389,0.503041684627533,0.9952855706214905,0.05796607956290245,-0.07776176929473877,-0.015945911407470703,0.3498404622077942,-0.104367196559906,-0.10957003355238902,-0.6644216696334398,-0.14022467394056484,0.7258618707249066
1681410822381340400,2.79934033203125,-0.16485950350761414,0.32234662771224976,0.44058871269226074,0.9957848787307739,0.05339021235704422,-0.0745805948972702,-0.01514822244644165,0.3423466384410858,-0.11052381992340088,-0.11149049676753758,-0.665809519370825,-0.13931038993075218,0.7244724552708197
1681410822391317500,2.8093173828125,-0.2371576726436615,0.32597944140434265,0.3833560645580292,0.9962313771247864,0.0494484007358551,-0.07126062363386154,-0.0191957950592041,0.33608031272888184,-0.11428630352020264,-0.11341238488871426,-0.6671523038114485,-0.13884341244471865,0.723026987561092
1681410822401294600,2.819294677734375,-0.3092333674430847,0.3180254101753235,0.3264882266521454,0.9966245293617249,0.046104468405246735,-0.06792765855789185,-0.024242877960205078,0.3327256441116333,-0.11232447624206543,-0.11538255259246459,-0.6684029035564228,-0.13882986229747546,0.7215613860092551
1681410822411270700,2.829270751953125,-0.37001708149909973,0.3098210096359253,0.25722312927246094,0.9969620704650879,0.043422721326351166,-0.06466230005025864,-0.028639256954193115,0.3336373567581177,-0.10846400260925293,-0.11735171281288123,-0.6695338916726907,-0.13925952787500942,0.7201109445202809
1681410822421247200,2.839247314453125,-0.41570645570755005,0.3062475919723511,0.17361317574977875,0.997246503829956,0.041516900062561035,-0.06144949048757553,-0.04206150770187378,0.3358636200428009,-0.11460644006729126,-0.11923054580245736,-0.6705513646259641,-0.14012894918209207,0.7186855853463671
1681410822431223000,2.84922314453125,-0.44642308354377747,0.3148770332336426,0.0862220898270607,0.9974837303161621,0.04049113392829895,-0.058197297155857086,-0.06634652614593506,0.3391934633255005,-0.1270749568939209,-0.12091811328957117,-0.6714908429259103,-0.14142630161290465,0.7172709143278883
1681410822441200000,2.8592001953125,-0.4615599513053894,0.34076857566833496,-0.002993942704051733,0.9976850748062134,0.04033631831407547,-0.054751038551330566,-0.0910688042640686,0.34726759791374207,-0.1333593726158142,-0.12235917875182475,-0.6724157018448365,-0.14311395985037248,0.7158238888967722
1681410822451176200,2.86917626953125,-0.46433043479919434,0.36154335737228394,-0.07652009278535843,0.9978525638580322,0.041004035621881485,-0.05107851326465607,-0.09636330604553223,0.35401564836502075,-0.1302722692489624,-0.12351255305501402,-0.6733493596635041,-0.14512540549967487,0.7143416081271211
1681410822461153000,2.879153076171875,-0.45834749937057495,0.35397976636886597,-0.12190734595060349,0.997987687587738,0.04224494472146034,-0.04728954657912254,-0.07327437400817871,0.3588477373123169,-0.12682855129241943,-0.12443886315693432,-0.6742755370363644,-0.1473354216749892,0.7128533766759656
1681410822471129000,2.889129150390625,-0.42847269773483276,0.3080093264579773,-0.14957518875598907,0.998080849647522,0.04379505291581154,-0.04378455504775047,-0.016345441341400146,0.3678567111492157,-0.126228928565979,-0.12520405181660366,-0.675081653368789,-0.1495743434776562,0.711488903063147
1681410822481106000,2.89910595703125,-0.37186479568481445,0.2517920732498169,-0.18991947174072266,0.9981227517127991,0.045648351311683655,-0.04083579406142235,0.049027085304260254,0.3791870176792145,-0.13245832920074463,-0.12574506218255888,-0.6756902613411312,-0.15173916148483804,0.7103564344840262
1681410822491082200,2.909082275390625,-0.28884926438331604,0.20631006360054016,-0.24444901943206787,0.9981124997138977,0.047932274639606476,-0.03839544206857681,0.08591771125793457,0.39414551854133606,-0.14686155319213867,-0.12591813123801732,-0.6761311327587065,-0.15378221683553803,0.7094663317556446
1681410822501059000,2.91905908203125,-0.1906432807445526,0.17521318793296814,-0.3176497220993042,0.9980451464653015,0.050811342895030975,-0.03639453276991844,0.08479499816894531,0.40679991245269775,-0.17251360416412354,-0.1255925743717663,-0.6764327978375786,-0.1556965121079305,0.7088187518989465
1681410822511035100,2.92903515625,-0.07498032599687576,0.14868810772895813,-0.402586430311203,0.9979133009910583,0.054441485553979874,-0.03472175821661949,0.06254220008850098,0.41064655780792236,-0.1884533166885376,-0.12464493685396477,-0.6766374835670143,-0.1574828162315095,0.7083958899977447
1681410822521012000,2.939011962890625,0.05919951945543289,0.14133277535438538,-0.49498364329338074,0.9977083206176758,0.05890654772520065,-0.03329136222600937,0.035662710666656494,0.4122545123100281,-0.1969943642616272,-0.12297725011596926,-0.676784153712976,-0.1591148292473067,0.708182441551034
1681410822530988300,2.94898828125,0.22903010249137878,0.15186238288879395,-0.5805030465126038,0.9974231719970703,0.06423919647932053,-0.03194330260157585,0.026060104370117188,0.4135136306285858,-0.19280344247817993,-0.1204727059838559,-0.676949158617773,-0.16052472030721743,0.7081370064304372
1681410822540965000,2.958965087890625,0.45115768909454346,0.16712845861911774,-0.6554638147354126,0.9970569014549255,0.07029182463884354,-0.03060552291572094,0.04177671670913696,0.420888751745224,-0.1755102276802063,-0.11702098344687323,-0.6772071352701885,-0.16151697798518652,0.708243535123317
1681410822550941200,2.968941162109375,0.7138039469718933,0.18306748569011688,-0.7271568775177002,0.9965990781784058,0.07701201736927032,-0.029314398765563965,0.08823972940444946,0.4332267642021179,-0.1541115641593933,-0.11247164851278363,-0.6775903273226369,-0.1619078399477358,0.7085247396973784
1681410822560918000,2.97891796875,1.017638087272644,0.19879670441150665,-0.7828032970428467,0.9960446357727051,0.08428359031677246,-0.02813745103776455,0.1504245400428772,0.4459594786167145,-0.1365964412689209,-0.10672409002285593,-0.6781182975075674,-0.16151423854668814,0.7089985006931327
1681410822570894300,2.988894287109375,1.3594987392425537,0.20500586926937103,-0.8219443559646606,0.9953939318656921,0.091936856508255,-0.027178378775715828,0.22253215312957764,0.45887506008148193,-0.12041991949081421,-0.0997005759760986,-0.6787986213102396,-0.16013507645964478,0.7096823697858387
1681410822580871200,2.99887109375,1.726941704750061,0.19702909886837006,-0.84266197681427,0.9946509599685669,0.09979581832885742,-0.026648880913853645,0.29331284761428833,0.470318466424942,-0.10903233289718628,-0.09136439440804268,-0.6795881919059534,-0.15759266883212303,0.710617272185807
1681410822590847000,3.008846923828125,2.095555543899536,0.16160906851291656,-0.8569287657737732,0.9938185214996338,0.10772478580474854,-0.02683529444038868,0.3604142665863037,0.4832635223865509,-0.10625189542770386,-0.08172187369596148,-0.6803937850839683,-0.1537746723477279,0.7118561487441694
1681410822600824000,3.018823974609375,2.438993215560913,0.11200487613677979,-0.8945985436439514,0.9928807020187378,0.11577177792787552,-0.02801639400422573,0.4114009141921997,0.488812118768692,-0.10867190361022949,-0.07080724691966414,-0.6810804088376883,-0.14873224050373846,0.7134385625280487
1681410822610800000,3.028800048828125,2.744004487991333,0.07784797251224518,-0.9722723364830017,0.9917896389961243,0.12425792217254639,-0.03022054396569729,0.42788803577423096,0.48472046852111816,-0.10825306177139282,-0.05859734719522344,-0.6815643211050169,-0.142687785033167,0.7153157550885798
1681410822620777200,3.038777099609375,2.989577531814575,0.052402421832084656,-1.0865451097488403,0.990480899810791,0.13356268405914307,-0.033295974135398865,0.397702693939209,0.4621100425720215,-0.10240048170089722,-0.04509282338469653,-0.681813399733473,-0.13595036287012172,0.7173664771319548
1681410822630753000,3.0487529296875,3.1789345741271973,-0.0013223253190517426,-1.2127999067306519,0.988893449306488,0.14385849237442017,-0.037345465272665024,0.33959782123565674,0.4239974617958069,-0.09613847732543945,-0.030446359442368332,-0.6817148501349157,-0.12881044432974617,0.7195455725803126
1681410822640730000,3.058730224609375,3.326453685760498,-0.07731951773166656,-1.3438847064971924,0.9869506359100342,0.15526044368743896,-0.042694225907325745,0.2916443943977356,0.380750447511673,-0.08561700582504272,-0.014777573675271804,-0.6810988152170189,-0.12147958734156312,0.7218925278322842
1681410822650707200,3.068707275390625,3.436110258102417,-0.1615731418132782,-1.488196611404419,0.9845777153968811,0.16779778897762299,-0.049504756927490234,0.2571977972984314,0.33769547939300537,-0.07145172357559204,0.0018096425934423367,-0.679870634040676,-0.11412073512049636,0.7243957039510078
1681410822660683300,3.078683349609375,3.490307092666626,-0.2538689374923706,-1.6371256113052368,0.9817312955856323,0.18132932484149933,-0.05764790251851082,0.21924209594726562,0.28220227360725403,-0.055374015122652054,0.019114099676275257,-0.6780489858207452,-0.10689070245921005,0.7269515672430695
1681410822670660000,3.08866015625,3.489006757736206,-0.35594815015792847,-1.7802751064300537,0.9783142805099487,0.19590510427951813,-0.0672479197382927,0.1708860993385315,0.22799940407276154,-0.03313975781202316,0.0369783514504867,-0.6755528876866164,-0.10002166926984576,0.7295591224726026
1681410822680636200,3.09863623046875,3.4406943321228027,-0.4595288932323456,-1.9114056825637817,0.9742568135261536,0.21140874922275543,-0.07829464226961136,0.12297219038009644,0.17634770274162292,-0.008314363658428192,0.05519163857790552,-0.6723657761199723,-0.09368534186182895,0.7321893354790988
1681410822690613000,3.108613037109375,3.3418290615081787,-0.5595044493675232,-2.0347299575805664,0.9694972634315491,0.22770732641220093,-0.09068911522626877,0.08172649145126343,0.12538115680217743,0.015554733574390411,0.0735416358784828,-0.6685093952694543,-0.08803766449182582,0.7348035277724667
1681410822700589000,3.118589111328125,3.201251745223999,-0.6508342027664185,-2.134476900100708,0.9639854431152344,0.24466398358345032,-0.10426761955022812,0.046436309814453125,0.07586222887039185,0.04173702746629715,0.09183338654031128,-0.6640356030468122,-0.08320401884813236,0.737360488716114
1681410822710566100,3.128566162109375,3.0274112224578857,-0.7445833683013916,-2.216860294342041,0.9576945900917053,0.2620895504951477,-0.11887041479349136,0.016380667686462402,0.030253678560256958,0.06906558573246002,0.10986567350891452,-0.6590006933855773,-0.0792646185296395,0.7398410276786032
1681410822720542200,3.138542236328125,2.831234931945801,-0.8306735754013062,-2.278254747390747,0.9506136775016785,0.27981317043304443,-0.13430678844451904,-0.004873931407928467,-0.01382187008857727,0.09524416923522949,0.12747270091106755,-0.6534754892745583,-0.07626526299841016,0.7422292029658165
1681410822730519000,3.14851904296875,2.615009069442749,-0.9072858095169067,-2.311903715133667,0.9427544474601746,0.29765796661376953,-0.15037989616394043,-0.019460320472717285,-0.05334940552711487,0.11925184726715088,0.1445096112733604,-0.6475355523150742,-0.07421428678312493,0.7445180303041412
1681410822740495000,3.1584951171875,2.3834521770477295,-0.9715330004692078,-2.322371482849121,0.9341647624969482,0.31543847918510437,-0.1668384075164795,-0.02603781223297119,-0.08974561095237732,0.14160023629665375,0.16084017778862814,-0.6412789072381746,-0.07309009229714167,0.7466925849356738
1681410822750472200,3.16847216796875,2.1412575244903564,-1.0318964719772339,-2.3047800064086914,0.9249152541160583,0.3329657316207886,-0.18348270654678345,-0.0262334942817688,-0.12741446495056152,0.1624559611082077,0.17632113681527237,-0.6347831781123633,-0.07286265999974763,0.7487672539068787
1681410822760448300,3.1784482421875,1.8933697938919067,-1.0849945545196533,-2.2643442153930664,0.9150905609130859,0.35010525584220886,-0.20008914172649384,-0.019826948642730713,-0.1611098349094391,0.18318232893943787,0.19084661549524534,-0.6281354396908976,-0.07349353124961777,0.7507477570297582
1681410822770425000,3.188425048828125,1.6329702138900757,-1.133223295211792,-2.2103445529937744,0.904761791229248,0.3667941391468048,-0.21649087965488434,-0.009253978729248047,-0.18762534856796265,0.2019948959350586,0.20433955299877754,-0.6213977719030908,-0.07496243795174835,0.7526559010327063
1681410822780401200,3.198401123046875,1.365302562713623,-1.1866998672485352,-2.1434361934661865,0.8939987421035767,0.3830011785030365,-0.23254339396953583,0.0027754902839660645,-0.20816591382026672,0.21937496960163116,0.21671960182284405,-0.6146201939896112,-0.07726785195256661,0.7545226050297182
1681410822790378000,3.2083779296875,1.0957647562026978,-1.2379544973373413,-2.068115711212158,0.8828608393669128,0.39874234795570374,-0.24811597168445587,0.012784361839294434,-0.22592118382453918,0.23355892300605774,0.22794268167642373,-0.6078460770285593,-0.08040622959524543,0.7563731360411399
1681410822800354300,3.218354248046875,0.8247138261795044,-1.2847613096237183,-1.9920320510864258,0.8713854551315308,0.4140796661376953,-0.26310762763023376,0.019758403301239014,-0.23846617341041565,0.2464754581451416,0.2380059406376043,-0.6011052499861259,-0.08437218491505821,0.7582262743234652
1681410822810331100,3.2283310546875,0.5519640445709229,-1.3179445266723633,-1.9070320129394531,0.859635055065155,0.4290960729122162,-0.2773161828517914,0.02072077989578247,-0.2524450123310089,0.2589597702026367,0.24689874876078302,-0.5944666869739798,-0.08916991475651273,0.7600652645339941
1681410822820307000,3.238306884765625,0.2952326834201813,-1.3331639766693115,-1.8137637376785278,0.8477010726928711,0.4438002109527588,-0.29059332609176636,0.015534400939941406,-0.261854350566864,0.2736712098121643,0.2546412606340658,-0.5879873529909482,-0.09473233766800938,0.7618757277465973
1681410822830284000,3.248283935546875,0.052443210035562515,-1.3348084688186646,-1.7104997634887695,0.8357315063476562,0.45815518498420715,-0.30273252725601196,0.0091935396194458,-0.2723182737827301,0.2863749563694,0.26123550991130484,-0.5817550806092148,-0.10096913052426086,0.7636245771715667
1681410822840260000,3.258260009765625,-0.17450645565986633,-1.3252804279327393,-1.6009923219680786,0.823883056640625,0.472096711397171,-0.3135947287082672,0.00689697265625,-0.27982065081596375,0.30463773012161255,0.2667052897311204,-0.5758384597182116,-0.10776228757408214,0.7652880523000315
1681410822850237200,3.2682373046875,-0.3697451651096344,-1.3074069023132324,-1.4798283576965332,0.8123010396957397,0.4855688512325287,-0.32309436798095703,0.015030443668365479,-0.2836644947528839,0.324910044670105,0.27109571486055406,-0.570289038874977,-0.11499231023732008,0.7668470157843951
1681410822860213000,3.278212890625,-0.5459476709365845,-1.2816964387893677,-1.351472020149231,0.8010978102684021,0.49849042296409607,-0.3312848210334778,0.026050567626953125,-0.2899484932422638,0.3467418849468231,0.27445891823861474,-0.5651038162503467,-0.12253682584817348,0.7683194164360865
1681410822870190000,3.288190185546875,-0.704984188079834,-1.2442015409469604,-1.2099854946136475,0.7904035449028015,0.5107740163803101,-0.3381894826889038,0.045335471630096436,-0.29676949977874756,0.3685849606990814,0.2768335214369939,-0.5602967126129844,-0.13027987210485992,0.7697129026666051
1681410822880166100,3.298166259765625,-0.8510108590126038,-1.1953128576278687,-1.0614113807678223,0.780381977558136,0.5223299860954285,-0.34376639127731323,0.06878477334976196,-0.3032747507095337,0.39062604308128357,0.2782244789129731,-0.555912382102217,-0.13812395393621027,0.771021614414872
1681410822890143200,3.308143310546875,-0.9868853688240051,-1.1441172361373901,-0.906315803527832,0.7711499929428101,0.5331250429153442,-0.3480018973350525,0.08857583999633789,-0.30911076068878174,0.4110358655452728,0.27865361051781634,-0.5519794609330718,-0.14600591250132097,0.772239030950842
1681410822900120000,3.3181201171875,-1.1153708696365356,-1.0819112062454224,-0.7422565817832947,0.762837290763855,0.5430982708930969,-0.35088956356048584,0.1113690733909607,-0.31150031089782715,0.4293654263019562,0.2781146610143477,-0.5485252585884408,-0.15386764313490292,0.7733673126605901
1681410822910096100,3.32809619140625,-1.2398399114608765,-1.013788104057312,-0.5837929248809814,0.7555285692214966,0.5522587895393372,-0.3524014949798584,0.13602715730667114,-0.31506091356277466,0.44691434502601624,0.2766375227325293,-0.5455817971211631,-0.16167794906353927,0.7743851913026215
1681410822920073000,3.338072998046875,-1.361639380455017,-0.9407739043235779,-0.42464521527290344,0.7492867112159729,0.5606262683868408,-0.3525162637233734,0.16149508953094482,-0.31715697050094604,0.46073153614997864,0.27423972776046196,-0.5431719576074051,-0.16942873225254373,0.7752746554101395
1681410822930049300,3.34804931640625,-1.4808545112609863,-0.8684256672859192,-0.2779058516025543,0.7441325783729553,0.5682284832000732,-0.35125961899757385,0.18961375951766968,-0.31636685132980347,0.4677451252937317,0.2709659889162437,-0.5412966744337676,-0.17711040377665166,0.776020242276665
1681410822940026000,3.358026123046875,-1.599726915359497,-0.7947536110877991,-0.1395469754934311,0.7400339841842651,0.5751476883888245,-0.3486473858356476,0.2164936661720276,-0.3156719207763672,0.4704734683036804,0.2668678180886841,-0.5399466358231638,-0.1847537047410398,0.7765986323561133
1681410822950002200,3.368002197265625,-1.7145065069198608,-0.722126841545105,-0.02070447988808155,0.7369492053985596,0.5814694762229919,-0.34467262029647827,0.24167311191558838,-0.31527984142303467,0.4651864469051361,0.2620041310116289,-0.539118936182322,-0.19239142353129926,0.7769750516680126
1681410822959979000,3.37797900390625,-1.8151663541793823,-0.637344241142273,0.08584519475698471,0.734824001789093,0.5872474312782288,-0.33937332034111023,0.2572413682937622,-0.318387508392334,0.45331060886383057,0.25646299684735147,-0.5387987077594674,-0.20002323901571192,0.777118698818211
1681410822969955300,3.387955322265625,-1.8817662000656128,-0.5358788967132568,0.17368078231811523,0.7336222529411316,0.5924999117851257,-0.33277973532676697,0.26323431730270386,-0.32272446155548096,0.4408881962299347,0.25037398038623676,-0.5389927442993085,-0.20759805940753273,0.7769831559915991
1681410822979932200,3.39793212890625,-1.8975872993469238,-0.42686861753463745,0.23571504652500153,0.733254611492157,0.5972110033035278,-0.3250797688961029,0.254233181476593,-0.32572656869888306,0.41428250074386597,0.24397302728179518,-0.5396702263683076,-0.21497944999064492,0.7765418118081786
1681410822989908200,3.407908203125,-1.840779423713684,-0.325992614030838,0.31124812364578247,0.7336830496788025,0.6012111902236938,-0.31662964820861816,0.23790502548217773,-0.32519495487213135,0.3655187785625458,0.23746089690885486,-0.5407629351434052,-0.22194734119749696,0.7758396600069575
1681410822999885000,3.417885009765625,-1.7120684385299683,-0.24364382028579712,0.3835636377334595,0.7348892092704773,0.6042060852050781,-0.3080144226551056,0.22960346937179565,-0.3150672912597656,0.32232704758644104,0.23098793214697178,-0.5421317422947406,-0.22822350582844386,0.7750173089792662
1681410823009861000,3.427861083984375,-1.5334526300430298,-0.1539674699306488,0.43928176164627075,0.7367660403251648,0.6061158776283264,-0.2996653616428375,0.23105311393737793,-0.30321359634399414,0.27903541922569275,0.2247606371428603,-0.543679802786874,-0.2336227543760189,0.7741545769261777
1681410823019838200,3.437838134765625,-1.3287826776504517,-0.00846865214407444,0.519953727722168,0.7393950819969177,0.6068316698074341,-0.2916337549686432,0.22618097066879272,-0.2885333299636841,0.22763827443122864,0.21893724197333161,-0.5454951139326104,-0.23794581289119826,0.7732291961198814
1681410823029814300,3.447814208984375,-1.1256380081176758,0.1618998795747757,0.6431845426559448,0.7431237101554871,0.6060684323310852,-0.28363439440727234,0.21766114234924316,-0.27463215589523315,0.20463955402374268,0.2134477006290611,-0.547809274497171,-0.24101411823946717,0.7721770704652605
1681410823039791000,3.457791015625,-0.9099603295326233,0.27720150351524353,0.7922686338424683,0.7480794191360474,0.6035721898078918,-0.2758224308490753,0.23641759157180786,-0.26459813117980957,0.19882649183273315,0.2081640434915491,-0.5506080280422526,-0.24273355954240403,0.7710895580673897
1681410823049767000,3.467766845703125,-0.679480254650116,0.335932195186615,0.9482215046882629,0.7541356682777405,0.5992133617401123,-0.26874345541000366,0.30496156215667725,-0.25683653354644775,0.1874292492866516,0.20300515914633152,-0.5536622456355785,-0.24307692164291012,0.7701693743007141
1681410823059744000,3.477743896484375,-0.4302104115486145,0.3760871887207031,1.1097196340560913,0.7611964344978333,0.5929138660430908,-0.26274192333221436,0.39436691999435425,-0.24919426441192627,0.17540055513381958,0.19795354903364676,-0.5568336857470827,-0.24200265345783376,0.7695358675692171
1681410823069720000,3.487719970703125,-0.1653422862291336,0.3996676206588745,1.2599678039550781,0.7691717743873596,0.5846322178840637,-0.25803133845329285,0.44931888580322266,-0.2372809648513794,0.1619161069393158,0.19303601907013748,-0.5600368911637315,-0.23946399811413036,0.7692547839089044
1681410823079697200,3.497697265625,0.09045104682445526,0.4437806308269501,1.3761305809020996,0.7778832912445068,0.5745298862457275,-0.25458434224128723,0.4410650134086609,-0.216985821723938,0.1332005262374878,0.18836135197819887,-0.5632459446415068,-0.23550337875861393,0.7692933731021481
1681410823089673000,3.5076728515625,0.3331092298030853,0.548649787902832,1.4580328464508057,0.7871717214584351,0.5629218220710754,-0.25195208191871643,0.35989242792129517,-0.2027990221977234,0.09481698274612427,0.18409481173655234,-0.5665843810243483,-0.2302305322557387,0.7694707257694643
1681410823099650000,3.517650146484375,0.5468839406967163,0.6994948983192444,1.5191110372543335,0.7970075607299805,0.550029993057251,-0.24949179589748383,0.22850507497787476,-0.19794857501983643,0.04886913299560547,0.180326096087789,-0.5702581006829589,-0.22374047943479397,0.7695638594755289
1681410823109627100,3.527627197265625,0.7175954580307007,0.8445034623146057,1.5601266622543335,0.8072652220726013,0.5361354947090149,-0.24674184620380402,0.10957425832748413,-0.2025173306465149,-0.004234835505485535,0.17707390209974241,-0.5743499770937882,-0.2162202136210294,0.7694255919699265
1681410823119603200,3.537603271484375,0.8695053458213806,0.935652494430542,1.6020194292068481,0.8177861571311951,0.5213820934295654,-0.24369363486766815,0.06435489654541016,-0.20593702793121338,-0.046757519245147705,0.17424392770807784,-0.5787531332269114,-0.20784127846121042,0.7690812300204275
1681410823129580000,3.547580078125,1.0109333992004395,0.9747860431671143,1.665135383605957,0.8284705281257629,0.5056949257850647,-0.24064376950263977,0.09691393375396729,-0.19969505071640015,-0.06929284334182739,0.17168467061105938,-0.5832749912842649,-0.1986665568554944,0.7686653556713094
1681410823139556000,3.55755615234375,1.1276977062225342,0.9837563633918762,1.7195366621017456,0.8392174243927002,0.48904845118522644,-0.23779378831386566,0.17965763807296753,-0.18181264400482178,-0.0881187915802002,0.1692658754329163,-0.5877623849794298,-0.18878157216849498,0.7682747558163338
1681410823149533000,3.567532958984375,1.210949182510376,0.9839524030685425,1.7578529119491577,0.8498795032501221,0.47161975502967834,-0.2351166158914566,0.26845240592956543,-0.1645059883594513,-0.11087650060653687,0.16695309065762678,-0.5921455687685396,-0.1783404600929393,0.7679095539653682
1681410823159509200,3.57750927734375,1.2456283569335938,0.9747170805931091,1.790765404701233,0.8603564500808716,0.453610897064209,-0.23243089020252228,0.32226067781448364,-0.15011346340179443,-0.1287142038345337,0.1646560284595661,-0.5964147305057618,-0.1675530410004934,0.767531092097671
1681410823169486000,3.587486083984375,1.2003453969955444,0.9425418376922607,1.8302581310272217,0.8706095218658447,0.4351295530796051,-0.22956793010234833,0.3457906246185303,-0.13921579718589783,-0.13526980578899384,0.16216041332047226,-0.6005615013660858,-0.15665861428964822,0.7671297178765594
1681410823179462100,3.597462158203125,1.0715396404266357,0.8722558617591858,1.842105746269226,0.8804919719696045,0.4164819121360779,-0.2264440357685089,0.3560192584991455,-0.13427048921585083,-0.12206679582595825,0.15923335560502436,-0.604522217731463,-0.1460509156981352,0.7667247650763377
1681410823189439000,3.60743896484375,0.8922973871231079,0.7665984034538269,1.833084225654602,0.889805257320404,0.3980312645435333,-0.22319921851158142,0.34958988428115845,-0.13770094513893127,-0.09549593925476074,0.15575491774034173,-0.608179918755326,-0.13607930520369396,0.7663811760372277
1681410823199415300,3.617415283203125,0.6684116721153259,0.6623250842094421,1.8067302703857422,0.8984469175338745,0.3800655007362366,-0.21987105906009674,0.32089805603027344,-0.14085343480110168,-0.07384541630744934,0.15164891813087467,-0.6115020811182261,-0.12700264708569428,0.7661188581302842
1681410823209392000,3.62739208984375,0.38857415318489075,0.5592120289802551,1.7626852989196777,0.9063937067985535,0.3628249168395996,-0.21635349094867706,0.26410800218582153,-0.14152660965919495,-0.06799417734146118,0.1468273029903994,-0.61453245444253,-0.11905090317284223,0.7659103499321512
1681410823219368200,3.6373681640625,0.057872265577316284,0.46828287839889526,1.69656240940094,0.9136203527450562,0.3466093838214874,-0.2125089317560196,0.18691980838775635,-0.13670939207077026,-0.05940282344818115,0.14120640015535071,-0.6173262873431746,-0.11248907575575326,0.7657123512524856
1681410823229345000,3.647344970703125,-0.3489828407764435,0.38063347339630127,1.5996581315994263,0.9201017618179321,0.3318041265010834,-0.20813211798667908,0.0992005467414856,-0.13743755221366882,-0.04403477907180786,0.1346894595017533,-0.619956205368822,-0.10764870469797805,0.7654573603988125
1681410823239321300,3.6573212890625,-0.7590373158454895,0.3068543076515198,1.4679672718048096,0.9257816672325134,0.3188129663467407,-0.20319151878356934,0.005538523197174072,-0.15331602096557617,-0.02977973222732544,0.1272863384579132,-0.6224326246132094,-0.1047944151056716,0.7651105027275829
1681410823249298200,3.667298095703125,-1.14925217628479,0.2692435383796692,1.3347605466842651,0.9307376146316528,0.30774199962615967,-0.19754120707511902,-0.09657013416290283,-0.17424273490905762,-0.0035086870193481445,0.11910720079582238,-0.6248457217065901,-0.10390967585047858,0.7645810607230434
1681410823259274200,3.677274169921875,-1.4781800508499146,0.23033562302589417,1.2164493799209595,0.9350753426551819,0.2984393239021301,-0.19122837483882904,-0.19233852624893188,-0.19725817441940308,-0.009440064430236816,0.11025466831223296,-0.6272149152718804,-0.10482015562699802,0.7638443746997341
1681410823269251000,3.6872509765625,-1.700451374053955,0.18152254819869995,1.1143728494644165,0.9388878345489502,0.2905355989933014,-0.18460391461849213,-0.25494325160980225,-0.19532066583633423,-0.03912054002285004,0.10092273079575866,-0.6294600446626112,-0.10713585511710651,0.7629656205470962
1681410823279227100,3.69722705078125,-1.827043890953064,0.12321805953979492,1.0108915567398071,0.9422136545181274,0.2837512791156769,-0.17809836566448212,-0.2808060050010681,-0.15339529514312744,-0.059496358036994934,0.09139449602001322,-0.6314687034842206,-0.11044498640351978,0.7620344153800939
1681410823289204200,3.707204345703125,-1.9040403366088867,0.0723990872502327,0.9097140431404114,0.945076048374176,0.2779659628868103,-0.17194874584674835,-0.2814255356788635,-0.09405168890953064,-0.07892107963562012,0.08191219064411549,-0.6331854253315222,-0.1144632855186139,0.761094550588345
1681410823299180000,3.717179931640625,-1.968030571937561,0.032365381717681885,0.8202409148216248,0.9475433230400085,0.2730570435523987,-0.16613735258579254,-0.27678221464157104,-0.04211518168449402,-0.08338974416255951,0.07253284288205412,-0.6346318679968426,-0.1190534302706446,0.7601366347162138
1681410823309157000,3.7271572265625,-2.026873826980591,0.011709373444318771,0.7399114370346069,0.9496881365776062,0.26892757415771484,-0.16053207218647003,-0.2731134295463562,-0.01383104920387268,-0.07105062901973724,0.06325761610379409,-0.6358632992162625,-0.12414437776896664,0.7591209268882545
1681410823319134200,3.73713427734375,-2.0787065029144287,0.0019218320958316326,0.6786478757858276,0.9515861868858337,0.2654455900192261,-0.15499228239059448,-0.27594220638275146,-0.0074498653411865234,-0.04968923330307007,0.05405987206349103,-0.6369378155693302,-0.1296691053249462,0.7580064605584109
1681410823329110300,3.7471103515625,-2.09195613861084,0.009098518639802933,0.6297597289085388,0.9533138871192932,0.2624082565307617,-0.14944857358932495,-0.27766990661621094,-0.00691494345664978,-0.0271415114402771,0.044961695589081196,-0.637904779915806,-0.13547399608131874,0.7567713639272262
1681410823339087000,3.757087158203125,-2.058074712753296,0.027438590303063393,0.5966855883598328,0.9549329280853271,0.2596201002597809,-0.14387713372707367,-0.27262091636657715,0.0013206005096435547,-0.013318955898284912,0.036049655430133574,-0.6388113691759937,-0.14135582912501443,0.7554065422178702
1681410823349063200,3.767063232421875,-1.97930109500885,0.053023576736450195,0.5856505036354065,0.9565066695213318,0.25683778524398804,-0.13831016421318054,-0.25420552492141724,0.0221845805644989,-0.01137860119342804,0.02741442909908766,-0.6396987692027064,-0.14707276952705925,0.7539255624104181
1681410823359040000,3.7770400390625,-1.8730981349945068,0.08543366193771362,0.5843364596366882,0.9580903053283691,0.2538509666919708,-0.13275118172168732,-0.22655344009399414,0.05062305927276611,-0.008926749229431152,0.019108915063591168,-0.6406148142348864,-0.152437093116297,0.7523367476234197
1681410823369016000,3.78701611328125,-1.7393907308578491,0.12072240561246872,0.6055815815925598,0.9597181081771851,0.25051695108413696,-0.1272110491991043,-0.19644296169281006,0.07725724577903748,-0.01184237003326416,0.011184974106133437,-0.6415990439880701,-0.15730589353273783,0.750653417453118
1681410823378993200,3.7969931640625,-1.6066819429397583,0.16276690363883972,0.647306501865387,0.9614477157592773,0.2465999722480774,-0.121684230864048,-0.16571706533432007,0.09812673926353455,-0.014607369899749756,0.0035957319996216455,-0.642694826250861,-0.16155879764581751,0.7488854073996957
1681410823388969200,3.80696923828125,-1.4776736497879028,0.2066672444343567,0.704452633857727,0.963312566280365,0.24194708466529846,-0.11614919453859329,-0.13698810338974,0.11083623766899109,-0.020874790847301483,-0.003720913450474898,-0.6439350113039699,-0.16514570883033214,0.7470346789370841
1681410823398946000,3.816946044921875,-1.3528650999069214,0.24673061072826385,0.7705550193786621,0.9653272032737732,0.23646125197410583,-0.1105877012014389,-0.1088818907737732,0.1198011040687561,-0.03827714920043945,-0.010822018365684177,-0.6453412141987145,-0.16805019631734647,0.7451018875265696
1681410823408922000,3.826922119140625,-1.213917851448059,0.2891220152378082,0.8518610596656799,0.9675021767616272,0.23002442717552185,-0.10501690208911896,-0.08198881149291992,0.13247878849506378,-0.05243861675262451,-0.017739501831142472,-0.6469292491726389,-0.17021779229209158,0.7430974813530025
1681410823418899700,3.836899658203125,-1.0545657873153687,0.3410235643386841,0.9376063346862793,0.9698404669761658,0.22254487872123718,-0.09941484034061432,-0.06340736150741577,0.14911358058452606,-0.06199269741773605,-0.02444886831398944,-0.6487356068612572,-0.17156541245099333,0.7410193543938945
1681410823428876000,3.8468759765625,-0.8763980865478516,0.3968394100666046,1.0185794830322266,0.9723249077796936,0.21400485932826996,-0.09373526275157928,-0.054203569889068604,0.16891460120677948,-0.0786890983581543,-0.03088082925875388,-0.6508002986337859,-0.17202133822767093,0.7388599943964202
1681410823438852900,3.856852783203125,-0.6681079864501953,0.4623108506202698,1.1040993928909302,0.9749287962913513,0.204398512840271,-0.08795017749071121,-0.05619704723358154,0.19101789593696594,-0.09924465417861938,-0.03694266805684056,-0.6531565947340741,-0.1714974410853584,0.7366209384274692
1681410823448829000,3.866828857421875,-0.4282597303390503,0.5315535664558411,1.17769455909729,0.9776204228401184,0.19373035430908203,-0.08201733976602554,-0.06789147853851318,0.2177840620279312,-0.11283747851848602,-0.04250966035041678,-0.6558440833849679,-0.1698819248767052,0.7343034522099067
1681410823458805800,3.8768056640625,-0.17914007604122162,0.6030611395835876,1.2312475442886353,0.9803301692008972,0.1821868121623993,-0.07590079307556152,-0.08271658420562744,0.24588342010974884,-0.13232070207595825,-0.047441095284712735,-0.6588667480746375,-0.1671652204675207,0.7319151846252301
1681410823468781800,3.88678173828125,0.06301768869161606,0.6523112058639526,1.2660963535308838,0.9829854965209961,0.1699737161397934,-0.06963419169187546,-0.09643441438674927,0.26839619874954224,-0.15921717882156372,-0.05167385171312897,-0.6621785637382912,-0.16340885965383423,0.7294841704850683
1681410823478759000,3.896759033203125,0.29159486293792725,0.6898151636123657,1.2831823825836182,0.9855172634124756,0.15730784833431244,-0.0633264109492302,-0.10206383466720581,0.2883557677268982,-0.18093633651733398,-0.05517596021839156,-0.6656960785658992,-0.15869948127822642,0.7270618789720735
1681410823488735000,3.90673486328125,0.4857158660888672,0.7030651569366455,1.2659687995910645,0.9878582954406738,0.14450524747371674,-0.057047825306653976,-0.09357112646102905,0.3028978705406189,-0.2001543641090393,-0.05795307334451856,-0.6693258587143625,-0.15322853208275192,0.7246830036024942
1681410823498711800,3.9167119140625,0.6431400179862976,0.6907227039337158,1.2367972135543823,0.9899606108665466,0.1318405270576477,-0.0509520061314106,-0.07315152883529663,0.31534895300865173,-0.22623920440673828,-0.060051216000919894,-0.6729478495968076,-0.14719099191658633,0.7224056066423749
1681410823508689000,3.92668896484375,0.7613039612770081,0.6823177933692932,1.180759310722351,0.9918069839477539,0.11953888088464737,-0.04505059868097305,-0.04560941457748413,0.32690292596817017,-0.2411891222000122,-0.06153308154313036,-0.676501981865988,-0.14078270521179592,0.7202354277577592
1681410823518665000,3.9366650390625,0.8166056275367737,0.66739821434021,1.1160322427749634,0.9933938980102539,0.10782824456691742,-0.03927024453878403,-0.021530866622924805,0.3349056839942932,-0.25388169288635254,-0.06251066551910335,-0.6799550117576977,-0.1342611590060834,0.7181418944914447
1681410823528642000,3.94664208984375,0.8071607351303101,0.6447736024856567,1.0368911027908325,0.994731605052948,0.09685327112674713,-0.03359700366854668,-0.006023049354553223,0.3373967409133911,-0.262270987033844,-0.06315863250570058,-0.6832616788976885,-0.1278865729875907,0.7161072946445948
1681410823538617900,3.956617919921875,0.7275201678276062,0.6140066385269165,0.9561882615089417,0.9958380460739136,0.08671562373638153,-0.028056252747774124,0.013546168804168701,0.3340913951396942,-0.26425647735595703,-0.06368920699121246,-0.6863710518783785,-0.12192888420413033,0.7141231670768443
1681410823548595000,3.966594970703125,0.585716962814331,0.5737108588218689,0.8659049868583679,0.9967344999313354,0.07749389857053757,-0.02270045131444931,0.0415041446685791,0.3225764334201813,-0.26036542654037476,-0.06430608942809968,-0.6892352154117666,-0.11663872502627559,0.7121903290937629
1681410823558570800,3.97657080078125,0.40150752663612366,0.5180464386940002,0.7616980075836182,0.9974406361579895,0.06929172575473785,-0.017635125666856766,0.06930136680603027,0.3085618019104004,-0.2530252933502197,-0.06517546690440042,-0.6917966208217032,-0.112249156119973,0.7103307910706591
1681410823568547800,3.9865478515625,0.17927339673042297,0.46349287033081055,0.648892343044281,0.9979788064956665,0.062218502163887024,-0.012933287769556046,0.08676856756210327,0.2994149327278137,-0.24979257583618164,-0.06639163898603997,-0.6940221199348998,-0.10893416847680276,0.708561126358273
1681410823578524000,3.99652392578125,-0.06690797954797745,0.4243244230747223,0.5086223483085632,0.9983704686164856,0.05642210692167282,-0.008558697067201138,0.08651429414749146,0.2915699779987335,-0.24720919132232666,-0.06800803214627811,-0.6959170050077775,-0.1068652130559891,0.7068623789427246
1681410823588501000,4.0065009765625,-0.3002578914165497,0.3917694091796875,0.35087504982948303,0.9986290335655212,0.05216444656252861,-0.0043950858525931835,0.07491856813430786,0.28322386741638184,-0.2450861930847168,-0.06994595568381383,-0.6975173486528274,-0.10616970073383684,0.7051987632012543
1681410823598476800,4.016476806640625,-0.5077378153800964,0.36728712916374207,0.2123306691646576,0.9987792372703552,0.04940018802881241,-0.0003922987962141633,0.06547576189041138,0.2859271168708801,-0.24243611097335815,-0.07213655605514985,-0.6988602411129701,-0.10676241847980993,0.7035571667136625
1681410823608454000,4.026453857421875,-0.6780357956886292,0.3074440360069275,0.10051785409450531,0.9988489747047424,0.04785742983222008,0.0032822208013385534,0.08550173044204712,0.29241371154785156,-0.2440049648284912,-0.07456533562146335,-0.6999169981393502,-0.10843111245089175,0.7019964872399314
1681410823618430000,4.036429931640625,-0.7807570695877075,0.19242413341999054,0.006684683263301849,0.9988620281219482,0.047295842319726944,0.006157784257084131,0.14519625902175903,0.3085087537765503,-0.25640201568603516,-0.07717529443593119,-0.7005553820487344,-0.11091009360668314,0.7006890623106649
1681410823628406800,4.04640673828125,-0.8228994607925415,0.05283747613430023,-0.0824664980173111,0.9988357424736023,0.04761267080903053,0.007773233111947775,0.22153174877166748,0.3373514413833618,-0.27112483978271484,-0.07978895811783275,-0.7006518545348158,-0.11390169084201332,0.6998194399362281
1681410823638382800,4.0563828125,-0.7996178865432739,-0.08521845191717148,-0.18557538092136383,0.9987736940383911,0.048867542296648026,0.007970921695232391,0.27197837829589844,0.371481716632843,-0.2872525453567505,-0.08218893334276643,-0.7001776515389535,-0.11720374178326819,0.6994710554263939
1681410823648359700,4.066359619140625,-0.7165504097938538,-0.1938980668783188,-0.3163546919822693,0.9986584782600403,0.05131450667977333,0.006937033962458372,0.2635485529899597,0.4017190933227539,-0.3060857057571411,-0.08405896683104426,-0.6992166355580637,-0.12068394042077352,0.6996181988426164
1681410823658336000,4.0763359375,-0.5862940549850464,-0.2711679935455322,-0.46633923053741455,0.9984651207923889,0.055166617035865784,0.004930088296532631,0.19971609115600586,0.42392897605895996,-0.32400667667388916,-0.08512011568127749,-0.6978767550991108,-0.12422994319517161,0.700206865914108
1681410823668312800,4.086312744140625,-0.4201042950153351,-0.2986941635608673,-0.6420450210571289,0.9981555342674255,0.06066757068037987,0.0023378452751785517,0.11535477638244629,0.4340377748012543,-0.3284182548522949,-0.08512665307685113,-0.6963009316595994,-0.1278042848014289,0.7011310585121864
1681410823678289000,4.096288818359375,-0.22647134959697723,-0.2829110324382782,-0.8202447295188904,0.9976891875267029,0.06794338673353195,-0.0003891245578415692,0.03946596384048462,0.4368632733821869,-0.31183624267578125,-0.08388570046499849,-0.6946592975396715,-0.13135409421245692,0.7022519935304403
1681410823688265700,4.106265625,-0.0010864257346838713,-0.2750738859176636,-0.9622223973274231,0.9970393776893616,0.07683379203081131,-0.0030741840600967407,-0.001448988914489746,0.4340306222438812,-0.27637535333633423,-0.081333728079416,-0.6930441907494207,-0.13473179884215597,0.7035069944648573
1681410823698242000,4.116241943359375,0.23277227580547333,-0.30384305119514465,-1.0629698038101196,0.9961972832679749,0.08691991120576859,-0.006024271249771118,0.015475869178771973,0.42656901478767395,-0.23807060718536377,-0.077568856979782,-0.6913905008288673,-0.13772087585013112,0.7049790086332525
1681410823708219000,4.126218994140625,0.4933133125305176,-0.3483223617076874,-1.1295830011367798,0.9951598048210144,0.09780058264732361,-0.009590987116098404,0.09465336799621582,0.41829758882522583,-0.2054511308670044,-0.0726819120055695,-0.689618898932089,-0.14010810318102832,0.7067621913322896
