seconds_elapsed,rotationRateX,rotationRateY,rotationRateZ,gravityX,gravityY,gravityZ,accelerationX,accelerationY,accelerationZ,quaternionW,quaternionX,quaternionY,quaternionZ
9.0,0.017413137319993544,0.0009695193789588099,0.004541116513392151,0.3500870399372986,-0.023232173763595553,-0.936429038931594,0.0017525009119121451,-8.24722779819943e-05,0.0024549946356158927,0.9839657422703527,0.01088310526729394,0.17795235314590652,0.005099592674870011
9.01,0.0179204274972554,0.0009269653447205076,0.005772497869388184,0.3501138460852774,-0.023433747445072765,-0.9364139980444031,0.0029841751945323325,-0.002331440533654079,0.003382662139620806,0.9839618728251288,0.01098387981912246,0.17796729653152474,0.005108551271393905
9.02,0.016268040046968035,0.000693748774746353,0.0056856072139910355,0.35013458192613706,-0.023624653713573116,-0.936401456352471,0.0038279225093654423,-0.005670127257801257,0.004005429185264045,0.9839586369696806,0.01107902259905235,0.17797902439697183,0.005118732962655317
9.03,0.011710381919246527,-8.607388567232995e-05,0.0007292500784137103,0.35014903386484897,-0.02375754117334082,-0.9363926543486464,0.0030928164196855758,-0.007881899586233141,0.0028192600482421937,0.9839563522723179,0.011145946964154886,0.17798716594557784,0.005121974353638518
9.04,0.010334882524320669,0.00047622335016173854,0.00014493245575600776,0.35016750355800363,-0.02387769473067696,-0.9363827040854921,0.0025592986152449294,-0.007939831083236579,0.0009781072535491272,0.9839538763003808,0.011207593362833577,0.17799727982953611,0.005118578205546708
9.049999999999999,0.009404710409833657,0.0011082525950392172,0.00103684144929486,0.35018572095105477,-0.023982441866096528,-0.9363732415517558,0.002048665505814554,-0.006988574959764138,-0.0007476884961563517,0.983951543127633,0.011261726478509582,0.1780071823665162,0.005113435199618793
9.059999999999999,0.005749121177972018,0.00017305237891096135,0.0012419866683611868,0.35019761574399016,-0.024049898971490746,-0.9363670562594293,0.0013465357034902208,-0.0053782851510642965,-0.0011801831672891027,0.983949973618869,0.01129641466070458,0.17801367160661757,0.0051110834754035045
9.069999999999999,0.0035346966963593004,0.0012367000566601313,0.001373962881322973,0.3502066818190033,-0.024105996583817485,-0.9363622071256199,0.0008437570901066354,-0.0032770479849290783,0.0008125710942732192,0.9839487486206834,0.011324783413767556,0.17801865451135498,0.0051117777914214905
9.079999999999998,0.002469538385218437,0.0025410699138552328,0.001295324148220017,0.350218579104118,-0.024152594195377002,-0.9363565453948696,0.0004417385456767772,-0.0017122108725223344,0.0034568482136462385,0.9839473150350493,0.011348281391842751,0.1780250879541195,0.005112683978395245
9.089999999999998,0.0035388801152347283,0.0018315647203904573,0.0005486165959285971,0.35024498554443473,-0.024180745205324268,-0.936345959029157,0.00012099545417255865,-0.0028310425302756877,0.00497890591766559,0.983944615115966,0.011363039791140693,0.17803903776490804,0.005109951604771284
9.099999999999998,0.004750165592544469,0.0031029252115354743,0.001473484386039514,0.35028669028276355,-0.024241118959801154,-0.9363288082003932,-5.6385962497469377e-05,-0.003636360327874421,0.005297159427460061,0.9839402853745424,0.011394249947952061,0.17806114025584183,0.005106662506516344
9.109999999999998,0.006583124801860858,0.0050510863874456465,0.0029949963925743946,0.3503321078631739,-0.02432273217442848,-0.9363097065382336,-0.0001833762037125832,-0.0036410005901037056,0.005186819182769432,0.9839354506511135,0.011435648907189762,0.178085313814045,0.0051066853961977176
9.119999999999997,0.010572556465574784,0.006501901176398215,0.004194412650599174,0.35036789368995314,-0.02443537946413324,-0.9362933699613549,-0.00034097262314096086,-0.0010718384428534187,0.005312594963981331,0.9839312235431498,0.011490386573128125,0.17810470801468192,0.0051202422411379045
9.129999999999997,0.009763983407389473,0.00741032858804152,0.007355458345387979,0.35042736554659243,-0.024562347608485177,-0.9362677656249381,-0.0005365442065343824,0.0005610576142087555,0.0045215006714797125,0.9839245195489676,0.011549569331723079,0.17813678956026888,0.005149238486142916
9.139999999999997,0.005892387368055629,0.0072646987804575874,0.010516042362436112,0.3504931105537108,-0.024678435654342478,-0.9362400892093647,-0.0006384108115619523,0.0013921908935149523,0.003434502431998401,0.9839172396119378,0.011601677129637321,0.17817222802167731,0.0051867100069459505
9.149999999999997,-0.002143924003402401,0.0038312714363103583,0.01039344567970334,0.35054420117855856,-0.02472726615841698,-0.9362196688199225,-0.00030381380901821256,0.0005985093371092112,0.0027035317924423057,0.9839118107036698,0.01161819142282475,0.1781998038691469,0.005232086136441603
9.159999999999997,-0.007551287974324481,-0.00121043538463539,0.00892654751933835,0.35056641440008207,-0.02471520527268609,-0.9362116955326575,0.0009093776022177812,-0.002323576114795293,0.002197423444934626,0.9839095302421856,0.011603433118465638,0.1782119836437172,0.0052795200919773105
9.169999999999996,-0.01240759098897919,-0.00664605808735035,0.0069505809577746274,0.35056105973489265,-0.024658575572019403,-0.9362152195624613,0.0026309205476546358,-0.005581122520261724,0.001848151317581412,0.9839101747584228,0.011566307178394578,0.1782094848171573,0.005325646506059277
9.179999999999996,-0.019705010891282883,-0.010823858798791644,0.005280310992655838,0.35049329686348396,-0.024526589884124622,-0.9362440455469634,0.004881052314520839,-0.006403342095057634,0.00174502011305588,0.9839172888752309,0.011492644718890244,0.17817379290493712,0.005362650912804629
9.189999999999996,-0.023973603936826515,-0.013844554255274246,0.003571193493265152,0.35038636268347856,-0.024341811416288158,-0.936288874386227,0.005157195123004075,-0.005566792200094907,0.002625912763335703,0.9839285064978451,0.011392209114530944,0.17811730104510573,0.005399749063367922
9.199999999999996,-0.02523758708889478,-0.01624768697133648,0.0019114158736676418,0.3502537763162304,-0.024130871967570248,-0.9363439482099585,0.004810602829023232,-0.004149447113662966,0.003530371483390036,0.9839423352730071,0.011278832747145525,0.17804720750608574,0.005435166400979276
9.209999999999996,-0.019365684146043557,-0.01821747211569174,0.00054006054973674,0.350086000261876,-0.023908874243044106,-0.9364123829186469,0.005587392281672483,-0.0034274753098731668,0.0026345349781118806,0.9839595213420218,0.011161259664576343,0.17795851309236654,0.005463135314018288
9.219999999999995,-0.017151957767593394,-0.020659848104524273,0.00016809619074378032,0.34990405620233445,-0.023732066721365425,-0.9364848617514215,0.00487750472259739,-0.0010205176789397012,0.0022986332372199824,0.9839777996595612,0.011067619239647952,0.17786249021262837,0.005485946607838362
9.229999999999995,-0.015925482227162575,-0.022247772218161193,0.0005795547401301658,0.34971715492103345,-0.023584054993812796,-0.9365584073362784,0.0037477177718691127,0.0014662687493509556,0.002591598149297025,0.9839963713671646,0.010988910510691802,0.17776395853083374,0.0055071934163890965
9.239999999999995,-0.01154362793282248,-0.01899216406164807,0.002449545333409049,0.3495373534456534,-0.023472050808128028,-0.9366283532625261,0.0038158793632635975,0.0008061168967451147,0.0045597194924413605,0.9840139947135889,0.010927832532466533,0.17766934925751052,0.0055321094054352205
9.249999999999995,-0.008963330977895007,-0.01569024835965053,0.0017694439988710975,0.34939901676279195,-0.023402516666575467,-0.9366817348875658,0.002603761169843363,-0.0012568103783121237,0.00530680253611935,0.9840274980550936,0.010889520240069601,0.17759660532103155,0.005550057532562227
9.259999999999994,-0.007482353796126302,-0.012022323534873366,3.177174025091256e-05,0.3492891176391346,-0.023353487078855394,-0.9367239678978987,0.0008069093157623457,-0.003646714971279368,0.00562513944261372,0.9840382066812211,0.010862498853348824,0.1775388234617315,0.005562893733751722
9.269999999999994,-0.007153407248094033,-0.0067295608704629395,-0.0009821017379126047,0.3492205430441858,-0.023306059538907905,-0.9367506919667019,-0.0008805530643618859,-0.004435123324360648,0.0066567519383507615,0.9840449551055739,0.010837751373158528,0.17750267380508067,0.0055672119291004475
9.279999999999994,-0.0051210202556136505,-0.004597400479114645,-0.00031238246391319144,0.34919263545140833,-0.02327077077738111,-0.9367619745700995,-0.0009524545726750685,-0.004379875560915097,0.0061462055476706745,0.984047792863178,0.010818289842291523,0.1774879640562022,0.0055759891619792425
9.289999999999994,-0.0030157880918608325,-0.0040716683961697095,0.0008020154554422691,0.3491777920461601,-0.023240186581059145,-0.9367682765665647,-0.0003482964674825204,-0.0037610929931239305,0.005025412847586451,0.9840493590512805,0.01080090971731114,0.17748014974182255,0.005586343230443666
9.299999999999994,-0.004671122614078535,-0.003842430335964627,4.2198385462959855e-05,0.34912916216770906,-0.02320349734005794,-0.9367873082352614,-0.00030983663699120584,-0.00239705141804731,0.004618135137476874,0.9840540987277016,0.010781033041927634,0.17745456208592505,0.005593706503712757
9.309999999999993,-0.004171235099012847,-0.0052443133641291925,-0.0009219257058278256,0.34908224399026583,-0.023163446474003112,-0.9368057606701218,0.0003546502637376392,-0.0033717209467520283,0.004142788721539563,0.9840587180092785,0.010759557950486767,0.17742984314371024,0.00560044778709734
9.319999999999993,-0.0033981010852447376,-0.006817158347906693,-0.0017228814401237347,0.349037538746533,-0.023121399537237002,-0.936823433654559,0.0010820423327375143,-0.005172156481132017,0.0035850444413088704,0.9840631560667655,0.010737134485991359,0.17740626836404796,0.005606801941448458
9.329999999999993,-0.006837171631576622,-0.005016379625550111,-0.0011446481030311423,0.34899983225292763,-0.023077786535514688,-0.9368385796908968,0.0005005852047431857,-0.005144717919720007,0.00277802238994872,0.9840669693148278,0.010713970193272877,0.17738635473065814,0.005612774065859781
9.339999999999993,-0.006442425695185007,-0.0036630590327191475,0.00016671225728214086,0.3489764454376393,-0.02303850973993723,-0.9368482693684959,0.0002256240173902377,-0.005026064019074039,0.002493505428537192,0.9840694071700333,0.010693211094769905,0.17737396428306296,0.005617470815167977
9.349999999999993,-0.0040638813929537035,-0.001969927769205709,0.001764125676029645,0.3489647374921818,-0.023006702453857376,-0.9368534123478769,-2.3749234550943222e-05,-0.004744625479166086,0.002465721024410717,0.9840706836598634,0.010676059965768507,0.177367747749161,0.005623081688769881
9.359999999999992,-0.001711998490724325,0.0028374801648853917,0.0028483837196704824,0.3489761770611855,-0.023003320891486132,-0.9368492092480002,-0.0009995226620269182,-0.0038344214010616025,0.0023600487492121723,0.9840695211076599,0.010671761620109122,0.1773738999997528,0.005637272710763466
9.369999999999992,-0.0024698467112901014,0.005574176584808096,0.0027486396585250585,0.34901322006695257,-0.023007916463822543,-0.9368353127668507,-0.0008097141204310736,-0.0030751046178987464,0.0028997652016654043,0.9840659156428215,0.010671087697532463,0.17739354152407882,0.005653556365828243
9.379999999999992,-0.0035467109476245125,0.006524261676556022,0.0021083549509455027,0.34906370449040214,-0.02302038276720384,-0.936816229706765,-6.382529268948875e-05,-0.0025677589375466903,0.003621057089240697,0.9840610109906655,0.010674531391643358,0.177420261623823,0.005669033068249875
9.389999999999992,0.0030568759537826437,0.003573441623496796,0.001992320497339253,0.3491128886604217,-0.023053535246980502,-0.9367970794011466,0.000303123109995814,-0.0030421130980493663,0.00340905567280003,0.9840561347894384,0.010690475208070439,0.1774462789860249,0.005673490613345409
9.399999999999991,0.003932731140641705,0.0027857422401966177,-0.00010612213362756599,0.3491538741894074,-0.02310270966821268,-0.9367805893297919,0.000580056460398263,-0.003146727991371154,0.0030031822041835065,0.9840519322649363,0.010715425229297708,0.1774680044840955,0.005673246981292937
9.409999999999991,0.002096293804999242,0.002954099262803592,-0.0027802144806499942,0.3491860281874191,-0.02315735939746447,-0.9367672521139712,0.0009171599500594989,-0.0030067475347613265,0.0026944454598118125,0.984048549173777,0.010744035556517737,0.17748506056501756,0.005668234068458525
9.419999999999991,0.0028885303809324304,0.0017177358994794679,-0.0023530943044345254,0.34919207470716135,-0.023191911292860107,-0.9367641198184982,0.0019159855375036634,-0.002616934106570976,0.003615023134395664,0.9840478771484027,0.010764864418291954,0.17748817067263783,0.0056500301234528585
9.42999999999999,0.0061676899656577105,-8.119043519599608e-05,-0.0019502903013591387,0.3491884575790475,-0.023268456035752217,-0.9367635711877258,0.0031190610199505996,-0.0015236687678006474,0.0038248421599043642,0.9840478220556719,0.010806799740061946,0.1774863993844711,0.005633220211400377
9.43999999999999,0.01087014770808291,-0.002299556721009187,-0.0018723497098514451,0.3491761559005587,-0.02337261612592519,-0.9367655803084883,0.004051177768379113,-0.0003152332001606324,0.0036215611606571513,0.9840484153372893,0.010862861227473045,0.17748017558165774,0.005615986151791072
9.44999999999999,0.01568325909249297,-0.00516410344540758,-0.0037769103909668315,0.34914332680521315,-0.02350147181198158,-0.9367745805556422,0.0025208978602168823,-0.00090702670898889,0.003346359770809647,0.9840509177559266,0.01093290361578874,0.1774631641792708,0.005591027464877899
9.45999999999999,0.018089416798715806,-0.004939188154123728,-0.004119157552163092,0.3491089805640005,-0.023648405170058128,-0.9367836811800966,0.00213455181028862,-0.00043458126068015776,0.0027503442386769866,0.9840533430325429,0.011012324492392863,0.17744543677559305,0.005565018062628789
9.46999999999999,0.018900157352076553,-0.003071883323728668,-0.003388053819562339,0.34907582900064105,-0.023808057355517744,-0.936792001193542,0.0023968890781270436,0.0004336206827531883,0.0021070893251874485,0.9840555297015005,0.011098163744383164,0.1774283962319145,0.005539242010037827
9.47999999999999,0.018388846656345915,-0.002244325736558063,-0.001543722311187753,0.34905669665508926,-0.02398260903013924,-0.936794657913028,0.0025480048685891255,-0.0002039089713911133,0.0024041660772582745,0.9840564084979209,0.011190517597219583,0.17741880249011027,0.0055191652236065815
9.48999999999999,0.01965410515629459,0.00024262778868984329,0.00131777634795039,0.34906285145976795,-0.02416727312916503,-0.9367876119503296,0.0016002064573069782,-0.0017206429545807763,0.0025835068013866547,0.9840547097123072,0.011286819764285897,0.17742262100110714,0.005505433471884035
9.49999999999999,0.02137568967369536,0.0031353524149119708,0.004459157067157635,0.3490852336790616,-0.02435833656637809,-0.9367743330905944,9.760880102518038e-05,-0.00343918674574469,0.002599969976954774,0.984051353737353,0.011385283239814295,0.1774350648930575,0.005497585923156177
9.50999999999999,0.018760600861224167,0.0018309616776054102,0.005250862094531441,0.349115565401047,-0.024551934233729856,-0.9367579579256532,-0.0006736693975638101,-0.002839585102360181,0.0019542413177993396,0.9840471653369954,0.011482321608926663,0.1774518568700568,0.005504708909247757
9.519999999999989,0.014994041467253862,0.00041001878129105177,0.006332775542438793,0.34913565879722147,-0.02473466775681896,-0.936745658319402,-0.00020268329012231522,-0.002043396341331487,0.0027081016570895135,0.9840439268217083,0.011571904847104759,0.1774633608466993,0.005522666201804522
9.529999999999989,0.010255159544396625,-0.0013749370914183214,0.00713417274616109,0.34914389025327686,-0.024897856183964,-0.9367382799945031,0.0009068946305008118,-0.0013205963955789071,0.004104604814965741,0.9840418911607047,0.011650451751694782,0.1774686330273172,0.005546869683438534
9.539999999999988,0.0035023726098989023,-0.005386962157117801,0.004439471217243692,0.34910971254824236,-0.02496303841020932,-0.9367493025026232,0.0010628750151943063,-0.00207757730086791,0.003841531644543399,0.9840445696659412,0.011679843495814107,0.1774511997796744,0.005567911828797065
9.549999999999988,-0.003996591109815817,-0.009481920081024019,0.002925039742542063,0.3490498308577869,-0.024954326233659837,-0.9367718650798124,0.0014062661215675663,-0.003928455019074236,0.0042181913135393954,0.9840502094034149,0.011671827509916697,0.1774199518761645,0.0055884326008518205
9.559999999999988,-0.011534276211202817,-0.013288260945598878,0.00226516234409284,0.34896925097697074,-0.02489072837922231,-0.9368035916887444,0.001900332137263546,-0.006252236711124651,0.004857721268870794,0.9840581889471733,0.01163594762208703,0.17737760732513044,0.005609024016962098
9.569999999999988,-0.01554985798370811,-0.01431972296819648,0.0024891007051017697,0.3488524365219107,-0.024760537608369965,-0.9368505395213278,0.002656652203731466,-0.006798616151770969,0.004346370551812504,0.9840699789253803,0.011565713437138907,0.17731601328602106,0.005632871376056752
9.579999999999988,-0.015756916488529924,-0.011685198952039838,0.00405668903668741,0.34874208175285754,-0.024644510290536274,-0.9368946727133423,0.001566580673993379,-0.0061801092062009665,0.0035368659766735386,0.9840809968568832,0.011501921912419786,0.17725792247712327,0.0056608663589810026
9.589999999999987,-0.013256236841185555,-0.007039998265665124,0.006359352941319115,0.34863994577983837,-0.024540034307952645,-0.9369354191153777,-0.0004582143698638721,-0.004841320521657464,0.002627226892267133,0.9840911191125135,0.011443251975759806,0.17720424305893465,0.00569294879732364
9.599999999999987,-0.00871475582696073,-0.005622313246715431,0.007462744413786912,0.3485728746152986,-0.024456060288042605,-0.9369625806570328,-0.00017797466818816866,-0.0038188470858832066,0.002532577841273138,0.9840978053903617,0.011392749908433928,0.17716918051528124,0.005737177305459296
9.609999999999987,-0.005558019610492899,-0.0039625680773338326,0.007992366818786937,0.3485346144323955,-0.024420990206011264,-0.9369777327073585,-0.0011318316679518414,-0.0021448836958833034,0.0016954481230026272,0.9841013847366036,0.01136743124681362,0.17714943225800428,0.005779248286879711
9.619999999999987,-0.003429447298888351,-0.0021189876461582256,0.007977589442267523,0.3485185226850766,-0.024419957051499817,-0.9369837379640654,-0.0027136315646678023,-0.00023531752567868585,0.0005456249385106633,0.9841026159376537,0.011359690344431182,0.17714144901002074,0.005819514187862813
9.629999999999987,-0.0022752815940129843,-6.658256788488184e-05,0.006449579935933564,0.3485299817078017,-0.024432024463082815,-0.9369791384947364,-0.002461196034636384,-0.00019279721600815746,0.0011094960878983802,0.9841012740945191,0.011359166326868628,0.17714793703206336,0.005856358102864548
9.639999999999986,-0.0058706193388945276,0.00301415507788904,0.005812272634438586,0.34855902220630486,-0.024439205076890992,-0.9369681414767767,-0.0020035312388771097,-0.001925377199137261,0.0017271449899240216,0.9840982870928432,0.011356675281124527,0.17716360491406705,0.0058901334191783705
9.649999999999986,-0.012056454140322212,0.006419868361992444,0.005655648898916548,0.34860181007173685,-0.024436854175216384,-0.9369522893773018,-0.0014625027808675053,-0.004682542063605494,0.0023994733379435096,0.9840940536602639,0.011349710257958587,0.1771864284755519,0.005921698256654738
9.659999999999986,-0.01149470564708254,0.0059784055576310655,0.004181744747302406,0.34866167955721,-0.024371992674905155,-0.9369317117197119,-0.0015020721494120402,-0.005488351636709201,0.0032518007082866503,0.9840886260208913,0.011311136403940368,0.17721794566160876,0.005952192830134399
9.669999999999986,-0.010844426445415903,0.005948178201226765,0.003921694845902562,0.3487258178394981,-0.02429960446393672,-0.9369097382607036,-0.0010576343231467314,-0.005301332320448961,0.0036323285441643175,0.9840828911596384,0.011268606454340541,0.17725166844031143,0.005983350343241486
9.679999999999986,-0.010515691145549521,0.006168225587957083,0.004398864496322931,0.34879178105855485,-0.02421911598675664,-0.9368872901740954,-0.00026674668265362167,-0.004536845473180735,0.0036250924569229117,0.9840770617369458,0.011221898413657009,0.17728631152788407,0.00601481816388164
9.689999999999985,-0.014409211981793148,0.005954034846820964,0.003577534562810049,0.34884473529175947,-0.02410786823284088,-0.9368704383964003,0.000583693147951127,-0.005115025009498432,0.003009348325560483,0.9840725730300802,0.011159897045762979,0.1773139846635543,0.006044561504387654
9.699999999999985,-0.01830790139318858,0.00641476476007817,0.00303114063067536,0.34888944230768254,-0.023967811124001502,-0.9368573592653688,0.0014600402152190534,-0.006145980967550891,0.003345461841849502,0.9840690333136869,0.01108322219499266,0.17733720109067652,0.00607458428158657
9.709999999999985,-0.02219229539664797,0.0072169166638320825,0.002672775246034754,0.348929719060245,-0.023801425396520397,-0.9368465749012799,0.002280270139923657,-0.0073182110322470295,0.004189067739814858,0.9840660681161063,0.010992989498681082,0.17735798483457563,0.00610564526688312
9.719999999999985,-0.02586004851143115,0.006252678765766665,0.0021827728722294886,0.34898847838307373,-0.023569246526211087,-0.936830556840266,0.0022012305244991856,-0.006251177463037978,0.002853502429771243,0.984061753756508,0.010867470130047798,0.1773882925293832,0.006146747365971998
9.729999999999984,-0.028970982211613285,0.0062920087702403584,0.0015450051842344124,0.34905571174465516,-0.023330772301554174,-0.9368114906386529,0.0019157603592414797,-0.005795861496498602,0.0030809381636940033,0.9840566588977435,0.010738784506151249,0.17742301222395376,0.006187543955694484
9.739999999999984,-0.031052404766205178,0.0071193265651234685,0.0007772316960941585,0.34912988297932623,-0.023087381456807256,-0.9367899154234864,0.0015354137139273337,-0.00584204265634367,0.004415355456273872,0.9840509270796562,0.010607757944519335,0.17746133805205777,0.006227364853807984
9.749999999999984,-0.024998909650270098,0.008498631477998494,-0.00025662701352493795,0.3492124711503466,-0.022840877027908556,-0.9367651350073138,0.0019298584663978411,-0.006504689570113739,0.005019878664890116,0.9840444471396923,0.010476908519754767,0.17750396601162247,0.006257292305468226
9.759999999999984,-0.01707170148794051,0.006462947188109178,0.0014226235580116523,0.34928418180182386,-0.022676849355069646,-0.936742399233356,0.0031467991441928235,-0.003924947277394598,0.0032032842234993504,0.9840384868660227,0.010388065159853315,0.17754122561886013,0.006286812944927082
9.769999999999984,-0.007835800303297244,0.0017770351766875666,0.004883187453095398,0.34934223589803215,-0.02258242968736419,-0.9367230575771668,0.004899300271612204,0.0010375473082268809,-0.00018096793355103365,0.9840333911435565,0.010334745689676286,0.1775716011329826,0.006315651396834706
9.779999999999983,-0.0003903939478929683,-0.0035318492208541536,0.004084560563505615,0.34932183599684624,-0.022585190315391555,-0.9367305910683726,0.005295264534379277,0.004633544102591006,0.0005573935045152326,0.9840351539015589,0.010331976414207836,0.17756114282739066,0.006339041795204574
9.789999999999983,0.003997534140001804,-0.007131575568100528,0.003430538137103133,0.3492782770753938,-0.022637632039048814,-0.9367455478742617,0.005367290153586672,0.004028853239465276,0.0033629061280249753,0.9840388195644789,0.010355568793812364,0.17753868433647024,0.006356556070812651
9.799999999999983,0.005846056572506774,-0.009169767938012626,0.0026413859719027575,0.34921611529347957,-0.022727700342977768,-0.9367665236413791,0.00513759656574972,0.0001863011596452166,0.007574619264456253,0.9840440421684697,0.010399415973092761,0.17750656168469145,0.006368028988420261
9.809999999999983,0.005345313664194925,-0.007556669133277436,-0.0022395461613336077,0.34914656588608806,-0.022796062672043267,-0.9367907905953834,0.0041210213479624756,-0.00275000151399902,0.008258653943424487,0.9840503394798761,0.010436512445249988,0.1774702023758515,0.006355870216003522
9.819999999999983,0.005796466651660874,-0.005946390891711234,-0.003871247363609953,0.34909327552196845,-0.022872507320739772,-0.9368087957338868,0.002475234210045628,-0.004722059071359542,0.006613866321393236,0.9840550075307414,0.010478161553657776,0.1774423941933386,0.006341021433597669
9.829999999999982,0.0070448956693767665,-0.004400439852059163,-0.002834877960786367,0.3490537445680409,-0.02295572080830584,-0.9368215013805679,0.00045673303928205294,-0.005751936414084768,0.0032117928995384582,0.9840583011158163,0.010523605320464846,0.17742182298076886,0.006324018262773712
9.839999999999982,0.008875466193769986,-0.004015653159056286,-0.0008101426197917438,0.3490268024244921,-0.023043865133534687,-0.9368293520714032,0.0009404426496188024,-0.003674316011290778,0.0020015970122728138,0.9840604139690482,0.010571487573313222,0.1774078815292077,0.006307216296709146
9.849999999999982,0.008213948211646258,-0.005138376377686119,0.0005881698630465214,0.34900224762748794,-0.023108250125908537,-0.9368369207042688,0.0011994881754007246,-0.0030319297845089587,0.0014357017950341916,0.984062445771147,0.010606478517298666,0.17739513467723403,0.006294917020921116
9.859999999999982,0.0056058762138813814,-0.007377372147940698,0.0013598845910590656,0.3489788322588123,-0.023152646824862625,-0.9368445736452954,0.0012902719530196744,-0.00364901848200502,0.0014435756424295515,0.9840644863274389,0.010630619464943904,0.1773829375451012,0.006286443826003632
9.869999999999981,0.005448704181572714,-0.006810831214191499,-0.0002187419525752684,0.3489373987300872,-0.02318951448775787,-0.9368590852926768,0.0017580346852059977,-0.005845201185231592,0.0023411567173382275,0.9840681634996238,0.010650572191252395,0.17736128281549932,0.006280219534858073
9.879999999999981,0.0038303717024992237,-0.007987328847797402,-0.0006648476133728998,0.34888869481410745,-0.023217493789136172,-0.9368765351397738,0.0022879485798340113,-0.0068368320778940525,0.0022423796145687853,0.9840726626507769,0.010666595944652408,0.17733572630868444,0.006270823650303244
9.889999999999981,0.0011175290529545387,-0.010489498611596426,-0.00022948312789925222,0.34883286465804086,-0.02323792061079977,-0.9368968335247148,0.00281237098633815,-0.006699327521412688,0.0013515032134831964,0.9840779481735352,0.010679278111879558,0.17730635674034442,0.006258762002652155
9.89999999999998,0.0021257827184708884,-0.009064727057212193,-0.0018307123884957926,0.3487525695896443,-0.023258102181462965,-0.936926215571965,0.0018471449604392284,-0.003826747906215765,0.0018275241004470128,0.984085505701925,0.010691772041912543,0.17726414816472946,0.006247358599428935
9.90999999999998,0.00353536595211232,-0.007417595539521853,-0.003065688254557058,0.34867904677865624,-0.02329102231764778,-0.9369527574102353,0.0014393226720210636,-0.002308502889569842,0.002414609943935796,0.9840923569782276,0.01071140702111628,0.17722551697201744,0.00623215465512069
9.91999999999998,0.005387760619283554,-0.005447350612846018,-0.004001927581688271,0.3486132895238267,-0.02333610828731306,-0.9369761035831554,0.001455779640665693,-0.0019978267409750962,0.0030828710653359416,0.9840984109018386,0.010737879063798944,0.17719098200316308,0.006213209723575328
9.92999999999998,0.010138192201310597,0.0005472493366226556,-0.005570558035812961,0.34860555740612925,-0.023414419522306912,-0.9369770155765247,-0.0004347231363618406,-0.002548868995547008,0.003266538599564697,0.9840988019497778,0.01078350786508731,0.17718691603314357,0.006180889963511149
9.93999999999998,0.012348701890030215,0.0035124066251940914,-0.0038070488929011674,0.3486272259742032,-0.023531801507808286,-0.9369660166526683,-0.001341717530206696,-0.0019086670377064063,0.0030684862928676304,0.984096170633334,0.010847949141062267,0.1771985049395102,0.006153981751068458
9.94999999999998,0.012351104009073825,0.0038413873640011837,0.0008739096647268763,0.34867563054335327,-0.023684394038628574,-0.9369441921585208,-0.001391326594547496,-0.00024063456322021007,0.0025497353687145533,0.9840907864908685,0.010929241877242687,0.17722433495114479,0.006132516148558506
9.95999999999998,0.014839379938222798,0.007036499419427312,0.003109213011723245,0.34874178434236786,-0.023847952219493235,-0.9369154072270947,-0.002310085304566356,-4.662868500422652e-05,0.0028457523081471363,0.984083404144431,0.01101176675322995,0.1772598169202616,0.006134946314516169
9.96999999999998,0.01551045362520673,0.008974125256182918,0.004614569598953231,0.3488225974116532,-0.024019857843079594,-0.9368809155966266,-0.002576752704038266,-0.0013207525292051007,0.0035382919951893873,0.9840745766465466,0.011097809892922347,0.1773030745049384,0.006141215124636207
9.979999999999979,0.014496818067153604,0.009718849294115648,0.005450797460969857,0.3489168858411975,-0.024198614734848918,-0.9368411988385363,-0.0022362540802060085,-0.0038970544485965016,0.0045527436730367285,0.9840644255958646,0.011186643073023446,0.17735347789404693,0.006151158970353034
9.989999999999979,0.012603068528076794,0.00838770828263397,0.006344720577290662,0.349012044184681,-0.02433337282648009,-0.9368022632163278,-0.0014381729482023005,-0.003995751492978328,0.0032855913816237908,0.9840544532295301,0.011251647839601185,0.17740424322339698,0.006169255334342836
9.999999999999979,0.008001326850403041,0.006963079921500455,0.005182928068987978,0.3490935869242085,-0.02444295442629458,-0.9367690228767335,-0.000835527786626639,-0.004229363837148873,0.0021391423378754985,0.9840458816685704,0.011303789334148192,0.17744776256997696,0.006187903590815722
10.009999999999978,0.0008674232930337565,0.005439709081028979,0.002149259376742485,0.3491619024643861,-0.024527534144214734,-0.936741331174997,-0.0004144244125815553,-0.0045820116955085114,0.0011295918024611434,0.9840386764126007,0.011343143563853846,0.1774842408008349,0.006207169488216584
10.019999999999978,-0.004582035562764217,0.0030050894990784217,0.004705060852108791,0.34919626082328276,-0.024502795084947154,-0.936729197697995,0.00023134619675558362,-0.004241317737707209,0.0021020542974872786,0.9840354320719088,0.01132551390012018,0.17750249055435854,0.006234787202387662
10.029999999999978,-0.009462949770637583,0.0010375961659495542,0.005218756869233906,0.34921016004935973,-0.024448645932894513,-0.9367254292061226,0.0007685332526248577,-0.0048072118904012,0.002288275594695177,0.9840342781491268,0.011292634021989958,0.17750989289948607,0.0062643504730227175
10.039999999999978,-0.013746508012450009,-0.0004948157738446319,0.0037623640503497767,0.34920407034740203,-0.024366013229877408,-0.9367298273880851,0.0012046775437209805,-0.006236329233351995,0.001725178218632834,0.984035234104523,0.011248807739177715,0.17750644493999082,0.006274595606432877
10.049999999999978,-0.00863529271856355,-0.005331035554634522,0.003282034031918126,0.34915804269975864,-0.024275551027924277,-0.9367493554692281,0.0024269849025674904,-0.004978132093530475,0.0033569811207988538,0.9840536252988544,0.011957316548683143,0.17743192829842924,0.0020907828137920097
10.059999999999977,-0.005522374145411585,-0.008817513760656145,0.003713985425274802,0.34909070717489216,-0.024221859256783725,-0.9367758560767688,0.0032141745963655873,-0.0021539662735366315,0.003950516162139126,0.9840670790740289,0.012305113280209333,0.1773715270602207,1.0561084492049034e-05
10.069999999999977,-0.004405606837549463,-0.01095569953125923,0.0050572387667087,0.3490020866498361,-0.02420489843817399,-0.9368093217247095,0.0035667137857495535,0.0022344869367609344,0.0035068980707177577,0.9840756007310673,0.012292585209421416,0.17732522607047416,3.1671914651495726e-05
10.079999999999977,-0.0035991512254682162,-0.008963398219205315,0.005003447256094327,0.3489031904606132,-0.024203453566756176,-0.9368461861116956,0.002168550225847923,0.0013858181553839826,0.003127416586076771,0.9840849591163102,0.012286489861869657,0.17727366341767384,6.079667522679304e-05
10.089999999999977,-0.0046672841620128865,-0.005258414128164846,0.004370206996651115,0.3488383204682866,-0.024196993906349287,-0.9368705108018375,0.0004906183375171024,-0.0008015256325139566,0.0037279261922943804,0.9840911271894112,0.012277846166461843,0.17723995808964538,9.014709257770175e-05
10.099999999999977,-0.007656333272856545,0.0001898936639998395,0.003147150041869941,0.34880836590121705,-0.024185345871727326,-0.9368819692662759,-0.0014688187300902658,-0.004345392773704138,0.005332943835633455,0.9840940219608321,0.012266570323428025,0.17722457636499206,0.00011970451409108821
10.109999999999976,-0.010078066413544877,0.001328268886951898,0.004717558503277056,0.34881234111890586,-0.0241005625164053,-0.9368826677482048,-0.0018939438152902456,-0.006173065379710248,0.004393725846245055,0.9840942193403218,0.012216723396902461,0.17722702316430844,0.00015728242203248862
10.119999999999976,-0.010226773576376942,0.000918603169493228,0.005002253125503965,0.3488191934431013,-0.024028162378869327,-0.9368819680943271,-0.0010654169475798926,-0.006378513418886133,0.0038540571319143637,0.98409402512395,0.012173637107391957,0.1772309672941745,0.00019227918230576289
10.129999999999976,-0.00798930686330614,-0.0010763696926707669,0.003905646921263198,0.34882872925696956,-0.023969534966058633,-0.9368799062967339,0.001066779138379542,-0.004894284310890862,0.003760641840963654,0.9840934461845007,0.012138056292975966,0.17723630626180326,0.0002244784312230821
10.139999999999976,-0.0032477150264415547,-0.0037282663340856654,0.0031248848029622007,0.34881019321812573,-0.023949208616666384,-0.9368873253703806,0.001958620764701649,-0.003411657417656755,0.0023582689960250577,0.9840953384414923,0.012124566945524667,0.17722675610113459,0.00024191751941756223
10.149999999999975,0.0013663646723766775,-0.005192972963922724,0.0018047092696437338,0.348786587745641,-0.02395730846192809,-0.9368959088592668,0.0022297665538517815,-0.0015938591517915411,0.0020384783605398157,0.9840975164646942,0.012126686807114498,0.17721450633865143,0.00025286683843801593
10.159999999999975,0.005798707269820348,-0.005363927777785047,-0.00010360248517204962,0.34875800059328615,-0.023995436229449885,-0.9369055832908543,0.0018523447740101885,0.0005859632549847101,0.0029109217730448134,0.9840999596836937,0.01214527677735585,0.1771996026534607,0.00025706646370783897
10.169999999999975,0.0077005580674969175,-0.004815399592492713,0.0009191948171464096,0.34871433811581454,-0.024072432450887447,-0.9369198694395386,0.0016685887983411212,-0.00012216408386764006,0.001853302838441951,0.9841036063423176,0.01218375070603607,0.17717681385013662,0.0002604378110188402
10.179999999999975,0.006855576089169101,-0.0034607053337957104,0.0015103797246340171,0.34868030003018635,-0.024152140872634707,-0.9369304835554336,0.001864361169082309,-0.0017807021913103225,0.0021672156504878312,0.9841062961090243,0.012223331907269428,0.17715910722528785,0.0002653706610261811
10.189999999999975,0.003028898648133673,-0.0012303224116962004,0.0015479396539803284,0.3486573213892593,-0.024233863497083424,-0.9369369072652355,0.0024761005701197103,-0.00441946155961692,0.0040515831640902614,0.9841078938584973,0.012263632747144058,0.17714723863257642,0.0002720564841335696
10.199999999999974,-0.0011892544763251237,0.003267967112970063,8.91852171591382e-05,0.34866808818422595,-0.024249542749176907,-0.9369325125046685,0.00018611181045428016,-0.0064834010452636485,0.0049689788576030985,0.984106779301767,0.012270449747596002,0.17715299093188375,0.0002785080271027142
10.209999999999974,-0.005299479373914497,0.00442047798859323,-0.0004171719152414061,0.3486883654591516,-0.024234240357372767,-0.9369253652685307,-0.0008415812987225066,-0.007462678472177375,0.004848729199239584,0.9841049610940612,0.012261649199866432,0.17716369307995056,0.0002843152152404486
10.219999999999974,-0.009273521949640401,0.001687156483144877,0.0002115505199387814,0.348718320512694,-0.024185917761072533,-0.9369154529410847,-0.0003335943417595034,-0.00722679853306284,0.003580189181984286,0.9841024341943181,0.012236210019769989,0.177179430187307,0.000289396878281131
10.229999999999974,-0.012026509150113676,0.00022323753800699685,-0.0001933450770665936,0.34873305873687294,-0.024081739540601894,-0.9369126523162554,-0.00028019266429036416,-0.00704675196115357,0.004207981422732789,0.9841017134576986,0.012181045528896234,0.17718718032902436,0.00030183840979807933
10.239999999999974,-0.009562337940013184,-0.00031093795064253296,-0.00010774968406049393,0.348745579065263,-0.023991875986986082,-0.9369102975207676,0.0002963588752930679,-0.00584598095432161,0.00387621118532742,0.9841011180984148,0.012133987151742296,0.1771937279531786,0.0003096473224245489
10.249999999999973,-0.0010554664714854597,0.00018632756314288846,0.0005955435396531061,0.34875616525905195,-0.02392114896216675,-0.9369081564928101,0.0015037598728914648,-0.0034502425332863604,0.0023414509779211786,0.9841005912249332,0.012097683163604107,0.1771992155360288,0.00031172591606751205
10.259999999999973,0.010064730787487864,-0.0014309296967333824,-0.0017060562143709538,0.3487563454930972,-0.023971599359387565,-0.9369068129605439,0.0020993921904408964,-0.0012540954996232015,0.0019351936801520063,0.9841002465226003,0.012125832771074558,0.17719920394273184,0.0002977724668429178
10.269999999999973,0.01965674078373612,-0.00040226260314842966,-0.001456079441934922,0.3487698571039036,-0.024106246706821016,-0.9368983124971065,0.0016622136619365484,0.0017043299754366617,0.001520644214383387,0.9840980885996605,0.01219749371497828,0.17720625676029847,0.0002798648423197802
10.279999999999973,0.0272773191092285,0.003912552985250901,0.002013843772384766,0.3487999127450636,-0.024335516381465725,-0.9368811831607198,1.817405561196613e-05,0.005587860557439932,0.0010365818564934274,0.9840937455862478,0.012317956958174555,0.17722207560804923,0.0002580592520925346
10.289999999999973,0.02917691793783851,0.0016755413326802917,0.0001798437013179185,0.34882998585362174,-0.024625129112825432,-0.9368624326130555,-0.00029318000986594604,0.0073008914854765,0.00028053542728626545,0.9840890231972991,0.01247023460167779,0.17723788685028216,0.00022988352776805745
10.299999999999972,0.02833868100110436,0.0017087695750564987,-0.002209678418579035,0.3488530867054382,-0.0249086707457807,-0.9368463529694216,-0.0006613156609284669,0.005250890865391435,0.0005593731741868121,0.9840849691553578,0.012620301086379387,0.17724996328042814,0.00019682435791291674
10.309999999999972,0.02448824789731646,0.0049510042247546135,-0.0049495104967802244,0.3488675981171489,-0.025180934417290978,-0.9368336653963412,-0.0011833101715231372,-0.0012976946632996134,0.002130094721543003,0.9840817622634161,0.012765640616638225,0.17725743969381513,0.00015815093183499648
10.319999999999972,0.01635857269258513,0.009848431085911075,-0.004713898816942486,0.34895847667506563,-0.025344176636637752,-0.9367953902689188,-0.0024147100120975283,-0.005059669162346407,0.0012011372270561867,0.9840719981163217,0.012856004607833869,0.17730485551554834,0.00011762755300164738
10.329999999999972,0.009037862484928383,0.013572044690752487,-0.002981651741537473,0.3490766737021078,-0.025455728707885976,-0.9367483371879136,-0.003468359135814197,-0.007318893756304019,0.00042350478136476657,0.9840600296537783,0.012918398615237097,0.17736667090167077,8.674423185005282e-05
10.339999999999971,0.003056646112498524,0.015688833683994124,0.0004232082612335023,0.34922377025250895,-0.025509975516929604,-0.9366920757310352,-0.004244759311004178,-0.007883807947709764,2.2101688033066566e-05,0.9840457585296855,0.01294948718450513,0.17744374242623967,6.818863556571206e-05
10.349999999999971,-0.005835216056909648,0.017697446999556797,0.0017188304122935072,0.3493995511972265,-0.02547553075591682,-0.936627443138778,-0.003716542572692222,-0.008013616953675518,-0.0007685812546648089,0.9840293522609861,0.012931185691375233,0.17753609279104504,7.377731997232054e-05
10.359999999999971,-0.014071712880228706,0.01794827709522371,0.0038519386800796676,0.3495731101718812,-0.02537540787910739,-0.9365653799522354,-0.0025597145502780877,-0.007750783047864077,-0.0003985124613902761,0.9840135923835486,0.012876264927499239,0.17762743068186573,9.728989961343204e-05
10.36999999999997,-0.021208033069825535,0.015924894060169264,0.0072532996314306035,0.3497413305645211,-0.02519754727834478,-0.9365073701857223,-0.0006978111967854833,-0.007015079041337683,0.0015127170366972154,0.9839988547303471,0.012777995805038696,0.17771614718320924,0.00014202264160652188
10.37999999999997,-0.02615530813925907,0.01516432556046737,0.0069721399394147955,0.3498686107207831,-0.024964995193883854,-0.9364660611890268,-1.5039652091680894e-05,-0.008178293864158226,0.0031000932522291746,0.983988325398266,0.012649231457373759,0.17778345944784957,0.0002013623233120086
10.38999999999997,-0.025557862981554245,0.01584434593208302,0.007755976692605638,0.35000413717073536,-0.02476413378293149,-0.9364207605912926,0.0005396582515931713,-0.007801090145579916,0.00430627628210804,0.9839767955282102,0.012536013265304928,0.177855182455095,0.000263798687503834
10.39999999999997,-0.017777507420421126,0.018322742510030444,0.010320468958908712,0.35015466577533344,-0.02461089415677689,-0.9363685028009963,0.0010387439385095933,-0.0051833212875751385,0.005035585686289928,0.9839635196033707,0.012446514662451195,0.17793488149902867,0.00032893852627754685
10.40999999999997,-0.010639018900211537,0.018351399012252842,0.010776485666868904,0.3503206498208164,-0.024533091361404864,-0.936308463992131,0.0016914830398322197,-0.0029406818621978232,0.004217015008602354,0.9839482015195149,0.012393829329683873,0.1780228998078244,0.00040250862562610647
10.41999999999997,-0.0031540108922772825,0.014874565347363427,0.011175148708549762,0.35046046501439193,-0.024515701099516122,-0.9362566148978253,0.00328348282628463,0.00015675963095287027,0.00418150953969306,0.9839349725348625,0.012372238561040399,0.1780972296217877,0.0004737363791136851
10.42999999999997,0.004876806570924316,0.006867344799167894,0.011728934335437131,0.35056272058432697,-0.024572704416577367,-0.9362168466401112,0.006145072636729299,0.004466704034690722,0.005390218748483196,0.9839248315807252,0.012389161710195162,0.17815188659506942,0.000540821192238914
10.43999999999997,0.009427578142067954,0.0002926693967566854,0.011115134383485499,0.35058269287452104,-0.024697829304087197,-0.936206072234917,0.00799804486230693,0.005170829424513933,0.0049028104072071955,0.9839220685662027,0.012443311341383026,0.17816322758226114,0.000593084578403946
10.449999999999969,0.009133811659399279,-0.005806569271679926,0.010547251886002208,0.35055401041069245,-0.024823950495187794,-0.9362134640215859,0.008428340674515845,0.004041045901204976,0.004584490962498542,0.9839239325600643,0.01249850076636176,0.17814897117108686,0.0006421690648344894
10.459999999999969,0.0024572005741269245,-0.011415291247547319,0.010189399518621245,0.350467118948299,-0.024942988874530198,-0.9362428045108266,0.006982548417867602,0.0007800524857661728,0.004715333684788428,0.9839313878463475,0.012550516587348345,0.17810409415172435,0.0006886268490470878
10.469999999999969,-0.0029513881713821213,-0.016267755378644326,0.00663878767585611,0.3503334642748889,-0.024985371347375964,-0.9362917110458214,0.00758339709689391,-0.0017520887723135809,0.0043750361519243166,0.983943755701977,0.012564520649539583,0.17803446624171035,0.0007296657458330492
10.479999999999968,-0.0074071570038494175,-0.02057110315890648,0.0037848688248400203,0.3501786040590064,-0.024975918958867735,-0.9363498959063327,0.007800397849538305,-0.004681890883538965,0.0040175175957624775,0.9839584926262691,0.01255298790595057,0.17795356116410752,0.0007661676716786391
10.489999999999968,-0.010661878878762677,-0.02418582853058078,0.002382774431670659,0.349999595621339,-0.02490219619051389,-0.9364187712316684,0.00717746672632287,-0.008288115882231722,0.003700699029595036,0.9839759707840771,0.012509826259426437,0.17785979757569212,0.0007968644828936704
10.499999999999968,-0.015863945363300415,-0.024928729244545946,0.002809800754161346,0.34977840801113697,-0.024767705046605953,-0.9365049852354734,0.006210722845223736,-0.009160325324386669,0.0031713621096301934,0.9839978765703263,0.012436903120089254,0.17774369377552413,0.0008212329009421396
10.509999999999968,-0.018426269298281915,-0.025047402252367564,0.0032818085425140313,0.3495644549359364,-0.024619957771405323,-0.9365887783960843,0.004416493821628266,-0.00832123756152547,0.002779044821356685,0.984019159719712,0.012357365937573025,0.17763136516605374,0.0008449870407867887
10.519999999999968,-0.016766116765404883,-0.02468317130227493,0.0035376203135614815,0.3493677745347488,-0.02446192181780769,-0.9366662927967135,0.001446284727028433,-0.005363150004351396,0.0026231437352828295,0.9840388329106038,0.012272608898038412,0.17752810098323168,0.0008688078782114213
10.529999999999967,-0.016176959637518275,-0.02402917895722241,0.00452121736280865,0.3491581389975473,-0.024319018688357622,-0.9367481620983195,0.0014092440107173613,-0.0034848665576608135,0.003000833305885898,0.9840596508450756,0.012193106419436328,0.17741822451658915,0.000906155888587453
10.539999999999967,-0.01347095575707355,-0.02182707018906641,0.005080155801963386,0.34897324453753514,-0.024199915069283786,-0.9368201583079385,0.0003935473119246653,-0.002493357917477033,0.0035084449998043577,0.9840779218439998,0.012126173957573498,0.1773213568260406,0.0009409959991801582
10.549999999999967,-0.007351001776045541,-0.017312101682513563,0.0048663298621359884,0.34882832631027166,-0.024114537714907788,-0.9368763413799035,-0.002618253908639378,-0.002670084803515378,0.0041228903535396304,0.9840921099158778,0.012077523637967484,0.17724547432268165,0.0009696909306391824
10.559999999999967,-0.0019458962904811486,-0.012361975872419433,0.0023551128510972182,0.34871382587961813,-0.024107536175327907,-0.9369191469915794,-0.0031146679135577744,-0.0026325356535890476,0.003075062400970675,0.9841029736376444,0.012071344777812439,0.177185514919528,0.0009838409022864618
10.569999999999967,0.003889244492522146,-0.006749925926162772,0.00033377736056010787,0.3486496302842095,-0.02414618426414006,-0.936942052310309,-0.003505153674067199,-0.0017505862212556873,0.002235626267123598,0.9841087943258796,0.012089681265204351,0.17715195685335508,0.0009908486534723504
10.579999999999966,0.010534007465121582,-0.0001815908767040797,-0.00048524923852164177,0.34865861129043996,-0.024241650823884773,-0.9369362632290302,-0.004204383494693897,0.0004156267816773731,0.002036973546528207,0.9841073310169361,0.012138459184231606,0.17715681158292254,0.0009893976903332363
10.589999999999966,0.014327318094571422,0.006692708705007036,0.002787960028974603,0.3487221864936701,-0.024392723371336585,-0.936908657642772,-0.0059294800186210405,0.0019088631825661664,0.001249909389326842,0.9841003224059307,0.01221598266228318,0.17719040422849971,0.0009854354631194694
10.599999999999966,0.016214892015716135,0.010496590421442738,0.004572607475801818,0.34880700988542984,-0.02455354583838692,-0.9368728742065153,-0.006293312595771628,0.0017019429883757592,0.0012520782723884315,0.9840912300119183,0.012297955830146888,0.17723520954754116,0.000984358315401922
10.609999999999966,0.015620608336006448,0.009285737052322067,0.0031082457127239956,0.34891477670942495,-0.02471856007050663,-0.9368284273302466,-0.004249271728435177,-0.0011070606859254735,0.0026489631054170716,0.9840799272571962,0.012381143644326563,0.17729213693735799,0.0009884543323639184
10.619999999999965,0.01225417536033791,0.011297943142038032,-0.0005141968225571914,0.3490219742935317,-0.02484021207952925,-0.9367852681990527,-0.0034364465751718647,-0.0023973038355394665,0.0025206370418453796,0.9840689785899596,0.01244351600376137,0.1773485984509396,0.0009857897553902529
10.629999999999965,0.008843787545192055,0.011212571765187213,-0.0023310627488725617,0.3491125458790229,-0.024937272269065055,-0.936748940557168,-0.0016262845778975746,-0.0038150003702793005,0.0018156653366242768,0.9840597777510784,0.012494177675240093,0.17739623283181524,0.0009787057590253299
10.639999999999965,0.005990330057030932,0.006917877218786833,-0.0006645943971920485,0.3491756863794309,-0.025003418633954867,-0.936723644708339,0.00211684684582048,-0.005789013278679547,0.0005013120628244668,0.9840533937900452,0.012530155873693324,0.17742934058582704,0.0009658317374450491
10.649999999999965,0.004031064269833851,0.0033689851767850134,-0.0008351560653134788,0.34920198347768877,-0.0250427060717979,-0.9367127816356685,0.0029374253788553195,-0.0053355185832164795,0.001434251925246808,0.984050564030542,0.01255151026176776,0.17744313398547046,0.0009582356673170218
10.659999999999965,0.004501242066883654,0.0018603836688849099,-0.0018241926379258455,0.3492203097896905,-0.025083803953283346,-0.9367048397450427,0.002438466723391125,-0.004200284874972839,0.0026913661096405663,0.9840484970477902,0.012574589415714424,0.17745268486655072,0.0009461470549676628
10.669999999999964,0.008892274223844865,0.0036458659485839903,-0.0037530023891637794,0.3492341879496603,-0.025134655018358407,-0.9366982971839142,0.0004147137847107284,-0.0025049920482560213,0.003943533005886225,0.9840468486856987,0.01260423909604723,0.17745979475367557,0.0009250876900383038
10.679999999999964,0.009878226047681817,0.004130670032150945,-0.004495941723913733,0.34925953967998136,-0.02519571934480661,-0.9366872202173947,0.0004463406703926997,-0.002628879798586082,0.004074166157939772,0.9840440719438333,0.012640704879992323,0.17747282761640665,0.0008950640129174283
10.689999999999964,0.008706669011018327,0.0034566633974354066,-0.0038125663551547362,0.349283024057643,-0.025264571443157437,-0.9366766250912756,0.0008020880766323686,-0.0029052962570581577,0.003948338986218419,0.9840414145723974,0.012680692376905228,0.17748492021504228,0.0008674524385238672
10.699999999999964,0.004672003260151977,0.0011020990481918013,-0.0009485043482933457,0.3493001327348152,-0.025344319834584964,-0.9366681004896718,0.001170687885046857,-0.0029574995295535865,0.003675908578686984,0.9840392715099383,0.012725013335100847,0.1774937630873402,0.0008464936413637437
10.709999999999964,0.005786469234756926,-0.000668987153099181,-0.0005093640837056101,0.3493051044763328,-0.025420771839286482,-0.9366641441687352,0.0019442228849717883,-0.003405786465799893,0.003626240992723807,0.9840383136684573,0.012766362218164701,0.1774963241126028,0.0008326726379116118
10.719999999999963,0.006462043625427126,-0.0016539514615953688,-0.0003403849082446912,0.3493111031978922,-0.025488397922280394,-0.9366600556660125,0.0024874963660670812,-0.0049659063679027915,0.0035323567870578693,0.9840372951753892,0.012802585138277391,0.17749945585535318,0.0008224117667649997
10.729999999999963,0.0048322900325056956,-0.0013924710782896115,5.413881148397877e-05,0.34932252219911025,-0.025541073269370416,-0.9366543858147134,0.002496397636113789,-0.00841506053908954,0.0032932317997456297,0.9840358188656388,0.01283043579017674,0.17750546368856818,0.0008164742096562643
10.739999999999963,0.003952623686536171,-0.0014067399540215009,-0.00014803875754300033,0.3493213036420429,-0.025572477719537245,-0.9366539943010112,0.0019289112076568164,-0.008403403724913078,0.002028620556709924,0.9840357697256582,0.012847168854013713,0.1775048091336246,0.0008121782412114639
10.749999999999963,0.004207857898147926,-0.003006764783858508,-0.00017930054346049898,0.34931178505913124,-0.025610923705042744,-0.9366564947459358,0.0017055798245039504,-0.006311654622315926,0.0007745412386155907,0.984036443845184,0.01286717296446931,0.1774998350409039,0.0008095499971496512
10.759999999999962,0.006330806534113945,-0.00746285236457939,0.0002970996695496847,0.34929088851540535,-0.025669228085494416,-0.9366626804400937,0.0023050568573703316,-0.001462127402058721,-0.00013285251209469947,0.9840380054580148,0.01289679645769665,0.17748896684933937,0.0008094942878782791
10.769999999999962,0.0029767165104654593,-0.010290856300473949,-0.0009309730825944713,0.3492240594380304,-0.025695597337663044,-0.9366868632295401,0.0030536101834533736,0.00016606940935991643,-0.00043766985191018336,0.9840441214436868,0.012909933706312767,0.1774539288961622,0.000810656441064392
10.779999999999962,-0.0011981728123534837,-0.01021630164385949,-0.0021987184435795838,0.34915581738034074,-0.025703068793854537,-0.9367120935429997,0.00293648537029739,-0.0004925742490245272,0.0004173792816872438,0.9840505123780513,0.01291372538605861,0.1774180965154047,0.0008103805254385977
10.789999999999962,-0.005049164219802436,-0.005158177242564498,-0.0029533978303394907,0.34910074448904965,-0.02568546450031006,-0.9367331076771855,0.0011137669501798037,-0.004407864291655055,0.003280455941248452,0.9840558552007194,0.012905355822937687,0.1773890964815294,0.0008069360739239746
10.799999999999962,-0.004088286483013965,-0.0004426139739264895,-0.0026629334385254964,0.3490960951504573,-0.025639647360189335,-0.9367360980041279,-0.0006997886073926367,-0.006253350109640003,0.004206556040820596,0.9840566672315643,0.01288391083718985,0.17738644386338348,0.0007967108498395265
10.809999999999961,-0.002718415489210723,0.003812370711853869,-0.0007734842496067813,0.3491175699219486,-0.025614241539215786,-0.9367287926348643,-0.0019293771156000598,-0.0056952251249078305,0.004709639639277903,0.9840548338393982,0.012872122766304174,0.17739760127694226,0.0007905758433674625
10.819999999999961,-0.002343343395614181,0.0072895653085843825,0.003870097634841153,0.3491715722818755,-0.025639530364612906,-0.9367079767472272,-0.0020138301454417206,-0.0011835413158624653,0.005104982907142247,0.9840494914796135,0.012884217229309759,0.17742606899504818,0.0007950209981729436
10.829999999999961,0.0020045024453424296,0.008477325866126817,0.006069007305761185,0.34925818654903257,-0.02567177897267,-0.9366747970954704,-0.0024017077982044703,0.0009485724502962154,0.004590895290160598,0.9840410299754981,0.012896997053422048,0.1774718835655438,0.0008154211236354418
10.83999999999996,0.005229365776865979,0.009451427085846125,0.007233874381980034,0.34935125859014615,-0.02571588381398837,-0.9366388766186161,-0.0021523084063920714,0.0013856423982155283,0.0035027237552834167,0.9840318892426614,0.012914858601012248,0.17752117614110816,0.0008410742711929261
10.84999999999996,0.004574286064924152,0.01091745492104943,0.007291275130203754,0.34944424075178215,-0.025781198082671646,-0.9366023974763111,-0.0004892163784614009,-0.0006502431689671801,0.0016188139626829674,0.9840226323465457,0.012942738897397782,0.17757050802732088,0.0008709251635279577
10.85999999999996,0.002943000548726369,0.009749175857818254,0.007280820647244815,0.3495261492547199,-0.025839950796571916,-0.9365702165697729,9.335969648219836e-06,-0.0015002695772011972,0.001208705066715372,0.9840143849182224,0.012967537174375265,0.17761401271459729,0.0008993188641300156
10.86999999999996,0.0014044570402482236,0.007426790712063985,0.006928825555893774,0.34960060240220564,-0.025895190116208007,-0.936540910772334,0.0007762514057485904,-0.0017858373953534054,0.0008123919712218425,0.98400689667043,0.012990636991922428,0.17765358449085838,0.0009271877136789334
10.87999999999996,0.0004848930261182277,0.0038439559889667015,0.00589364307121503,0.3496643229824098,-0.025945956921026074,-0.9365157318249603,0.002610726068383885,-0.001410244821713852,-0.00019742260006564826,0.9840005528196164,0.013011535467986557,0.17768748822822683,0.0009545963080481236
10.88999999999996,0.00030988477419262506,0.0006829319773532711,0.005548872842194349,0.3496752078161377,-0.02597467396436741,-0.9365108605772745,0.0028568120583095224,-0.0012983095240742637,0.0003043501135532816,0.983999299247756,0.013021381769583843,0.17769360094458372,0.000980936414078043
10.89999999999996,3.254897026998667e-05,-0.0023196856090646877,0.005445493430176363,0.3496616889927255,-0.025993417798325643,-0.936515371389353,0.003055646448328862,-0.0016422527162769669,0.0016277734143181292,0.984000421562929,0.013026034759328545,0.17768688919572487,0.0010078697266412283
10.90999999999996,-0.0008143435514541577,-0.005179803453582633,0.0055369037391093745,0.34962051385321286,-0.026001073707902198,-0.9365305171797179,0.0038986563821910795,-0.002842455002977283,0.004007882826873259,0.9840042616468108,0.013024712222367415,0.17766565544479132,0.001036579975675862
10.919999999999959,-0.0011474164224874277,-0.010046225046771287,0.007688525388536637,0.34952987845775296,-0.026011787927676642,-0.9365640652731319,0.004088701823485084,-0.001742155262119885,0.0044809353903193586,0.9840126771326608,0.013024985895544922,0.17761845832655382,0.0010648870905770947
10.929999999999959,-0.0017758128110753396,-0.014089581557914036,0.00907268577447569,0.34941623622597745,-0.026016128694792088,-0.9366063626636296,0.0037658288819633545,-0.0006288663397412643,0.004261257152854787,0.9840233421677012,0.01302137097597887,0.1775592074316741,0.0010967189613547534
10.939999999999959,-0.0033184770048144425,-0.015294411329549732,0.007714262320739439,0.34927663100622514,-0.026004800143562025,-0.9366587394018554,0.002636676013256572,-0.0006503525485218305,0.0034711653567728517,0.9840366776518866,0.013008332266695108,0.17748637929573616,0.001136564983314937
10.949999999999958,-0.018524749435005018,-0.015408098784495604,0.008253964360351519,0.3491530855216009,-0.025922192507463505,-0.9367070811916741,0.0019915408246963914,-0.0019974003682524267,0.002652444641040761,0.9840489111818344,0.0129593320823934,0.17742184331287797,0.001175061497046742
10.959999999999958,-0.03062671317936582,-0.014609676976969153,0.009855794539689414,0.34902701988319945,-0.025778926373843405,-0.9367580112953866,0.0014494493303872091,-0.004102390023828235,0.003137349808420857,0.9840617581915232,0.012876176758554729,0.17735611098074758,0.0012320621921450242
10.969999999999958,-0.02819740818921109,-0.012320510424473673,0.012852031038459978,0.3488864539486483,-0.025535820663058328,-0.9368170529530868,0.000879433648542263,-0.00721819554458856,0.0066172389430172555,0.9840766070343511,0.012734532886190603,0.1772831313987811,0.0013320881794159254
10.979999999999958,-0.02037498241613009,-0.007950528303167968,0.006612885167040867,0.34881800460756596,-0.025345717433478195,-0.9368476925057931,0.0002373634831908649,-0.007402109417074894,0.005514616259705311,0.9840843298908205,0.012629240771214596,0.1772474418730645,0.0013801135282817867
10.989999999999958,-0.012840430931760571,-0.006237249558225119,0.001416275271767165,0.34876889899112923,-0.025193443975607903,-0.9368700789959992,-0.00024263693267010742,-0.006646287844945444,0.003630273428288927,0.9840899769634865,0.012546575590502844,0.17722173558621768,0.001409325291051533
10.999999999999957,-0.009139667196843494,-0.012004170421572457,0.004080329278141302,0.3487232031616022,-0.02509934129499737,-0.9368896261057231,-0.0002984235115373543,-0.005390412065043609,0.0025840470909971247,0.9840948995759983,0.012495983608025446,0.1771977476034445,0.0014246084839006441
11.009999999999957,-0.0009861196630686388,-0.012667122909291957,0.003159710127474266,0.34863462581044974,-0.02507385991160261,-0.9369232572411973,0.0005193751473680106,-0.0038480714950215504,0.001785747564950871,0.9841034609027549,0.012478915495229014,0.17715146729644982,0.0014472744697188913
11.019999999999957,0.0063507001690585735,-0.011126397430093683,0.002337756821254211,0.3485460004412887,-0.02509044220517771,-0.936955781485875,0.0008156205954898024,-0.0025119781010765102,0.001191727829401831,0.9841117244584826,0.012483550695941278,0.17710522499453396,0.0014681233202261776
11.029999999999957,0.008900778888292368,-0.007435670701000542,0.004010125579154022,0.3484842258134019,-0.025166177333955014,-0.9369767563113899,-0.0007060455031779795,-0.0018576745648843035,0.0009386421748439203,0.9841169754408163,0.012519890276050463,0.1770730944297242,0.0014799095899148934
11.039999999999957,0.009238461467862159,-0.0015109846317531012,0.00520540059386264,0.34846327639220825,-0.025290248946285947,-0.936981201171875,-0.0026284722255243767,-0.0014830093009985021,0.0004450582568973372,0.9841180766097599,0.012580245461679304,0.17706253467359817,0.0014948259890301236
11.049999999999956,0.009383364938250979,0.004549753872246967,0.005048977407784828,0.3484751422715291,-0.02542421540443776,-0.9369731503366578,-0.004059068851242308,-0.0019179636900766143,0.0004424239681773242,0.9841160101371609,0.012645687660549076,0.17706922369085834,0.0015094892904084622
11.059999999999956,0.01053827691114405,0.009443442450781873,0.00181976687456772,0.34854185656909814,-0.02555038894362743,-0.9369448785422051,-0.003983690616663547,-0.004197545638342961,0.0018353154065166776,0.9841087903199617,0.012707687090555572,0.17710466730580512,0.0015214028753083738
11.069999999999956,0.00839303987237547,0.010839417094686013,0.000689064576624425,0.3486433972616546,-0.025647811072149567,-0.9369044302171031,-0.0032212334294608957,-0.005315787966777085,0.0023511860912152956,0.9840984901476236,0.012756633692817636,0.17715823417741672,0.0015247483579399483
11.079999999999956,0.007043281944972668,0.011131859282487595,-0.0003486294027421539,0.3487601222949383,-0.025739568128794632,-0.9368584822244659,-0.0022580711130599737,-0.005276747620432266,0.0027441340318754264,0.9840868190918071,0.012803897661301251,0.17721967318385706,0.0015214891016153342
11.089999999999955,0.010149388072934763,0.0110974908265142,-0.0026663834000183627,0.3488909869671721,-0.025837473777003538,-0.9368070958844522,-0.0012723930887011171,-0.003077714103121055,0.0034540268031749842,0.9840738251710526,0.012856259667001522,0.17728839345896288,0.0015073090860036752
11.099999999999955,0.01546434931188977,0.010029529530416331,-0.003529536028255725,0.34899632057968777,-0.0259675460766944,-0.9367642503337225,2.207422698830724e-05,-0.00253776734521304,0.0024654181860450904,0.9840630068179121,0.012927209808641437,0.1773436225951079,0.0014806587311611912
11.109999999999955,0.019680364641723586,0.008607172589893798,-0.004643251155522558,0.34908104401695966,-0.02611418002174514,-0.9367285945461342,0.0011821255887382591,-0.002133034930516113,0.00155111427150119,0.9840540059348281,0.013007588865391932,0.1773879903404528,0.001448355308750921
11.119999999999955,0.019233233007407514,0.007039377919442943,-0.007560057764220422,0.3491304066059756,-0.02628016420535311,-0.93670555867126,0.0017417665075824056,-0.0007997989795926956,0.0021573820214159083,0.9840481822889802,0.013098770534600299,0.17741375159772357,0.0014106068037148074
11.129999999999955,0.015295926265431956,0.004637459346993408,-0.006166839531150602,0.3491829385652899,-0.026410691452900613,-0.9366823092273616,0.0022046455308938075,-0.0011790066957432978,0.003254844715470502,0.9840423081057786,0.01317184566462649,0.17744110813816613,0.0013733733326219645
11.139999999999954,0.010456903152119612,0.003432004235450696,-0.004346874873104832,0.34922869315164345,-0.02652575290166909,-0.9366620021268949,0.002740313112344751,-0.0025634660892379,0.00479940526326218,0.9840371865599267,0.013236633744487088,0.17746490245942584,0.0013384987457186652
11.149999999999954,0.0060333093386980945,0.006238804421507434,-0.0049432066239332275,0.349253019188387,-0.026627561181872938,-0.9366500274519207,0.0035584966578787267,-0.005303855092184527,0.007172849285098114,0.9840341929912201,0.013293575221647777,0.17747749274662136,0.0013097312541219298
11.159999999999954,0.004662741249470595,0.007617817562160222,-0.007138265859342817,0.34932045547083657,-0.02667008480636402,-0.9366236727204479,0.0024309921707886387,-0.0067809483764599355,0.005657134601058512,0.9840275832830292,0.013322316766849834,0.17751245506441451,0.001270425394540865
11.169999999999954,0.004527034062338541,0.008199988502498262,-0.008248821424711965,0.34939717642669477,-0.026697606961059238,-0.9365942815334585,0.0012379980818103449,-0.006793846269396107,0.0034239762496365415,0.9840201801489518,0.013343753257057916,0.17755224323199942,0.001229394246562546
11.179999999999954,0.005196573061300463,0.007776942757503648,-0.004819635637165929,0.34946190392491844,-0.02673522176563568,-0.9365690645724354,0.0015995799623929512,-0.0037416163823017663,0.002617192094135227,0.9840137411507428,0.013369505291564918,0.17758582911407583,0.001192855053849197
11.189999999999953,0.005991202423719246,0.0028724903626820156,-0.005547621613063525,0.34950578854090575,-0.026772582410388702,-0.9365516336819598,0.0022043973057388347,-0.0014715712028715653,0.0030833343726074836,0.9840093970897618,0.013394377437034824,0.17760850167835113,0.0011604081469842916
11.199999999999953,0.006144691702294221,-0.0026998979249952537,-0.006518598589368746,0.34952618829902976,-0.026808339752894945,-0.9365430042891787,0.002935420469782444,-0.0008515242843976871,0.0036198381094077418,0.9840073119830034,0.013418328423937826,0.1776188393113479,0.0011284655328529236
11.209999999999953,0.004276983705979791,-0.005949448797439146,-0.0042180663370338725,0.3494969667577183,-0.026839587126128203,-0.9365529959152444,0.003807090720746857,-0.004372860024048045,0.0031426190168376373,0.9840099133057318,0.01344039296993019,0.1776030817714767,0.0010940885164413697
11.219999999999953,0.0037835933087705734,-0.005607051791882162,-0.003115424735477054,0.3494635881372841,-0.026883929298598255,-0.9365641752782025,0.0032994718121887303,-0.005653853032476816,0.0032747089499807064,0.9840127130497939,0.013465596417362308,0.17758543685598424,0.0010791800702806104
11.229999999999952,0.003921182634637786,-0.004063184834854513,-0.002137437203761642,0.3494321509875083,-0.026933947444972167,-0.936574467449134,0.002271202033587097,-0.005875764416788904,0.003445273543393057,0.9840152774421113,0.01349226703083644,0.1775689300205836,0.0010721308913986918
11.239999999999952,0.004581509364279349,-0.002528138884278318,-0.0003086680046987711,0.34941095843142833,-0.026987913872712047,-0.9365808113386995,0.0010641977451178895,-0.005151882011883878,0.0031065098405916518,0.9840169145877828,0.013520211504187134,0.17755786262026316,0.0010691720110296155
11.249999999999952,0.0031487451303252234,-0.003761193340617653,0.0020921048922030853,0.34937341480175227,-0.02704570676720807,-0.936593159890923,0.0009887058442488628,-0.004100148664450641,0.002849088068758508,0.9840200716316914,0.013549523461501305,0.17753824508360386,0.0010693470601219354
11.259999999999952,0.0007901054210432129,-0.005960623549707913,0.0027559868536075134,0.3493267211670129,-0.027089644800954785,-0.936609318067618,0.001200275403719077,-0.0034885444968180707,0.0030341854010201455,0.9840241797464436,0.013571518029525217,0.1775138188936755,0.0010710173546933958
11.269999999999952,-0.0022027126857408837,-0.008177361941976023,-0.002739886991408172,0.34926897194731127,-0.02708526107414169,-0.9366309665907605,0.0010753206039322573,-0.004639903457086335,0.004537766526679973,0.9840296355020255,0.013568713598245798,0.17748353516521284,0.0010739839512019977
11.279999999999951,-0.0057265982827518665,-0.006563796873528592,-0.001928306896431458,0.34921812228540866,-0.027046671294393032,-0.9366510397391836,0.0008314395996321004,-0.004309369959712713,0.004441525451161574,0.9840347650567682,0.013549522846786536,0.17745671804869026,0.0010714405207408089
11.289999999999951,-0.008519183320122668,-0.004366267130202216,0.00021792700782738604,0.3491751654828535,-0.026993706740473206,-0.9366685838749759,0.0003647870950208385,-0.003680078292606089,0.0038915747906627437,0.9840392511926597,0.01352325272411838,0.17743400190185774,0.00106767554537853
11.299999999999951,-0.008268103243401333,-0.004781367851384401,-0.000706704083593413,0.3491500856651938,-0.026933836110539237,-0.936679646751066,-0.0006962973643837577,-0.0038211535060633014,0.003740263195106382,0.984041999970832,0.01349303656693042,0.17742071445597934,0.001066409566136743
11.30999999999995,-0.0074331996992970575,-0.004000085706207716,-0.001396789027092921,0.3491139760129838,-0.026854422951582912,-0.9366953933070167,-0.0014131649432252654,-0.0033451640486995343,0.0033715148862365155,0.9840460161789022,0.013452696560980859,0.1774015961012049,0.0010661615847808463
11.31999999999995,-0.005985165338166338,-0.0035106848863692705,-0.0016970881498827378,0.3490722534296431,-0.026784338823092783,-0.9367129680309845,-0.0016521039833877456,-0.0026006064628464874,0.0028900335825346206,0.9840505198248048,0.01341719013334822,0.17737953589769684,0.0010653769782552442
11.32999999999995,-0.0031792809494080075,-0.005542119131755688,-0.0009604783939767437,0.34902532847151274,-0.02677105506527394,-0.9367308498696975,-0.0006916589278152313,-0.0017206705698329869,0.0022988623736429925,0.9840550816603293,0.01341111124525287,0.17735481253662702,0.001061460028144211
11.33999999999995,0.0023630153828244596,-0.004502225033031345,0.000684699909713381,0.34899020743851006,-0.026792374173395476,-0.9367433166299065,-0.0006599414134836764,-0.0007987558190486159,0.0025899422493775694,0.9840582069726934,0.013421930703766224,0.1773364105002721,0.0010614061161399772
11.34999999999995,0.0069484977398807605,-0.0022577594584172692,0.00207617180730874,0.3489617266843384,-0.026837348189832147,-0.9367526262068318,-0.0009042925051647828,-8.205879629282301e-05,0.0030914935886161847,0.9840605398584075,0.013444426740359847,0.1773215633487874,0.0010632908674481083
11.35999999999995,0.00439717872053233,7.912765500027149e-05,0.0013255548163614915,0.34894075185882356,-0.026919222866129865,-0.9367580979004442,-0.0008630169033483249,-0.00015243746413563352,0.0031375668348321162,0.9840620150679305,0.013485386631325848,0.17731073168072872,0.0010667982030112464
11.36999999999995,0.002437044647354914,0.0015250218646006976,-3.900827549786182e-05,0.348941912833198,-0.026971322471851376,-0.9367561578998415,-0.001192831750717127,-0.0007760011782997918,0.0027764003834720285,0.9840615128093803,0.013511463581878394,0.17731147481571033,0.0010690226065555952
11.37999999999995,-0.00015609070196986527,0.0015621152457970838,-0.0012505363634174394,0.34894984435671933,-0.02699877206469133,-0.9367524037510847,-0.0013500185577328184,-0.0019103964707001214,0.0026310031351353415,0.9840605312899499,0.013525132183213828,0.17731572341547533,0.0010706168089020347
11.389999999999949,-0.0059556657948907025,-0.0023041855413883823,-0.0009968341508688162,0.34895037965717535,-0.026978704493199297,-0.9367528002699409,-0.00032531470339199737,-0.004123054709876443,0.0038799582286451386,0.9840606747858921,0.013514727332071015,0.17731597567112656,0.00107176047780122
11.399999999999949,-0.01029389278951416,-0.0034873274276939047,-0.002483812209167116,0.34893681738757054,-0.02690760371256008,-0.9367598938080435,-5.732484527856196e-05,-0.004974748468644267,0.00379569505319365,0.9840624406782478,0.013478726247211564,0.17730871445551252,0.0010709756802350027
11.409999999999949,-0.013454695357578858,-0.0037965193154834986,-0.004169767117027107,0.34891444409517963,-0.026804222270720063,-0.9367711834959803,9.480514711760815e-05,-0.005199426341797502,0.0032177999626578314,0.9840652580842295,0.013426558765636724,0.17729674936401654,0.0010688344202031568
11.419999999999948,-0.014386742834059055,-0.004965563726477358,-0.0038829534577308183,0.34888036551341955,-0.0266569882759569,-0.9367880741019488,0.0009916527097953343,-0.005153804854726398,0.0028388318597345015,0.9840695668065984,0.013352490027599091,0.1772785152888793,0.0010645107069443389
11.429999999999948,-0.015623694378526178,-0.0056624329789240445,-0.003418869683487387,0.3488382561470017,-0.026506049197312292,-0.9368080321984779,0.0007332105975728025,-0.005390232312950631,0.0035834365450065214,0.9840746571939486,0.013276336936805855,0.17725608076190486,0.001061276691466892
11.439999999999948,-0.016138732656757256,-0.006236046169331369,-0.003075277098963171,0.3487888726748106,-0.026360911167495497,-0.936830513772677,0.0004372067117326766,-0.005393456921644088,0.00430050575921259,0.9840803854120629,0.013203009128948336,0.17722984990245688,0.001058698370336547
11.449999999999948,-0.013249030712391256,-0.00711436571819811,-0.0035135509735184003,0.3487239479844382,-0.02624525353109267,-0.9368579110007974,0.0019434397040410838,-0.003986604549375505,0.0030083953869692436,0.9840873454052477,0.013144512155700257,0.17719552369889588,0.0010569027105032072
11.459999999999948,-0.011362931148613763,-0.0061691707941758465,-0.0025039439815833456,0.3486613425553163,-0.026136402668983216,-0.9368842590169792,0.002266602391303187,-0.004241558349634367,0.0035252870653713205,0.9840940131662361,0.013089954297498228,0.17716239409534187,0.0010524567597988029
11.469999999999947,-0.009843529819229481,-0.0045825328606790726,-0.0010351079165476938,0.34860671338044613,-0.02603778864179569,-0.9369073528872668,0.0019615298038005314,-0.004991394353302191,0.004185773727036055,0.984099855116085,0.01304052135523677,0.1771334765592697,0.0010484721349986728
11.479999999999947,-0.008030084619870355,-0.003633822384085119,-0.0002818089813207298,0.3485811581552119,-0.025969525312015733,-0.9369187724448578,0.0011851981438131033,-0.004785587061794178,0.0021568593437734595,0.9841027816678227,0.013005316944422063,0.17711996344330186,0.0010512310974370423
11.489999999999947,-0.008157546494588703,-0.0019222930947692264,0.0011046062066453388,0.34857572750717336,-0.02590481189002807,-0.9369225853926859,4.551632457985475e-05,-0.004394118724922792,0.002733057170664398,0.9841037395975696,0.012970191317203615,0.17711716186466822,0.0010636587503541483
11.499999999999947,-0.008155663103972753,3.0315904853882737e-05,0.00272503961714833,0.3485805724419694,-0.02585019957892141,-0.9369222857208087,-0.0006025842538324004,-0.00402072523954052,0.004211284769064467,0.9841036473991053,0.01293925210427771,0.17711984463111974,0.0010813861903333818
11.509999999999946,-0.003795493432206154,0.0015408904260753203,0.004126311439694515,0.3485908017977655,-0.025832621590709336,-0.9369189552328752,0.0015999189599294292,-0.004089055998115889,0.004522606093525269,0.9841028327845591,0.012926384598821452,0.17712545883016792,0.0011032807234121365
11.519999999999946,-0.002798626618509621,0.001394204949690918,0.0019228233411579861,0.3486051918968705,-0.025820937829020462,-0.936913917136111,0.0025079358978379583,-0.0041792443370331864,0.004513094903239809,0.9841015030497088,0.012918048760373509,0.17713317218834115,0.0011166606774106783
11.529999999999946,-0.002441538528382723,0.0002449421695441255,-0.0010220675425460896,0.34861830963722534,-0.02581624677370716,-0.9369091606023977,0.002843437749486119,-0.004086795585992194,0.004152937841480396,0.9841002289723225,0.01291445211041252,0.17714014827081137,0.0011234502092427301
11.539999999999946,0.00208834586265541,-0.0019730361929353956,0.00025220706589713427,0.34861688226207305,-0.025830936842982447,-0.9369092795503271,0.0033016251733594465,-0.0031179882431779157,0.0028741286529906994,0.9841002925264024,0.012922860125773926,0.17713935261619657,0.001118204734328845
11.549999999999946,0.0062038334757875905,-0.0029856761472772716,0.0013495787924234165,0.34859828900574585,-0.025891167162892473,-0.936914552289008,0.0033577900759540996,-0.0020555327308827763,0.0022945170764571607,0.9841016459375322,0.012953658041176645,0.17712968355214592,0.0011170756459344933
11.559999999999945,0.009926180603861736,-0.0028336070068676177,0.0019309440086447654,0.3485746946334607,-0.025983127380748025,-0.9369208100083275,0.0027234872948433135,-0.0010970794369642473,0.0025407318904507445,0.9841032415829958,0.013000482612250914,0.17711745513767357,0.0011164702853893754
11.569999999999945,0.01271888893018962,0.00012329884850460337,0.0004592233051105223,0.34856626860776474,-0.026122668561880016,-0.9369200566225006,-0.00028287902158379745,-0.0008458835023895905,0.0051284535984177865,0.9841030621747258,0.013072729799826953,0.1771131904477065,0.0011090140942324532
11.579999999999945,0.01517930792320766,0.0033442144078941463,0.00040678717548945357,0.3485896250977674,-0.02627593067162277,-0.9369070742971884,-0.0009456899733915192,-0.0017039054992295845,0.005621263225685215,0.9840997568571423,0.013151834254253439,0.17712564910470258,0.0011023192030065144
11.589999999999945,0.014773308971064186,0.005905672160154569,0.00026046348366643443,0.3486315795187534,-0.026422780784760815,-0.936887340101342,-0.0006821456712433814,-0.0031303478990584582,0.005160239213277152,0.9840947327997451,0.013227867179154158,0.17714784784130097,0.0010946582076887664
11.599999999999945,0.0009021924722740285,0.004535911172141523,-0.0038277381282163275,0.3486883771550202,-0.02650410399721131,-0.9368639073592593,-0.0015408109485981227,-0.0046730690886804,0.005075905131364827,0.9840887989247673,0.013271814311047393,0.17717762868205855,0.0010803212022863706
11.609999999999944,-0.0037423872119601337,0.0035146060488395834,0.004119590859117788,0.3487400565859571,-0.026521606995984177,-0.9368441592368795,-0.0020844042093024918,-0.0058214044079329934,0.004759415851533593,0.984083759906651,0.01327595677063852,0.17720515828799124,0.0011069054232312173
11.619999999999944,-0.004074878530088575,0.0038862867620487254,0.014064142620625325,0.3487999394067008,-0.026506694699192822,-0.9368222695655086,-0.002060146606735375,-0.006957723349571133,0.004000097954628332,0.9840781594878514,0.013260010755777426,0.17723720637470533,0.0011535921871654773
11.629999999999944,-0.0062829367485837066,0.010613318663478219,0.0026112525609732727,0.34891621289596775,-0.026491233695366382,-0.9367794476154973,9.726684978653187e-05,-0.009074318417805434,0.0015414439747624235,0.9840672596574048,0.013244396133547323,0.17729881284455581,0.0011970680532784957
11.639999999999944,-0.008958205308116661,0.009239186063240165,0.0009301188320847106,0.34902435164364726,-0.026414717546870074,-0.9367413182676467,0.0003343785497004763,-0.010264369096147828,0.0007023349301727999,0.9840575286973076,0.01320152774573488,0.17735576421360286,0.0012195563368185345
11.649999999999944,-0.011213806977036507,0.003773073362325218,0.0034481875516167277,0.34911386746823947,-0.026310665461859412,-0.9367108759461888,-4.515437942423828e-07,-0.01009616847988785,0.0006655754202819624,0.984049746441977,0.013146219010916943,0.17740276981240846,0.0012333496705338013
11.659999999999943,-0.009828527001365443,-0.0009796358130597805,0.0010615579072455312,0.34912441418464224,-0.026230127801359023,-0.9367092106751781,0.0020190662254401556,-0.005121892456460316,0.00040000434334327186,0.9840493186482528,0.01310058930380267,0.17740848998022912,0.0012594561317984052
11.669999999999943,-0.008145565954703057,-0.0025222278090434053,-0.000589709430576503,0.34911431736018306,-0.02616243683568954,-0.936714873971036,0.0027447057434424635,-0.002096525758131138,-6.964767987632407e-05,0.984050745855418,0.013063740970117562,0.17740323283386875,0.0012730024846205436
11.679999999999943,-0.006129246646615517,-0.0023959887275279593,-0.0016011800443256118,0.34909297349322266,-0.026109243516734104,-0.9367243175818205,0.002478053943601946,-0.00029367748967803456,-5.8656120158479116e-05,0.9840531263532297,0.013035427246424442,0.17739201491328616,0.001280040934840328
11.689999999999943,-0.003110329390403672,-0.0025802267851991116,-0.0011967422018394796,0.3490706512943343,-0.026099960772835835,-0.9367328816936499,0.0004906645665517435,0.0004887468046834887,0.0033603276356877743,0.9840552635617966,0.013029186818775263,0.17738039168389483,0.0012884193269886743
11.699999999999942,-0.0007080954955150014,-0.0004949006778086152,-0.0005401596739988797,0.3490539742841522,-0.026110181372292974,-0.9367387892054797,-0.00038413791772967724,-0.00040964609530731526,0.004919458663824068,0.9840567475995236,0.013033399148463295,0.17737173206395096,0.0012938153385992897
11.709999999999942,0.0012099489702846059,0.001694164677302387,0.0002599583765646217,0.34903995543940997,-0.026137800678007254,-0.9367432244291921,-0.0006055640061448599,-0.001993219890481478,0.005463196234896788,0.9840578715190146,0.013046559212633533,0.1773644931515591,0.0012986332786124836
11.719999999999942,0.002252555987830922,-0.0031175946563379996,0.0010864258564035195,0.34902314331295636,-0.026205811231121815,-0.9367476257170136,-0.000588732054070495,-0.002097777736472496,0.0060766009430027355,0.9840589984804944,0.013079070081307983,0.177355941476856,0.0013099599531504887
11.729999999999942,0.001426284715689421,-0.0034426731405847394,0.0014098446095193947,0.34900674896176354,-0.026250633689122088,-0.9367524820529877,-0.0002033146377347023,-0.002626884728847096,0.005745300869127788,0.9840602282822217,0.013100705335303352,0.17734750030273722,0.0013162504314026525
11.739999999999942,-0.0007683394182884786,-0.0010951272673172885,0.001249032924648137,0.34899602052004847,-0.026274085814620825,-0.936755805039299,0.00026722143858000933,-0.003343864957397671,0.0046518214450755125,0.9840610642055054,0.013111883813311081,0.17734196542019012,0.0013203214300394862
11.749999999999941,-0.004938566735459031,0.002054279943397512,-0.00018944072999379168,0.3490202260305659,-0.026244759431101213,-0.9367475977654627,-6.150565020046774e-05,-0.0037182970457671147,0.0021060995551549565,0.9840589896452523,0.013095517209822246,0.17735472900358337,0.0013285148287006908
11.759999999999941,-0.00821049167622162,0.0036675161444468885,-9.935401942851876e-05,0.34905252950869514,-0.02617583968155575,-0.9367374878774241,-0.00019970414495996069,-0.0041131192826124995,0.001019138982588891,0.9840564090214793,0.013058725450713427,0.17737168504384915,0.0013384165621041254
11.769999999999941,-0.010819274323061722,0.0038865127570547856,0.0006806100857482545,0.3490891255093723,-0.02608020575760713,-0.9367265251839146,-0.0002131421015888253,-0.0044428770171098175,0.0008706056840891397,0.9840536002791419,0.013008181531256907,0.17739085433313057,0.0013493065272924846
11.77999999999994,-0.012486415230725141,0.0007225789566240215,7.54590033372833e-05,0.3491227277537025,-0.025960196680124375,-0.9367173266934314,-0.00013511352714427587,-0.004248226848073255,0.0013080097660366813,0.9840512520206136,0.01294526044777051,0.17740841195913457,0.0013601282305045212
11.78999999999994,-0.01714911223152831,-0.0007643611242695803,-0.0014335035800077257,0.3491421752928525,-0.025809709846466168,-0.9367142458635764,0.0004960524382400377,-0.00438206728579372,0.0019163934089627415,0.9840504561116663,0.012866892678934393,0.17741846513911688,0.0013706745463289579
11.79999999999994,-0.02299736060028477,-0.0013231636784679398,-0.0030050287505207335,0.3491492800926177,-0.025634678328378555,-0.9367164289409992,0.001462157688148516,-0.004906792312830493,0.0027695676391722482,0.984051000061301,0.012776061429944592,0.17742198263978518,0.001381130034575192
11.80999999999994,-0.02439982129963937,-0.002456832947627919,-0.0010989272731677948,0.34912860197010454,-0.025414529678411325,-0.9367301086193633,0.002447134181623626,-0.006832264041273139,0.00465101905479126,0.9840544912841596,0.012662191837847298,0.17741082908620334,0.0013921256954654644
11.81999999999994,-0.02330140470620275,-0.003955484236125319,-0.0016059723224163495,0.3490850195028749,-0.02520178599015746,-0.936752096972879,0.002946764893818167,-0.007476550184814796,0.005411263691173129,0.9840600339779115,0.012552632231165792,0.17738763638130664,0.0014000407376501733
11.82999999999994,-0.020156098813237707,-0.005617640684565112,-0.0033943004692619386,0.34902568590692173,-0.02500097294911299,-0.9367796091990327,0.0031365440074021646,-0.006926771131221986,0.005408206074461316,0.9840669605254047,0.012449784151161662,0.17735615449636905,0.0014043244619739135
11.83999999999994,-0.01314261904791869,-0.0068026104494440355,-0.0035702124619767252,0.34895400111901737,-0.024856833941382068,-0.9368101386717577,0.003248848853496828,-0.003274793229374272,0.004860182214718936,0.9840747858998278,0.01237813081700185,0.17731810379452903,0.0013952926634097607
11.84999999999994,-0.009217406894193089,-0.006226043288360019,-0.0034064708408626,0.34889388211461747,-0.024749301035915054,-0.9368353822925348,0.0027846729203691006,-0.0012932578907215832,0.004033732573971753,0.9840812450614507,0.012325496237120863,0.1772861790738381,0.001383981529974584
11.859999999999939,-0.006684906511326442,-0.0045268392645436625,-0.003081232796934963,0.3488450283225489,-0.02467297569455168,-0.9368555987589889,0.0019592269371762365,-0.0004965976207033051,0.0032628797247528426,0.9840864113233514,0.012289032126044739,0.17726021467319927,0.0013709703615418347
11.869999999999939,0.0005315140487739444,-0.0027960732593556746,-0.003202593700896819,0.34882845356515896,-0.02466218896734773,-0.9368620621213205,0.0011738887613704416,-0.0007205563472575305,0.004406260416952496,0.9840880759838141,0.012286260720160236,0.17725129412424978,0.00135588083716275
11.879999999999939,0.004196800363455611,-0.0025316237225752984,-0.003464587452047391,0.34880751333051474,-0.02467102268186792,-0.9368696287119483,0.0005649224812323787,-0.0017601696695797768,0.005219018691051891,0.9840900058830866,0.0122937789127597,0.1772401036383981,0.0013390087949976773
11.889999999999938,0.00571188016372869,-0.0030835392861749546,-0.003624648665897724,0.34878537665534576,-0.02469959289041049,-0.9368771162497187,0.00023160371522776347,-0.0033220632819217027,0.005626148939543116,0.9840919040883337,0.012311523477050673,0.17722831433726657,0.0013210406521103326
11.899999999999938,0.008703435716819169,-0.0023949273884704136,-0.0020752275221884798,0.3487778233391632,-0.024789336843459468,-0.9368775523992094,0.0013150783504228929,-0.004795477865041584,0.004357786570178547,0.9840919950234743,0.012360254477337134,0.1772243136603221,0.0013036654771382207
11.909999999999938,0.010061401510943545,-0.001974992714412892,-0.0020616820401345025,0.3487666033294043,-0.02488492943734499,-0.9368791751418825,0.0019891311318376015,-0.005193815281057423,0.003133113323034694,0.9840924338314104,0.012412334107479103,0.17721835815199524,0.0012841835671839252
11.919999999999938,0.010592266168884843,-0.0013892025488066264,-0.002951357036674291,0.3487563277888093,-0.024984279507895255,-0.9368803319687095,0.002076596843502294,-0.004733802342614302,0.002145408977102947,0.9840927801189361,0.012466574171325984,0.1772128795595862,0.0012633075395512786
11.929999999999938,0.013674617760526812,0.0024825159999727077,-0.0026346041216075487,0.3487783728050497,-0.02508205470582459,-0.9368695077071382,-0.0007976609214181913,-0.002971394239802195,0.003129346248722836,0.9840900323579485,0.012519998911185362,0.1772243794322216,0.0012426129439998422
11.939999999999937,0.012595471043497754,0.009292411559921433,-0.002515539147610121,0.34884379331176835,-0.025193921519386656,-0.9368421594725194,-0.0025315302230113153,-0.003364066792379129,0.0032614860516730127,0.98408309192205,0.012580742645836515,0.17725866852327793,0.0012211848705177308
11.949999999999937,0.00893624307338992,0.01785674999791096,-0.002417162746580874,0.34894972245814776,-0.02531425290944563,-0.9367994950671533,-0.003577363598306887,-0.00508579125459326,0.00284943168948683,0.9840722697115754,0.012645648568805571,0.17731425388813454,0.0012006645906799658
11.959999999999937,0.008237675978339102,0.02364016834145019,-0.0011311123072799258,0.34916473480796545,-0.025421762801718727,-0.9367164640186483,-0.005629705546525013,-0.005201605738662601,0.002878020699024626,0.9840512508019876,0.012701488197609183,0.1774272874027879,0.0011946697030217116
11.969999999999937,-0.0004963436918613059,0.024050074747920945,0.0031051898519685985,0.34938107376363725,-0.025439061907445836,-0.9366353164317406,-0.006173838226962074,-0.005021343435693786,0.0031818990052996736,0.9840306659460798,0.012710749690683988,0.17754091117163354,0.0011927567259438327
11.979999999999936,-0.01342508694765146,0.021246175327372024,0.008724384990497673,0.3495983324315154,-0.025392098572019236,-0.9365555154043056,-0.005520823433119184,-0.004722764333036164,0.0037524316197538863,0.9840103845241581,0.012685880020559872,0.1776550109949583,0.001199012257726356
11.989999999999936,-0.00966182289058329,0.025040122374529402,0.006459105930725484,0.34981537275327745,-0.02534076262817537,-0.9364758599409481,-0.003423612841361119,-0.00544401625404525,0.005124258088998718,0.9839900597205858,0.012648133174800975,0.17776976020700658,0.0012642213380901033
11.999999999999936,-0.006296117855187801,0.02880190684215266,0.004018161941551195,0.3500696522301696,-0.02528925690437502,-0.9363822226443353,-0.002239113930803699,-0.006006808936852213,0.0046311663993994735,0.9839662092653422,0.01261450003864149,0.1779037808096969,0.0013062359687854986
12.009999999999936,-0.003261251717676834,0.03151691855186122,0.0019110138752806186,0.35034545563944713,-0.02524286301196258,-0.9362803470347895,-0.0015524664498401185,-0.006177144999350177,0.0028163803770918576,0.9839402838226573,0.012586396943277553,0.1780489156600159,0.0013320386803254427
12.019999999999936,-0.0007347760924121625,0.021733544290527634,0.005441178091322663,0.35055327749668425,-0.025260407831542354,-0.9362020792972741,0.0011629561800827418,-0.002962277360640954,0.0014287338332428041,0.9839203404096835,0.012589283450090291,0.17815857108044075,0.0013659178686978965
12.029999999999935,-0.001158350432357666,0.014035733179219037,0.0046267683960798745,0.3506943435149618,-0.02527606982635396,-0.9361488208826666,0.003724406141747019,-0.001097175750487413,0.000803971710126984,0.9839067720274818,0.012591612415816925,0.17823311704783823,0.0013973899234472858
12.039999999999935,-0.0037943372986949274,0.007783261373068023,0.0006842816962984442,0.3507794778853581,-0.025287869481691292,-0.9361165837324624,0.005991676701549509,-0.0003572476224170871,0.0007577818005641096,0.9838985598222744,0.012592576836085558,0.1782782243681947,0.0014253912558037651
12.049999999999935,-0.00654515244453754,1.266864997676552e-05,-0.0016741420643086428,0.35078298679228814,-0.025266594255386254,-0.9361158304078108,0.005846066976118694,-0.0011905213307650238,0.0008280392364969432,0.9838983424242111,0.012580772895708147,0.1782801047422123,0.0014308676444710004
12.059999999999935,-0.012548982310953138,-0.006621559660558043,-0.001774267438352905,0.3507400556707362,-0.025190049037743422,-0.9361339896475419,0.0055516288220531845,-0.002389246948345635,0.0006185818883307364,0.9839029416366506,0.012540641653631458,0.17825747927183547,0.0014375305186799577
12.069999999999935,-0.02112139901908241,-0.012225532310568618,-0.000335119175380664,0.3506572120035883,-0.02506293315085809,-0.9361684744321197,0.0051739367146880705,-0.004010003969136607,0.00036465228802692255,0.9839116979073802,0.01247454021153857,0.17821379234897838,0.0014455717602450968
12.079999999999934,-0.030774301622974932,-0.015460680690506526,-0.0017980399495978485,0.3505103731695154,-0.024813691724993113,-0.9362300884588917,0.005259875197974942,-0.007750861789670841,0.0026592791769527477,0.9839273529754115,0.012345076213411896,0.17813633471412926,0.0014606188117007389
12.089999999999934,-0.040233856250136445,-0.019133723957256144,-0.0028145314358114424,0.35034083522713333,-0.024486846008203233,-0.936302103830397,0.004823519911788467,-0.010252353449299851,0.003391851627512853,0.9839455975384663,0.012176199901410925,0.17804681619480536,0.0014754988795112943
12.099999999999934,-0.04929780890210903,-0.02278426767376406,-0.003438705963729745,0.3501536949151515,-0.02409136209755604,-0.9363823802330362,0.0039599505429575325,-0.011605606811226844,0.0029651858123039584,0.9839659056506056,0.011972406459511734,0.17794793131278766,0.0014905614918684963
12.109999999999934,-0.05426189157824673,-0.0202393146844348,-0.003379887683617625,0.3499713586804893,-0.023569727710013606,-0.9364637445808729,0.0028328441738388627,-0.010066647951642235,0.003746949692395539,0.983986600944217,0.011703562222152476,0.17785137035871756,0.0015109188731273974
12.119999999999933,-0.05772256632922753,-0.017447651482433223,-0.0036905541973412384,0.34980729556984014,-0.023027150842946716,-0.9365385314956503,0.002125158995767377,-0.008952667865569858,0.004213519263837235,0.9840055730543987,0.01142262753442659,0.17776447075768032,0.0015393977981608936
12.129999999999933,-0.05991767335133444,-0.014454720841143366,-0.004177969825566161,0.34966047357574764,-0.02246805372753806,-0.9366070414851339,0.0016739700341552948,-0.008113773195345956,0.00438846903384595,0.9840229062993646,0.011132074341739896,0.17768668288981698,0.00157474394394685
12.139999999999933,-0.06116645268785791,-0.011429673839236447,-0.0023187601712826083,0.3495608563027335,-0.021917077281208713,-0.9366571970474674,-0.0003680948531380611,-0.005954688987781044,0.00386007126371233,0.9840355383416761,0.010844651952369545,0.17763377666937344,0.0016157882662057434
12.149999999999933,-0.05988479521200379,-0.008728743688121446,-0.002550600352123717,0.34947899298334084,-0.02135622740424875,-0.9367006846165903,-0.0011639482799298661,-0.004975153539829535,0.003108760833754231,0.9840465125456774,0.010552464751799231,0.17759014725843958,0.0016554957381887487
12.159999999999933,-0.05646372363419381,-0.006256508000803285,-0.0044439679619775645,0.3494141568280938,-0.020792227854673547,-0.9367376516850693,-0.0008973296283446002,-0.004977681770898876,0.0022423342464313665,0.9840558586471359,0.010258910561092066,0.1775554292432579,0.0016939641724916968
12.169999999999932,-0.052223722406136416,-0.0028793806271273084,-0.00464431034173976,0.3493999835809173,-0.020340807454262137,-0.9367527962456886,-3.0620696460234185e-05,-0.00502313527548025,0.0029374775079487226,0.9840596246437393,0.010023093757947629,0.17754750323756416,0.0017295774024933934
12.179999999999932,-0.042677794511680175,-0.0018005759702573198,-0.0030527352832389817,0.349369690831096,-0.01993004326308427,-0.9367729472949452,0.0006551159822076921,-0.004409084504661913,0.0032762049505778465,0.9840647068787699,0.009808364452294025,0.1775311465996085,0.0017628305495778459
12.189999999999932,-0.028904100026743283,-0.002663434665788472,0.00013049805988635222,0.3493267551820743,-0.019560694470397887,-0.9367968081566456,0.0011974164004971424,-0.003209632458166223,0.0032035325283260334,0.9840707679459482,0.009615015491535346,0.1775081948507661,0.001794237219414565
12.199999999999932,-0.02312995121812629,-0.0029968401360847725,0.004970899040666022,0.3493134726632963,-0.019370004832110623,-0.9368056896020375,0.00203284718231797,-0.0014108795677316769,0.00027903908790820504,0.9840729838863815,0.009511648390154444,0.17750121024846105,0.0018301075634163963
12.209999999999932,-0.01584844484561137,-0.001613548046473537,0.007659680280656412,0.34930584245736346,-0.019234141147420312,-0.9368113381802504,0.002375797179042795,0.0008647304694355301,0.0008458926712263787,0.9840742988399707,0.009433263588128158,0.1774974476118186,0.0018819330025080293
12.219999999999931,-0.0074567090598378705,0.0011565879535688822,0.00840105029238979,0.3493035173052562,-0.019148758375235317,-0.9368139718904486,0.0023082134519414287,0.003398000010899103,0.004358594560757784,0.9840747807302173,0.009378114339243996,0.17749669203346183,0.0019471557428732264
12.229999999999931,-0.005943902442629459,8.712156700215281e-05,0.007128390378555736,0.34931265632274067,-0.01914270575858513,-0.9368106810511808,0.002928378059245746,0.0007021781841374478,0.004152302552203294,0.9840738453576379,0.00936672019329368,0.17750191792216305,0.001993264762987659
12.239999999999931,-0.008852832260979309,-0.002782123164264394,0.004811706185602251,0.34929911795593716,-0.019097386276092043,-0.9368166364938129,0.0028231509434662122,-0.0022413139978233174,0.004601808015372421,0.9840752957578618,0.009337334367789277,0.17749505490598216,0.0020285247484596604
12.24999999999993,-0.01555742498833389,-0.0071187052308511614,0.0015617111536333683,0.3492648778404921,-0.019015176512818623,-0.9368310542052027,0.0021113995536993363,-0.00537586385597477,0.005554366766195309,0.9840789288936372,0.00929105278259933,0.17747715088881347,0.0020535531481304823
12.25999999999993,-0.014559395600099712,-0.0050408649707104815,-0.0014375862072579816,0.3492179490716619,-0.018866871095394935,-0.936851554563027,0.0033460405428678234,-0.007168645178379833,0.002834044622700787,0.9840841001458569,0.009214782297602078,0.17745226003037884,0.0020586646551941615
12.26999999999993,-0.011737205517055135,-0.004533144052289114,-0.001601396524154753,0.3491739290713105,-0.01873844335987858,-0.9368705491229763,0.0035116223644309145,-0.0072632086079276225,0.0006664979646732022,0.9840889159991622,0.00914887839408111,0.17742892207701438,0.0020623009404307966
12.27999999999993,-0.0071990052381631885,-0.005440570429743544,0.0008484726899290985,0.34913301189740503,-0.01862992935499745,-0.9368879665865727,0.0026760616430381184,-0.005740121196966522,-0.000955549333817844,0.9840933561670809,0.00909331869342701,0.177407240999018,0.002064687085510726
12.28999999999993,-0.0007823161324652167,-0.004310145685521244,0.0030469640361698675,0.3491167358557384,-0.01861361490306195,-0.936894350125448,0.0010074006160892338,-0.0012801809762308502,-0.0005025559695263429,0.9840949878452532,0.009083410819457231,0.17739873685341262,0.0020736816650530863
12.29999999999993,0.004164537484472907,-0.0047057326330140065,0.004869210988717829,0.3490875759812376,-0.01862968160776,-0.9369049061443552,0.00012801360734437023,0.0014300809174120524,0.00013697638524413913,0.9840976604808941,0.009089076994042022,0.17738357842843205,0.0020875756653570532
12.30999999999993,0.007670174349573442,-0.006557435261348248,0.006304860442463871,0.3490460432160876,-0.018676909473792136,-0.9369194673021586,-4.430544000686694e-06,0.0024490598330377143,0.0009736621155644859,0.9841013325948712,0.009109748226113726,0.1773620289329291,0.002106085826851514
12.31999999999993,0.0064545293182339085,-0.009346387191073655,0.004787785184164461,0.3489887858932409,-0.018769988557939536,-0.9369389363780019,-0.00026183075955462883,0.0002480419005361353,0.003815076587779254,0.9841062557255488,0.009154226051908545,0.17733229048430743,0.00212179891438169
12.329999999999929,0.0031179963917730494,-0.008729931910694164,0.0030357835814496803,0.34893557973814104,-0.01884620052134976,-0.9369572191668194,-0.00033808995251597177,-0.00216012032389887,0.005122151473554212,0.9841108767251288,0.00919052141260504,0.1773046315506911,0.002135354662732117
12.339999999999929,-0.0022784461327102126,-0.004792190640732202,0.0010576680627190586,0.34888648790312254,-0.018905693504670612,-0.936974289699923,-0.0002465311584393322,-0.004760264582445594,0.004935642625568893,0.9841151888260236,0.009218702109974625,0.1772790858099018,0.002146794416710661
12.349999999999929,-0.006614416900959313,0.001324079361849067,-0.00022369273696733454,0.34888593281278557,-0.01887881375071838,-0.936975043036809,-0.002529776311707734,-0.004665337939616111,0.004570987923477916,0.9841153018911943,0.009203838511592613,0.17727880951916325,0.0021534913797075428
12.359999999999928,-0.008468497607333567,0.00573225191959751,0.00029285012774732074,0.348910360270902,-0.018830266374208638,-0.9369669101770756,-0.004243952733470965,-0.0043178746049176995,0.004212671629847369,0.9841131920484557,0.00917810447794945,0.17729159839167244,0.002159375338166822
12.369999999999928,-0.00784311078964584,0.008433994282288504,0.00260554174850596,0.3489597458923594,-0.01876007252460154,-0.9369498997944138,-0.005389615883675205,-0.0037181210758461944,0.003860687557846333,0.9841088614675565,0.009141510619523365,0.17731743967470814,0.002164447085650737
12.379999999999928,-0.010689960593111083,0.005587040384918285,0.002711517903317827,0.34901822129401305,-0.018676741662225146,-0.9369298068033793,-0.0021218796227689862,-0.002220737939326236,0.0018560786640405176,0.9841037161924915,0.009095357461926775,0.17734816858146546,0.0021855044571786417
12.389999999999928,-0.013858230046258486,0.004166347011741801,0.0030045511722574516,0.3490684530418476,-0.018574428832778603,-0.9369131303820919,-0.0007470424456908685,-0.0012156994680792483,0.0010677347374857902,0.9840994213971369,0.009039356062328882,0.17737454191485127,0.002207695064250634
12.399999999999928,-0.017345451891481505,0.0042251624261643314,0.0034961558397939387,0.34911020376505103,-0.018452691822288987,-0.9368999668112433,-0.0013267351793997077,-0.0007182691398464858,0.0015316316619680393,0.9840960011934877,0.0089732853952719,0.17739643399850727,0.0022309987404076095
12.409999999999927,-0.019984924116046937,-0.0002511208257264842,0.0002255602830443012,0.3491339688953517,-0.01827825344122017,-0.9368945394015342,-0.0004508711582238555,-0.002666175043391706,0.002656715109821014,0.9840946505101239,0.00888038725988898,0.17740875124946595,0.002254595529445885
12.419999999999927,-0.022633138551576844,-0.0032147196276762122,-0.0014010727622108818,0.3491280751611114,-0.01808605747860552,-0.9369004671277793,0.0002707820807373585,-0.004200101472473015,0.00328524131772503,0.9840961062532285,0.008778213390150244,0.17740548190868655,0.0022796573435028256
12.429999999999927,-0.025299181338559927,-0.004539591187184959,-0.0012586287166637315,0.34909113882975074,-0.01787570204800123,-0.9369182711135879,0.0008152707915035641,-0.005273303382916146,0.00338425368423873,0.9841004956161784,0.008666546725048916,0.17738590003476506,0.002306258589359455
12.439999999999927,-0.021770010254282393,0.0015088206977791766,-0.0008357329059130243,0.3490771455071965,-0.017681758215392578,-0.936927139484156,-0.0006407273995375746,-0.0045422771665237635,0.00325464213728549,0.9841026976017716,0.008563712074580744,0.17737835881541977,0.0023300883310292003
12.449999999999926,-0.01614481816580734,0.004751889716815528,0.0018113205538331373,0.3490908065597893,-0.017530972796208338,-0.9369248852990931,-0.001576058524217003,-0.003309618703311166,0.0030761356969357377,0.9841020683039339,0.00848264703241409,0.17738543464692866,0.002354736103297687
12.459999999999926,-0.008363875316157426,0.004833736514239572,0.006856771433310696,0.3491339457094304,-0.017426533579064037,-0.9369107699155708,-0.001913539105255597,-0.0015666971894907678,0.0028488225122921,0.9840984181624425,0.008424949801106633,0.17740809299678692,0.002380316626778103
12.469999999999926,-0.005346114481382879,0.006385489590449768,0.006942735539377559,0.34919537805112244,-0.01740302364123813,-0.9368883220037586,-0.002834837942996691,0.0008921712584243793,0.0035358607131982913,0.9840925726397783,0.008405183708528581,0.17744068484033898,0.0024235263354921
12.479999999999926,-0.004480620456755855,0.005702311752037904,0.006610880976792061,0.34925141410086114,-0.017388333449071387,-0.9368677120183574,-0.0023007693960729334,0.0013628018293941123,0.0032883616564480774,0.984087253631327,0.008390429051019428,0.177470425133226,0.00246380077965513
12.489999999999926,-0.0058797891519805304,0.00250271870016265,0.005943007248840965,0.349300995562747,-0.017381346497262754,-0.9368493543879269,-0.00013762200214244595,-0.00039002353085969407,0.0019809256662936094,0.9840825749373107,0.008380258244004724,0.1774967477891244,0.0025003671086415544
12.499999999999925,-0.006618777580618713,0.0013257538182735633,0.0019390948837974629,0.3493204170621894,-0.017348399808819547,-0.9368427373789279,0.001740355190271227,-0.005509350627522391,0.0019071689786674096,0.9840808250778011,0.00835969643441931,0.17750705014755394,0.0025214939977483046
12.509999999999925,-0.010264344198940536,-0.000313049416115718,-0.0013791066599611029,0.3493249281777672,-0.017280543847273754,-0.9368423121118064,0.0025560240429689162,-0.00862369748087739,0.0009461547220596094,0.9840806807725013,0.008323129271338426,0.1775093711908645,0.0025330566726779794
12.519999999999925,-0.017242798315462757,-0.002547008347343782,-0.0038022695945387967,0.34931348916612065,-0.017173817323424538,-0.9368485371545394,0.0021715780917557453,-0.009339443576593965,-0.0010675474772248886,0.9840822648829941,0.008268688890829429,0.1775031501224301,0.0025342546035636627
12.529999999999925,-0.012833211108045329,-0.00561315528109535,-0.003950207151282911,0.34928606797602896,-0.01706221142445871,-0.9368608033673337,0.0032027920230367673,-0.0060861994592678265,-0.0005695670697960921,0.9840853632129382,0.008212649614813192,0.17748848069329756,0.0025306269558290147
12.539999999999925,-0.006944464828518767,-0.0066281126081215195,-0.002260580481002631,0.3492469957689908,-0.016982783429473125,-0.9368768029352343,0.0034879426814896828,-0.0033414633637892646,2.970830918452253e-05,0.9840894168919603,0.00817224985818363,0.17746779390129247,0.0025309774130384205
12.549999999999924,0.00017999272245857421,-0.005209102840712451,0.0014786262024729189,0.34919499569920803,-0.016941183869263257,-0.9368969051352952,0.0028395773432336006,-0.0013631759205672742,0.0006385631102400241,0.9840945217896045,0.008150202484180717,0.1774404387087299,0.002536187506845794
12.559999999999924,-0.00046134560229510826,-0.004172031808193356,0.0006369795721734913,0.3491551857981318,-0.016939917117745854,-0.9369117667371225,0.001702698366041715,-0.0028538957341040097,0.0028946808178214405,0.9840982988071917,0.00814894961914024,0.17741956456934999,0.002539691975994818
12.569999999999924,-0.0022758916832291533,-0.002202428981020804,0.0004035526916414152,0.34913389487627505,-0.016938825312573076,-0.9369197307645435,0.0007476503554482576,-0.004480906223548795,0.0044189156010744236,0.9841002983264141,0.008147757241845879,0.17740841748317412,0.002543297016094273
12.579999999999924,-0.005087592023651832,0.0009070173685822064,0.0011430448695852933,0.3491341922654173,-0.01693580681277966,-0.9369196911126579,3.6791175852732326e-05,-0.006087769149708276,0.004977174498830678,0.9841002341068891,0.00814553584269593,0.17740860546746087,0.0025471131629160337
12.589999999999923,-0.006709145206161176,0.001945074111687956,0.0020398829599460834,0.3491516689299761,-0.01692989267590351,-0.9369132775869304,0.0006508747402600689,-0.00507123364223459,0.004988339281256435,0.9840986173849642,0.008139461545072453,0.1774178957078048,0.002564078424333346
12.599999999999923,-0.010090256163998813,0.002397463486798963,0.004219739068629354,0.34917618924894783,-0.01689169904264824,-0.936904814493061,0.0007629513319504073,-0.004525165751338868,0.004169535488811464,0.9840964226780526,0.008115280661978015,0.1774309021218757,0.002590476130422329
12.609999999999923,-0.015715275554988847,0.0022589284886506,0.007970992482434588,0.3492083051898735,-0.016813903379727622,-0.9368942281273483,0.00017255328459963952,-0.004724767811041187,0.002362359598129555,0.9840936137194795,0.008069026614180661,0.17744791348268735,0.0026276684083753974
12.619999999999923,-0.02150798733252723,0.0046978100943345005,0.00526175019115872,0.34926498998709077,-0.016649645682059212,-0.936876038909036,0.0002383644145316756,-0.005576519634118989,0.0035007243127214037,0.9840888648134404,0.007977844704792047,0.17747767285878305,0.0026702729892128033
12.629999999999923,-0.02319000057433543,0.00537169317449856,0.004744290734247916,0.34931655530517514,-0.01646998105717547,-0.9368600105859833,0.0001700259840741059,-0.006311115974655029,0.004017016303723138,0.984084674317522,0.007877775562738377,0.17750474387294765,0.002718753442946979
12.639999999999922,-0.0196554744525971,0.0036198439502785145,0.007481023448877537,0.3493598162150135,-0.016277227632307167,-0.9368472821239685,-0.00011684024161408811,-0.0068490000609529,0.0035271886050671445,0.9840813347220142,0.007769789302844554,0.17752746544667866,0.0027742710446880194
12.649999999999922,-0.023045729366140362,-0.010289599935515911,0.006189785750726432,0.34931514078029646,-0.01609842553028263,-0.9368670274187016,0.002483821135520826,-0.003363973727234647,0.0030889086033049555,0.9840862072211544,0.007669003440572795,0.17750402845051683,0.0028295338663456644
12.659999999999922,-0.02401667391348461,-0.01896896455942049,0.006821563708565716,0.34921251081159776,-0.01592618724452624,-0.9369082246428261,0.0043603671619988306,-0.000963130976360814,0.0035781917965896602,0.9840964852071924,0.007571326212418462,0.17745018527061385,0.0028863405708001886
12.669999999999922,-0.02125009160834174,-0.019809548490539397,0.010297639684742687,0.34904210084566134,-0.01576128348706338,-0.9369745172121714,0.005048410285283418,-0.00031602881765592093,0.005268493720228643,0.9841130842410163,0.0074770718061672355,0.17736078282768447,0.00294517549887231
12.679999999999922,-0.02284248298160897,-0.019426276401485042,0.004030131372015073,0.34889282467025745,-0.015595035775871608,-0.9370328732478284,0.004798165321085375,0.00025413717496114825,0.003925067267007741,0.9841277947948868,0.007383974280935565,0.17728237834755145,0.0029937916384471246
12.689999999999921,-0.02533102364925148,-0.01868794968371226,0.0017188166898664363,0.34874351877016047,-0.015405541279945307,-0.9370915781170787,0.004050133512938803,9.54938832517366e-05,0.0031509731626493905,0.9841425951351501,0.007279883556379572,0.17720386786309328,0.0030379103468116814
12.699999999999921,-0.028588032692826948,-0.01759580735781614,0.005642909270972555,0.3485921005151788,-0.015185154170671795,-0.9371515268998837,0.0027297932905915694,-0.0010282496683685959,0.003434223231669817,0.9841577005131489,0.007161008196515295,0.17712413728928317,0.003077029128502928
12.709999999999921,-0.03501858289568867,-0.016204725274278527,0.0031882780242084656,0.3484424015379275,-0.014932631807264061,-0.9372112207436799,0.0028067037410415907,-0.0030010233585233918,0.003717225070978913,0.9841726678836865,0.0070242821681609415,0.17704529757579174,0.0031246939816969013
12.71999999999992,-0.04208473852185089,-0.015248103833199543,0.0023837652741839064,0.3482972251098167,-0.014618974446468626,-0.9372701071753534,0.0022133724909075055,-0.004446158965610682,0.002963459294664974,0.9841874402917257,0.006855621928612136,0.1769687122782711,0.003177248176348502
12.72999999999992,-0.04966967698648595,-0.014920372917149193,0.004550510502286181,0.3481580582925909,-0.01422506866804989,-0.9373279149302012,0.000545828901481674,-0.005073522283813139,0.000788254187358946,0.9842019607316163,0.006645161785422691,0.17689511891310022,0.003235556229521426
12.73999999999992,-0.05647541465649025,-0.015585180546668676,0.006438849124643438,0.3480385648005994,-0.01375285618781287,-0.9373792810839754,0.0018231417950430489,-0.008035341705108468,0.0022050810222920933,0.9842147524436795,0.006392018924431954,0.17683176142243165,0.003309999805166805
12.74999999999992,-0.0628053518083096,-0.020243683643727573,0.007483239399326409,0.3478706253183609,-0.01321958675250223,-0.9374492534015083,0.0031845540764553724,-0.010213266445998294,0.0029358823330127414,0.9842322550594786,0.006106935440027452,0.17674284216777375,0.0033900039583987596
12.75999999999992,-0.0685626850193768,-0.030402283917518688,0.007373936081140722,0.34763199982278425,-0.01261012604596364,-0.9375462340382418,0.0042960845999649045,-0.01099527566838892,0.0022513084679923003,0.9842566081538102,0.00578220904799975,0.176616644617133,0.0034758208620157627
12.76999999999992,-0.06285596298810808,-0.03526710720306585,0.005290296108135533,0.34734887563946704,-0.012028309355045314,-0.9376586928935097,0.005239263266452093,-0.009083837987963521,0.002831787700540809,0.9842848247774054,0.005470892589606523,0.17646714651991943,0.0035658202994633017
12.77999999999992,-0.057386388076808924,-0.04001679068182826,0.004014410840402542,0.3470218112150446,-0.01148477571519003,-0.9377866174854461,0.0056084891060329345,-0.007117138685003715,0.0028474130412947263,0.9843170243219886,0.0051807096827512005,0.17629461951102435,0.003646948652016673
12.78999999999992,-0.05386249255043909,-0.04533984043560184,0.004183430367568344,0.34663737994017446,-0.010992778279677741,-0.9379347593361852,0.005170665700001173,-0.0054469710386684115,0.0018687886097534347,0.9843544475946681,0.004919235192884611,0.17609202381429068,0.0037146547707974575
12.799999999999919,-0.050913513191740464,-0.045911688202229385,0.001335527326882122,0.34621487406689117,-0.010566119080790495,-0.938095632839375,0.0033464884237766135,-0.002875305918788392,0.0029524902918178397,0.984395070190925,0.004692442520363447,0.17586957810424073,0.003774696468132299
12.809999999999919,-0.050099973468574775,-0.048322483654132733,-0.0014953738909688086,0.3457725650858636,-0.010126932318221349,-0.9382636086475142,0.002124031305410787,-0.0015758787233275712,0.0031184309650935773,0.984437552111075,0.0044614532728722775,0.17563667304945657,0.003822961474556152
12.819999999999919,-0.05237184174801682,-0.054204555405902806,-0.0038327545236241287,0.3453067253452018,-0.009658980632293052,-0.938440167023986,0.002011288493037611,-0.0023077343566222227,0.0015999020496448883,0.984482301629253,0.004218842381135336,0.1753912995166413,0.0038549082993947067
12.829999999999918,-0.05633234488866306,-0.05401415801592278,-0.005724592670197886,0.3448303721341224,-0.009189946415300585,-0.9386198972610246,0.001945589005923317,-0.007027666728146574,0.003962055440338475,0.9845277542095796,0.003975265229679106,0.175140465272776,0.003889592791349735
12.839999999999918,-0.059276644596612325,-0.04996322158634146,-0.006433859741348187,0.34437659353633354,-0.008690908048462745,-0.9387912527502371,0.0011025140109122604,-0.010692554959167705,0.005579783110039152,0.9845711063151847,0.003716904786767515,0.17490140708076987,0.003921663981119286
12.849999999999918,-0.06037773285212993,-0.04105724946675561,-0.005412673133174528,0.3439591186584994,-0.008146206997787687,-0.9389492655144646,-0.0009365445556207067,-0.012059480608028052,0.0053926658617607795,0.9846111278264971,0.0034361204008737413,0.1746812826665281,0.003949271074274285
12.859999999999918,-0.057952319516241566,-0.03534519646758657,-0.004367373721659509,0.34365094769337334,-0.007616834905766537,-0.9390664727436614,-0.0021608296824761316,-0.008048979267505823,0.0037155697001128186,0.9846407776224347,0.003161666813346233,0.1745185348983452,0.003984211181014503
12.869999999999918,-0.05385140381543672,-0.03187460216338217,-0.005380417661077754,0.34335859744615826,-0.007099892212845102,-0.9391774781922514,-0.002641877441259603,-0.005132486512814043,0.0026551137016968067,0.9846688561485692,0.0028948010585248558,0.17436410733566973,0.004011890614389301
12.879999999999917,-0.047787254998889896,-0.03131904594700489,-0.00963053915523584,0.3430703866133325,-0.006599565316676429,-0.9392864741448498,-0.002110061249115868,-0.004952750306115074,0.0028453114407345154,0.9846964318637549,0.002638652276023755,0.17421187696587884,0.00402677844045
12.889999999999917,-0.03811936538056314,-0.028553989033837227,-0.010484110953005233,0.3428178040733505,-0.006206554330705497,-0.9393813522327631,-0.0010564635282114619,-0.002418069984149153,0.0027157149613038535,0.9847205555697014,0.0024421787325158177,0.17407852487162215,0.004012067159976982
12.899999999999917,-0.029710773083276833,-0.02404646235835675,-0.011045090393272256,0.3425899273003117,-0.005865628186307471,-0.9394667229636369,-0.0006738544188982096,-0.0006632377384225805,0.002599272843398434,0.9847423143738753,0.002273655432783271,0.17395823535653943,0.003988596145763599
12.909999999999917,-0.024086274540848232,-0.017185521370576592,-0.011841098279889578,0.34239452280793703,-0.0055864522703759035,-0.9395396824331922,-0.001483407141821735,-0.0006581898675139783,0.002570683833860635,0.9847609735046916,0.002137834515566657,0.17385510630544046,0.003957145787226854
12.919999999999916,-0.02057117292166736,-0.012038432859060281,-0.011664637355011772,0.34229287352789073,-0.0054056334818665345,-0.939577775681748,-0.0014852421396713358,0.00023946187262251304,0.002418061384633213,0.9847707836881867,0.0020520575130011758,0.17380134922525803,0.003924077424583766
12.929999999999916,-0.01541415608505214,-0.009528256494628738,-0.013141627948583614,0.34220567958218534,-0.0052466687822663605,-0.9396104398375836,-0.0018203626335230193,0.0006766153835606047,0.0023240628844585992,0.9847792550565327,0.0019788007529167677,0.17375520586657728,0.0038827709192341274
12.939999999999916,-0.007050500632301386,-0.011004841396488618,-0.017585201677664274,0.34212110760441433,-0.005101559432939317,-0.9396420403374822,-0.002892916112511964,0.00014579878768781118,0.002355663384357103,0.9847875213367006,0.001914919223059734,0.1737104456882433,0.003828157277378837
12.949999999999916,-8.943912276885603e-05,-0.014165221975326459,-0.02238995265618097,0.34200898968595794,-0.005023675694696361,-0.9396832612411075,-0.0011300377081810236,0.0008248535178816849,0.003229521206725086,0.9847983487558053,0.001893099722174708,0.17365133646399386,0.003728810497423309
12.959999999999916,0.006090968470218382,-0.014949914079162234,-0.026057399691248543,0.3418846795350004,-0.004973846468802035,-0.9397287566375608,-3.2561382706094966e-05,0.0020099514809261442,0.0036967228214198045,0.9848103276976212,0.0018890488068786342,0.1735858678241895,0.003609533703692193
12.969999999999915,0.011288243514064746,-0.01125971952679167,-0.027693450950137657,0.34174642014639894,-0.004955157401165805,-0.9397791517287315,-0.0007774055882046741,0.0037574324296585663,0.0032598992813501976,0.9848236341970025,0.001904849347540905,0.17351311863915797,0.0034673813618629062
12.979999999999915,0.011688523803646754,-0.0013616828054595666,-0.025313285991839386,0.34170486872959094,-0.004979831146221638,-0.939794139888468,-0.004792703224764841,0.005047149844924225,0.0028580018802414346,0.9848279509000527,0.0019418566196102677,0.17349111279138207,0.0033288145210346324
12.989999999999915,0.0078076894960152935,0.011562848342726598,-0.021944108527266436,0.34174898401487264,-0.004995510786807162,-0.9397780034568651,-0.00819079748044959,0.004534079110818301,0.002144888760691271,0.984824298962371,0.0019722636727409672,0.1735140008715467,0.003201045553359388
12.999999999999915,-0.0022883413110840675,0.028116811875930924,-0.017928251277276014,0.34191727277718464,-0.004983631055293987,-0.939716825565418,-0.00961769349233952,0.0009798283557408893,0.0008758539119879572,0.9848090949185646,0.001985327033310508,0.17360194533787274,0.003091262903877551
13.009999999999915,-0.014469156088782341,0.024011903480184966,-0.022388010764921223,0.34215961776876747,-0.004818056270610516,-0.9396294679548566,-0.010281119223418265,-0.002998846748527364,0.001543713696123731,0.9847872148059285,0.0019171775323434488,0.17372845610584867,0.002999057919514205
13.019999999999914,-0.028301439284262306,0.01983808679071303,-0.02516504294794542,0.3423975907507517,-0.004551338904544102,-0.9395441078171716,-0.009993107550729578,-0.005354095397510195,0.0021111322494735923,0.9847658123957757,0.0017969546471343135,0.17385253330117564,0.002911043226535735
13.029999999999914,-0.044501360471347166,0.021637270867391676,-0.022401073455313787,0.3426058091010867,-0.004147296020544464,-0.9394700825558033,-0.008211901957956458,-0.004651763941274254,0.0019254545317512674,0.9847472432766963,0.0016066442777094602,0.17396083201576099,0.0028254091921611937
13.039999999999914,-0.056317981113011534,0.01839063539868643,-0.023682645723914455,0.3427800523349036,-0.0035635903126291805,-0.9394088085327897,-0.004379218286812801,-0.0001287898447143842,0.0011117867807892143,0.9847318345200289,0.0013219513192400658,0.1740511257491606,0.0027579724264954726
13.049999999999914,-0.06495510793568281,0.015294991325882015,-0.02665964518114739,0.34292532511929463,-0.0029011750667428606,-0.9393580518086981,-0.0015119870184989268,0.003375072789113566,0.0012952429517507887,0.9847191110897442,0.0009973360901533426,0.17412615926417824,0.0026905313024255515
13.059999999999913,-0.06908490801727644,0.014096026820969536,-0.031493057921506896,0.34302761867725556,-0.002149966507756428,-0.9393227644960681,-0.0010966672434445488,0.003760674650072841,0.0035336083837981106,0.9847103679172692,0.0006287266935672908,0.17417858818458307,0.0026172542482332858
13.069999999999913,-0.06773989803172531,0.015284491350161926,-0.04267700398612791,0.34313621228505253,-0.0013765730460433118,-0.9392844541090157,-0.0008250179012144864,0.0026291471692843865,0.008071714114058812,0.9847009910946601,0.00025955478326323726,0.1742343930111533,0.0024834663065261705
13.079999999999913,-0.06259019302552968,0.01884054482267268,-0.05291847438504082,0.3432683130240841,-0.0006189084258823557,-0.9392370632079096,-0.00046943688848087285,0.001823958087890193,0.011541245158875715,0.9846893633970251,-9.546572891794622e-05,0.17430264681923585,0.002314732603704135
13.089999999999913,-0.052060999139612804,0.026098044935672547,-0.05915202239956142,0.34344320612954493,0.00010095868296626975,-0.9391733467670853,9.661648266194741e-05,0.0021698604475742208,0.01216778355209536,0.9846736487619757,-0.00042321316940990795,0.1743935490309792,0.0021001384617579796
