time,seconds_elapsed,rotationRateX,rotationRateY,rotationRateZ,gravityX,gravityY,gravityZ,accelerationX,accelerationY,accelerationZ,quaternionW,quaternionX,quaternionY,quaternionZ
1681247186158902500,2.628902587890625,0.06308155506849289,0.0397522933781147,-0.013189436867833138,0.3223285675048828,-0.20314669609069824,-0.9245732426643372,0.005155503749847412,-0.030038073658943176,0.008435547351837158,0.9809620447595316,0.10354462868010114,0.16429206728370366,3.593299712454444e-17
1681247186173934600,2.6439345703125,0.05141616612672806,0.05461965873837471,0.014499714598059654,0.32315728068351746,-0.20400650799274445,-0.924094557762146,0.0006189048290252686,-0.008182168006896973,0.0004647374153137207,0.9808400886522769,0.1040032168030812,0.16473026372576727,-0.00004412289016335129
1681247186188967700,2.6589677734375,0.008192953653633595,0.036479536443948746,0.01453859731554985,0.3237304091453552,-0.2044108808040619,-0.923804521560669,0.007278412580490112,-0.011470422148704529,0.0035774707794189453,0.9807661691334606,0.10419789767373179,0.16504706344526493,0.00007069276968990473
1681247186203999700,2.673999755859375,-0.0232420414686203,0.017821695655584335,0.0020465084817260504,0.32401520013809204,-0.20431694388389587,-0.9237254858016968,0.017430633306503296,-0.038755521178245544,0.010532677173614502,0.9807459860167479,0.10413789825781287,0.16520462325674906,0.0001552219180477129
1681247186219032800,2.68903271484375,-0.020984746515750885,0.024752572178840637,0.0075286258943378925,0.3243072032928467,-0.20413300395011902,-0.9236636757850647,0.013919055461883545,-0.0360097736120224,0.012683391571044922,0.9807302526382611,0.10403175647931494,0.16536493568107394,0.00023832211277620305
1681247186234065000,2.70406494140625,-0.0027526922058314085,0.0407019779086113,0.01886463724076748,0.3247816562652588,-0.20438531041145325,-0.9234411120414734,0.0057541728019714355,-0.0036834925413131714,0.007883250713348389,0.9806734978747039,0.10413963434066996,0.16563323036619965,0.00039649945613875017
1681247186249097700,2.71909765625,0.017397690564393997,0.036239318549633026,0.022260965779423714,0.32521161437034607,-0.20472639799118042,-0.9232141971588135,0.006438106298446655,0.0043632835149765015,0.0055811405181884766,0.9806155404572817,0.10428868475091392,0.165881756282691,0.00057929473676148
1681247186264129500,2.734129638671875,0.010105103254318237,0.023484639823436737,0.01885824464261532,0.3255787193775177,-0.20517805218696594,-0.9229845404624939,0.012906879186630249,-0.008322864770889282,0.0077318549156188965,0.9805568552590911,0.10449772970033001,0.166096220324957,0.0007409183770527483
1681247186279162600,2.74916259765625,0.007503993809223175,0.0054228161461651325,0.012262394651770592,0.32578155398368835,-0.20551840960979462,-0.9228371977806091,0.01580163836479187,-0.016756325960159302,0.01144498586654663,0.98051916478077,0.10465687982841236,0.16621770153790824,0.0008490722373360216
1681247186294194700,2.764194580078125,0.018225612118840218,0.0008262000046670437,0.002793258987367153,0.32594528794288635,-0.20609192550182343,-0.922651469707489,0.013059169054031372,-0.020867258310317993,0.009885966777801514,0.9804717902812341,0.10494491247818184,0.16631541458058632,0.0009045399056746475
1681247186309227800,2.779227783203125,0.023885682225227356,0.0007724044844508171,0.007503059227019548,0.3260227143764496,-0.20651684701442719,-0.9225291013717651,0.01339372992515564,-0.013194411993026733,0.008207201957702637,0.9804405946234614,0.10516344624057013,0.16636131400617457,0.0009131366588880057
1681247186324259800,2.794259765625,0.02111807093024254,-0.0056817661970853806,-0.0018299887888133526,0.32603928446769714,-0.20687231421470642,-0.9224436283111572,0.012232750654220581,-0.009588822722434998,0.010807216167449951,0.9804187514814073,0.10534934973205107,0.1663721982795056,0.0008996703926229012
1681247186339292700,2.809292724609375,0.020363599061965942,-0.001383424736559391,-0.009463673457503319,0.3260336220264435,-0.20712138712406158,-0.9223897457122803,0.012528330087661743,-0.017732083797454834,0.012782752513885498,0.9804051491187519,0.10548953237945687,0.1663643315718904,0.0008307796941353224
1681247186354324700,2.82432470703125,0.021570276468992233,0.026487354189157486,-0.005934985354542732,0.32636141777038574,-0.2074735015630722,-0.9221946597099304,0.0029079318046569824,-0.016220301389694214,0.014891743659973145,0.9803554221843674,0.10568792916412609,0.16653149252444474,0.0007506967500363489
1681247186369357800,2.83935791015625,0.01876213401556015,0.03480760380625725,0.003620702773332596,0.3268967866897583,-0.2078733891248703,-0.9219149351119995,0.0014722645282745361,-0.01083076000213623,0.010446429252624512,0.9802840147989711,0.1058985025286432,0.16681740682129714,0.0007558505468530843
1681247186384389600,2.8543896484375,-0.0022960135247558355,0.008597570471465588,0.001886985031887889,0.32734400033950806,-0.2081567794084549,-0.9216922521591187,0.010668635368347168,-0.02237294614315033,0.007889151573181152,0.9802272333945214,0.10604125129893163,0.16706020942627575,0.0008013233944660982
1681247186399421700,2.869421630859375,-0.014509269967675209,-0.022870339453220367,-0.0014789842534810305,0.32728976011276245,-0.20806320011615753,-0.9217326641082764,0.019939154386520386,-0.029531344771385193,0.009791135787963867,0.9802374495143426,0.10599093111843758,0.1670317257708272,0.0008101385754357774
1681247186414454800,2.884454833984375,-0.019530074670910835,-0.023088719695806503,0.0019423789344727993,0.3270517587661743,-0.2079620361328125,-0.9218399524688721,0.017888367176055908,-0.02005000412464142,0.00850987434387207,0.9802649538370963,0.10593765849236665,0.1669048389668018,0.0008031296315315684
1681247186429487600,2.899487548828125,-0.003732576034963131,0.003186826128512621,0.012833641842007637,0.32692766189575195,-0.20793679356575012,-0.9218897223472595,0.009635388851165771,-0.005976125597953796,0.008757948875427246,0.9802776121152461,0.10591150235513798,0.16684695178963815,0.0008733965721182632
1681247186444519700,2.914519775390625,-0.0055882129818201065,0.007507272530347109,0.013007812201976776,0.3270505964756012,-0.20807716250419617,-0.9218143820762634,0.0020203888416290283,-0.007987245917320251,0.006775319576263428,0.980258179820204,0.10596381086786144,0.16692653785176714,0.000998556786479239
1681247186459551700,2.9295517578125,-0.01180349849164486,-0.01910383254289627,0.002325075212866068,0.3269709646701813,-0.20805689692497253,-0.9218472242355347,0.0076236724853515625,-0.01594206690788269,0.009646296501159668,0.9802664505699086,0.10594078801966228,0.16689200554394354,0.001068054640643413
1681247186474584800,2.944584716796875,-0.01439368911087513,-0.029661666601896286,0.008592026308178902,0.32675451040267944,-0.20816588401794434,-0.9218993782997131,0.013897866010665894,-0.01830500364303589,0.011972010135650635,0.9802797587265624,0.10598783037636655,0.1667839694848671,0.001110505487145968
1681247186489618000,2.959617919921875,-0.013287997804582119,-0.009582764469087124,0.012167586013674736,0.32654619216918945,-0.20816974341869354,-0.9219723343849182,0.009864270687103271,-0.012914806604385376,0.011144638061523438,0.9802982762305531,0.10597308214017344,0.1666839798471678,0.0011977301135433402
1681247186504649700,2.974649658203125,-0.007920343428850174,0.011626649647951126,0.004962669685482979,0.3266836702823639,-0.20821495354175568,-0.9219133853912354,-0.001656264066696167,-0.011389493942260742,0.0066454410552978516,0.9802830493323049,0.10598049981040572,0.1667676288080424,0.0012987420579643482
1681247186519682600,2.9896826171875,-0.0027154614217579365,0.024174664169549942,0.0061368574388325214,0.3269600570201874,-0.20816345512866974,-0.9218270182609558,-0.0007729828357696533,-0.00855708122253418,0.0063454508781433105,0.9802609068017443,0.10594574399830568,0.1669191044682023,0.0013614715201735027
1681247186534714600,3.004714599609375,-0.008798654191195965,0.015276512131094933,0.006164021324366331,0.32726895809173584,-0.20825666189193726,-0.9216963648796082,0.004655390977859497,-0.006068214774131775,0.007649123668670654,0.9802275622877101,0.10598244373571812,0.16709140827634086,0.0014448507247928895
1681247186549746700,3.01974658203125,-0.0100322300568223,-0.0036188820376992226,0.0026997816748917103,0.3274124562740326,-0.20824360847473145,-0.9216483235359192,0.009699910879135132,-0.013283446431159973,0.0076926350593566895,0.9802152286477054,0.10596869926094717,0.16717195159853104,0.001493492033652946
1681247186564779800,3.03477978515625,-0.022106098011136055,-0.014640639536082745,0.004208462778478861,0.32738539576530457,-0.20820271968841553,-0.921667218208313,0.01341959834098816,-0.020770609378814697,0.006506025791168213,0.9802200160455042,0.10594300396766466,0.1671600441336046,0.0015189664345938623
1681247186579811800,3.049811767578125,-0.026072610169649124,-0.02794446051120758,0.007266303990036249,0.32707521319389343,-0.20795251429080963,-0.9218338131904602,0.012829512357711792,-0.016672074794769287,0.00594019889831543,0.9802624557497823,0.10580190435211742,0.16700015889077188,0.0015725829299406
1681247186594845000,3.064844970703125,-0.040161848068237305,-0.03070695698261261,0.006564028095453978,0.3266511857509613,-0.2076389193534851,-0.9220548272132874,0.010491669178009033,-0.018679380416870117,0.0062680840492248535,0.9803186583172371,0.10562085013378765,0.16678377206279774,0.001663035143330576
1681247186609876700,3.079876708984375,-0.05879950150847435,-0.045549821108579636,0.00546653987839818,0.32611826062202454,-0.2070113718509674,-0.92238450050354,0.010490566492080688,-0.02307586371898651,0.006887674331665039,0.9804025233442348,0.10527882489531916,0.16650561497792393,0.0017420331805542114
1681247186624909600,3.09490966796875,-0.08750449120998383,-0.06438049674034119,0.0029463907703757286,0.3254183232784271,-0.2061060070991516,-0.9228343367576599,0.0167294442653656,-0.024515286087989807,0.007398545742034912,0.9805170986943719,0.10479159919981598,0.16613713999141613,0.0018241001937177445
1681247186639941600,3.109941650390625,-0.09575549513101578,-0.06763408333063126,-0.001619865419343114,0.32451608777046204,-0.2049468457698822,-0.9234099984169006,0.01592269539833069,-0.024346932768821716,0.011010706424713135,0.9806636321484392,0.10417069119324364,0.16566066092679926,0.0019136339219030184
1681247186654974700,3.124974609375,-0.07862626016139984,-0.05267590656876564,0.0023740772157907486,0.32384416460990906,-0.20393477380275726,-0.9238699078559875,0.005608290433883667,-0.013045147061347961,0.011867344379425049,0.980780729410908,0.10362990888562802,0.16530548324009245,0.001991287047095828
1681247186670006800,3.1400068359375,-0.04459814354777336,-0.030359946191310883,0.0017612839583307505,0.3233480155467987,-0.20314975082874298,-0.9242165684700012,0.0023355484008789062,-0.0020198673009872437,0.010581254959106445,0.9808690192401226,0.10320946631263825,0.16504401576839745,0.0020595147631293914
1681247186685039900,3.155039794921875,-0.008584056049585342,-0.022538509219884872,0.006422615144401789,0.32310715317726135,-0.20302800834178925,-0.924327552318573,-0.00024649500846862793,0.015528053045272827,0.006099343299865723,0.9808972789011072,0.10313679107678403,0.1649212838941542,0.00210651198085437
1681247186700071700,3.17007177734375,0.0017050663009285927,-0.020757921040058136,0.005337909329682589,0.3228810429573059,-0.20313918590545654,-0.9243820905685425,0.0023447275161743164,0.014174386858940125,0.0059403181076049805,0.9809109515358223,0.10318576843886651,0.16480789826290823,0.0021451651146565673
1681247186715104500,3.1851044921875,-0.0007206471636891365,-0.02241600677371025,0.002036122139543295,0.322733998298645,-0.20342537760734558,-0.924370527267456,0.007054150104522705,-0.0011339038610458374,0.006310224533081055,0.9809080278651349,0.10333131597301258,0.16473425872122766,0.002149953933688063
1681247186730136600,3.200136474609375,-0.0176737979054451,-0.02259070798754692,0.0037083211354911327,0.32249003648757935,-0.20344021916389465,-0.9244524240493774,0.006092667579650879,-0.010838910937309265,0.005491793155670166,0.9809288293340542,0.10333386555638766,0.16460836833711087,0.0021684158356437546
1681247186745169700,3.215169677734375,-0.0414305254817009,-0.01927826926112175,0.008609335869550705,0.3222576081752777,-0.20315833389759064,-0.9245954155921936,0.0034869611263275146,-0.01853656768798828,0.0041089653968811035,0.9809652182103068,0.10317365730643799,0.16449156428191,0.002245709743558205
1681247186760201700,3.23020166015625,-0.059414587914943695,-0.01275432389229536,0.009315073490142822,0.32203224301338196,-0.20248693227767944,-0.9248211979866028,0.0026442110538482666,-0.019253745675086975,0.004411041736602783,0.9810225358300899,0.10280791156892442,0.16437737711666345,0.002351816770243216
1681247186775234800,3.24523486328125,-0.07361775636672974,-0.006679919548332691,0.0160459466278553,0.3218934237957001,-0.20149214565753937,-0.9250867366790771,-0.0013215839862823486,-0.02127087116241455,0.0060803890228271484,0.981089727189969,0.10226755874228789,0.16431057034347246,0.0025100173217364246
1681247186790266600,3.2602666015625,-0.07180414348840714,0.0035751149989664555,0.015228357166051865,0.32186684012413025,-0.20050621032714844,-0.9253102540969849,-0.0003794729709625244,-0.01949496567249298,0.008318006992340088,0.9811461936056755,0.10172508198593762,0.16430731438486235,0.002713987271635398
1681247186805299500,3.275299560546875,-0.05759671330451965,0.010985094122588634,0.016678180545568466,0.3220083713531494,-0.19976356625556946,-0.9254215955734253,0.00016564130783081055,-0.01189105212688446,0.010809779167175293,0.9811738955733933,0.10130791310666781,0.16439558398714763,0.0029264870106718577
1681247186820331500,3.29033154296875,-0.042801257222890854,0.014947345480322838,0.03236526623368263,0.32213371992111206,-0.19927608966827393,-0.9254830479621887,0.00046753883361816406,-0.0062902867794036865,0.00916224718093872,0.9811887932807024,0.1010150835812998,0.16448227627345488,0.0031807276431767965
1681247186835364600,3.305364501953125,-0.03372834622859955,0.010633024387061596,0.03307739272713661,0.3222489655017853,-0.19912469387054443,-0.925475537776947,0.004197478294372559,-0.002428591251373291,0.0077967047691345215,0.9811857379535203,0.10088592516884987,0.16457298625897546,0.0034909583118195127
1681247186850396700,3.320396728515625,-0.04089651256799698,0.021713372319936752,0.045667488127946854,0.32232940196990967,-0.19893263280391693,-0.9254888296127319,0.0034151673316955566,-0.008235901594161987,0.007504820823669434,0.9811879933470851,0.10073450243821531,0.16464552287233739,0.0038071450756643286
1681247186865429800,3.3354296875,-0.06079959124326706,-0.01317510288208723,0.03982105106115341,0.32217690348625183,-0.19868513941764832,-0.9255951046943665,0.009427040815353394,-0.01536509394645691,0.00599360466003418,0.981213048387391,0.10052173949934788,0.1646142075118359,0.004309049574454895
1681247186880461600,3.350461669921875,-0.065493144094944,0.046585965901613235,0.05317041277885437,0.32233479619026184,-0.19810634851455688,-0.9256641864776611,0.007926374673843384,-0.025892630219459534,0.010304629802703857,0.9812288888012938,0.10016337391273664,0.16472770882636636,0.004674237837929637
1681247186895494700,3.36549462890625,-0.07487445324659348,0.09099018573760986,0.07897910475730896,0.32317233085632324,-0.19760073721408844,-0.9254801869392395,-0.016882717609405518,-0.012085497379302979,0.003742516040802002,0.9811786229389305,0.09979478797087127,0.16522984771937607,0.005349267144485777
1681247186910526500,3.3805263671875,-0.07425819337368011,0.07308787852525711,0.05857662856578827,0.32417917251586914,-0.1968856155872345,-0.9252804517745972,-0.010977327823638916,-0.010542318224906921,0.004702448844909668,0.9811239467472139,0.09932099089110684,0.16581650018854616,0.006010284280108351
1681247186925559600,3.3955595703125,-0.06644575297832489,0.02031095139682293,0.02350146695971489,0.32477712631225586,-0.19616931676864624,-0.9252228736877441,0.018362462520599365,-0.016049876809120178,0.01338815689086914,0.981106514819425,0.09888391196431148,0.1661641535344943,0.0064334583097821136
1681247186940591600,3.410591552734375,-0.05803176760673523,-0.013904809020459652,0.014551913365721703,0.3246777355670929,-0.19547349214553833,-0.9254050254821777,0.02580133080482483,-0.01573862135410309,0.013082027435302734,0.981151593797071,0.09849075791290703,0.16612361206734433,0.006635905052314462
1681247186955624700,3.425624755859375,-0.05627264454960823,-0.00634089857339859,0.020883578807115555,0.3245072066783905,-0.19498157501220703,-0.9255686402320862,0.01805254817008972,-0.004618600010871887,0.009995460510253906,0.9811918058503898,0.09819946477533865,0.16604985523434773,0.006855034999579816
1681247186970656500,3.440656494140625,-0.06546039134263992,0.010929700918495655,0.030392661690711975,0.32444795966148376,-0.19441431760787964,-0.9257087111473083,0.01022300124168396,-0.0026986896991729736,0.007053256034851074,0.981225501697999,0.09785923307467187,0.1660397993312926,0.007137928244160061
1681247186985689600,3.455689697265625,-0.09180080890655518,0.008166937157511711,0.032979123294353485,0.3243842124938965,-0.19362670183181763,-0.9258961081504822,0.008425146341323853,-0.01769222319126129,0.008308827877044678,0.9812706080423191,0.09739446475888987,0.16603092341009631,0.007486690687223742
1681247187000722700,3.47072265625,-0.12909919023513794,-0.005005056969821453,0.03386515751481056,0.3243469297885895,-0.19234783947467804,-0.9261756539344788,0.013680964708328247,-0.02328932285308838,0.01092296838760376,0.9813388024658072,0.09667150154926654,0.16603248884298014,0.007868494211675282
1681247187015754800,3.485754638671875,-0.15421512722969055,-0.006444229744374752,0.04125915840268135,0.3243653178215027,-0.1906944364309311,-0.9265110492706299,0.013326883316040039,-0.027384132146835327,0.009549379348754883,0.981420566007794,0.09574499849670932,0.16606431570777097,0.008316708070760594
1681247187030787600,3.50078759765625,-0.18459008634090424,-0.006263667717576027,0.040621329098939896,0.3242613971233368,-0.18859852850437164,-0.9269763231277466,0.011096209287643433,-0.028869688510894775,0.008168339729309082,0.9815346201000889,0.09458014062260017,0.16603140572751318,0.008827116639838649
1681247187045819600,3.515819580078125,-0.19832459092140198,0.0004799892194569111,0.04042532294988632,0.3242367208003998,-0.186225026845932,-0.9274647235870361,0.007001012563705444,-0.02103506028652191,0.009465456008911133,0.9816540965197476,0.09326908821796627,0.16603770127383644,0.009362495507483902
1681247187060852500,3.5308525390625,-0.21856115758419037,0.002342071384191513,0.046987615525722504,0.3241802453994751,-0.18362799286842346,-0.928002119064331,0.006630241870880127,-0.019237563014030457,0.010079145431518555,0.9817851470314355,0.09183432645362678,0.16602829744184283,0.009952652229764146
1681247187075884500,3.545884521484375,-0.23562046885490417,0.009919829666614532,0.04397185519337654,0.32425159215927124,-0.18095995485782623,-0.9285011887550354,0.006482601165771484,-0.019571006298065186,0.012332916259765625,0.9819055070294761,0.09035567357976425,0.16608814415711956,0.010592216023301437
1681247187090917600,3.560917724609375,-0.24323208630084991,0.012522270902991295,0.05150220915675163,0.3243345320224762,-0.17799803614616394,-0.9290446043014526,0.005392581224441528,-0.026500210165977478,0.01656895875930786,0.982036390411404,0.08872110879778665,0.16615136495758748,0.011264803097747847
1681247187105949700,3.57594970703125,-0.24636030197143555,0.030562523752450943,0.05125293508172035,0.32459503412246704,-0.17517080903053284,-0.929490864276886,0.004979491233825684,-0.03276066482067108,0.02119612693786621,0.9821412141151565,0.08714595852793477,0.1663134213626095,0.012000034633764735
1681247187120982500,3.590982421875,-0.26216748356819153,0.016322068870067596,0.031586289405822754,0.32486778497695923,-0.17207695543766022,-0.9299733638763428,0.006492018699645996,-0.0357477068901062,0.020793676376342773,0.9822556458071429,0.08544564080883046,0.16647030698450915,0.012668997809391189
1681247187136014600,3.6060146484375,-0.28203925490379333,0.0037442257162183523,-0.0090495515614748,0.325011670589447,-0.16860564053058624,-0.9305587410926819,0.012787312269210815,-0.024128064513206482,0.022523462772369385,0.9823989422910603,0.08359236960661301,0.16653213444841303,0.013101164062369428
1681247187151047700,3.621047607421875,-0.2832084596157074,-0.01455462072044611,-0.050168227404356,0.3249799609184265,-0.16460047662258148,-0.9312865734100342,0.012025594711303711,-0.020595401525497437,0.01609492301940918,0.9825824306652698,0.08151765898818611,0.16646795143734738,0.013230287828364558
1681247187166079500,3.63607958984375,-0.2462814599275589,-0.007200300693511963,-0.08914092928171158,0.32505324482917786,-0.16086669266223907,-0.9319132566452026,0.0043381452560424805,-0.00391291081905365,0.0007303953170776367,0.9827440501362957,0.0796331998725704,0.16643897637253321,0.013063597711760948
1681247187181112600,3.651112548828125,-0.16528300940990448,0.011278308928012848,-0.09931899607181549,0.32533398270606995,-0.15766003727912903,-0.9323632121086121,0.0005631744861602783,0.01170976459980011,-0.005808234214782715,0.9828643484215804,0.07806592395777175,0.16650560233775086,0.012623022818556469
1681247187196144600,3.66614453125,-0.08105618506669998,0.02705727145075798,-0.0899910107254982,0.32586219906806946,-0.15580837428569794,-0.9324899911880493,-0.0036271512508392334,0.03195282816886902,-0.007741332054138184,0.9829031511579343,0.07720640205277897,0.1667158507167602,0.012103051464552228
1681247187211177500,3.681177490234375,-0.04243938624858856,0.034542083740234375,-0.08822160214185715,0.3265220522880554,-0.15464842319488525,-0.9324522614479065,-0.004103958606719971,0.02916020154953003,0.00044542551040649414,0.9829002149021427,0.0767078260728995,0.16700234389310173,0.011545195612583622
1681247187226209500,3.69620947265625,-0.07667011022567749,0.03649098798632622,-0.10123860090970993,0.32728418707847595,-0.1535899043083191,-0.9323599934577942,-0.0005936026573181152,-0.012822389602661133,0.01292639970779419,0.9828835202942617,0.07626819046774296,0.16734144892358108,0.010948916953489261
1681247187241242600,3.71124267578125,-0.17148956656455994,0.04998921975493431,-0.14117802679538727,0.328154981136322,-0.15132008492946625,-0.9324250817298889,-0.002517223358154297,-0.04260380566120148,0.015387117862701416,0.9829076283693645,0.07522626926019192,0.1677154355960414,0.01025290781838057
1681247187256274700,3.726274658203125,-0.2823180854320526,0.05118364840745926,-0.19547614455223083,0.32922089099884033,-0.1473519504070282,-0.9326848387718201,-0.00517001748085022,-0.07393096387386322,0.01908010244369507,0.9829829771980058,0.0733565165846423,0.1681558772373433,0.009323308202906163
1681247187271307800,3.741307861328125,-0.3689664304256439,0.054160263389348984,-0.25874486565589905,0.33043885231018066,-0.14161717891693115,-0.933142364025116,-0.00881415605545044,-0.06846578419208527,0.020010650157928467,0.9831101221392599,0.07063614235771186,0.16863967705939978,0.008097036279881353
1681247187286339600,3.756339599609375,-0.36538469791412354,0.04542376101016998,-0.3280634880065918,0.33172065019607544,-0.1348116397857666,-0.9336954951286316,-0.0056098997592926025,-0.03710909187793732,0.008234620094299316,0.9832631520721695,0.06744745827191069,0.16912453153567242,0.006428524322848947
1681247187301372400,3.771372314453125,-0.2580965757369995,0.039302486926317215,-0.3683496415615082,0.3330514430999756,-0.12855727970600128,-0.9341037273406982,-0.001447528600692749,-0.002698764204978943,0.0018985271453857422,0.9833786646161554,0.06462786847370741,0.16962127949435424,0.004274062116555776
1681247187316404500,3.786404541015625,-0.09512512385845184,0.025577086955308914,-0.3951527774333954,0.33425620198249817,-0.12418647110462189,-0.9342647194862366,0.007220178842544556,0.08492565155029297,-0.004181385040283203,0.9834274598661529,0.06285041059638384,0.17005140703043825,0.0016725279267603807
1681247187331437600,3.8014375,0.0362510047852993,0.0004688040353357792,-0.41268569231033325,0.3351815938949585,-0.1217270940542221,-0.9342567920684814,0.00899556279182434,0.10266891866922379,-0.0006492137908935547,0.9834259650928207,0.062110935352001594,0.17033445595635094,-0.0012795898977749926
1681247187346469600,3.8164697265625,0.08367423713207245,-0.0014505358412861824,-0.4435858130455017,0.3359107971191406,-0.1204654723405838,-0.934158444404602,0.0071830153465271,0.06205487251281738,0.0032655000686645508,0.9833914511907947,0.06203514319117465,0.17050634483878127,-0.0045282315491432185
1681247187361502700,3.831502685546875,0.0772634744644165,0.003473116084933281,-0.4336194694042206,0.3367626368999481,-0.11941292881965637,-0.9339869022369385,0.0017230212688446045,0.026929445564746857,0.003307521343231201,0.9833265182596787,0.06209106038452544,0.17073740472473822,-0.007902909330744706
1681247187376534800,3.84653466796875,0.028636496514081955,0.021386336535215378,-0.37914156913757324,0.3376626968383789,-0.11814138293266296,-0.9338235855102539,0.004118859767913818,-0.022025808691978455,-0.00019741058349609375,0.9832556379098549,0.06198266483853203,0.17101564258130017,-0.010958715067125958
1681247187391567600,3.861567626953125,0.01760893315076828,0.033947668969631195,-0.32721421122550964,0.3386751711368561,-0.11660479009151459,-0.9336500763893127,0.0052731335163116455,-0.02937600016593933,-0.00005054473876953125,0.9831787408551975,0.06166721734072941,0.17138297276783315,-0.013580697073259583
1681247187406599400,3.876599365234375,0.026187719777226448,0.04644348844885826,-0.23717325925827026,0.33969882130622864,-0.11539369821548462,-0.9334286451339722,0.004371523857116699,-0.026650317013263702,0.006319880485534668,0.9830909060573101,0.06143327748987941,0.17178951041406346,-0.01570320268317254
1681247187421632500,3.891632568359375,0.04693986847996712,0.048751648515462875,-0.12239208817481995,0.3406592011451721,-0.11497753858566284,-0.9331299662590027,0.008416056632995605,-0.016415849328041077,0.00531923770904541,0.9829926686040845,0.06146886457747206,0.1722109447077619,-0.017041149609272725
1681247187436664600,3.90666455078125,0.03366054967045784,0.04858147352933884,-0.0701398029923439,0.34145429730415344,-0.11506935209035873,-0.9328279495239258,0.014136463403701782,-0.008969299495220184,0.007763862609863281,0.9829032475499745,0.06165225582162183,0.1725833722761335,-0.017750997498649307
1681247187451697700,3.92169775390625,0.010414987802505493,0.04179786890745163,-0.026707375422120094,0.34219589829444885,-0.11517193168401718,-0.9325435161590576,0.010495692491531372,-0.015916287899017334,0.003588438034057617,0.9828245366484907,0.06177833944116546,0.17294993549100243,-0.0181052480347259
1681247187466729700,3.936729736328125,-0.04581473022699356,0.02307318150997162,0.001995109487324953,0.34264230728149414,-0.11489813029766083,-0.9324133396148682,0.016763150691986084,-0.03515675663948059,0.007929086685180664,0.9827905968019732,0.061653396774646166,0.1731824887855043,-0.018150287039392057
1681247187481762600,3.951762451171875,-0.10171741247177124,0.007924855686724186,0.018173012882471085,0.3428579270839691,-0.11389810591936111,-0.9324567914009094,0.01616603136062622,-0.041955120861530304,0.008979618549346924,0.9828049443139775,0.06111352770748611,0.17331111860434312,-0.017965524563262395
1681247187496794600,3.966794677734375,-0.1503855586051941,-0.01627235859632492,0.030405711382627487,0.34278225898742676,-0.11237398535013199,-0.9326695203781128,0.01860681176185608,-0.04299096763134003,0.007147610187530518,0.9828656936061511,0.06026966573145559,0.17329978910288377,-0.01759952592492201
1681247187511827700,3.98182763671875,-0.1771440953016281,-0.03264840319752693,0.040676459670066833,0.34242600202560425,-0.11033167690038681,-0.9330441355705261,0.01942083239555359,-0.03870087116956711,0.008010566234588623,0.9829694313640261,0.05913691224171742,0.17314953541984981,-0.017117806296901125
1681247187526859500,3.996859619140625,-0.17681242525577545,-0.04196467250585556,0.044463738799095154,0.34192514419555664,-0.10822807997465134,-0.933474063873291,0.015710294246673584,-0.021120630204677582,0.0020165443420410156,0.9830881429714421,0.057959793165141556,0.17292663524485308,-0.01657088113020615
1681247187541892600,4.011892578125,-0.17447683215141296,-0.03506255894899368,0.047904811799526215,0.3413268029689789,-0.10611490905284882,-0.9339355230331421,0.013058483600616455,-0.014978788793087006,0.0027832388877868652,0.9832145929463736,0.056776621625330134,0.1726517872704693,-0.016021538764714998
1681247187556924700,4.026924560546875,-0.17224600911140442,-0.030367404222488403,0.04974319040775299,0.3409048318862915,-0.10434034466743469,-0.9342895746231079,0.005698472261428833,-0.003203563392162323,0.005929529666900635,0.9833141533643793,0.0557610314981376,0.17247008760597918,-0.015425517096939984
1681247187571957500,4.04195751953125,-0.17350760102272034,-0.0214516744017601,0.043572112917900085,0.3405252993106842,-0.10236498713493347,-0.9346464276313782,0.004552125930786133,-0.0035004466772079468,0.006637394428253174,0.9834136924021697,0.05464774329751379,0.17230908117075838,-0.014850327052081497
1681247187586989600,4.056989501953125,-0.1749245673418045,-0.015540256164968014,0.04769362136721611,0.3403680920600891,-0.10057885199785233,-0.9348976016044617,0.0028325319290161133,-0.00539340078830719,0.0063391923904418945,0.9834863525529485,0.05363207214007279,0.1722637926212104,-0.01426292846783667
1681247187602022700,4.072022705078125,-0.17690862715244293,-0.01323102880269289,0.046505849808454514,0.3401831090450287,-0.09850252419710159,-0.9351859092712402,0.004619687795639038,-0.004799440503120422,0.004628658294677734,0.9835677502381722,0.052469824794973946,0.17220326407084946,-0.013683630838787689
1681247187617054700,4.0870546875,-0.1919645369052887,-0.007405630312860012,0.047784700989723206,0.34007930755615234,-0.09638883918523788,-0.9354438781738281,0.006646096706390381,-0.003647744655609131,0.003528594970703125,0.9836413917519069,0.05128804028459519,0.17218478185867225,-0.013094185711888107
1681247187632087800,4.102087890625,-0.20625340938568115,0.00029010558500885963,0.05108009651303291,0.3399805426597595,-0.09392566978931427,-0.9357302784919739,0.007660359144210815,-0.006644971668720245,0.004104912281036377,0.9837222314525248,0.04992334957064429,0.17217001225202602,-0.01247529941504378
1681247187647119600,4.11711962890625,-0.2183361053466797,0.019316259771585464,0.05953643098473549,0.3401101231575012,-0.09137313812971115,-0.935935914516449,0.003380388021469116,-0.014950059354305267,0.005210816860198975,0.9837830836871161,0.048502848331408895,0.1722774302598664,-0.011781652263663456
1681247187662152400,4.13215234375,-0.2128223031759262,0.033590272068977356,0.06386326998472214,0.34042832255363464,-0.0886966735124588,-0.9360777139663696,0.001261681318283081,-0.018511533737182617,0.0035977959632873535,0.9838278181069006,0.047011038452045614,0.17248511041344314,-0.011029527362131137
1681247187677184500,4.1471845703125,-0.20239746570587158,0.03602919355034828,0.07250656187534332,0.34085729718208313,-0.08626372367143631,-0.9361489415168762,0.0013362467288970947,-0.008554346859455109,0.0021279454231262207,0.9838544805250089,0.04563742896100584,0.17275052802802487,-0.0102386246559628
1681247187692217600,4.162217529296875,-0.17195972800254822,0.03444541245698929,0.07281868159770966,0.3413082957267761,-0.08406016230583191,-0.9361851215362549,0.0021822452545166016,0.0003047063946723938,0.0032779574394226074,0.9838715890658908,0.044380157015099786,0.17302558513381622,-0.009445385236106664
1681247187707249200,4.177249267578125,-0.14703375101089478,0.034915726631879807,0.07643631845712662,0.34174683690071106,-0.08239081501960754,-0.9361734986305237,0.002186208963394165,0.0073023587465286255,0.004960119724273682,0.9838758631761805,0.04339438762870257,0.1732921649453582,-0.008651770401563393
1681247187722282200,4.1922822265625,-0.13586366176605225,0.03423022851347923,0.07179149985313416,0.34215113520622253,-0.08087293058633804,-0.9361581802368164,0.0009121894836425781,0.005555585026741028,0.004975318908691406,0.9838783519122648,0.04249277910028019,0.17353750211149227,-0.007901809314325364
1681247187737314300,4.207314208984375,-0.1266682893037796,0.027909748256206512,0.06641031801700592,0.34250861406326294,-0.07959229499101639,-0.9361371994018555,0.00026476383209228516,-0.0030034855008125305,0.005167961120605469,0.9838784364921095,0.04171822790287885,0.17375551508592155,-0.007191228180818505
1681247187752347100,4.22234716796875,-0.11824312061071396,0.023605015128850937,0.0642680674791336,0.342803418636322,-0.07832949608564377,-0.9361358284950256,0.0007176101207733154,-0.003457576036453247,0.0025725960731506348,0.9838827682477576,0.040961245030825544,0.17393751282316094,-0.006532883999659842
1681247187767379000,4.23737890625,-0.12251530587673187,0.0203210711479187,0.05691401660442352,0.34303444623947144,-0.07703221589326859,-0.9361588358879089,0.001600503921508789,0.000036403536796569824,0.0044419169425964355,0.983892495709287,0.04019364699871756,0.17408343368816928,-0.0059173874414580946
1681247187782412000,4.252412109375,-0.10815741121768951,0.02386733889579773,0.0582895390689373,0.3432682156562805,-0.0756867304444313,-0.9361829161643982,0.003792881965637207,-0.0003782883286476135,0.0021771788597106934,0.9839019512839627,0.03940593021956341,0.1742289162652719,-0.00532752033929754
1681247187797444000,4.267444091796875,-0.08766476064920425,0.02687564492225647,0.057288724929094315,0.3435903787612915,-0.0746195986866951,-0.9361503720283508,0.0008004307746887207,-0.0071674734354019165,0.00614243745803833,0.983896587129364,0.03876486764244252,0.1744192914660599,-0.004763359853736893
1681247187812477200,4.282477294921875,-0.06182575970888138,0.03577006980776787,0.05328412726521492,0.34398898482322693,-0.07386733591556549,-0.9360636472702026,0.0008748471736907959,-0.005814023315906525,0.009275317192077637,0.9838769109009352,0.038290800855630344,0.1746481662834067,-0.004235761307067032
1681247187827509200,4.29750927734375,-0.053061455488204956,0.03437856584787369,0.048509880900382996,0.34444764256477356,-0.07342761009931564,-0.9359295964241028,0.0034831762313842773,-0.0010352358222007751,0.006089508533477783,0.9838447874944223,0.037984789102750514,0.17490672624294826,-0.003758190742305275
1681247187842542000,4.3125419921875,-0.05018896982073784,0.02656431868672371,0.04265918210148811,0.3448304235935211,-0.07298290729522705,-0.9358234405517578,0.005175590515136719,-0.0010069161653518677,0.008790969848632812,0.9838193474522482,0.03768828509053923,0.17512247656718866,-0.003352002883800647
1681247187857574100,4.32757421875,-0.05774979293346405,0.018647808581590652,0.029619544744491577,0.34514307975769043,-0.07243240624666214,-0.9357509016990662,0.008967578411102295,-0.007889822125434875,0.006643235683441162,0.9838019907593898,0.03734848514392207,0.17529868705928534,-0.003008069593653204
1681247187872607200,4.342607177734375,-0.07006978988647461,0.016679465770721436,0.020876388996839523,0.3453889787197113,-0.07173117995262146,-0.9357142448425293,0.009438842535018921,-0.009872779250144958,0.0032953619956970215,0.9837935468098872,0.03694464555804705,0.17543654169318468,-0.002737820577564484
1681247187887639000,4.35763916015625,-0.08574627339839935,0.008152822963893414,0.01249009370803833,0.34551844000816345,-0.07082413882017136,-0.9357355237007141,0.010484308004379272,-0.007270298898220062,0.003240346908569336,0.9837995535761991,0.03644055680248674,0.17551161672092758,-0.002496328901763923
1681247187902672100,4.372672119140625,-0.08390869200229645,0.0006618830375373363,0.005944311153143644,0.3455672562122345,-0.06970740109682083,-0.9358013272285461,0.009733587503433228,-0.007837720215320587,0.0025127530097961426,0.9838166818129275,0.035840632770765116,0.17554139624519519,-0.0023180434807245943
1681247187917704200,4.3877041015625,-0.07832574844360352,-0.006729453802108765,0.00578159186989069,0.34557870030403137,-0.06865948438644409,-0.9358745813369751,0.009554266929626465,-0.00742078572511673,0.006385445594787598,0.9838356165328127,0.03527853935379384,0.17555095763462022,-0.0021562999781195593
1681247187932737000,4.402737060546875,-0.05026635900139809,0.0016054408624768257,0.007576295640319586,0.34558266401290894,-0.06782302260398865,-0.9359341263771057,0.007459849119186401,-0.004549369215965271,0.009054243564605713,0.9838510515268751,0.034828337001866876,0.17555606733781284,-0.0020186415774274104
1681247187947770000,4.41777001953125,-0.02958180196583271,0.008088906295597553,0.010150773450732231,0.34572893381118774,-0.06745082139968872,-0.9359070062637329,0.0017441213130950928,0.002250067889690399,0.00803530216217041,0.9838445078046014,0.03461535750943272,0.17563678366469515,-0.0018829774726971027
1681247187962802200,4.43280224609375,0.0005731697892770171,0.0229533389210701,0.01694609597325325,0.34597963094711304,-0.06736564636230469,-0.935820460319519,0.0017986297607421875,0.003324553370475769,0.008559107780456543,0.983822721234577,0.034549086776047136,0.1757729288702733,-0.0017485901065717635
1681247187977835300,4.447835205078125,0.003852160181850195,0.02543434128165245,0.01531783863902092,0.34635674953460693,-0.06760947406291962,-0.9356634020805359,0.0009179413318634033,-0.0015128031373023987,0.006860852241516113,0.9837830438229828,0.03464913399474871,0.17597656324889097,-0.0016052973146171864
1681247187992867300,4.462867431640625,-0.005684087052941322,0.0256817489862442,0.013009943068027496,0.3467472195625305,-0.06772895902395248,-0.9355100989341736,0.003426671028137207,-0.004200935363769531,0.004189908504486084,0.9837442824642023,0.03469158071393436,0.1761858238171566,-0.0014936857686702939
1681247188007900000,4.47789990234375,-0.028699923306703568,0.009611436165869236,0.005585050676018,0.34703516960144043,-0.06759991496801376,-0.9354126453399658,0.006846606731414795,-0.008968658745288849,-0.0001952648162841797,0.9837196315646736,0.03461054737237916,0.17633995936830132,-0.0014013793098120418
1681247188022932000,4.492931884765625,-0.06151805818080902,0.00005521485581994057,0.0032193646766245365,0.34712737798690796,-0.06699579954147339,-0.935421884059906,0.008493900299072266,-0.01312805712223053,-0.00006395578384399414,0.9837220913001158,0.03428777647833087,0.1763899031425239,-0.0013138220255332074
1681247188037965000,4.507965087890625,-0.08822236955165863,0.0004432373680174351,0.003773301839828491,0.34714198112487793,-0.0659487172961235,-0.9354909062385559,0.006602436304092407,-0.01702854037284851,0.002354919910430908,0.9837397592294783,0.03373276744428227,0.17639914721127378,-0.001189955446990343
1681247188052997000,4.5229970703125,-0.10284930467605591,0.00607049698010087,0.008149141445755959,0.3472054898738861,-0.06461961567401886,-0.9355600476264954,0.002480119466781616,-0.01783882826566696,0.003919422626495361,0.9837575779524222,0.03302688719522869,0.17643465780785517,-0.0010238455520093868
1681247188068030200,4.5380302734375,-0.1009811982512474,0.00775201665237546,0.02157839760184288,0.3472905158996582,-0.06324497610330582,-0.9356224536895752,0.0022272467613220215,-0.011645115911960602,0.007781267166137695,0.9837736657194002,0.032286601843238664,0.17648328565419488,-0.0007945206233599829
1681247188083062300,4.553062255859375,-0.08210311830043793,0.012651700526475906,0.027153458446264267,0.3473982810974121,-0.06215405836701393,-0.9356555342674255,0.0019211173057556152,-0.004282675683498383,0.006410539150238037,0.9837822590191317,0.031673242529091275,0.17654753360308045,-0.00046755310910050874
1681247188098095000,4.56809521484375,-0.07285965979099274,0.016188912093639374,0.030742067843675613,0.3476097285747528,-0.06135198846459389,-0.9356299638748169,-0.0001671910285949707,0.008098848164081573,0.003546774387359619,0.9837758514247357,0.03120907844994716,0.17666640435933204,-0.0001513820219551721
1681247188113127200,4.583127197265625,-0.07530971616506577,0.024641253054142,0.03524254262447357,0.34788447618484497,-0.060592200607061386,-0.9355773329734802,0.001007676124572754,0.006347250193357468,0.004180848598480225,0.9837624641179293,0.0307604442487803,0.17681945594895243,0.00019867143709310277
1681247188128160000,4.598159912109375,-0.10110078006982803,0.036104295402765274,0.03557863458991051,0.3482956886291504,-0.05972430109977722,-0.9354801177978516,-0.0011430680751800537,-0.0013108067214488983,0.003183424472808838,0.9837375545211142,0.030249215252013732,0.17704494684607752,0.0005922848573342019
1681247188143192000,4.613192138671875,-0.14269483089447021,0.041162703186273575,0.03163422644138336,0.348810613155365,-0.05830322951078415,-0.9353779554367065,-0.0009407997131347656,-0.004471387714147568,0.0036457180976867676,0.9837113081104508,0.029451462933827614,0.17732354457993615,0.0010143996358626842
1681247188158225200,4.62822509765625,-0.18051688373088837,0.036592185497283936,0.02741711214184761,0.3493408262729645,-0.0562594048678875,-0.9353052377700806,-0.00043341517448425293,-0.011352252215147018,0.006380677223205566,0.9836922389852707,0.028332874593656455,0.1776080931434467,0.001457556637829378
1681247188173257200,4.64325732421875,-0.1830473691225052,0.0428125336766243,0.024137696251273155,0.3498986065387726,-0.05383744463324547,-0.9352392554283142,0.0003820955753326416,-0.011805828660726547,0.006741940975189209,0.9836747115980689,0.02701996572407427,0.17790527534454384,0.0019103727033001534
1681247188188290000,4.6582900390625,-0.15576839447021484,0.03813948482275009,0.03932090848684311,0.3504396378993988,-0.05159812048077583,-0.9351629018783569,0.001366943120956421,-0.004340562969446182,0.006482481956481934,0.98365422706347,0.02579766835479558,0.17819378063456967,0.002374243075021974
1681247188203322000,4.673322021484375,-0.11628809571266174,0.04263782873749733,0.050917912274599075,0.35100695490837097,-0.04997555539011955,-0.9350382685661316,0.0030426383018493652,-0.00005797296762466431,0.007303893566131592,0.9836211401149567,0.02487541528576689,0.17849953186674172,0.002912013329806851
1681247188218355200,4.688355224609375,-0.09193471074104309,0.03361237421631813,0.03718212619423866,0.35152557492256165,-0.048842448741197586,-0.9349033236503601,0.004492431879043579,0.002638883888721466,0.006146550178527832,0.9835852823868224,0.02421293567575051,0.1787794354990084,0.003388178680695344
1681247188233387300,4.70338720703125,-0.06646817922592163,0.01869281381368637,0.0284285806119442,0.35188448429107666,-0.04801927134394646,-0.9348109364509583,0.0062392354011535645,0.0022276826202869415,0.008083581924438477,0.9835606080846604,0.02372896173761973,0.17897338772643018,0.0037478368369326985
1681247188248420000,4.718420166015625,-0.05413460358977318,0.005743993446230888,0.026558509096503258,0.35201016068458557,-0.04749252647161484,-0.9347904920578003,0.008753329515457153,-0.00008433684706687927,0.003317713737487793,0.9835541470634264,0.023404824315052194,0.1790445663092737,0.004056815449201777
1681247188263452200,4.7334521484375,-0.0645291805267334,-0.011643785052001476,0.02439868450164795,0.35195547342300415,-0.04686781018972397,-0.9348426461219788,0.010654330253601074,-0.0035166777670383453,0.0005775094032287598,0.9835663276757403,0.023038666731477524,0.17901926438989252,0.004322708749845659
1681247188278485000,4.748485107421875,-0.08994165807962418,-0.010120990686118603,0.025047963485121727,0.3517889976501465,-0.045972079038619995,-0.9349497556686401,0.00541919469833374,-0.011141523718833923,0.00022685527801513672,0.9835921132456851,0.02252880853153247,0.1789345436065451,0.004621137142501944
1681247188293517000,4.76351708984375,-0.09378357976675034,0.00427765678614378,0.022275613620877266,0.35173627734184265,-0.044842611998319626,-0.9350244998931885,0.0025880038738250732,-0.015902582556009293,0.004863917827606201,0.9836097605887897,0.021899593688059597,0.17890827913154,0.004922367398183628
1681247188308550100,4.778550048828125,-0.10051365941762924,0.01080399937927723,0.022564832121133804,0.3518771529197693,-0.043577343225479126,-0.9350312948226929,-0.0007572174072265625,-0.014665413647890091,0.0036957859992980957,0.9836099922059722,0.021204084592924975,0.17898252721534055,0.005207892023541699
1681247188323582200,4.793582275390625,-0.10069075971841812,0.017029138281941414,0.022269487380981445,0.35209664702415466,-0.04228072240948677,-0.93500816822052,0.0011442601680755615,-0.009583864361047745,0.0070143938064575195,0.9836023819399204,0.020487914499527138,0.17909816815678287,0.005518756659702876
1681247188338615300,4.808615234375,-0.09396909922361374,0.014981700107455254,0.014310365542769432,0.3523460924625397,-0.04104030504822731,-0.9349694848060608,0.002207040786743164,-0.00321013480424881,0.008242189884185791,0.9835908459665363,0.019805570656199662,0.17922891807492608,0.005800256578032241
1681247188353648000,4.823648193359375,-0.07944981008768082,0.014850672334432602,0.011463180184364319,0.3525997996330261,-0.039949748665094376,-0.9349210858345032,0.0012056827545166016,-0.0007301419973373413,0.007888615131378174,0.9835773439096156,0.019213238322910185,0.1793608614768714,0.006005596854534141
1681247188368680000,4.838679931640625,-0.05057059973478317,0.019796429201960564,0.01669256202876568,0.35283440351486206,-0.039232611656188965,-0.9348629117012024,0.0036871135234832764,0.004656236618757248,0.006243526935577393,0.983561346534216,0.018811232529091722,0.17948447881186846,0.006208357997695143
1681247188383713000,4.853713134765625,-0.020121615380048752,0.029255446046590805,0.01225174218416214,0.3531683087348938,-0.03891628608107567,-0.9347500801086426,0.0028954744338989258,0.007574781775474548,0.0017055869102478027,0.9835315661202219,0.018617690323894227,0.17966176059678984,0.006384533499814668
1681247188398745000,4.8687451171875,-0.005089083686470985,0.026589620858430862,0.010855179280042648,0.3535737991333008,-0.03890977427363396,-0.9345970153808594,0.0032071471214294434,0.010940447449684143,0.002040863037109375,0.9834919736980923,0.018593712838692128,0.17987706354263058,0.006493984759806684
1681247188413778200,4.883778076171875,0.005474344827234745,0.022081688046455383,0.01712825521826744,0.3539423942565918,-0.03903643414378166,-0.9344522356987,0.005814015865325928,0.008808817714452744,0.005207180976867676,0.9834544218856799,0.01863871972614861,0.1800735699305502,0.006596668095277725
1681247188428810200,4.898810302734375,0.01071187760680914,0.02241325005888939,0.015941550955176353,0.3542744219303131,-0.039261579513549805,-0.9343169331550598,0.007038384675979614,0.0017097443342208862,0.008245766162872314,0.9834192742193073,0.0187321091247066,0.18025158524383206,0.006708807009384798
1681247188443843000,4.913843017578125,0.0032100186217576265,0.02066994458436966,0.010827483609318733,0.3545953035354614,-0.039493631571531296,-0.9341854453086853,0.007846623659133911,-0.003826029598712921,0.008373618125915527,0.9833852394521856,0.018833645474578373,0.1804233351820414,0.0067956158872218946
1681247188458875100,4.928875244140625,-0.0008897046791389585,0.01171293668448925,0.009522534906864166,0.35481491684913635,-0.03950129449367523,-0.9341017007827759,0.009503871202468872,-0.008701171725988388,0.007313370704650879,0.983363506520006,0.018823749540718103,0.18054030997507078,0.006868601121923501
1681247188473908200,4.943908203125,-0.0023169992491602898,0.012237844988703728,0.010839201509952545,0.3549628257751465,-0.039484310895204544,-0.93404620885849,0.00966113805770874,-0.010167744010686874,0.00576251745223999,0.9833486880196286,0.018800114426034173,0.18061959792460583,0.0069487871441419385
1681247188488940000,4.95893994140625,-0.006710043177008629,0.008024990558624268,0.006585067603737116,0.35515302419662476,-0.03940856456756592,-0.9339771270751953,0.008326530456542969,-0.008900720626115799,0.0036029815673828125,0.9833307131431971,0.01874880352505329,0.18072054061239895,0.007016399446499052
1681247188503973000,4.97397314453125,-0.008266394026577473,0.0062446678057312965,0.008667659014463425,0.3552636504173279,-0.03930237516760826,-0.933939516544342,0.007956475019454956,-0.007831979542970657,0.004328310489654541,0.9833206938922832,0.018684030452326115,0.1807792701401965,0.007073784230754786
1681247188519005200,4.989005126953125,-0.00703569408506155,-0.003055357374250889,0.0070287506096065044,0.35537052154541016,-0.03925474360585213,-0.9339008927345276,0.01102343201637268,-0.008581511676311493,0.004808485507965088,0.9833104557162275,0.018649214556619907,0.18083630547767277,0.007130223743028277
1681247188534038000,5.0040380859375,-0.013849444687366486,-0.008335606195032597,0.0042177834548056126,0.3553585112094879,-0.03918560966849327,-0.9339083433151245,0.01103547215461731,-0.009322047233581543,0.006235003471374512,0.9833119469024737,0.018602653096684078,0.1808307654655322,0.007192324203481516
1681247188549070000,5.019070068359375,-0.025957239791750908,-0.011439519934356213,0.0009956250432878733,0.3552992045879364,-0.03900448605418205,-0.9339385032653809,0.007966727018356323,-0.009030140936374664,0.006631374359130859,0.9833192571715008,0.018502202465319653,0.18079938932291376,0.007238250070699168
1681247188564103200,5.034103271484375,-0.036957692354917526,-0.011035519652068615,-0.0066465819254517555,0.355154812335968,-0.03856820613145828,-0.9340115189552307,0.008278965950012207,-0.011175401508808136,0.004934370517730713,0.9833375421888232,0.018274863178827063,0.18072151855829732,0.007269441926484279
1681247188579135200,5.04913525390625,-0.028758034110069275,-0.008386473171412945,-0.01182083785533905,0.35508719086647034,-0.03814467787742615,-0.9340546727180481,0.005447417497634888,-0.013689380139112473,0.00743412971496582,0.9833487135410645,0.018062271152295858,0.18068323687596233,0.007254842782004474
1681247188594164000,5.0641640625,-0.01567978225648403,-0.0020353663712739944,-0.02264898456633091,0.35506829619407654,-0.03776523470878601,-0.934077262878418,0.00470346212387085,-0.010345734655857086,0.007838249206542969,0.9833813013090642,0.01920172480813086,0.18053439531017715,-1.2232664535789394e-17
1681247188609195800,5.07919580078125,0.004468841478228569,-0.0042143650352954865,-0.021162141114473343,0.3551267683506012,-0.03761656954884529,-0.9340610504150391,0.004553437232971191,-0.00017945095896720886,0.0056552886962890625,0.9833771533356018,0.019153698909313573,0.18056196421544798,-0.00014966927528275463
1681247188624228600,5.094228515625,0.013483908958733082,0.006765315774828196,-0.018291519954800606,0.3551877737045288,-0.03768453374505043,-0.9340351223945618,0.004370361566543579,0.0013838708400726318,0.0038288235664367676,0.9833705715057529,0.019216267942203786,0.1805912188180649,-0.0003014856737610177
1681247188639260700,5.1092607421875,0.018579866737127304,0.008837521076202393,-0.015955662354826927,0.35536301136016846,-0.03792262449860573,-0.9339588284492493,0.004500299692153931,-0.0014603063464164734,0.004561245441436768,0.9833511210811313,0.019364400740500942,0.18068099036602678,-0.000446600977326324
1681247188654293800,5.124293701171875,0.024566547945141792,0.005850253626704216,-0.016121309250593185,0.35548633337020874,-0.038190726190805435,-0.9339009523391724,0.0020118653774261475,-0.0010854043066501617,0.007249951362609863,0.9833362086837486,0.019528991355008005,0.18074334330803887,-0.000598648993511331
1681247188669325800,5.139325927734375,0.02133069932460785,0.008989321067929268,-0.014064017683267593,0.3556497097015381,-0.038518380373716354,-0.9338252544403076,0.003206491470336914,-0.0008340403437614441,0.006518185138702393,0.9833168653841963,0.019722455485745694,0.18082697553496663,-0.0007423254033829414
1681247188684359000,5.15435888671875,0.018648363649845123,0.013460502028465271,-0.016736766323447227,0.35581523180007935,-0.038763292133808136,-0.9337520599365234,0.001286238431930542,-0.0008485354483127594,0.0047664642333984375,0.9832982636263262,0.019872261106607923,0.1809117273225548,-0.0008773017353912464
1681247188699391500,5.1693916015625,0.01817474700510502,0.014918848872184753,-0.019803930073976517,0.35603851079940796,-0.03894086927175522,-0.933659553527832,0.003428041934967041,-0.00294451043009758,0.0009050965309143066,0.9832745767775312,0.019992780829677204,0.1810262388301454,-0.0010382962011459909
1681247188714423300,5.18442333984375,0.006732368841767311,0.007655876688659191,-0.018064619973301888,0.3562259078025818,-0.039007917046546936,-0.9335852861404419,0.0027371346950531006,-0.002938501536846161,0.0010596513748168945,0.9832554869459159,0.020057058068300087,0.1811216839651309,-0.0011994946458990347
1681247188729456400,5.199456298828125,-0.003399680834263563,-0.0006864750757813454,-0.016582835465669632,0.35631197690963745,-0.038932882249355316,-0.933555543422699,0.004756748676300049,-0.004676744341850281,-0.00165557861328125,0.983247709278939,0.020043853735996937,0.18116417407563007,-0.0013337781086315429
1681247188744488200,5.21448828125,-0.015998829156160355,-0.009463720954954624,-0.022512897849082947,0.356269896030426,-0.03871189057826996,-0.9335808157920837,0.006004303693771362,-0.007140766829252243,-0.0006995797157287598,0.983253899656747,0.01995346875887183,0.1811393118925347,-0.001454025408931468
1681247188759521300,5.229521240234375,-0.009392166510224342,-0.006947566755115986,-0.007482548244297504,0.35621318221092224,-0.038469310849905014,-0.9336125254631042,0.0055879950523376465,-0.006910327821969986,0.004001319408416748,0.9832619317500244,0.019850219657115264,0.1811069129474455,-0.0015643261846797225
1681247188774553300,5.24455322265625,-0.011890743859112263,-0.010773730464279652,-0.0005111914360895753,0.3560868501663208,-0.0382973812520504,-0.933667778968811,0.005638033151626587,-0.004869736731052399,0.002225518226623535,0.9832759209677108,0.01975996299523726,0.1810405116280822,-0.0015510668833365417
1681247188789586400,5.25958642578125,-0.015062302350997925,-0.00937557127326727,-0.002140513388440013,0.35596928000450134,-0.03811760991811752,-0.9337199330329895,0.006320178508758545,-0.0037219859659671783,0.007953941822052002,0.9832891307799125,0.019666691406817052,0.18097860130390206,-0.0015429370498869146
1681247188804618200,5.2746181640625,-0.022599581629037857,-0.016782887279987335,0.0028867358341813087,0.3557555079460144,-0.03787343576550484,-0.933811366558075,0.007937759160995483,-0.0051258280873298645,0.006351649761199951,0.9833124493096618,0.01953605676267294,0.18086644711973413,-0.0015112222857184081
1681247188819651300,5.2896513671875,-0.03652343899011612,-0.01106774341315031,-0.00019400904420763254,0.3556014597415924,-0.03751331940293312,-0.9338845610618591,0.0052536725997924805,-0.00867503136396408,0.004593789577484131,0.9833311713122317,0.019339984583667955,0.18078630402106788,-0.0014434133284365945
1681247188834683400,5.304683349609375,-0.030835406854748726,-0.005286820232868195,-0.00017430156003683805,0.3554990291595459,-0.037063118070364,-0.9339415431022644,0.0027773380279541016,-0.012466907501220703,0.004238784313201904,0.9833457679141862,0.01910305082446426,0.18073270633862404,-0.001401765556242159
1681247188849716500,5.319716552734375,-0.02011202834546566,-0.0018968824297189713,0.006479073781520128,0.3554984927177429,-0.03679151087999344,-0.9339524507522583,0.00387650728225708,-0.002988159656524658,0.0022050142288208008,0.9833486595904887,0.018955187157607703,0.18073312894670304,-0.0013489627231451815
1681247188864748300,5.334748291015625,-0.007056413684040308,-0.006808550097048283,0.005251356400549412,0.3554816246032715,-0.03665407747030258,-0.9339643120765686,0.006029635667800903,0.0019250772893428802,0.0022779107093811035,0.9833517732204187,0.01887524033819117,0.18072513354710923,-0.0012945715253990064
1681247188879781000,5.349781005859375,-0.00045236031292006373,-0.015858769416809082,0.004523248411715031,0.3554089665412903,-0.03666885197162628,-0.9339913725852966,0.008070647716522217,0.00285537913441658,0.007172524929046631,0.9833585838675855,0.01887391739376013,0.18068784677315752,-0.0012474652292062717
1681247188894813200,5.364813232421875,-0.00014497828669846058,-0.02150174230337143,-0.0020465038251131773,0.3551633656024933,-0.03669749200344086,-0.9340836405754089,0.008041560649871826,0.0012360624969005585,0.007966756820678711,0.9833821025945476,0.01888412867361139,0.18055902290465886,-0.0012271230435195438
1681247188909846300,5.37984619140625,-0.008432096801698208,-0.019564826041460037,-0.006154163274914026,0.35488927364349365,-0.036683935672044754,-0.9341883659362793,0.008239418268203735,-0.005643948912620544,0.007277965545654297,0.9834087616340075,0.01887939009404392,0.18041447491238105,-0.0012426357764525723
1681247188924879400,5.39487939453125,-0.00507464911788702,-0.019598912447690964,-0.009970473125576973,0.35462355613708496,-0.036540523171424866,-0.9342948794364929,0.005239754915237427,-0.006336674094200134,0.00595015287399292,0.9834357928684611,0.018813956015301284,0.18027365588602365,-0.0012872419895338524
1681247188939911400,5.409911376953125,-0.006335389334708452,-0.017397809773683548,-0.007578954566270113,0.35443300008773804,-0.0364348329603672,-0.9343713521957397,0.0028363168239593506,-0.0037262998521327972,0.003188490867614746,0.9834551350485876,0.01876834062941551,0.18017238324856072,-0.0013343077606892935
1681247188954944300,5.4249443359375,0.0008849726291373372,-0.015373009257018566,-0.006413821596652269,0.35425347089767456,-0.0363471619784832,-0.9344428181648254,0.002329200506210327,-0.0017845481634140015,0.0043891072273254395,0.9834731974471298,0.018732717282829093,0.1800768695934933,-0.001385762064887093
1681247188969976300,5.439976318359375,0.011927023530006409,-0.013629970140755177,-0.002346109366044402,0.3541259765625,-0.03639828413724899,-0.9344891309738159,0.001220703125,0.0003722831606864929,0.0010175108909606934,0.983484862735068,0.01876630775202978,0.18000903840367385,-0.0014290218259900291
1681247188985009400,5.455009521484375,0.013843968510627747,-0.013338887132704258,0.0003327643498778343,0.35397952795028687,-0.03655170649290085,-0.9345386624336243,0.0017333924770355225,-0.0013969019055366516,0.0022724270820617676,0.9834974805933592,0.018849143383036653,0.17993161549612935,-0.0014573974111308288
1681247189000041200,5.470041259765625,0.005434450693428516,-0.009306329302489758,0.0037541273050010204,0.35389798879623413,-0.03674113750457764,-0.934562087059021,-0.002137094736099243,-0.0012990236282348633,0.003104567527770996,0.9835033984540456,0.018944750486516358,0.17988899775334957,-0.0014545516748278853
1681247189015074300,5.48507421875,-0.0018250599969178438,-0.000589003786444664,0.00821864977478981,0.3538605570793152,-0.036814697086811066,-0.9345733523368835,-0.0042511820793151855,-0.003636348992586136,0.00473332405090332,0.9835064140164591,0.018975691097776137,0.1798700472194317,-0.001419718004242485
1681247189030106400,5.5001064453125,-0.004945858847349882,0.006134412717074156,0.002053698990494013,0.353896826505661,-0.036802057176828384,-0.9345601201057434,-0.002090156078338623,-0.007875677198171616,0.0020040273666381836,0.9835031049977385,0.018963201496318128,0.1798897527208911,-0.0013860628030506609
1681247189045139200,5.51513916015625,-0.008048973977565765,0.006864118855446577,0.0015125446952879429,0.3539813458919525,-0.036712516099214554,-0.9345316886901855,-0.000633537769317627,-0.007324345409870148,0.0004343986511230469,0.9834959104133262,0.01891271631883822,0.17993464863422387,-0.0013578366652815007
1681247189060171300,5.530171142578125,-0.001043954980559647,0.006366373971104622,0.0037804925814270973,0.35408952832221985,-0.036650724709033966,-0.9344930648803711,0.00003644824028015137,0.0031729377806186676,0.0028371810913085938,0.983486058081333,0.01887652251086619,0.17999203693263657,-0.0013302546085283095
1681247189075204400,5.545204345703125,0.0010442830389365554,0.0045831212773919106,0.002250240184366703,0.35418739914894104,-0.03667174652218819,-0.934455156326294,0.00248679518699646,0.002110585570335388,0.0016548633575439453,0.983476457886647,0.01888355654150868,0.1800439511405996,-0.001308903477218173
1681247189090236400,5.560236328125,0.004941233433783054,0.0019236886873841286,-0.0017855140613391995,0.3542265295982361,-0.03674067556858063,-0.93443763256073,0.002813875675201416,-0.00013982132077217102,0.0049027204513549805,0.9834720436519948,0.018916676975139504,0.1800648259752795,-0.0012977875174528413
1681247189105269500,5.57526953125,0.000617058714851737,-0.00020391074940562248,-0.000852608704008162,0.3542298972606659,-0.036774832755327225,-0.9344350099563599,0.0046568214893341064,-0.0016925707459449768,0.005068004131317139,0.9834713162333705,0.01893608590723955,0.18006642564698497,-0.0013088515369400434
1681247189120301300,5.59030126953125,-0.003004946745932102,-0.0043943943455815315,-0.00105527532286942,0.35417699813842773,-0.03680873289704323,-0.9344537258148193,0.006845980882644653,-0.004527319222688675,0.008153676986694336,0.9834761319827056,0.01895233258967136,0.1800387206086912,-0.001304160840568713
1681247189135334100,5.605334228515625,-0.0027795368805527687,-0.007980074733495712,0.00015193561557680368,0.35410475730895996,-0.03675822913646698,-0.9344831109046936,0.006902962923049927,-0.007263384759426117,0.0056958794593811035,0.9834835516253204,0.018926874190049327,0.18000061597584,-0.0013064144122599652
1681247189150367200,5.6203671875,0.006458223331719637,-0.007103894837200642,0.004481436684727669,0.3540394902229309,-0.03679215908050537,-0.9345064759254456,0.006739318370819092,-0.005947709083557129,0.005490362644195557,0.9834894668947886,0.01894235317976766,0.17996651273552203,-0.0012976007661587856
1681247189165399300,5.6353994140625,0.011884680017828941,-0.005503601394593716,0.007791745942085981,0.3539651930332184,-0.03697473928332329,-0.9345274567604065,0.006676316261291504,-0.003644157201051712,0.003100454807281494,0.9834949080032349,0.01902951783403432,0.1799282089099781,-0.0012675302510371021
1681247189180432400,5.650432373046875,0.013616267591714859,-0.0007650386542081833,0.006851916667073965,0.35394078493118286,-0.03720184415578842,-0.9345276951789856,0.0034048259258270264,-0.0013418644666671753,0.0019257664680480957,0.9834950752151873,0.019135397768371573,0.17991664111840344,-0.0012152727068061326
1681247189195464400,5.66546435546875,0.004945600870996714,-0.003700108267366886,0.011596336960792542,0.3538971543312073,-0.037383757531642914,-0.9345369338989258,0.0035399794578552246,-0.001632973551750183,0.004193305969238281,0.9834974080622462,0.019214707457108706,0.17989534689405606,-0.0011436436624940715
1681247189210497300,5.680497314453125,-0.015637224540114403,-0.0030420413240790367,0.009650366380810738,0.3538992702960968,-0.03743801638484001,-0.934533953666687,0.0033242404460906982,-0.00765170156955719,0.006173968315124512,0.9834967565106154,0.0192238781415756,0.17989850136750724,-0.001042887149824625
1681247189225529300,5.695529296875,-0.03756782412528992,-0.006335572339594364,0.008779246360063553,0.3538611829280853,-0.03716270625591278,-0.9345593452453613,0.003743797540664673,-0.01094825193285942,0.0054212212562561035,0.983503339134342,0.019062602632465054,0.17988033666640002,-0.0009271758700136903
1681247189240562400,5.7105625,-0.0455462820827961,-0.006951828487217426,0.00766045181080699,0.3538067638874054,-0.03665126860141754,-0.9346001744270325,0.003813505172729492,-0.012131087481975555,0.005782425403594971,0.9835138990885692,0.018781505633285647,0.179853194415385,-0.0008130939935431171
1681247189255594200,5.72559423828125,-0.04510350525379181,-0.011779074557125568,0.009230118244886398,0.35367491841316223,-0.03602873161435127,-0.9346742630004883,0.004754066467285156,-0.009488232433795929,0.004925727844238281,0.9835327644921793,0.018439404838178037,0.17978557365697195,-0.0006752065167357541
1681247189270627300,5.74062744140625,-0.024854212999343872,-0.01190557423979044,0.009415475651621819,0.3535439074039459,-0.03558637574315071,-0.9347407817840576,0.004946082830429077,-0.0025300830602645874,0.002398252487182617,0.9835497645097293,0.01819359986095989,0.17971812731290046,-0.0005626732031749128
1681247189285659400,5.755659423828125,-0.019686615094542503,-0.017694752663373947,0.006447648163884878,0.3533661365509033,-0.03538011759519577,-0.9348158240318298,0.00512385368347168,0.0012004338204860687,0.002503812313079834,0.9835688578432951,0.0180716423533109,0.1796260199995831,-0.00047123829966279676
1681247189300692200,5.770692138671875,-0.01572819985449314,-0.023758772760629654,0.004892362281680107,0.3531136214733124,-0.035294633358716965,-0.9349144697189331,0.006658107042312622,0.006745431572198868,0.005486428737640381,0.9835939448586327,0.018015804331187164,0.17949428871736622,-0.0004062512903321829
1681247189315724300,5.785724365234375,-0.026289550587534904,-0.022183246910572052,0.0001396851148456335,0.3528006672859192,-0.03507111966609955,-0.9350410103797913,0.0059944987297058105,0.0013644583523273468,0.00770336389541626,0.9836261847194473,0.017893049257019924,0.17933022263346657,-0.00035973699519293797
1681247189330757400,5.80075732421875,-0.030758867040276527,-0.014366335235536098,-0.005123253911733627,0.3525906205177307,-0.034745585173368454,-0.9351323843002319,0.0010165274143218994,-0.009993188083171844,0.009168088436126709,0.9836494365557403,0.017722325668542642,0.17921974661447654,-0.0003334615423844241
1681247189345790500,5.81579052734375,-0.021655118092894554,-0.009063714183866978,-0.0063634878024458885,0.3524700701236725,-0.03439509868621826,-0.9351907968521118,0.00026738643646240234,-0.00723087415099144,0.005961060523986816,0.9836643060246265,0.017546128173093006,0.1791555967711699,-0.0003457879762124543
1681247189360822500,5.830822509765625,-0.012651768513023853,-0.012183607555925846,-0.004186353646218777,0.3523969352245331,-0.0341336689889431,-0.9352279305458069,0.001149207353591919,0.0017392635345458984,0.0008864998817443848,0.9836737599231384,0.017415513668640425,0.17911651259925868,-0.00035925438505221135
1681247189375855000,5.845855224609375,-0.003931513987481594,-0.01503665279597044,-0.0008446192368865013,0.352262943983078,-0.03402237221598625,-0.9352824687957764,0.0029769539833068848,0.0011549443006515503,0.0011851787567138672,0.98368753951296,0.017362463927268507,0.17904555178809922,-0.0003800845977648086
1681247189390887200,5.86088720703125,-0.001975688384845853,-0.013398808427155018,0.0007974859327077866,0.3521008789539337,-0.03394102305173874,-0.9353464245796204,0.004939526319503784,-0.003595590591430664,0.0006083250045776367,0.9837037220984886,0.01732124181301611,0.17896019231311666,-0.00038253379116599514
1681247189405920300,5.875920166015625,0.007058819755911827,-0.01699807122349739,-0.0005458125378936529,0.3519103229045868,-0.0340486504137516,-0.9354142546653748,0.005130112171173096,-0.006432924419641495,0.001957833766937256,0.9837209356199245,0.017377740199624316,0.17885998436151931,-0.000394284143839632
1681247189420952300,5.890952392578125,0.0009705135598778725,-0.008257842622697353,0.0026686228811740875,0.3517676293849945,-0.03420630469918251,-0.9354621767997742,0.0018395781517028809,-0.0008278749883174896,0.0008460879325866699,0.983733197273706,0.01745546503770538,0.17878540329437503,-0.0003824072899465249
1681247189435985400,5.9059853515625,0.0037880311720073223,-0.008529751561582088,0.00044541596435010433,0.35164424777030945,-0.034271351993083954,-0.9355061650276184,0.00013187527656555176,0.0008851177990436554,0.0034688711166381836,0.9837443312079673,0.01748804913448031,0.17872068644103237,-0.00038100170792313033
1681247189451017500,5.921017578125,-0.0015361071564257145,-0.006366997957229614,-0.00152479053940624,0.35153111815452576,-0.03427693620324135,-0.9355484843254089,0.0015114843845367432,-0.005136512219905853,0.0066849589347839355,0.9837552008895504,0.017492433022474014,0.1786610375092595,-0.0003907069733780888
1681247189466050300,5.93605029296875,-0.0060831885784864426,-0.0019043385982513428,-0.0032065766863524914,0.35149070620536804,-0.0341949500143528,-0.9355666637420654,0.001689225435256958,-0.0050506554543972015,0.005284130573272705,0.9837598050500732,0.017454445021851353,0.1786393028785266,-0.0004114762819286472
1681247189481082400,5.951082275390625,0.005350348073989153,0.007313393987715244,0.0004344969056546688,0.3515680730342865,-0.034234050661325455,-0.9355362057685852,-0.000829547643661499,-0.004614822566509247,0.004536449909210205,0.9837520441666516,0.017475751437815844,0.17867990791538657,-0.00041851553611370665
1681247189496115200,5.966115234375,0.01049291156232357,0.013307103887200356,0.004111257381737232,0.35171473026275635,-0.034366872161626816,-0.9354761838912964,-0.00019797682762145996,-0.0011098235845565796,0.0027521848678588867,0.9837367262617486,0.01754025504153688,0.17875752501858963,-0.0004003065144900153
1681247189511148300,5.981148193359375,0.014078645966947079,0.01113875862210989,0.007797072175890207,0.35189637541770935,-0.03459250554442406,-0.9353995323181152,-0.0005169510841369629,0.00308309867978096,0.0033164024353027344,0.9837172680159203,0.0176487711007047,0.17885398664283872,-0.0003642515152697968
1681247189526180400,5.996180419921875,0.005476102232933044,0.008540845476090908,0.006596252787858248,0.35202500224113464,-0.03479481115937233,-0.9353436231613159,0.0025739967823028564,0.002812400460243225,0.0018262267112731934,0.9837031265257923,0.017744118245970032,0.17892267494485734,-0.00032158515521110964
1681247189541213200,6.011213134765625,-0.006976518779993057,0.001036323606967926,0.006791995372623205,0.3520939350128174,-0.03487452119588852,-0.9353147149085999,0.006197720766067505,-0.004706770181655884,0.0052152276039123535,0.9836957676704414,0.017777662645161403,0.17895974919633678,-0.00028246564137442094
1681247189556245200,6.026245361328125,-0.023819947615265846,-0.009461325593292713,-0.002785530872642994,0.3520345091819763,-0.034670356661081314,-0.9353446960449219,0.006135076284408569,-0.007855884730815887,0.004497528076171875,0.983703424533383,0.01766828661430826,0.17892871470410268,-0.0002524810790977991
1681247189571278300,6.0412783203125,-0.02099987119436264,-0.015054761432111263,-0.003322424367070198,0.35186639428138733,-0.03431978449225426,-0.9354208707809448,0.006928771734237671,-0.006680581718683243,0.006862521171569824,0.9837227857384534,0.01748880416204455,0.17883988827963462,-0.00024738938208770543
1681247189586310400,6.056310302734375,-0.013547017239034176,-0.01910649612545967,-0.0012502186000347137,0.35163283348083496,-0.034043677151203156,-0.9355188012123108,0.006704598665237427,-0.003813374787569046,0.003115236759185791,0.9837476491664664,0.017348996942403057,0.17871659482391944,-0.0002528946633964575
1681247189601343500,6.071343505859375,-0.012801171280443668,-0.01730220392346382,-0.00014607212506234646,0.3513728082180023,-0.03380956873297691,-0.9356249570846558,0.004645258188247681,0.0032309554517269135,0.003679215908050537,0.9837746840656503,0.017229672035758332,0.17857953301841212,-0.0002538407677717219
1681247189616375300,6.086375244140625,-0.013785689137876034,-0.013341817073523998,0.006777347531169653,0.351165235042572,-0.03365054354071617,-0.9357086420059204,0.0042119622230529785,0.0002032741904258728,0.00336611270904541,0.9837958991249575,0.01714358075712969,0.1784706867763549,-0.00022699887538957464
1681247189631408000,6.101408203125,-0.02308661863207817,-0.009228297509253025,0.007887087762355804,0.35103264451026917,-0.03348079323768616,-0.9357644319534302,-0.000004202127456665039,-0.008267253637313843,0.006244838237762451,0.9838100503487823,0.01704199795285908,0.178402192663369,-0.00014400810753778065
1681247189646440200,6.116440185546875,-0.028213204815983772,-0.002965075895190239,0.012420319020748138,0.35098740458488464,-0.033236511051654816,-0.9357901215553284,-0.0010118186473846436,-0.009930606931447983,0.0061789751052856445,0.983816586821699,0.016898359726976214,0.1783798640353657,-0.00003717459930333891
1681247189661473300,6.131473388671875,-0.026042195037007332,0.000522067304700613,0.014369752258062363,0.35102394223213196,-0.03296724706888199,-0.9357859492301941,-0.0004227161407470703,-0.00446256622672081,0.002863585948944092,0.98381555854626,0.016736343195221704,0.17840099063861944,0.00010173470970835796
1681247189676505300,6.14650537109375,-0.021262940019369125,0.00467180460691452,0.012441892176866531,0.3510802686214447,-0.03269291669130325,-0.9357744455337524,-0.00035700201988220215,-0.0012731514871120453,0.0032640695571899414,0.9838127007642306,0.016574448185876004,0.1784322146729782,0.00022588685698477615
1681247189691538400,6.161538330078125,-0.006385883316397667,0.0008120853453874588,0.01326693780720234,0.35114291310310364,-0.032538384199142456,-0.9357563257217407,0.00110626220703125,-0.00014594197273254395,0.0005146265029907227,0.9838080224162745,0.01647440030534394,0.17846687069309497,0.00034485372136563064
1681247189706572000,6.176572021484375,-0.00735314330086112,-0.004006904549896717,0.012402210384607315,0.35110893845558167,-0.0325712226331234,-0.9357679486274719,0.003352731466293335,-0.00011310726404190063,0.002601444721221924,0.9838108426600233,0.01647177229169763,0.17845087302001944,0.0004511194835139246
1681247189721604000,6.19160400390625,-0.005070335231721401,-0.00478028692305088,0.010512430220842361,0.35106250643730164,-0.032609667629003525,-0.9357840418815613,0.001247704029083252,0.0010544918477535248,0.004921615123748779,0.9838149036077742,0.016473511504055686,0.1784281689239971,0.0005489449850817144
1681247189736637200,6.20663720703125,-0.028719738125801086,-0.0027648061513900757,0.018667029216885567,0.35101550817489624,-0.03251534327864647,-0.9358049631118774,0.0021034181118011475,-0.0037395358085632324,0.005369782447814941,0.98382022820635,0.016402960532723644,0.17840535530684296,0.0006732286755235558
1681247189751669200,6.221669189453125,-0.020859630778431892,-0.004398921504616737,0.014385731890797615,0.35087648034095764,-0.03223895654082298,-0.9358665943145752,0.0035851597785949707,-0.00625896081328392,0.005721390247344971,0.9838356253624614,0.016225358890394677,0.1783351506238659,0.0008769575249267537
1681247189766702000,6.2367021484375,-0.013662171550095081,0.001575613860040903,-0.00965781882405281,0.35088950395584106,-0.03195855766534805,-0.9358713626861572,0.0031754672527313232,-0.0054407306015491486,0.0046427249908447266,0.9838368037381282,0.01607996121878703,0.17834167987763255,0.0008927853532870019
1681247189781734000,6.25173388671875,0.0022268863394856453,-0.002924329601228237,-0.0014014862244948745,0.3508831560611725,-0.031878892332315445,-0.9358764886856079,0.004066824913024902,0.00047630444169044495,0.00415956974029541,0.9838381945900131,0.016042531411119724,0.17833788955465968,0.000875815658326315
1681247189796767000,6.26676708984375,0.007024997379630804,-0.002695830538868904,-0.004256128333508968,0.35083863139152527,-0.03192918002605438,-0.9358914494514465,0.005240499973297119,0.002800147980451584,0.005517303943634033,0.9838420026541768,0.016072235543872593,0.17831422011334624,0.0008527106312214073
1681247189811799000,6.281799072265625,0.012939824722707272,-0.001538952812552452,0.0011234567500650883,0.3508118689060211,-0.03206241503357887,-0.9358969330787659,0.002368062734603882,-0.00028621405363082886,0.004637777805328369,0.9838433929459398,0.01614650514879253,0.17829984320342418,0.00081646502969368
1681247189826832100,6.29683203125,0.007940271869301796,-0.00033813389018177986,-0.0028949868865311146,0.3507988452911377,-0.032255351543426514,-0.9358952045440674,0.0019690990447998047,-0.003450211137533188,0.004452943801879883,0.9838430523821777,0.016247777141133526,0.17829307512398898,0.0007987575985073823
1681247189841865000,6.311864990234375,0.00958259031176567,0.0005572210066020489,-0.002019339706748724,0.35084816813468933,-0.032421648502349854,-0.9358709454536438,0.0013094544410705566,-0.003817979246377945,0.004428684711456299,0.9838368459212232,0.016336170004389142,0.1783189834309633,0.0007778079821650058
1681247189856897000,6.32689697265625,0.008031778037548065,0.0029561962001025677,0.0001926820259541273,0.35089170932769775,-0.03255866840481758,-0.9358498454093933,-0.0005193948745727539,-0.0027654245495796204,0.004316091537475586,0.983831493892946,0.016407509222343155,0.17834198773851945,0.0007687993215846504
1681247189871930000,6.34193017578125,0.0074621811509132385,0.0049333274364471436,0.0024438519030809402,0.35100647807121277,-0.032662805169820786,-0.9358031749725342,0.002814352512359619,-0.003744669258594513,0.00481867790222168,0.9838197197060271,0.016459469814163356,0.17840259322993518,0.0007749448786872429
1681247189886962200,6.356962158203125,0.0008663305779919028,0.006812453735619783,0.005203419364988804,0.35109955072402954,-0.03272589296102524,-0.9357660412788391,0.002370297908782959,-0.0063823796808719635,0.0029963254928588867,0.9838101375095247,0.016489331208289344,0.17845187063276516,0.0007877492546828985
1681247189901995300,6.371995361328125,0.00017699797172099352,0.006120031699538231,0.004159460309892893,0.35123154520988464,-0.03276684880256653,-0.9357151389122009,0.002253592014312744,-0.0026030167937278748,0.0038456320762634277,0.9837972707354327,0.016504626609402405,0.17852182476507458,0.0008190494550586893
1681247189917027000,6.387027099609375,0.004623890854418278,0.0024680388160049915,0.006535798776894808,0.35130006074905396,-0.03285713866353035,-0.9356862306594849,0.002581775188446045,-0.0035961121320724487,0.0025349855422973633,0.9837898323708719,0.016545112241860033,0.17855855199227666,0.000849340592933539
1681247189932060000,6.402059814453125,0.0022104280069470406,0.001041916199028492,0.003041465301066637,0.35131409764289856,-0.03291310742497444,-0.9356789588928223,0.004597187042236328,-0.004028428345918655,0.0035042762756347656,0.9837879474923317,0.01656754720032263,0.17856660055436688,0.0008825910113494551
1681247189947092000,6.417092041015625,-0.002239448018372059,-0.0020015444606542587,0.00552433030679822,0.35130518674850464,-0.03296370431780815,-0.9356805682182312,0.005521625280380249,-0.0026808232069015503,0.003887355327606201,0.9837884092341254,0.016587196399203245,0.17856257263479478,0.0009159877025389888
1681247189962125000,6.432125,-0.003357336390763521,-0.0009615803137421608,0.005354687105864286,0.35130774974823,-0.03299138695001602,-0.9356786012649536,0.0008498430252075195,-0.0021953843533992767,0.005319714546203613,0.9837878496577006,0.016593312647817264,0.1785647252267229,0.0009598428262393795
1681247189977157000,6.4471572265625,-0.0032109692692756653,-0.00043454021215438843,0.0018169439863413572,0.35132771730422974,-0.033007413148880005,-0.9356705546379089,0.0031492114067077637,-0.002423495054244995,0.0048844218254089355,0.9837857858483703,0.016597543720430333,0.17857562006444921,0.0009815365524140005
1681247189992190200,6.462190185546875,-0.004524599760770798,-0.007836263626813889,0.0015468993224203587,0.3512924611568451,-0.03297257423400879,-0.9356849789619446,0.0017959177494049072,-0.001725912094116211,0.0022286176681518555,0.9837893878325288,0.016577226489640766,0.17855726013919745,0.0009956926324801755
1681247190007223000,6.47722314453125,-0.003143484704196453,-0.006586975418031216,0.000661398284137249,0.3512077331542969,-0.032911550253629684,-0.9357189536094666,0.003345489501953125,-0.001054525375366211,0.0029339194297790527,0.9837980281732762,0.01654292386350292,0.1785128950331881,0.001013251270069426
1681247190022255000,6.492255126953125,-0.00197105435654521,0.0003641415387392044,0.0010472903959453106,0.35117265582084656,-0.032905567437410355,-0.935732364654541,0.00098496675491333,-0.0005569569766521454,0.004290103912353516,0.9838014075735537,0.016538048832332366,0.1784946067007883,0.0010231573864037699
1681247190037288200,6.5072880859375,0.006095926743000746,0.0028552627190947533,0.0034039216116070747,0.3511996865272522,-0.03295975178480148,-0.9357202649116516,-0.0020022988319396973,-0.0025779753923416138,0.0035150647163391113,0.9837983071325374,0.016563342144114993,0.17850915274643522,0.0010357359804133793
1681247190052320000,6.522320068359375,0.004392835311591625,0.006230819039046764,0.007176821585744619,0.3513033092021942,-0.03307579457759857,-0.9356772899627686,0.0005338490009307861,-0.0022788196802139282,0.0034568309783935547,0.9837873712709266,0.01661616109040102,0.17856444017477063,0.0010703540468638328
1681247190067353000,6.53735302734375,-0.005640624091029167,0.003394818864762783,0.009161675348877907,0.3513558506965637,-0.03311217576265335,-0.9356562495231628,0.0011374354362487793,-0.0021203719079494476,0.004107236862182617,0.9837819483702045,0.016623143256753764,0.17859321389614363,0.0011340842215566106
1681247190082385200,6.55238525390625,-0.021618738770484924,0.00013777287676930428,0.004962136968970299,0.3513743579387665,-0.03297165781259537,-0.9356542825698853,0.0043537914752960205,-0.011126238852739334,0.004822373390197754,0.9837813598004929,0.016538359018762393,0.17860387036026645,0.0012076961412782043
1681247190097418000,6.56741796875,-0.02935820445418358,-0.003187183290719986,0.0010446272790431976,0.351358562707901,-0.032607220113277435,-0.9356729984283447,0.004155993461608887,-0.011628001928329468,0.0055582523345947266,0.9837859912262099,0.016343101085680083,0.17859566133432744,0.0012626088876417304
1681247190112451000,6.582451171875,-0.027349434792995453,-0.009188351221382618,0.0020515683572739363,0.35125619173049927,-0.03222650662064552,-0.9357246160507202,0.00610467791557312,-0.005905214697122574,0.0010322332382202148,0.9837990937263168,0.01614020527983296,0.17854183718433153,0.0013136046473973626
1681247190127483100,6.597483154296875,-0.027671676129102707,-0.015259559266269207,0.002838532440364361,0.3510807156562805,-0.031834784895181656,-0.9358038902282715,0.005746066570281982,-0.0017803236842155457,0.0009284019470214844,0.9838191982002482,0.015929935789681233,0.17844971474366716,0.0013741479381406479
1681247190142516200,6.61251611328125,-0.027187515050172806,-0.01903485506772995,0.0008707228116691113,0.35084372758865356,-0.03148137405514717,-0.9359046816825867,0.0052811503410339355,-0.001981157809495926,0.004004716873168945,0.983844762598059,0.015742761376689594,0.1783250182795606,0.0014145717675382572
1681247190157548300,6.62754833984375,-0.011752365157008171,-0.02486637979745865,-0.00031731335911899805,0.3505464792251587,-0.031188445165753365,-0.936025857925415,0.004037231206893921,-0.0031590890139341354,0.0050261616706848145,0.9838754559035131,0.015589941793016574,0.17816850112540455,0.0014349402846142272
1681247190172580900,6.642580810546875,-0.010181100107729435,-0.014684583060443401,0.005040700547397137,0.3503066301345825,-0.03117925487458706,-0.9361159801483154,0.002354532480239868,-0.0005132518708705902,0.00514674186706543,0.9838983798983207,0.015578919121885542,0.17804297658184517,0.001469049781320615
1681247190187613000,6.657613037109375,-0.005977034568786621,-0.007024798542261124,0.02007131464779377,0.3501632511615753,-0.03115454688668251,-0.9361704587936401,0.00022432208061218262,0.0024222414940595627,0.004392504692077637,0.9839119703786892,0.015548284578138763,0.17796919052213497,0.001568420064237975
1681247190202646000,6.67264599609375,0.009464398957788944,0.008060943335294724,0.012049874290823936,0.3501935303211212,-0.03133270516991615,-0.9361531734466553,-0.003391742706298828,0.0021121278405189514,0.0016438961029052734,0.9839073747380797,0.015615342819505582,0.1779875775879093,0.0016984470970156955
1681247190217678000,6.687677978515625,0.010180842131376266,0.016144171357154846,0.009378723800182343,0.3503967225551605,-0.031553175300359726,-0.9360697269439697,-0.0033507943153381348,0.0013255178928375244,0.0019266605377197266,0.9838861060573856,0.01571624161230167,0.17809585102959702,0.0017608261980529493
1681247190232711200,6.702711181640625,0.007171577773988247,0.012935327365994453,0.007391739170998335,0.3506380319595337,-0.03174375370144844,-0.9359729290008545,-0.0004640519618988037,-0.0027105994522571564,0.0011889934539794922,0.9838613803346321,0.015802903426677898,0.17822403444469276,0.0018179937073581954
1681247190247744000,6.717743896484375,-0.00007088901475071907,0.012465013191103935,0.008246613666415215,0.35082724690437317,-0.03186383098363876,-0.935897946357727,0.00017067790031433105,-0.003078799694776535,0.0035554170608520508,0.9838422498368087,0.015854918858741213,0.17832457659668782,0.001868367073155427
1681247190262776000,6.732776123046875,-0.0008578531560488045,0.008984793908894062,0.003128284588456154,0.35099053382873535,-0.031851235777139664,-0.9358371496200562,0.002738744020462036,-0.004312098026275635,0.003982901573181152,0.9838267875265523,0.015842424004544414,0.17841087981784134,0.0019024456155405634
1681247190277809200,6.74780908203125,0.00024059414863586426,0.005510167684406042,0.004762932658195496,0.35110026597976685,-0.031853195279836655,-0.9357959032058716,0.0025832056999206543,-0.0024638138711452484,0.004536747932434082,0.9838161442104739,0.01583805094804991,0.17846906163042056,0.0019323704410367578
1681247190292841000,6.762841064453125,-0.0033305450342595577,0.003864600555971265,0.002834537997841835,0.3511444330215454,-0.031833019107580185,-0.9357800483703613,0.0024932920932769775,-0.00016466528177261353,0.0017132759094238281,0.9838120390720008,0.015821127415477903,0.17849280329486603,0.0019692280259492293
1681247190307874000,6.7778740234375,-0.01187955867499113,-0.0015418827533721924,0.004430570174008608,0.3511369526386261,-0.0317285917699337,-0.9357863664627075,0.004911631345748901,-0.001688152551651001,0.003184497356414795,0.9838136266892222,0.015763537387774494,0.17848899171719862,0.0019940349853958673
1681247190322906000,6.792906005859375,-0.010553889907896519,-0.0006691645830869675,0.007727031130343676,0.3511236310005188,-0.031629838049411774,-0.9357947111129761,0.004299342632293701,-0.006013598293066025,0.005252718925476074,0.9838156118057451,0.015698810318177107,0.17848302144906275,0.002074060029805099
1681247190337939000,6.80793896484375,-0.014212114736437798,-0.0030484329909086227,-0.0014938978711143136,0.3511086404323578,-0.031480785459280014,-0.9358053803443909,0.0056113600730896,-0.005949027836322784,0.003584921360015869,0.9838182482635272,0.015617750649312232,0.178475209514854,0.0021031714842705547
1681247190352972000,6.822971923828125,-0.014423622749745846,-0.015707504004240036,0.0031714276410639286,0.35098573565483093,-0.03131067752838135,-0.9358571767807007,0.004513531923294067,-0.004120226949453354,0.0019887685775756836,0.983831395117151,0.015525836093207198,0.17841063743666433,0.002132907807816943
1681247190368004000,6.838004150390625,-0.01856670156121254,-0.014524525962769985,0.0026467847637832165,0.35077208280563354,-0.031088998541235924,-0.935944676399231,0.005383342504501343,-0.006111927330493927,0.002152562141418457,0.9838534222165646,0.015403755902035066,0.17829859635366668,0.002184320583038853
1681247190383037200,6.853037109375,-0.015437647700309753,-0.012138600461184978,0.009104151278734207,0.3506235182285309,-0.0309134554117918,-0.9360061287879944,0.0021138787269592285,-0.0036324486136436462,0.00210726261138916,0.9838689418822067,0.015304341820398996,0.17822094013179907,0.0022402572158340284
1681247190398069200,6.8680693359375,-0.013661426492035389,-0.008197388611733913,0.015825703740119934,0.3505040109157562,-0.030812911689281464,-0.9360542297363281,0.0016383230686187744,-0.0008033029735088348,0.003360748291015625,0.9838809465192667,0.015233237955320968,0.17815957967002077,0.0023504958497276387
1681247190413102000,6.88310205078125,-0.015326221473515034,-0.00522902887314558,0.020036960020661354,0.35045093297958374,-0.030745798721909523,-0.9360763430595398,0.00047072768211364746,-0.003540709614753723,0.006434619426727295,0.9838862280248836,0.015171796992161393,0.17813381998501196,0.0025013621755536277
1681247190428134000,6.8981337890625,-0.02514076977968216,-0.007845851592719555,0.02134617045521736,0.35035011172294617,-0.030640579760074615,-0.9361174702644348,-0.000954359769821167,-0.005370154976844788,0.00749814510345459,0.983896169342625,0.015087926754692898,0.17808314948914197,0.002669184750106349
1681247190443167000,6.9131669921875,-0.021689366549253464,-0.01388989482074976,0.03059639409184456,0.3501834273338318,-0.030406827107071877,-0.9361875057220459,-0.0005435049533843994,-0.006214261054992676,0.0075223445892333984,0.9839132335550488,0.014923159899482405,0.17799875880513086,0.002923163242775521
1681247190458200000,6.928199951171875,-0.012452777475118637,0.0075370995327830315,0.009686052799224854,0.350188285112381,-0.030354022979736328,-0.9361873865127563,0.00021457672119140625,-0.003978246822953224,0.006393074989318848,0.9839126888012075,0.01486380353303082,0.17800385963275156,0.003102892084130771
1681247190473232100,6.943232177734375,0.0019102897495031357,0.006660919636487961,0.01543501764535904,0.3503095209598541,-0.030359329655766487,-0.936141848564148,-0.0024243593215942383,-0.0016078371554613113,0.0015715360641479492,0.9839008141884258,0.014850301045935085,0.178068930195668,0.003192257365884331
1681247190488265000,6.958264892578125,-0.007457112893462181,0.005907511338591576,0.013403559103608131,0.3503941297531128,-0.030408309772610664,-0.9361085891723633,0.002755284309387207,-0.0029016248881816864,0.00022608041763305664,0.983891993632117,0.014852854515769691,0.1781153911211256,0.00331554730741289
1681247190503297000,6.973297119140625,-0.014373661950230598,0.006260646507143974,0.008119581267237663,0.35048529505729675,-0.03036459907889366,-0.9360758662223816,0.0027251839637756348,-0.007309354841709137,0.002665281295776367,0.9838833541077671,0.01481376723929812,0.1781645500359041,0.003408535816348903
1681247190518330000,6.988330078125,-0.026286087930202484,-0.0007605114951729774,0.004872921388596296,0.35053059458732605,-0.030161121860146523,-0.9360654950141907,0.003305494785308838,-0.007940070703625679,0.005584537982940674,0.9838803630557305,0.014694822784221984,0.17818897992412905,0.003494118828697574
1681247190533362200,7.003362060546875,-0.02873278595507145,-0.006334241479635239,0.013562815263867378,0.35044926404953003,-0.0298045314848423,-0.9361073970794678,0.004668563604354858,-0.005366973578929901,0.0075948238372802734,0.9838906580802488,0.014493436708645219,0.17814671215121747,0.003605504463754399
1681247190548395300,7.018395263671875,-0.022222155705094337,-0.0038484465330839157,0.0005045381840318441,0.35034915804862976,-0.029495516791939735,-0.9361546635627747,0.005073845386505127,-0.005325045436620712,0.005841553211212158,0.9839022797609304,0.014317386226655354,0.1780946188918843,0.0037106655928821454
1681247190563428000,7.033427978515625,-0.010319478809833527,-0.007951845414936543,-0.0023751379922032356,0.3502792716026306,-0.029265224933624268,-0.9361880421638489,0.001878291368484497,-0.0005199238657951355,0.003021538257598877,0.9839107315064436,0.01419749396970283,0.1780573635322793,0.003726586470107957
1681247190578460000,7.0484599609375,0.0031482332851737738,-0.007941724732518196,0.00108111253939569,0.35018205642700195,-0.029245994985103607,-0.9362249970436096,0.003592967987060547,0.0032602809369564056,0.0016394257545471191,0.983920068521992,0.014184673971056164,0.17800646864949649,0.0037437525103742233
1681247190593493000,7.063492919921875,0.01059070322662592,-0.009897285141050816,-0.0006882917368784547,0.35009971261024475,-0.02940702624619007,-0.9362507462501526,0.001218646764755249,0.006244184449315071,0.0013752579689025879,0.9839265598951702,0.014266405266917463,0.17796377627332824,0.003744684001633689
1681247190608525000,7.078525146484375,0.006830053403973579,-0.0071755340322852135,0.0024776742793619633,0.35000383853912354,-0.029603255912661552,-0.936280369758606,0.0010398626327514648,0.004975564777851105,0.002198338508605957,0.9839340988717561,0.014367219246653934,0.17791399423778856,0.003739058686781261
1681247190623558100,7.09355810546875,-0.0033595734275877476,-0.004723560996353626,0.0021208105608820915,0.3499719798564911,-0.029703279957175255,-0.9362891316413879,-0.002422541379928589,-0.003286220133304596,0.0055182576179504395,0.9839361933080518,0.01441492266181084,0.17789785917453066,0.0037565120903833705
1681247190638590200,7.108590087890625,-0.011341599747538567,-0.0000646272674202919,0.0021146852523088455,0.3499729037284851,-0.029618877917528152,-0.9362914562225342,-0.0028201639652252197,-0.006544450297951698,0.00437617301940918,0.9839367673105489,0.014365879611213286,0.1778985250088981,0.003790488059760989
1681247190653623000,7.123623046875,-0.018449949100613594,0.0030691144056618214,0.006904380861669779,0.3500380218029022,-0.029426703229546547,-0.9362731575965881,-0.0017561614513397217,-0.00554644875228405,0.00263369083404541,0.9839318743626829,0.014259667843128477,0.17793277637442234,0.0038374583073431693
1681247190668656000,7.13865625,-0.017751134932041168,0.004737584851682186,0.010224809870123863,0.35009530186653137,-0.02917192131280899,-0.9362597465515137,-0.0007605552673339844,-0.0038938745856285095,0.002254009246826172,0.9839281680541403,0.01411552052200106,0.17796314760433182,0.003918242867965541
1681247190683688200,7.153688232421875,-0.023829640820622444,-0.0006177658215165138,0.006163489539176226,0.3501512408256531,-0.028904365375638008,-0.9362471103668213,0.0012434422969818115,0.0001262817531824112,0.001829385757446289,0.9839245495885618,0.013963030365926353,0.1779929193137087,0.004009227981263951
1681247190698721800,7.1687216796875,-0.042101696133613586,-0.015863031148910522,0.01700787991285324,0.34995540976524353,-0.028371991589665413,-0.9363365769386292,0.0014850497245788574,-0.0013063549995422363,0.0028954744338989258,0.9839468112469344,0.013673398960709566,0.1778896722202556,0.004115461107827305
1681247190713753900,7.18375390625,-0.026048853993415833,0.0051399883814156055,0.012965735048055649,0.3498844504356384,-0.028076037764549255,-0.9363720417022705,0.0017696022987365723,-0.0055390819907188416,0.002961397171020508,0.983955144287899,0.013491567097600217,0.1778537413047086,0.004289605695447912
1681247190728786700,7.19878662109375,-0.0328122153878212,0.002943146973848343,0.007875902578234673,0.3499879837036133,-0.027734976261854172,-0.9363435506820679,0.00036910176277160645,-0.0062005650252103806,-0.0006834268569946289,0.9839474252593511,0.013298647100446457,0.1779083541168642,0.004397312871512312
1681247190743818800,7.21381884765625,-0.03974682465195656,-0.014984720386564732,0.014497851952910423,0.34990641474723816,-0.02731744572520256,-0.9363862872123718,0.007011920213699341,-0.0052143000066280365,0.004242122173309326,0.9839577413632559,0.013062530009066719,0.17786575486064882,0.0045300740555170825
1681247190758851800,7.228851806640625,-0.03107876516878605,-0.006136368028819561,0.007068165112286806,0.3497534990310669,-0.02689382992684841,-0.9364556670188904,0.0076073408126831055,-0.004279870539903641,0.004189431667327881,0.983974586003712,0.012821385369364037,0.17778577643827628,0.00467414882855137
1681247190773884700,7.243884765625,-0.028903603553771973,-0.007624808698892593,0.005971741396933794,0.34966325759887695,-0.026538383215665817,-0.9364995360374451,0.005378276109695435,-0.003185741603374481,0.004691064357757568,0.9839853334094605,0.012625916868751573,0.17773810097344844,0.004756854754001551
1681247190788916700,7.258916748046875,-0.013414924032986164,-0.011530601419508457,0.005921940319240093,0.3495425283908844,-0.026310613378882408,-0.936551034450531,0.005590558052062988,-0.0031693633645772934,0.006146371364593506,0.9839980707877789,0.01249657537019417,0.17767479314135803,0.0048329929719199615
1681247190803949800,7.27394970703125,-0.004318258259445429,-0.008247190155088902,0.004877714905887842,0.3494410216808319,-0.02627263031899929,-0.9365899562835693,0.0059209465980529785,-0.0033141672611236572,0.005330801010131836,0.9840076475213646,0.01246557259422066,0.1776221736591969,0.0048985816464178055
1681247190818982000,7.28898193359375,-0.0016848179511725903,-0.009577439166605473,0.0015306540299206972,0.34935322403907776,-0.026261936873197556,-0.9366229772567749,0.0053067803382873535,-0.003584258258342743,0.0034412741661071777,0.9840159567991258,0.012455082034787388,0.1775763761756555,0.004927280638131591
1681247190834015000,7.304014892578125,-0.007703295908868313,-0.010600891895592213,-0.001057405723258853,0.34925368428230286,-0.02622641995549202,-0.9366611242294312,0.005330085754394531,-0.01094399020075798,0.0037082433700561523,0.9840254637814266,0.012432722237828686,0.1775242712160201,0.004951969594447857
1681247190849047800,7.3190478515625,-0.013576631434261799,-0.012497595511376858,-0.0019341184524819255,0.3491123616695404,-0.026062658056616783,-0.9367184042930603,0.006219089031219482,-0.011870695278048515,0.0030788779258728027,0.9840400740164309,0.012349093388471477,0.177449453554805,0.0049553632111028955
1681247190864079600,7.33407958984375,-0.012254958041012287,-0.008685278706252575,0.00184836913831532,0.34902334213256836,-0.025880681350827217,-0.9367566108703613,0.004660129547119141,-0.006742615252733231,0.0019421577453613281,0.9840496169483203,0.012253382259235064,0.1774022583558545,0.004974034861428456
1681247190879112700,7.34911279296875,-0.008189375512301922,-0.007536125369369984,-0.0014411673182621598,0.3489264249801636,-0.025724200531840324,-0.936797022819519,0.0029717683792114258,-0.0028097406029701233,0.002455592155456543,0.9840598694175365,0.012172097205493327,0.17735088831088713,0.004984626774115124
1681247190894144800,7.364144775390625,-0.0014777305768802762,-0.00742587074637413,-0.0035045845434069633,0.3488627076148987,-0.025663919746875763,-0.9368224143981934,0.001372307538986206,-0.002595365047454834,0.004251003265380859,0.9840662992329038,0.012142527469716698,0.17731712760384125,0.004979259338659144
1681247190909177900,7.379177734375,0.009626319631934166,-0.00736594945192337,-0.0018710015574470162,0.3487626910209656,-0.025763846933841705,-0.9368568658828735,0.0018080174922943115,0.000007009133696556091,0.004270195960998535,0.9840752053673895,0.012199303105584562,0.1772645944536285,0.004946794792362892
1681247190924210000,7.3942099609375,0.013249496929347515,-0.006666603498160839,0.000017179641872644424,0.34872642159461975,-0.025964345782995224,-0.9368648529052734,-0.0008870363235473633,0.0008483696728944778,0.0054683685302734375,0.9840773942532497,0.012304433071309762,0.17724608302143305,0.004929069409765295
1681247190939242800,7.40924267578125,0.009798253886401653,0.001845391932874918,0.002265952993184328,0.34870827198028564,-0.026156017556786537,-0.936866283416748,-0.0011283159255981445,-0.0005316045135259628,0.005881786346435547,0.9840776899969251,0.012402303498194621,0.17723726949269838,0.0049266079611776726
1681247190954275800,7.42427587890625,0.00036107562482357025,0.005703513510525227,0.0024366616271436214,0.34880486130714417,-0.02625792659819126,-0.9368274807929993,-0.002613455057144165,-0.002916879951953888,0.0022571682929992676,0.9840678023923646,0.01244941323718846,0.17728868333645215,0.0049517927182766855
1681247190969308000,7.439307861328125,-0.0004258884582668543,0.007662534713745117,0.00769081199541688,0.34891125559806824,-0.026262642815709114,-0.9367877244949341,-0.0031928420066833496,-0.003827689215540886,0.00021851062774658203,0.9840573803295051,0.012443463371462854,0.1773451529686728,0.004997258616385646
1681247190984341000,7.454341064453125,-0.007499137427657843,0.0030467440374195576,0.0064455182291567326,0.3490127921104431,-0.026236016303300858,-0.9367506504058838,-0.00015109777450561523,-0.0012908466160297394,-0.0004899501800537109,0.9840477973157221,0.012419966061475508,0.17739905041724338,0.005051706213041519
1681247190999372800,7.469372802734375,-0.007385420612990856,-0.005476702935993671,0.004018579144030809,0.34902626276016235,-0.02615264244377613,-0.9367479085922241,0.0002168715000152588,0.0024709999561309814,0.0012621283531188965,0.9840466969315472,0.012368818448959444,0.17740644032546773,0.005100302689034582
1681247191014405600,7.484405517578125,-0.01323153916746378,-0.011934601701796055,0.0032071140594780445,0.3489077687263489,-0.02605271339416504,-0.9367948770523071,0.0032956302165985107,0.0013182088732719421,0.004650712013244629,0.9840585325593663,0.012313199929106119,0.17734415568236725,0.005128146570885007
1681247191029438700,7.499438720703125,-0.012153491377830505,-0.010178248398005962,-0.0012041459558531642,0.3487595319747925,-0.025925898924469948,-0.9368535876274109,0.0032760202884674072,-0.0010363832116127014,0.004755198955535889,0.9840733210715134,0.012245777324574407,0.17726604172215232,0.005145973382926741
1681247191044470800,7.514470703125,-0.008878389373421669,-0.004940075799822807,0.0011639369186013937,0.34863948822021484,-0.02581065334379673,-0.9369014501571655,0.001534491777420044,-0.0009837765246629715,0.0029567480087280273,0.9840855429940274,0.012187055936042987,0.17720256066130502,0.005147897945820471
1681247191059503900,7.52950390625,0.002568356692790985,-0.0009394753724336624,-0.0018781920662149787,0.34859031438827515,-0.02575947716832161,-0.9369211792945862,0.0003629624843597412,0.0003230702131986618,0.0015421509742736816,0.9840904870413161,0.012160165167410501,0.17717661476518298,0.0051532506745311955
1681247191074536000,7.544535888671875,0.006591061595827341,-0.005058053880929947,0.00026485370472073555,0.34855592250823975,-0.025778355076909065,-0.9369334578514099,0.0031897127628326416,0.0004792753607034683,0.003446519374847412,0.98409365417578,0.012171097270807292,0.17715853659199482,0.005146111391869255
1681247191089568800,7.55956884765625,0.004698086529970169,-0.005535825155675411,0.003069695085287094,0.34849080443382263,-0.025853285565972328,-0.9369555711746216,0.003682076930999756,-0.0005901958793401718,0.004017949104309082,0.9840993411188176,0.01220977536365058,0.17712460088208642,0.005143334987466543
1681247191104600800,7.574600830078125,-0.005241842474788427,-0.009992624633014202,0.0019668799359351397,0.3484084904193878,-0.025862567126750946,-0.936985969543457,0.0031235218048095703,-0.0041209496557712555,0.004689216613769531,0.9841068806087694,0.012210171993859738,0.17708173255096563,0.005168061784278101
1681247191119634000,7.589634033203125,-0.01692747324705124,-0.0096248434856534,-0.00035672809462994337,0.3482990264892578,-0.025719283148646355,-0.9370306134223938,0.0030651092529296875,-0.005927445366978645,0.004398167133331299,0.9841181601153786,0.012135197520903149,0.17702385367443876,0.005181073453755877
1681247191134667000,7.6046669921875,-0.015701619908213615,-0.0031208712607622147,-0.0024568969383835793,0.34821850061416626,-0.025447959080338478,-0.9370679259300232,0.0015129446983337402,-0.009464146569371223,0.0019482970237731934,0.9841275208949938,0.011995585461457518,0.17698065309489072,0.005191494722454993
1681247191149698800,7.61969873046875,-0.009101774543523788,-0.0016004722565412521,0.00038123386912047863,0.34818539023399353,-0.025261158123612404,-0.9370852708816528,0.0009967684745788574,-0.008460767567157745,-0.000582575798034668,0.9841319812804269,0.011901122576184522,0.17696249493038527,0.005189256534115608
1681247191164731600,7.634731689453125,0.003209166694432497,-0.00022787880152463913,0.003666509408503771,0.3482118248939514,-0.02522203139960766,-0.9370765089988708,0.0006498992443084717,0.0014030616730451584,0.0020789504051208496,0.9841296666410789,0.011877210702529388,0.17697648249964976,0.005211428179482616
1681247191179763700,7.649763671875,0.011220487765967846,-0.00018766522407531738,0.008629841729998589,0.3482271730899811,-0.025351300835609436,-0.9370673298835754,0.0010923147201538086,0.002844585105776787,0.0028937458992004395,0.9841271319155747,0.01193673708749133,0.1769854676535043,0.005245534361387215
1681247191194796800,7.664796875,0.0006914141122251749,-0.0011591864749789238,0.007185610476881266,0.34822890162467957,-0.0255269892513752,-0.9370619058609009,0.0020671486854553223,-0.0035104919224977493,0.003956437110900879,0.9841255574639061,0.01201742751427005,0.1769876359562854,0.005293235296497938
1681247191209830000,7.679829833984375,-0.006463966798037291,0.002154052257537842,-0.0004323618486523628,0.3482394516468048,-0.02553052082657814,-0.9370578527450562,0.0030026137828826904,-0.007626829668879509,0.007126212120056152,0.9841242948632279,0.012014042353636931,0.17699356712601488,0.005321943228861656
1681247191224862000,7.694862060546875,-0.0008288780227303505,0.0008349884301424026,-0.0024401191622018814,0.3482855558395386,-0.025526365265250206,-0.9370408654212952,0.0019189119338989258,-0.006272951140999794,0.004484772682189941,0.9841199813808095,0.012011393161393097,0.17701777843149064,0.005324496395859975
1681247191239894800,7.709894775390625,0.005167921539396048,0.0017130328342318535,-0.003908053506165743,0.34831640124320984,-0.025551099330186844,-0.937028706073761,0.003017246723175049,-0.0028149932622909546,0.0035418272018432617,0.9841170401452154,0.012026439886420107,0.1770338916277211,0.005310426921582119
1681247191254926800,7.7249267578125,0.013696055859327316,-0.004601055756211281,-0.004152798093855381,0.34828367829322815,-0.02567490190267563,-0.9370375275611877,0.0035992860794067383,0.0027867183089256287,0.003016531467437744,0.9841194395696973,0.012097934919302241,0.1770166340331491,0.005262995422095321
1681247191269960000,7.7399599609375,0.015083562582731247,-0.009950547479093075,-0.004953077994287014,0.34818235039711,-0.02588237076997757,-0.9370694756507874,0.005272269248962402,0.003314623609185219,0.0040708184242248535,0.9841278601749319,0.012213157169120453,0.1769635821530173,0.0052094170585343935
1681247191284993000,7.754992919921875,0.012882567010819912,-0.008312703110277653,-0.004155993461608887,0.3480882942676544,-0.0261323731392622,-0.937097430229187,0.003367394208908081,-0.0024015624076128006,0.004480302333831787,0.9841352440783576,0.012348624861458612,0.17691461882260093,0.005163337870389119
1681247191300024800,7.77002490234375,0.00480839516967535,0.0007889159023761749,-0.002973017515614629,0.34805676341056824,-0.026267221197485924,-0.9371054172515869,0.0018883347511291504,-0.006707021966576576,0.005449533462524414,0.9841374426520053,0.012423158935052372,0.17689817290357984,0.005130155453043089
1681247191315057700,7.7850576171875,0.0034076254814863205,0.007974923588335514,-0.0017607467016205192,0.34814420342445374,-0.026341713964939117,-0.9370708465576172,0.00027498602867126465,-0.007044518366456032,0.0015544891357421875,0.9841288081239458,0.012465699827210533,0.17694403788030008,0.00510332259469664
1681247191330089700,7.80008984375,-0.00035568757448345423,0.006233482621610165,-0.0007697844412177801,0.3482619524002075,-0.026345733553171158,-0.9370269775390625,-0.0011855363845825195,-0.005743499845266342,0.0032501220703125,0.9841177621495382,0.012470960860933637,0.1770056331753738,0.005084427052871015
1681247191345122800,7.815122802734375,0.008209357969462872,0.0020515206269919872,-0.0017974983202293515,0.348350465297699,-0.0263733621686697,-0.9369933009147644,0.002998441457748413,-0.003427056595683098,0.004467666149139404,0.9841092783528829,0.012488757425071023,0.1770519413268015,0.005062802564636433
1681247191360156000,7.830156005859375,0.013532217592000961,0.0010496391914784908,-0.0013905672822147608,0.3483932316303253,-0.02651336044073105,-0.9369734525680542,0.0037949085235595703,-0.0013186708092689514,0.006156802177429199,0.9841043831411173,0.012564258320303457,0.17707462746601518,0.00503820728754366
1681247191375188000,7.84518798828125,0.01842428557574749,0.0010166163556277752,0.0019495694432407618,0.34843677282333374,-0.026787159964442253,-0.9369494318962097,-0.0008415281772613525,-0.0009533129632472992,-0.0000928044319152832,0.984098276055012,0.012704612120017172,0.17709847804803533,0.005031062192628811
1681247191390220800,7.860220703125,0.019481293857097626,0.004609220661222935,0.001738913357257843,0.3484814167022705,-0.027075443416833878,-0.9369245767593384,0.0008075237274169922,0.0005098916590213776,0.002552628517150879,0.9840920175838523,0.01285274463223839,0.1771229247803165,0.005021585230694925
1681247191405252900,7.8752529296875,0.01638142764568329,0.0038552796468138695,-0.0008936214144341648,0.3485449254512787,-0.027388086542487144,-0.9368918538093567,-0.0012701153755187988,-0.0012526679784059525,0.0005515217781066895,0.9840837672727112,0.01301448548369262,0.17715728087963445,0.005005153075916596
1681247191420286000,7.890285888671875,0.008197054266929626,0.003686168696731329,-0.0010888311080634594,0.3485933542251587,-0.027555566281080246,-0.9368689060211182,0.0008786916732788086,-0.002687353640794754,0.0020545125007629395,0.9840781259437481,0.013101892756557794,0.17718317089959215,0.004991993242912599
1681247191435318800,7.90531884765625,0.005198228172957897,0.0022272891364991665,-0.004627639427781105,0.34865280985832214,-0.02762634865939617,-0.9368447065353394,-0.00037094950675964355,-0.005195301026105881,0.002762734889984131,0.9840720734356755,0.013141208469725758,0.17721441502824978,0.004972945685890604
1681247191450350800,7.920350830078125,0.001732923206873238,0.002872839570045471,-0.0023919157683849335,0.34869614243507385,-0.027662714943289757,-0.936827540397644,-0.00044476985931396484,-0.0048079900443553925,0.001524806022644043,0.9840677953894807,0.013165720957957962,0.1772368668033529,0.004939129435234453
1681247191465383700,7.9353837890625,0.00043372658547014,-0.00023427046835422516,-0.0038321532774716616,0.3487013280391693,-0.027667639777064323,-0.9368254542350769,-0.002097904682159424,-0.0018581189215183258,0.0032469630241394043,0.9840674394654724,0.01317293513960772,0.1772392573977956,0.004912924643976348
1681247191480415700,7.950415771484375,0.004951938986778259,0.0014331345446407795,-0.005238036159425974,0.34871870279312134,-0.027663592249155045,-0.9368190765380859,-0.0004520714282989502,0.0007776077836751938,0.0025539398193359375,0.9840659673771869,0.013177810211782343,0.17724785405074933,0.004874314447012717
1681247191495448800,7.96544873046875,0.002309284405782819,0.006691279821097851,-0.0021098870784044266,0.3487696349620819,-0.02769571729004383,-0.936799168586731,-0.0015558600425720215,-0.0022877994924783707,0.002228856086730957,0.9840610413982018,0.013199564777912821,0.17727432307154917,0.004843800655305207
1681247191510482000,7.98048193359375,0.007975692860782146,0.006392739247530699,-0.0034140371717512608,0.34884628653526306,-0.02776770479977131,-0.9367685317993164,-0.002151310443878174,0.00014928914606571198,0.0034189224243164062,0.984053480782108,0.013242357404716935,0.17731437041150364,0.004808774514632546
1681247191525514000,7.995513916015625,0.00873501319438219,0.010281753726303577,-0.004825512412935495,0.34896576404571533,-0.027888355776667595,-0.9367204308509827,-0.000958561897277832,-0.0024461206048727036,0.003675997257232666,0.9840413603589812,0.013309919360696598,0.17737711490287777,0.00477325824586477
1681247191540546800,8.010546875,0.009240587241947651,0.01297128014266491,-0.001194292213767767,0.3490997850894928,-0.028016243129968643,-0.9366666674613953,-0.0007416009902954102,-0.002684440463781357,0.0027524828910827637,0.9840279543415947,0.013380264368374379,0.17744754670672583,0.004742627664813557
1681247191555578600,8.02557861328125,0.011272366158664227,0.01447463408112526,-0.002738392911851406,0.3492986559867859,-0.0281442329287529,-0.936588704586029,0.0007379651069641113,-0.003166802227497101,0.003910481929779053,0.9840082269178062,0.013449400798883966,0.17755217114054053,0.004718588508868736
1681247191570611700,8.04061181640625,0.0037870192900300026,0.009173612110316753,-0.0023152166977524757,0.34944936633110046,-0.028242576867341995,-0.9365295171737671,0.002311527729034424,-0.003587251529097557,0.00372922420501709,0.9839932883278844,0.013503874884831122,0.17763134015951718,0.004692676823431733
1681247191585644800,8.055644775390626,-0.003924909047782421,0.008230320177972317,-0.004099801182746887,0.3495871126651764,-0.028230566531419754,-0.9364784359931946,0.005576461553573608,-0.006849395111203194,0.0045937299728393555,0.9839804307749398,0.01350222575599372,0.17770330084424482,0.004667091672035094
1681247191600676900,8.0706767578125,-0.011857294477522373,0.005069680977612734,-0.0063515035435557365,0.34969890117645264,-0.028085360303521156,-0.9364410638809204,0.006166607141494751,-0.009603850543498993,0.00417482852935791,0.9839711303860019,0.013434001901326147,0.17776103092897322,0.004635493720070399
1681247191615709700,8.085709716796876,-0.008938150480389595,0.0012057004496455193,-0.004658798687160015,0.34975698590278625,-0.027935167774558067,-0.9364238977432251,0.006306886672973633,-0.002643441781401634,0.0029064416885375977,0.9839668388469881,0.013362803271744224,0.17779058984174861,0.004606703009993214
1681247191630741800,8.10074169921875,0.004212805535644293,0.0035516791976988316,-0.0034902035258710384,0.3498009145259857,-0.02787873148918152,-0.9364091753959656,0.004492908716201782,-0.0005178805440664291,0.004524409770965576,0.9839632722055361,0.013339196076727332,0.1778130723663129,0.004578329922134835
1681247191645774800,8.11577490234375,0.012398190796375275,0.005889135412871838,-0.006478802766650915,0.3499052822589874,-0.02796211652457714,-0.9363676905632019,0.001519918441772461,-0.0003581978380680084,0.006420791149139404,0.9839529557509515,0.013390437087780564,0.17786752791785423,0.004528640275402165
1681247191660808000,8.130807861328124,0.01845693588256836,0.005253438837826252,-0.008100667968392372,0.350015252828598,-0.028152715414762497,-0.9363208413124084,0.00208127498626709,-0.0014951042830944061,0.005458474159240723,0.983941336451084,0.013498267543523398,0.17792517326526286,0.004467354158706083
1681247191675840000,8.145840087890624,0.008105228655040264,0.007885707542300224,-0.018540525808930397,0.35009291768074036,-0.028278006240725517,-0.936288058757782,0.0020799636840820312,-0.00590168684720993,0.0033046603202819824,0.9839334399636034,0.013580051094564071,0.17796504852597475,0.004366794551923891
1681247191690872800,8.160872802734374,-0.0013758912682533264,-0.003548840992152691,-0.0015413021901622415,0.3501414954662323,-0.028324944898486137,-0.9362684488296509,0.0035114288330078125,-0.010142464190721512,0.004246413707733154,0.9839287482639901,0.0136149704488106,0.17798988930523585,0.004305367974894672
1681247191705904000,8.175904052734374,-0.006077329162508249,-0.004731284454464912,-0.006729939021170139,0.35011088848114014,-0.028254782781004906,-0.9362820386886597,0.005571514368057251,-0.009937968105077744,0.002978205680847168,0.9839323863380081,0.013583877069513061,0.17797318842374907,0.004280278134021034
1681247191720937200,8.190937255859374,-0.009040149860084057,-0.010576390661299229,-0.00483989343047142,0.35003119707107544,-0.02813706547021866,-0.9363153576850891,0.004354208707809448,-0.009567400440573692,-0.0006657838821411133,0.9839410436501389,0.013533472691801232,0.17793019430379292,0.00422858579212806
1681247191735970300,8.20597021484375,-0.004516237415373325,-0.011369212530553341,-0.006274538114666939,0.3498800992965698,-0.028026187792420387,-0.9363752007484436,0.0057260096073150635,-0.001682668924331665,0.0048261284828186035,0.9839563936996577,0.01348352850968465,0.1778499488604816,0.004193927971094874
1681247191751002400,8.22100244140625,-0.0040251510217785835,-0.013611062429845333,-0.00946793518960476,0.3497271239757538,-0.027957681566476822,-0.9364343881607056,0.0019116997718811035,-0.002910846844315529,0.0026880502700805664,0.9839715885357556,0.013456422108244812,0.17776878183293673,0.00415204489189636
1681247191766035200,8.23603515625,-0.0046562133356928825,-0.009165448136627674,-0.00922585278749466,0.34960371255874634,-0.027885084971785545,-0.9364826083183289,0.0010585486888885498,-0.0006946250796318054,0.007176578044891357,0.9839840108190954,0.01342834729164033,0.17770305371350983,0.004103830158223452
1681247191781067000,8.25106689453125,-0.004825004376471043,-0.007296973839402199,-0.005677990149706602,0.3495095670223236,-0.027814220637083054,-0.9365198612213135,-0.0001137852668762207,-0.001864129677414894,0.0063745975494384766,0.9839937285036577,0.013400320843459337,0.17765274991228605,0.004060046280051712
1681247191796100000,8.26610009765625,-0.004056469537317753,-0.001579965464770794,-0.0016819171141833067,0.34949472546577454,-0.027798810973763466,-0.9365258812904358,-0.0031354427337646484,-0.002535667270421982,0.004061281681060791,0.9839952476067665,0.01339344756432698,0.17764483565056916,0.004054814822744635
1681247191811133200,8.28113330078125,-0.003968318924307823,0.004886455833911896,0.001988451462239027,0.34955182671546936,-0.02773938700556755,-0.9365063309669495,-0.0022464990615844727,-0.0013133548200130463,0.002348005771636963,0.9839902573619058,0.013363767061476267,0.17767458061433017,0.004051660527251938
1681247191826165200,8.296165283203125,-0.006652199197560549,0.010585886426270008,0.002086722059175372,0.34968942403793335,-0.027679920196533203,-0.9364566802978516,-0.0013465285301208496,0.0002446155995130539,0.0016422867774963379,0.9839775176252258,0.013328611624305443,0.17774701891763986,0.004078299561189734
1681247191841198000,8.311197998046875,-0.012275038287043571,0.002877366729080677,0.0017426416743546724,0.3498004376888275,-0.02756890282034874,-0.9364185333251953,-0.001243889331817627,-0.0008277054876089096,-0.0003032684326171875,0.9839676492092257,0.01326511981935114,0.177805463336891,0.004116875068842432
1681247191856230100,8.326230224609375,-0.02459908090531826,0.0009311288595199585,-0.001221456564962864,0.34984850883483887,-0.02732843905687332,-0.9364076256752014,0.0012867748737335205,-0.0034180209040641785,0.001638948917388916,0.9839647873191735,0.013136803472866252,0.17783032491760598,0.004150400687744857
1681247191871263200,8.34126318359375,-0.0299613568931818,-0.004614638164639473,-0.004767455160617828,0.3498380482196808,-0.026942679658532143,-0.9364227056503296,0.0038149356842041016,-0.004002144560217857,0.0011504888534545898,0.9839685412952309,0.012936296989026166,0.17782380382644258,0.004175088336130133
1681247191886296300,8.35629638671875,-0.030035285279154778,-0.008757716976106167,-0.011046390980482101,0.34973517060279846,-0.026492873206734657,-0.9364739656448364,0.0034295320510864258,-0.00428410992026329,0.004879117012023926,0.9839815619286487,0.012709106639470221,0.17776811937315637,0.0041678426046178
1681247191901328100,8.371328125,-0.03138231486082077,-0.012167363427579403,-0.010683933272957802,0.349568247795105,-0.026006627827882767,-0.9365499019622803,0.0044814348220825195,-0.0023136883974075317,0.0031087398529052734,0.9840010124475649,0.012467437451723448,0.17767840067512775,0.004138615130118118
1681247191916361200,8.386361328125,-0.015178309753537178,-0.009932969696819782,-0.01030709594488144,0.34939277172088623,-0.025625232607126236,-0.9366258978843689,0.0026274919509887695,-0.002466196194291115,0.0027727484703063965,0.984020448890184,0.012280639231327134,0.17758447185870394,0.004100675392293324
1681247191931393000,8.40139306640625,-0.003868130734190345,-0.006467132829129696,-0.005056674592196941,0.3492690324783325,-0.025476938113570213,-0.9366760849952698,0.0028427839279174805,-0.0020651761442422867,0.0022583603858947754,0.9840334401806126,0.012213810127640423,0.17751839235236094,0.0040540676279716146
1681247191946426000,8.416426025390624,0.01090069580823183,-0.006708681583404541,0.000771386781707406,0.3492021858692169,-0.025517981499433517,-0.9366998672485352,0.002009361982345581,-0.00019308552145957947,0.0016565322875976562,0.9840394608012113,0.012239320397864567,0.17748313396634877,0.004028644856874476
1681247191961459200,8.431459228515624,0.012985151261091232,-0.008845868520438671,0.003037736751139164,0.3491174876689911,-0.025721268728375435,-0.936725914478302,0.0012090802192687988,0.001246163621544838,0.001941978931427002,0.9840461735211221,0.012343732066606633,0.1774392338945753,0.004022965010718797
1681247191976491300,8.4464912109375,0.020129507407546043,-0.007421077229082584,0.006554707419127226,0.34903308749198914,-0.025963986292481422,-0.9367506504058838,0.001171410083770752,-0.002722533419728279,0.003904581069946289,0.9840524095121681,0.012464270978595676,0.17739592198951593,0.0040389718409409945
1681247191991524000,8.461524169921875,0.0029635699465870857,-0.0043581752106547356,0.005648167338222265,0.34895241260528564,-0.026150787249207497,-0.9367755055427551,0.00038230419158935547,-0.004671972244977951,0.002373039722442627,0.9840586307031232,0.012554448388444876,0.1773545282131306,0.004065757218275431
