time,seconds_elapsed,rotationRateX,rotationRateY,rotationRateZ,gravityX,gravityY,gravityZ,accelerationX,accelerationY,accelerationZ,quaternionW,quaternionX,quaternionY,quaternionZ
1681249792076573700,0.18657373046875,-0.003902820171788335,0.0008808751590549946,0.015281696803867817,0.1162758469581604,-0.350741982460022,-0.9292254447937012,-0.018955320119857788,0.0023839175701141357,-0.006275653839111328,0.9821468798486523,0.17855882836822862,0.05919473592467654,-1.828255103943893e-17
1681249792091606500,0.2016064453125,0.014645510353147984,0.0012185638770461082,0.022933758795261383,0.11558862030506134,-0.35085541009902954,-0.9292683601379395,-0.028811916708946228,0.007181793451309204,-0.006537914276123047,0.9821578071404372,0.17860311938240284,0.05887899873248055,0.00019126026307090188
1681249792106639600,0.2166396484375,0.01317917462438345,-0.009760584682226181,0.02454949915409088,0.11498385667800903,-0.35087960958480835,-0.929334282875061,-0.02942785620689392,0.0009804069995880127,-0.01289600133895874,0.9821745776890437,0.17860086219104454,0.05860541528733209,0.0003853405321905392
1681249792121674200,0.23167431640625,0.011599013581871986,-0.024764301255345345,0.018672434613108635,0.11392723023891449,-0.350730299949646,-0.9295207858085632,-0.0168202742934227,0.0005562305450439453,-0.007735073566436768,0.9822222528067096,0.17853917560837804,0.05799462901655134,-2.2897444616431476e-17
1681249792136707300,0.246707275390625,-0.006799966562539339,-0.03864017128944397,0.021867163479328156,0.11310799419879913,-0.3507404327392578,-0.9296169877052307,-0.013056084513664246,-0.0007306337356567383,0.0010129213333129883,0.9822466840406626,0.17853246162073713,0.057599187202452024,0.00012666701280381417
1681249792151740400,0.261740478515625,-0.03731808811426163,-0.054605551064014435,0.037375811487436295,0.11184485256671906,-0.35037633776664734,-0.9299070835113525,-0.006254017353057861,0.004535794258117676,0.012029945850372314,0.9823204721100622,0.17832310286301611,0.05698539498798215,0.00031120737495126636
1681249792166773200,0.276773193359375,-0.06846402585506439,-0.06624463200569153,0.04610032960772514,0.11051923781633377,-0.3495800793170929,-0.9303651452064514,-0.007278263568878174,0.0008556246757507324,0.011831879615783691,0.9824369192676266,0.17788060238230333,0.056355345119306156,0.0005956319324844572
1681249792181806300,0.291806396484375,-0.09146115928888321,-0.08238738775253296,0.03940274566411972,0.10856249183416367,-0.3483673334121704,-0.931050181388855,-0.006710045039653778,-0.008001774549484253,0.005009591579437256,0.9826110373698909,0.1772146830267567,0.05540641855190532,0.0009125282383211868
1681249792196839400,0.30683935546875,-0.1060132086277008,-0.08061665296554565,0.0339302159845829,0.10697954893112183,-0.3469661772251129,-0.931756317615509,-0.0013734549283981323,-0.008777320384979248,0.0006345510482788086,0.9827903431719927,0.1764566743749718,0.05463406586685211,0.0011564100055776023
1681249792211872300,0.321872314453125,-0.08737118542194366,-0.07741553336381912,0.03203244507312775,0.10549577325582504,-0.34571051597595215,-0.9323920607566833,0.002231314778327942,0.0029369592666625977,-0.0001488327980041504,0.9829518567194682,0.17578013552988944,0.053901086067521024,0.0013328398153397013
1681249792226905300,0.3369052734375,-0.04977001994848251,-0.06849953532218933,0.0317608043551445,0.10427520424127579,-0.3448338210582733,-0.9328538775444031,-0.0026668980717658997,0.005768179893493652,0.0045092105865478516,0.9830690980648784,0.17530464661884615,0.0533042915784532,0.0015070930485522346
1681249792241938200,0.351938232421875,-0.0055092922411859035,-0.05571236461400986,0.025850186124444008,0.1033230572938919,-0.34469959139823914,-0.9330093860626221,-0.012914702296257019,0.007480263710021973,0.016017258167266846,0.9831083192849134,0.17522283770793057,0.052841856908042176,0.0016421374627884305
1681249792256971000,0.366970947265625,-0.010065854527056217,-0.04846004396677017,0.017523813992738724,0.10248298197984695,-0.3447779417037964,-0.933073103427887,-0.01230350136756897,0.009664326906204224,0.01678287982940674,0.9831243437960099,0.1752552645427293,0.052431337410478236,0.0017405118913071144
1681249792272004000,0.382004150390625,-0.04858618602156639,-0.05975557863712311,0.003859931603074074,0.10174878686666489,-0.3446478843688965,-0.9332014918327332,-0.005755715072154999,-0.007433533668518066,0.0038650035858154297,0.9831570022584339,0.17518267710557084,0.052060359058063145,0.0017645160476562518
1681249792287037200,0.397037109375,-0.052526067942380905,-0.050880856812000275,0.007022702135145664,0.1010674387216568,-0.343956857919693,-0.9335304498672485,-0.0011681243777275085,-0.01550978422164917,0.0018135309219360352,0.9832408083133446,0.17481905894712008,0.051701798359369396,0.0017252017102516333
1681249792302070000,0.412070068359375,-0.019476931542158127,-0.022470787167549133,0.00895455852150917,0.10059721022844315,-0.34339722990989685,-0.9337872266769409,-0.009364880621433258,-0.0025196075439453125,0.005473017692565918,0.9833060080446073,0.17452287787110177,0.05146026993517378,0.0017338050555510528
1681249792317103000,0.42710302734375,0.011513739824295044,-0.005385543219745159,0.01930227130651474,0.10029404610395432,-0.34338417649269104,-0.9338245987892151,-0.018079660832881927,-0.001556098461151123,0.012773633003234863,0.9833153822757096,0.17450990123884627,0.0513223365691961,0.0018280964995093405
1681249792332136200,0.44213623046875,0.005606635939329863,0.006965665612369776,0.023484766483306885,0.10005733370780945,-0.3435267210006714,-0.9337975978851318,-0.019262030720710754,-0.009317576885223389,0.010885059833526611,0.9833081679551756,0.17457593851999115,0.051229373729774215,0.001979616787075936
1681249792347169300,0.457169189453125,-0.01642702706158161,0.004910237621515989,0.010765242390334606,0.09998306632041931,-0.3434693217277527,-0.9338266849517822,-0.014549069106578827,-0.011816442012786865,0.0056345462799072266,0.9833152016184811,0.17453736919735993,0.051218927592063035,0.0021360396991702583
1681249792362200300,0.472200439453125,-0.01850930042564869,0.0003322637639939785,0.00034376035910099745,0.1000089943408966,-0.3434630036354065,-0.933826208114624,-0.008578315377235413,-0.01987934112548828,0.004031956195831299,0.9833150003328723,0.17453206580757155,0.051239233981623625,0.002176159200134499
1681249792377233200,0.487233154296875,0.005606209859251976,0.0035285898484289646,-0.005437695886939764,0.09999415278434753,-0.34346437454223633,-0.93382728099823,-0.00970788300037384,-0.010890543460845947,-0.0017042756080627441,0.9833152405814205,0.17453291096215134,0.05123110351143521,0.0021729373750991854
1681249792392266200,0.502266357421875,0.012421078979969025,0.007219730876386166,-0.0008322915527969599,0.09983707219362259,-0.3436754047870636,-0.9337664842605591,-0.015196539461612701,0.005448967218399048,-0.008707880973815918,0.9832999073944801,0.1746433872376117,0.05115131716198176,0.002167563471380801
1681249792407299300,0.51729931640625,-0.00659176055341959,0.005043928511440754,-0.009582906030118465,0.09971904754638672,-0.34382811188697815,-0.9337228536605835,-0.01700112223625183,0.003923237323760986,-0.009255051612854004,0.9832887840737513,0.17472421994403328,0.05108842615572678,0.0021471169357796735
1681249792422332200,0.532332275390625,-0.02327161841094494,-0.0009971861727535725,-0.014012542553246021,0.09949259459972382,-0.34381574392318726,-0.9337515830993652,-0.01791907101869583,-0.017115771770477295,-0.006693363189697266,0.9832961942862524,0.17471915523731735,0.05096506739086172,0.0021031451351448795
1681249792437365200,0.547365234375,-0.022701380774378777,-0.004537592642009258,-0.021931983530521393,0.09949201345443726,-0.3436298668384552,-0.9338200688362122,-0.015110887587070465,-0.01643189787864685,-0.0006892085075378418,0.983313888394061,0.17462803617413478,0.050941416408441284,0.001977899137559368
1681249792452398300,0.5623984375,-0.014288721606135368,0.014986840076744556,-0.01550684217363596,0.09948384761810303,-0.3436025083065033,-0.933830976486206,-0.016521789133548737,-0.009531736373901367,0.00928574800491333,0.9833169563918243,0.17461952702875272,0.05091687447794406,0.0018640599620200799
1681249792467431400,0.577431396484375,0.0048381006345152855,0.02443360537290573,-0.006189772859215736,0.09971640259027481,-0.3434988558292389,-0.933844268321991,-0.024658389389514923,-0.01135966181755066,0.009131193161010742,0.9833202926457032,0.17456756779305901,0.051029553232691184,0.0018342033175348777
1681249792482464300,0.59246435546875,-0.012115688994526863,0.018879583105444908,0.0012417781399562955,0.09972505271434784,-0.3432524502277374,-0.9339339733123779,-0.02958036959171295,-0.019937366247177124,0.006611645221710205,0.9833430869245419,0.1744362581836211,0.05103919769019009,0.0018718263563514625
1681249792497497300,0.607497314453125,-0.021550150588154793,0.0003056321293115616,-0.0042342133820056915,0.09968677908182144,-0.34304824471473694,-0.9340130686759949,-0.022721417248249054,-0.021942079067230225,0.011070072650909424,0.9833631619752795,0.17432757251859624,0.051023025590341636,0.0018974339235819679
1681249792512531200,0.62253125,-0.02552822045981884,-0.0014685657806694508,-0.005764998495578766,0.09934014827013016,-0.34297043085098267,-0.934078574180603,-0.018254920840263367,-0.021577417850494385,0.008556783199310303,0.9833797744567093,0.17428516361613583,0.05084665221268566,0.0019020293201809733
1681249792527564300,0.637564208984375,-0.018762992694973946,0.016268618404865265,0.015226303599774837,0.09934959560632706,-0.3428024351596832,-0.9341392517089844,-0.01962239295244217,-0.012345999479293823,0.00719839334487915,0.9833950829510538,0.17419404122230625,0.050860638000763694,0.0019593359083790937
1681249792542597400,0.652597412109375,-0.0034161005169153214,0.020912107080221176,0.020350225269794464,0.09914597868919373,-0.34288856387138367,-0.9341292977333069,-0.03638654947280884,-0.007743269205093384,0.00380098819732666,0.9833921482387005,0.17422809581300178,0.05079296269536194,0.0021604611610727387
1681249792557630200,0.667630126953125,0.0013020086335018277,0.027576934546232224,0.02243201993405819,0.09909586608409882,-0.3430868983268738,-0.9340617656707764,-0.03674841672182083,-0.011939465999603271,0.0018261075019836426,0.9833744491115131,0.17432034899257337,0.05080874128050001,0.002386907301466208
1681249792572663300,0.682663330078125,-0.019153999164700508,0.020434867590665817,0.015500343404710293,0.09891436249017715,-0.3433867394924164,-0.9339708089828491,-0.02316969633102417,-0.013943701982498169,0.0066484808921813965,0.983350733591809,0.17446563343994423,0.050757547020690796,0.0026096275701370164
1681249792587696400,0.6976962890625,-0.04298635944724083,0.017161577939987183,0.018556587398052216,0.09898704290390015,-0.34325432777404785,-0.9340118169784546,-0.020007535815238953,-0.01647171378135681,0.012213170528411865,0.9833607286880197,0.1743873671053413,0.050824619659134665,0.0027835352266651035
1681249792602729200,0.712729248046875,-0.04439980536699295,0.019407421350479126,0.012241432443261147,0.09883058071136475,-0.34294599294662476,-0.9341416358947754,-0.024733886122703552,-0.020152240991592407,0.023512423038482666,0.9833930647919193,0.17421452484116978,0.050778820394230685,0.0029862606699462848
1681249792617762300,0.72776220703125,-0.023294148966670036,0.03562607243657112,0.0012774645583704114,0.09890995919704437,-0.3425005078315735,-0.9342966675758362,-0.030550561845302582,-0.020963937044143677,0.022324681282043457,0.9834322004664662,0.17397571032164397,0.050834289546108156,0.0030872059249674203
1681249792632795400,0.74279541015625,-0.019415095448493958,0.04576179385185242,0.011174836196005344,0.09878556430339813,-0.34238702058792114,-0.93435138463974,-0.03128065913915634,-0.0035755932331085205,0.014750003814697266,0.9834456219790794,0.1739072270544394,0.050799325068681095,0.0032522662731249968
1681249792647828200,0.757828125,-0.0636826902627945,0.03675205633044243,0.017644720152020454,0.09904497116804123,-0.34194937348365784,-0.9344841837882996,-0.028595127165317535,-0.012832820415496826,0.016774892807006836,0.9834786679998334,0.17366876798832473,0.05096136562552737,0.0034371682026613217
1681249792662861300,0.772861328125,-0.1354430615901947,0.020427946001291275,0.03525806590914726,0.09899485111236572,-0.34086695313453674,-0.9348848462104797,-0.022349923849105835,-0.03924483060836792,0.01702296733856201,0.983579400774523,0.1730852648843436,0.0509809182913645,0.003734314480942467
1681249792677894400,0.787894287109375,-0.16971953213214874,0.01930062845349312,0.05298326909542084,0.0988912507891655,-0.33892935514450073,-0.9356000423431396,-0.019499756395816803,-0.04408159852027893,0.024329960346221924,0.9837594858884653,0.17204674792293154,0.05098922440455821,0.004158802073237157
1681249792692927500,0.802927490234375,-0.14325149357318878,0.02977137826383114,0.08148469030857086,0.09850328415632248,-0.3372998833656311,-0.9362295866012573,-0.02928939461708069,-0.03635743260383606,0.0303763747215271,0.9839165048990652,0.1711582078838959,0.05089266174600682,0.004805434228708627
1681249792707960300,0.817960205078125,-0.11085706949234009,0.05428364872932434,0.11071208119392395,0.09840668737888336,-0.33579006791114807,-0.9367823600769043,-0.038988932967185974,-0.03220623731613159,0.030562877655029297,0.9840525834496253,0.17032390823350968,0.050976401762700074,0.005637002740669687
1681249792722993400,0.832993408203125,-0.0767754316329956,0.05889543890953064,0.1145361140370369,0.09827850759029388,-0.334866464138031,-0.9371263384819031,-0.04449126124382019,-0.030841022729873657,0.03702569007873535,0.984133787955816,0.16978803914191068,0.051076846389375735,0.006638839758503357
1681249792738026500,0.848026611328125,-0.06274835020303726,0.06940880417823792,0.10615701228380203,0.09856660664081573,-0.33426815271377563,-0.9373096823692322,-0.04146821051836014,-0.03974008560180664,0.03446245193481445,0.98417358518079,0.16942687262178585,0.051377994113016856,0.00756408734612162
1681249792753059300,0.863059326171875,-0.030104542151093483,0.09141770005226135,0.09607108682394028,0.09913486242294312,-0.33435824513435364,-0.9372175931930542,-0.032560743391513824,-0.023841947317123413,0.017829835414886475,0.9841431239703263,0.1694287473668459,0.051817910357714686,0.008433086468827133
1681249792768092400,0.878092529296875,-0.03153998777270317,0.1073380708694458,0.10932803899049759,0.09998748451471329,-0.33439087867736816,-0.9371153712272644,-0.035549595952034,-0.012319415807723999,0.01037287712097168,0.984108926032741,0.1693977699328992,0.05240902009810735,0.009341586393381092
1681249792783125500,0.89312548828125,-0.053473781794309616,0.11437414586544037,0.12160707265138626,0.10066749900579453,-0.3345285952091217,-0.936993420124054,-0.054479122161865234,-0.01642364263534546,0.01655280590057373,0.9840674003955167,0.16941312348810073,0.05293848403338654,0.010396406077890965
1681249792798158300,0.908158447265625,-0.12120238691568375,0.0956404060125351,0.12029439955949783,0.1013740748167038,-0.33369967341423035,-0.9372128248214722,-0.04923476278781891,-0.022348999977111816,0.021181941032409668,0.9841111228400444,0.16891971210737697,0.053476427957045734,0.011483036869352899
1681249792813191400,0.92319140625,-0.1858009248971939,0.08070140331983566,0.12434347718954086,0.10159632563591003,-0.33212214708328247,-0.9377489686012268,-0.03427452594041824,-0.03935319185256958,0.03885370492935181,0.9842337118265676,0.16803306295253612,0.053762556779263365,0.012597266934570122
1681249792828224500,0.938224609375,-0.2098279595375061,0.07743823528289795,0.14220528304576874,0.10192246735095978,-0.3296802043914795,-0.9385748505592346,-0.03251020610332489,-0.03912484645843506,0.046073079109191895,0.9844276397545463,0.16669050771652097,0.05410024778578789,0.01377730763271512
1681249792843257300,0.95325732421875,-0.13966400921344757,0.11314323544502258,0.14112751185894012,0.10227052122354507,-0.32753273844718933,-0.9392886161804199,-0.037985220551490784,-0.022076725959777832,0.05737638473510742,0.9845902317735051,0.16549702239167693,0.054465033779795176,0.015048482765666414
1681249792858290400,0.96829052734375,-0.09412528574466705,0.17037589848041534,0.17801813781261444,0.10334135591983795,-0.3261900246143341,-0.9396385550498962,-0.04860804229974747,-0.010006964206695557,0.049974918365478516,0.984656819805383,0.16471420477073975,0.05522630728611098,0.01644232069434064
1681249792873323500,0.983323486328125,-0.12143269926309586,0.1996789276599884,0.216041699051857,0.10473161935806274,-0.3251727521419525,-0.9398372173309326,-0.04888442903757095,0.006782799959182739,0.06413537263870239,0.9846763145320325,0.16407744307422462,0.056213756904977985,0.018202052248142142
1681249792888356400,0.9983564453125,-0.2608635425567627,0.19247214496135712,0.25462692975997925,0.10630198568105698,-0.32298582792282104,-0.9404148459434509,-0.04212350398302078,-0.023266702890396118,0.07351726293563843,0.9847824001719334,0.16280832228181924,0.05732398541555576,0.020273277535806652
1681249792903389400,1.013389404296875,-0.4133148789405823,0.19418323040008545,0.3008953332901001,0.10759762674570084,-0.31886082887649536,-0.9416742920875549,-0.009010560810565948,-0.06765967607498169,0.10826981067657471,0.985049088505175,0.16050620902145143,0.05831463877088069,0.02270297660109684
1681249792918422500,1.028422607421875,-0.5517536997795105,0.21624591946601868,0.3582039177417755,0.10893590748310089,-0.31256067752838135,-0.9436306357383728,0.0026516318321228027,-0.0773167610168457,0.12792634963989258,0.9854749763858206,0.15704317078058233,0.05934743125893802,0.02558184905914171
1681249792933455400,1.043455322265625,-0.7153623104095459,0.25077539682388306,0.4536140561103821,0.11038581281900406,-0.30424585938453674,-0.9461762309074402,0.002620801329612732,-0.07981798052787781,0.15763258934020996,0.9860221079897933,0.1524924193807738,0.060480963231176396,0.029133657804979844
1681249792948488200,1.05848828125,-0.8072171211242676,0.2535315155982971,0.5608699321746826,0.1116933822631836,-0.2940478026866913,-0.9492420554161072,0.0070352703332901,-0.08993968367576599,0.18245744705200195,0.986659147009853,0.14691814471631265,0.06159571802466197,0.03353764757481338
1681249792963521300,1.073521240234375,-0.8305895924568176,0.30726903676986694,0.6608042120933533,0.11302291601896286,-0.2834046185016632,-0.9523169994354248,0.03123369812965393,-0.09551697969436646,0.2083289623260498,0.9872488642451385,0.14107133561540952,0.0627724721195001,0.03870803585853688
1681249792978554400,1.088554443359375,-0.9262259602546692,0.36183881759643555,0.8188162446022034,0.11473064124584198,-0.2721887528896332,-0.9553796052932739,0.047653406858444214,-0.06702947616577148,0.2264520525932312,0.9877586915976054,0.13485711898772948,0.06421649886499285,0.04497414102203533
1681249792993587200,1.103587158203125,-1.160015344619751,0.3954963684082031,0.9713290929794312,0.11661501973867416,-0.2588939666748047,-0.9588403701782227,0.07596617192029953,-0.07246598601341248,0.26889896392822266,0.9882628854595245,0.12748996620122904,0.06577327927578554,0.052504382128284614
1681249793008620300,1.118620361328125,-1.5479689836502075,0.43755435943603516,1.1294203996658325,0.11867386847734451,-0.24135169386863708,-0.963154137134552,0.08524460345506668,-0.10119295120239258,0.3046916723251343,0.9888442441952938,0.1178603389940592,0.06731918141851143,0.06135441659890915
1681249793023653400,1.1336533203125,-2.06718373298645,0.45810410380363464,1.3089412450790405,0.1210726872086525,-0.21726813912391663,-0.9685741662979126,0.1045743077993393,-0.12568850815296173,0.3959423899650574,0.9895174375874758,0.10480088350979791,0.06877265637405865,0.07171121318421297
1681249793038686200,1.148686279296875,-2.528306722640991,0.49795031547546387,1.4843782186508179,0.12376248091459274,-0.186288520693779,-0.9746689200401306,0.10452427715063095,-0.15328067541122437,0.4417404532432556,0.9901227658554396,0.08816669656628463,0.06994418096192176,0.08361530222675961
1681249793053719300,1.16371923828125,-2.8080573081970215,0.4952554702758789,1.6674985885620117,0.1271948367357254,-0.1495530605316162,-0.9805383086204529,0.1144738495349884,-0.12313684821128845,0.48169803619384766,0.9903704105750106,0.06854579087957927,0.070938876679797,0.09713719971546322
1681249793068752400,1.17875244140625,-2.8318097591400146,0.5577681064605713,1.8208750486373901,0.1314367949962616,-0.11122534424066544,-0.9850651025772095,0.1231408417224884,-0.11539828032255173,0.48111313581466675,0.9899703604313262,0.04806889700208124,0.07181101142218857,0.11176402416481167
1681249793083785200,1.19378515625,-2.864549398422241,0.6600432991981506,2.047630548477173,0.13780473172664642,-0.0730319395661354,-0.9877632260322571,0.17088058590888977,0.060153424739837646,0.4010475277900696,0.9886961002628132,0.02745767829807525,0.07324248673180855,0.1279130416830003
1681249793098818300,1.208818359375,-3.035132646560669,0.7523282170295715,2.23044753074646,0.14657063782215118,-0.03396730497479439,-0.9886168241500854,0.19000773131847382,0.06793328374624252,0.3990630507469177,0.9864776074190742,0.006125827818372227,0.07519342121487656,0.14550022832272272
1681249793113851400,1.223851318359375,-3.381948471069336,0.8348108530044556,2.447908878326416,0.15790626406669617,0.008166397921741009,-0.9874203205108643,0.17819908261299133,-0.012042214162647724,0.43033725023269653,0.9831648605728095,-0.01711879980050157,0.07743885438514234,0.16461250346516584
1681249793128884200,1.23888427734375,-3.8981704711914062,0.9589043259620667,2.692563056945801,0.17237208783626556,0.05554288253188133,-0.9834647178649902,0.17386510968208313,-0.0746622234582901,0.46610021591186523,0.9784309834495967,-0.043518613951738894,0.07983588531078142,0.1854870025474823
1681249793143917300,1.253917236328125,-4.370406627655029,0.9960964322090149,2.9000418186187744,0.1904117614030838,0.10915200412273407,-0.9756173491477966,0.1748073548078537,-0.12523484230041504,0.5541085600852966,0.9718381202809541,-0.07375831905584664,0.08216469666091891,0.20818119342170885
1681249793158950400,1.268950439453125,-4.849609851837158,1.1011496782302856,2.952519416809082,0.21157832443714142,0.16709846258163452,-0.9629707932472229,0.16668705642223358,-0.1612086445093155,0.5637550950050354,0.9632496290321443,-0.10695917701077289,0.0841091174062504,0.23159386196561974
1681249793173983200,1.283983154296875,-5.487692832946777,1.2191047668457031,3.284729480743408,0.2375943958759308,0.23075111210346222,-0.9435586333274841,0.23281879723072052,0.03995499014854431,0.47364890575408936,0.9519361224161059,-0.14432946703413277,0.08596337734514471,0.25611926728920514
1681249793189016300,1.299016357421875,-6.219237327575684,1.2056536674499512,3.665395498275757,0.26863473653793335,0.2993541955947876,-0.9155449271202087,0.29446035623550415,0.08071166276931763,0.47346723079681396,0.936801530452563,-0.18610897701647725,0.08712630372743373,0.283152954783752
1681249793204049400,1.31404931640625,-6.823920249938965,1.0876543521881104,3.9269750118255615,0.30336812138557434,0.37112298607826233,-0.8776306509971619,0.34400126338005066,-0.010328978300094604,0.5085967779159546,0.9172805353819902,-0.2317323067368207,0.08651485688826883,0.31210867814252186
1681249793219082200,1.329082275390625,-7.251079082489014,0.904254138469696,4.186203479766846,0.3409770727157593,0.44202616810798645,-0.8296670913696289,0.32369574904441833,-0.11576274037361145,0.4909372329711914,0.8931313681994371,-0.2795558992654238,0.08375529378357423,0.3422716651997378
1681249793234115300,1.344115234375,-7.455076694488525,0.6650298237800598,4.478265762329102,0.38154664635658264,0.5073633790016174,-0.7726607322692871,0.34345945715904236,-0.1573115587234497,0.5034498572349548,0.86412193252235,-0.3277522247357901,0.07904508240450524,0.37366255272851867
1681249793249148400,1.3591484375,-7.459561347961426,0.4205354154109955,4.597891330718994,0.42418181896209717,0.5630001425743103,-0.7092958688735962,0.34547150135040283,-0.1683315634727478,0.4331575632095337,0.8307898835011703,-0.3742731902548849,0.07260611133934054,0.40550724179132425
1681249793264181200,1.37418115234375,-7.564071178436279,0.29761189222335815,4.815476894378662,0.46908140182495117,0.6077322959899902,-0.6407995820045471,0.43419313430786133,0.0014900565147399902,0.3489904999732971,0.7933938681179441,-0.4187815184917852,0.06497878190056897,0.4369508223347262
1681249793279214300,1.38921435546875,-7.846015453338623,0.057434163987636566,5.190733432769775,0.5178338289260864,0.640448272228241,-0.5671632289886475,0.4792516827583313,0.12873202562332153,0.31250929832458496,0.7508082873515871,-0.4617686795015805,0.05646309249851121,0.4689013688119077
1681249793294247400,1.404247314453125,-8.255836486816406,-0.262752890586853,5.412872314453125,0.5691692233085632,0.6608635783195496,-0.48918887972831726,0.5980518460273743,0.17295295000076294,0.3644787669181824,0.7022531236640058,-0.503289878826658,0.04587868564765729,0.5014330342134974
1681249793309280500,1.419280517578125,-8.800536155700684,-0.6060455441474915,5.483234405517578,0.6209349036216736,0.6695609092712402,-0.40758809447288513,0.5984101891517639,0.08591699600219727,0.35760027170181274,0.6476223283591406,-0.5433052374927897,0.03202141999845929,0.5332723587807336
1681249793324313300,1.434313232421875,-9.30407428741455,-1.0581181049346924,5.546629905700684,0.6719053983688354,0.6657348871231079,-0.3245616555213928,0.6597291231155396,-0.014550745487213135,0.4588389992713928,0.586700839796479,-0.5809636258914076,0.01415745892292677,0.5639707721459402
1681249793339346400,1.449346435546875,-9.598440170288086,-1.5261127948760986,5.563104629516602,0.721426784992218,0.6479137539863586,-0.24444137513637543,0.6871731281280518,0.009816527366638184,0.45348677039146423,0.5199371792565565,-0.6145926411963427,-0.007429705486689034,0.5932000414429397
1681249793354379500,1.464379638671875,-9.554149627685547,-1.9438588619232178,5.561100006103516,0.7688968181610107,0.6156613826751709,-0.1725071668624878,0.7820369601249695,0.1128695011138916,0.4682224988937378,0.44889068421369027,-0.6424678277536514,-0.0313290623271492,0.620282807243055
1681249793369415000,1.479414794921875,-8.987337112426758,-2.2635791301727295,5.626797676086426,0.8143042922019958,0.5690091252326965,-0.11461874842643738,0.7936822772026062,0.22074013948440552,0.44254541397094727,0.3758716430051284,-0.6630999328577053,-0.05467271089150363,0.6450039380330513
1681249793384447000,1.494447021484375,-7.821146488189697,-2.4573705196380615,5.657941818237305,0.8568338751792908,0.5099947452545166,-0.07577133923768997,0.8563466668128967,0.40121448040008545,0.4166069030761719,0.30433951932997455,-0.6757569096262221,-0.07393868911382186,0.6672804970014143
1681249793399480800,1.509480712890625,-5.97406530380249,-2.4964489936828613,5.664342880249023,0.8949859738349915,0.44224146008491516,-0.05850597470998764,0.8429749011993408,0.5120891332626343,0.3762855529785156,0.23849636435438187,-0.6807623046309212,-0.08549677258135636,0.6872937193618537
1681249793414514000,1.524513916015625,-3.538074016571045,-2.3415796756744385,5.545506954193115,0.9270600080490112,0.36961430311203003,-0.06281093508005142,0.8198729753494263,0.6644434332847595,0.2148190140724182,0.18315388111505687,-0.6791634836422175,-0.08562414627856928,0.7055921319800157
1681249793429546800,1.539546630859375,-0.17324215173721313,-1.9435113668441772,5.34032678604126,0.9520469307899475,0.2942139208316803,-0.08393361419439316,0.7891181707382202,0.8381103873252869,0.06615716964006424,0.14301153986591358,-0.6731093172471181,-0.07040625240226232,0.7221596388705269
1681249793444579800,1.554579833984375,2.347662925720215,-1.3987758159637451,5.229261875152588,0.9697433114051819,0.2163335233926773,-0.1131284236907959,0.7778458595275879,1.310537338256836,-0.3100435137748718,0.11969754625412724,-0.664776551303904,-0.038832025375765127,0.7363673679717511
1681249793459613000,1.569613037109375,3.877049684524536,-0.7652541399002075,4.54048490524292,0.9810259938240051,0.13738752901554108,-0.1367942839860916,0.7085034251213074,1.4578883647918701,-0.2606360912322998,0.10715291299563512,-0.65696092501463,0.002280032802370684,0.7462676434516529
1681249793474645800,1.584645751953125,5.808872699737549,-0.517612636089325,3.1189074516296387,0.9856938719749451,0.07049014419317245,-0.15309765934944153,0.3706752061843872,1.0921075344085693,0.03328569233417511,0.10960366784483501,-0.64897620375347,0.04776044552418117,0.7513560618352763
1681249793489678800,1.599678955078125,6.799318790435791,0.15983377397060394,2.4476921558380127,0.9868679642677307,0.0148096838966012,-0.16084925830364227,0.19124794006347656,0.9942693710327148,0.14113491773605347,0.12509209959548362,-0.6404791650123591,0.09675644369180078,0.7515162701829358
1681249793504712000,1.6147119140625,6.601735591888428,0.7976281046867371,2.1278598308563232,0.9877886772155762,-0.035432118922472,-0.1517174243927002,0.019093096256256104,0.8042310476303101,0.1249535083770752,0.1443930754326925,-0.6345098135352575,0.1467602919070927,0.7449895392891914
1681249793519744800,1.629744873046875,5.015349388122559,1.0102064609527588,1.478977918624878,0.9882648587226868,-0.07494815438985825,-0.13309909403324127,0.030533969402313232,0.6224030256271362,0.07018716633319855,0.16099162675658402,-0.6306436070379526,0.1890478580541219,0.7352763375472338
1681249793534777900,1.64477783203125,3.2203850746154785,0.9389662742614746,1.0497373342514038,0.9884331226348877,-0.10101856291294098,-0.11311767250299454,0.10325706005096436,0.46379631757736206,-0.04566526412963867,0.17207085029734015,-0.628985162512862,0.21867516506333062,0.7259136781527367
1681249793549811000,1.65981103515625,1.7538255453109741,0.8835837244987488,0.7776983380317688,0.9883447885513306,-0.11848501116037369,-0.09558364003896713,0.13233709335327148,0.49572810530662537,-0.12255597114562988,0.17722310267387592,-0.6290936217573367,0.23759081421743844,0.7185986103876814
1681249793564843800,1.67484375,0.5944657921791077,0.8805919289588928,0.5651663541793823,0.9882791638374329,-0.12980706989765167,-0.08034022897481918,0.044145822525024414,0.48605406284332275,-0.22128021717071533,0.17748774483326044,-0.6311078288731305,0.24805804242227653,0.713209865117215
1681249793579876900,1.689876953125,-0.15125258266925812,0.7976299524307251,0.526026725769043,0.9881402254104614,-0.13796396553516388,-0.06741733103990555,-0.006542205810546875,0.49904799461364746,-0.22799283266067505,0.17393403581425157,-0.6343669694611433,0.252724917328541,0.7095461386061882
1681249793594910000,1.704909912109375,-0.4734489619731903,0.6734976172447205,0.5381432771682739,0.9876855611801147,-0.14560604095458984,-0.057238057255744934,-0.02189570665359497,0.5728979706764221,-0.21082830429077148,0.1680624892319356,-0.6376892979984161,0.25442745785482185,0.7073712567847199
1681249793609943000,1.719943115234375,-0.5691922903060913,0.5540465712547302,0.5075384974479675,0.987005889415741,-0.152941033244133,-0.0492800697684288,-0.01918661594390869,0.6367515325546265,-0.2284298539161682,0.16155603781929126,-0.6406202383152944,0.25488365072659097,0.706073474347529
1681249793624976000,1.734975830078125,-0.6402701735496521,0.3906491696834564,0.44053927063941956,0.9862130880355835,-0.15961380302906036,-0.04367217421531677,-0.03586512804031372,0.722846269607544,-0.25353848934173584,0.15522731762420527,-0.6429261173872056,0.2545779268043397,0.7055073466766195
1681249793640009000,1.750009033203125,-0.757747232913971,0.24580779671669006,0.3366698622703552,0.9854686856269836,-0.16490939259529114,-0.04070025682449341,-0.05813097953796387,0.7254868149757385,-0.2480418086051941,0.14916186431231904,-0.6446704649040559,0.2530807438489862,0.705762681159285
1681249793655042000,1.7650419921875,-0.755466103553772,0.1421293467283249,0.2510468363761902,0.9848542213439941,-0.16874881088733673,-0.039827149361371994,-0.11623227596282959,0.7050952911376953,-0.210554301738739,0.14354169958589197,-0.6459664116743974,0.2506268535351165,0.706618306320753
1681249793670075000,1.780074951171875,-0.6638962626457214,0.08145960420370102,0.17767752707004547,0.9843714237213135,-0.17147932946681976,-0.040098026394844055,-0.1294519305229187,0.7021037936210632,-0.20622456073760986,0.1387594611918237,-0.6468758690437013,0.24799717101093688,0.7076686057341269
1681249793685108000,1.79510791015625,-0.6609960794448853,0.07461102306842804,0.06096769496798515,0.9841253757476807,-0.17271928489208221,-0.040811486542224884,-0.11004078388214111,0.6997273564338684,-0.2484036087989807,0.13486553136216037,-0.6476954320950971,0.2451221826944524,0.7086728211840388
1681249793700141000,1.81014111328125,-0.7417524456977844,0.06436078250408173,-0.11106877774000168,0.9842313528060913,-0.17191794514656067,-0.04162980616092682,-0.09957242012023926,0.6901065111160278,-0.2720908522605896,0.131485335208707,-0.6487927873990095,0.24135661504954933,0.70959608494315
1681249793715174000,1.825173828125,-0.9400928020477295,0.07175717502832413,-0.2887740433216095,0.984799325466156,-0.16834773123264313,-0.04277142137289047,-0.07410895824432373,0.6443609595298767,-0.28304946422576904,0.12838507455070125,-0.6503350736910546,0.23596309112881692,0.7105652776715607
1681249793730207000,1.84020703125,-1.1816213130950928,0.029937293380498886,-0.5020184516906738,0.985797107219696,-0.16191315650939941,-0.04459168389439583,-0.053408682346343994,0.6127188801765442,-0.2618810534477234,0.12517222939309533,-0.6523137054651471,0.22845346807306294,0.7117779454640163
1681249793745240000,1.855239990234375,-1.3921629190444946,-0.005314969457685947,-0.7763506770133972,0.9873161911964417,-0.15148138999938965,-0.04754400998353958,-0.0292472243309021,0.5313947796821594,-0.18100208044052124,0.1222426120860759,-0.6546332187970287,0.21836516291581184,0.7133224289791481
1681249793760273000,1.87027294921875,-1.4877341985702515,0.0394493043422699,-1.0088672637939453,0.9892703890800476,-0.13707555830478668,-0.05054347589612007,-0.025754094123840332,0.5119993090629578,-0.16672641038894653,0.11991779657159844,-0.6574308291098566,0.20618673001425664,0.7147668287395423
1681249793775306000,1.885305908203125,-1.4459943771362305,0.09966124594211578,-1.2268706560134888,0.9914855360984802,-0.11924363672733307,-0.052320707589387894,-0.013305604457855225,0.5537834763526917,-0.1519181728363037,0.11852185134513821,-0.660819962451974,0.19276053405892943,0.7156206754529827
1681249793790339000,1.900339111328125,-1.335581660270691,0.13986006379127502,-1.4052865505218506,0.9937412142753601,-0.09841994941234589,-0.052839167416095734,0.007036983966827393,0.5561226606369019,-0.1461506485939026,0.11851622232040263,-0.6645442827650738,0.17877726936322164,0.7158027002941927
1681249793805372000,1.915371826171875,-1.155139446258545,0.17544974386692047,-1.5710395574569702,0.9958128333091736,-0.075105220079422,-0.052118487656116486,0.09012484550476074,0.5499893426895142,-0.10118652135133743,0.12006687242677865,-0.6684414166972285,0.16470224460567254,0.7152925052891324
1681249793820405000,1.930405029296875,-0.8754655718803406,0.20786415040493011,-1.7333863973617554,0.9975069165229797,-0.04953901469707489,-0.0502602681517601,0.11969596147537231,0.5327544212341309,-0.08868622779846191,0.12358881306472931,-0.672346914646166,0.15106122057806526,0.7140420531054756
1681249793835438000,1.94543798828125,-0.5435641407966614,0.22429399192333221,-1.890933871269226,0.9986369609832764,-0.021787120029330254,-0.04743218794465065,0.1532490849494934,0.5187506675720215,-0.08701294660568237,0.12947897497449598,-0.6761426368171967,0.13825715241411304,0.7120052315201147
1681249793850470700,1.960470703125,-0.23232373595237732,0.18448905646800995,-2.0727152824401855,0.9989774227142334,0.00822614785283804,-0.044459018856287,0.15985137224197388,0.48087915778160095,-0.07246905565261841,0.13791886237839426,-0.6795676648097718,0.12632608174820364,0.7093715264736175
1681249793865503700,1.975503662109375,-0.008878882974386215,0.17266355454921722,-2.2860260009765625,0.9982777833938599,0.041094228625297546,-0.04186965525150299,0.11567497253417969,0.3805824816226959,-0.012970387935638428,0.1487974800752772,-0.6825727861094238,0.11471514575807237,0.7062537003697259
1681249793880536800,1.990536865234375,0.14138299226760864,0.19933538138866425,-2.4832468032836914,0.9962641000747681,0.0769442543387413,-0.03921585902571678,0.06919634342193604,0.29967325925827026,0.01609879359602928,0.16167660627617494,-0.6854098281752805,0.10298270680832346,0.7024733565756798
1681249793895570000,2.00556982421875,0.3536710739135742,0.23474663496017456,-2.623188018798828,0.9926738142967224,0.11521417647600174,-0.03639543429017067,-0.02519017457962036,0.21132400631904602,0.044681012630462646,0.17625801816667785,-0.6880980045217607,0.0912327778124334,0.6979476578821667
1681249793910602800,2.020602783203125,0.5740018486976624,0.31613948941230774,-2.7213120460510254,0.9873660802841187,0.15491649508476257,-0.03330617770552635,-0.05160552263259888,0.1657928079366684,0.02816397324204445,0.1925420552743393,-0.6905951877857912,0.08015733275902817,0.6925176714941057
1681249793925635800,2.0356357421875,0.7220548391342163,0.2971421182155609,-2.733619213104248,0.9802973866462708,0.19517280161380768,-0.03041258454322815,-0.013240993022918701,0.14030702412128448,-0.03852659463882446,0.20999735039785547,-0.6927661610902316,0.06977645779966027,0.6863727438097776
1681249793940669000,2.0506689453125,0.771051824092865,0.17057989537715912,-2.6727216243743896,0.9716389775276184,0.23463213443756104,-0.02942102774977684,0.07728075981140137,0.09486623108386993,-0.03573399782180786,0.2277118997138718,-0.6940503065170629,0.05986366656500047,0.6803366043944706
1681249793955701800,2.06570166015625,0.811571478843689,0.05605597794055939,-2.554992198944092,0.9616241455078125,0.27261778712272644,-0.030966250225901604,0.21800249814987183,0.03231397271156311,0.031042572110891342,0.24523561930788312,-0.6942521985774749,0.05030665561756465,0.6747909161259048
1681249793970735900,2.08073583984375,0.9316912293434143,0.001301654614508152,-2.356581926345825,0.9508270621299744,0.3077947497367859,-0.03450235724449158,0.23171383142471313,-0.016794323921203613,0.07152020931243896,0.26225074330286147,-0.6935434822677691,0.041788281929714496,0.6696833617803486
1681249793985768700,2.095768798828125,1.126476526260376,0.041364118456840515,-2.1290669441223145,0.9398418068885803,0.33932313323020935,-0.03946232050657272,0.16547435522079468,-0.029279738664627075,0.10675358772277832,0.2789100039551618,-0.6921215008891608,0.03516627557767643,0.6647859890008527
1681249794000801800,2.1108017578125,1.3725109100341797,0.03334613889455795,-1.9146757125854492,0.9291419982910156,0.3669044077396393,-0.045568812638521194,0.15055471658706665,-0.02899843454360962,0.08048093318939209,0.2955149026764501,-0.6901100406188915,0.03104393786532243,0.6598904831847288
1681249794015835000,2.1258349609375,1.4208744764328003,-0.12450367212295532,-1.7607791423797607,0.9186092019081116,0.39144080877304077,-0.05414137244224548,0.2573551535606384,-0.019751906394958496,0.05754411593079567,0.3119250275642586,-0.6871125876257143,0.028383208747369295,0.6555711328954658
1681249794030867700,2.14086767578125,1.2969175577163696,-0.29740965366363525,-1.6253278255462646,0.9081847667694092,0.4134202301502228,-0.06545262783765793,0.33328545093536377,-0.04077005386352539,0.07740028202533722,0.3273520038594414,-0.683083211774988,0.025903907413719052,0.6523549102249014
1681249794045900800,2.15590087890625,1.059647560119629,-0.36472371220588684,-1.5137847661972046,0.8977975845336914,0.4335121214389801,-0.07763230055570602,0.3289175033569336,-0.12464365363121033,0.13466966152191162,0.341164941699072,-0.6787232715496482,0.022772120524539648,0.6499404919190098
1681249794060934000,2.170933837890625,0.8227367401123047,-0.31219208240509033,-1.3945581912994385,0.887688398361206,0.4518565237522125,-0.08851616829633713,0.26132893562316895,-0.16973671317100525,0.15574640035629272,0.35307799826554065,-0.6748179685693746,0.019042706530277433,0.647760813104089
1681249794075966700,2.185966796875,0.6869350671768188,-0.208229199051857,-1.3223810195922852,0.8779399991035461,0.4688170254230499,-0.09711731225252151,0.1246996521949768,-0.19490647315979004,0.1588848978281021,0.3634719189173679,-0.6717241532990098,0.015099863382297152,0.6453268565331425
1681249794090999800,2.200999755859375,0.6470209360122681,-0.1262666881084442,-1.28452730178833,0.8683615922927856,0.4848910868167877,-0.1040610745549202,0.09802323579788208,-0.19894134998321533,0.1497764140367508,0.37315858538000896,-0.6692093995157735,0.011324348268013809,0.6424820379345293
1681249794106033000,2.216032958984375,0.6120637655258179,-0.09004770219326019,-1.2688080072402954,0.8587095737457275,0.5004817247390747,-0.11016355454921722,0.09043288230895996,-0.19678598642349243,0.08481872081756592,0.38250436317512954,-0.6669782129793447,0.00763459592011463,0.6393530060047279
1681249794121065700,2.231065673828125,0.5561171174049377,-0.06042296439409256,-1.2418509721755981,0.8489823937416077,0.5156330466270447,-0.11555061489343643,0.10574495792388916,-0.21916985511779785,0.06748543679714203,0.3914558451935739,-0.6649881813695118,0.003925899871458072,0.6360329154857577
1681249794136098800,2.246098876953125,0.521619439125061,-0.07869038730859756,-1.18790864944458,0.8392788171768188,0.5301498770713806,-0.12063321471214294,0.12968486547470093,-0.24975425004959106,0.08115875720977783,0.39995352595081024,-0.6630862314946488,0.00020347414370396996,0.6327352364821449
1681249794151132000,2.2611318359375,0.529247522354126,-0.0774698555469513,-1.1019405126571655,0.8298630118370056,0.5435804724693298,-0.1258891522884369,0.1339433193206787,-0.2556469440460205,0.10873828828334808,0.40800239938096194,-0.6610935588227645,-0.0032755046327288635,0.6296656550820425
1681249794166165000,2.2761650390625,0.5656295418739319,-0.03823164105415344,-1.0205239057540894,0.8209695219993591,0.5557121634483337,-0.13112212717533112,0.09300130605697632,-0.25140607357025146,0.14064361155033112,0.4157287687280568,-0.6590911446730862,-0.006148132967336011,0.6266822580415886
1681249794181197800,2.29119775390625,0.6098118424415588,0.004521416500210762,-0.956893801689148,0.8125966191291809,0.5666623115539551,-0.13631205260753632,0.07168090343475342,-0.26031142473220825,0.14830546081066132,0.42327168513672087,-0.6570954470696971,-0.008339397819001294,0.6236965104159385
1681249794196231000,2.30623095703125,0.7136820554733276,0.04453301429748535,-0.9031025171279907,0.8046507835388184,0.5765995383262634,-0.1416698843240738,0.02854013442993164,-0.2826541066169739,0.14369934797286987,0.4308661538350836,-0.6550339462442383,-0.009776750655203378,0.6206363439623206
1681249794211264000,2.321263916015625,0.8582683205604553,0.053823187947273254,-0.8689133524894714,0.7969998121261597,0.5855709314346313,-0.14798037707805634,0.016263127326965332,-0.3066096305847168,0.11787480115890503,0.43888260902184284,-0.6526128857269503,-0.01030683371823548,0.6175535496895842
1681249794226296800,2.336296875,0.9611135721206665,0.0810750424861908,-0.8065711855888367,0.7896623611450195,0.5935527086257935,-0.15533488988876343,-0.010487377643585205,-0.3124094009399414,0.047684118151664734,0.4472568497270895,-0.6497940784264221,-0.010010350097141699,0.6145152577515317
1681249794241330000,2.351329833984375,1.0009448528289795,0.11895637959241867,-0.6844004988670349,0.7831488847732544,0.6000839471817017,-0.1630246341228485,-0.01232069730758667,-0.31256258487701416,0.04577614367008209,0.4555440778902907,-0.6468465316196941,-0.00878895123195738,0.6115487516370458
1681249794256363000,2.366363037109375,0.9927607178688049,0.10970988869667053,-0.5262995362281799,0.7778535485267639,0.604811429977417,-0.170725479722023,0.015832364559173584,-0.31970083713531494,0.07584631443023682,0.46320979958179037,-0.643887252542352,-0.006816539919592902,0.6089331188981023
1681249794271395800,2.381395751953125,1.003061294555664,0.07103493064641953,-0.3396630585193634,0.7740520238876343,0.6073455810546875,-0.17881593108177185,0.04510092735290527,-0.33071887493133545,0.10333071649074554,0.47005845907265237,-0.6407615571846155,-0.004081370363837378,0.6070034958976979
1681249794286429000,2.396428955078125,1.0110794305801392,0.03911694139242172,-0.13790732622146606,0.7718942761421204,0.6074686050415039,-0.18751326203346252,0.09066981077194214,-0.32785117626190186,0.10096544027328491,0.4760564045887451,-0.6373720338544296,-0.000510399713113825,0.6059100630864066
1681249794301462000,2.4114619140625,0.9496459364891052,0.006078033708035946,0.07193192839622498,0.7716122269630432,0.6050607562065125,-0.19625546038150787,0.11829560995101929,-0.3136330842971802,0.09644772112369537,0.48094681410658213,-0.6339220652389638,0.0038841088351836426,0.6056549703866346
1681249794316494800,2.426494873046875,0.7897729873657227,-0.03413862735033035,0.28246840834617615,0.7731521725654602,0.6003538966178894,-0.2044771909713745,0.17800438404083252,-0.2942931056022644,0.0932864248752594,0.4843286088829121,-0.6306237994748739,0.00866193793854019,0.6063533429244368
1681249794331528000,2.44152783203125,0.5174844861030579,-0.04619608819484711,0.49095502495765686,0.7765010595321655,0.593784511089325,-0.21087084710597992,0.2037847638130188,-0.2933692932128906,0.10691270232200623,0.48570934674143906,-0.6280012247425809,0.01338055861246209,0.607883313177262
1681249794346561800,2.456561767578125,0.1885143518447876,-0.0898871123790741,0.6715884208679199,0.781446099281311,0.5858197212219238,-0.21484240889549255,0.2430747151374817,-0.30872011184692383,0.15917839109897614,0.48470683965864747,-0.6263171118619231,0.01748339436353834,0.610311820060455
1681249794361593900,2.47159375,-0.14156508445739746,-0.019550364464521408,0.814511775970459,0.7877463102340698,0.5769923329353333,-0.21572130918502808,0.24789822101593018,-0.316295862197876,0.17212694883346558,0.4813908525080565,-0.6258630195200473,0.020852421479651793,0.6132891365545338
1681249794376627000,2.486626953125,-0.4230935871601105,0.024353710934519768,0.9770870804786682,0.795461118221283,0.5672581195831299,-0.2132137417793274,0.2926279306411743,-0.3241245150566101,0.1579464077949524,0.4759329511720662,-0.6267592935429105,0.023788970777590734,0.6165183302211296
1681249794391660000,2.501659912109375,-0.6375123858451843,0.024813372641801834,1.1353193521499634,0.8044377565383911,0.5562952756881714,-0.2083641141653061,0.3551996946334839,-0.3115900158882141,0.15404284000396729,0.46849035102923325,-0.6285888118078178,0.02634482729398813,0.6202410489534889
1681249794406692900,2.51669287109375,-0.742350161075592,0.03416293114423752,1.3538143634796143,0.8147515058517456,0.5433789491653442,-0.20228616893291473,0.504431962966919,-0.2734965682029724,0.14080849289894104,0.4594273312681209,-0.6308818702606455,0.029068521800710033,0.6245557257726903
1681249794421726000,2.531725830078125,-0.8620131015777588,-0.028956914320588112,1.6131078004837036,0.8267034292221069,0.5274771451950073,-0.19577936828136444,0.5721309185028076,-0.23226523399353027,0.13778069615364075,0.44866472664906065,-0.633293906322678,0.032390518917532266,0.6297537997528612
1681249794436759000,2.546759033203125,-1.0497252941131592,-0.14743588864803314,1.8340928554534912,0.839873194694519,0.508629322052002,-0.18949826061725616,0.6541911959648132,-0.1711810827255249,0.18992549180984497,0.435941610692592,-0.6355866788033695,0.03578329659027892,0.6361636705461736
1681249794451792100,2.561792236328125,-1.2489718198776245,-0.2218262404203415,1.9319669008255005,0.8534945249557495,0.4877842366695404,-0.18334127962589264,0.6009581685066223,-0.15082424879074097,0.21622394025325775,0.4213901439017355,-0.6378353019956718,0.038671527795831884,0.6435069647142393
1681249794466825000,2.576824951171875,-1.3716470003128052,-0.1371379792690277,1.893822193145752,0.8667707443237305,0.466484397649765,-0.17635464668273926,0.28764820098876953,-0.15357232093811035,0.24529385566711426,0.40576604607126915,-0.6404289770208448,0.04090723756346935,0.6507928808028771
1681249794481858000,2.591858154296875,-1.4387861490249634,0.026262132450938225,1.769848108291626,0.8791730999946594,0.4461407959461212,-0.1673709899187088,0.1066666841506958,-0.14664128422737122,0.2187015563249588,0.3899446197835855,-0.6438170454329822,0.04259246424505941,0.6569845305083788
1681249794496891100,2.60689111328125,-1.3151566982269287,0.14591902494430542,1.6299160718917847,0.890582799911499,0.42681175470352173,-0.15714424848556519,-0.10687607526779175,-0.17618605494499207,0.15870064496994019,0.3747493180087477,-0.6476632797366076,0.04427362341172461,0.661917865847247
1681249794511924000,2.621924072265625,-1.1068764925003052,0.21709546446800232,1.4961090087890625,0.9008038640022278,0.40861958265304565,-0.14691074192523956,-0.139847993850708,-0.1985670030117035,0.12443453073501587,0.3609431020300215,-0.65145981074604,0.04631135705729534,0.6657143670189412
1681249794526957000,2.63695703125,-0.8331837058067322,0.24840305745601654,1.3834537267684937,0.9099299311637878,0.39116573333740234,-0.1379023790359497,-0.10232800245285034,-0.24507802724838257,0.0771113783121109,0.3488941604689903,-0.6547040622847277,0.04910600865821275,0.6687482092568041
1681249794541990100,2.651990234375,-0.4890398383140564,0.27031609416007996,1.385435700416565,0.9183363914489746,0.3736807405948639,-0.13046522438526154,-0.05577230453491211,-0.21576744318008423,0.04368847608566284,0.3385999322372879,-0.6572211929582075,0.053176060586091055,0.6712546772161537
1681249794557023000,2.66702294921875,-0.13546223938465118,0.2616578936576843,1.508267879486084,0.9267416596412659,0.35427993535995483,-0.12504318356513977,0.0836038589477539,-0.06358465552330017,0.021634399890899658,0.32966719789348153,-0.65874737733745,0.059416325163314104,0.6736774088139353
1681249794572056000,2.68205615234375,0.129226416349411,0.2497921586036682,1.6406408548355103,0.9353448152542114,0.33221009373664856,-0.12151861190795898,0.16078561544418335,0.012196123600006104,0.027005672454833984,0.3216067466395861,-0.65926482682008,0.06790127910400477,0.676260696870533
1681249794587089200,2.697089111328125,0.21577690541744232,0.2116285264492035,1.7515628337860107,0.9439367651939392,0.30788370966911316,-0.11912668496370316,0.2564721703529358,0.055748552083969116,0.07475412636995316,0.313741227139928,-0.6590768849571912,0.07780948622579993,0.6790654378092582
1681249794602122000,2.7121220703125,0.19106623530387878,0.22836542129516602,1.7834219932556152,0.9521833062171936,0.2822340130805969,-0.11700913310050964,0.24879026412963867,0.07184627652168274,0.09988880157470703,0.30556843743399453,-0.658577133149851,0.0881566370792439,0.6820063023461596
1681249794617155000,2.727155029296875,0.10899123549461365,0.3123948276042938,1.7523140907287598,0.9598350524902344,0.2564765512943268,-0.11373916268348694,0.11555862426757812,0.06231012940406799,0.09593219310045242,0.2970258756787291,-0.6583774956267625,0.09833358206329784,0.6845767251505536
1681249794632188200,2.742188232421875,0.009195405058562756,0.355829656124115,1.6699284315109253,0.9666900038719177,0.23155485093593597,-0.10905452817678452,0.033111631870269775,0.0795261412858963,0.0586853101849556,0.288214479252277,-0.6586646590692188,0.10785917848628884,0.6866292378780414
1681249794647221000,2.757220947265625,-0.03737928718328476,0.37102964520454407,1.5459449291229248,0.9725918769836426,0.20811821520328522,-0.10369130969047546,-0.06562471389770508,0.09373120963573456,-0.03612493723630905,0.2794875129995882,-0.6592278997522004,0.11650287521122699,0.6882822274136886
1681249794662254000,2.772254150390625,-0.021207507699728012,0.38566505908966064,1.4201068878173828,0.9775569438934326,0.18645143508911133,-0.09807368367910385,-0.10096997022628784,0.12049444019794464,-0.07409119606018066,0.27130699567921135,-0.659905241063967,0.12445172034643479,0.6895139039106354
1681249794677288000,2.787287841796875,0.016542639583349228,0.3909418284893036,1.35000479221344,0.9817800521850586,0.16610963642597198,-0.09228014200925827,-0.14036458730697632,0.17616033554077148,-0.12135815620422363,0.2637423500898705,-0.660617868718183,0.13207558287922994,0.6903478338089518
1681249794692321000,2.802321044921875,0.07008816301822662,0.3640729486942291,1.289190411567688,0.9853928089141846,0.1465407907962799,-0.0867585763335228,-0.13730919361114502,0.22043314576148987,-0.13310527801513672,0.25673294750458814,-0.6611574782631917,0.13961196243178084,0.690990292066343
1681249794707354000,2.81735400390625,0.10099344700574875,0.3042902946472168,1.2317659854888916,0.9884196519851685,0.12772820889949799,-0.08192869275808334,-0.08007913827896118,0.289599746465683,-0.15499448776245117,0.25024395418785894,-0.6613900376563789,0.1469655422500164,0.6916230261986239
1681249794722387200,2.83238720703125,0.13247403502464294,0.282195121049881,1.1684898138046265,0.9908974766731262,0.109809011220932,-0.07787361741065979,-0.055167436599731445,0.31957337260246277,-0.15311390161514282,0.24430783858265123,-0.6613065398321907,0.15406769023501607,0.6922792531363576
1681249794737420000,2.847419921875,0.0670943409204483,0.2569582164287567,1.108293056488037,0.9929473996162415,0.09263775497674942,-0.0739860087633133,-0.06695246696472168,0.32603296637535095,-0.14079666137695312,0.23853918197651966,-0.6611797206179773,0.1607742895504455,0.6928868676804117
1681249794752453000,2.862453125,0.09439174085855484,0.23328348994255066,1.0363285541534424,0.9945717453956604,0.07658984512090683,-0.07043595612049103,-0.06991958618164062,0.32076433300971985,-0.1393418312072754,0.23301438192099755,-0.6610088661663311,0.166881098775464,0.693485658141916
1681249794767486200,2.877486328125,0.19326314330101013,0.20344436168670654,0.9448345899581909,0.9958275556564331,0.061624716967344284,-0.06730400770902634,-0.04561704397201538,0.3206385374069214,-0.17111456394195557,0.2282831601125784,-0.660638843546175,0.17292863972454975,0.6939299623392274
1681249794782518800,2.892518798828125,0.25546056032180786,0.19047290086746216,0.8587498068809509,0.9967582821846008,0.047949742525815964,-0.06460841000080109,-0.02779442071914673,0.3649226427078247,-0.19958221912384033,0.22450247147846192,-0.660061029723699,0.17892800641197648,0.6941923974525347
1681249794797551900,2.9075517578125,0.07453680783510208,0.11769670248031616,0.762727677822113,0.997429609298706,0.03550080209970474,-0.062241531908512115,0.00977259874343872,0.39067724347114563,-0.2351064682006836,0.22088273847699033,-0.6595084721817266,0.18419503057373857,0.6945010171083348
1681249794812585000,2.9225849609375,-0.15436960756778717,0.00974733754992485,0.5584456324577332,0.9977812170982361,0.025683052837848663,-0.06142781302332878,0.013815641403198242,0.3844122290611267,-0.21127724647521973,0.21718139374716863,-0.6589329019914163,0.18733265421618756,0.695374973440805
1681249794827617800,2.93761767578125,-0.29399290680885315,-0.012113753706216812,0.4139648973941803,0.9979376792907715,0.01862816885113716,-0.06143079325556755,-0.05050402879714966,0.3526792824268341,-0.20089828968048096,0.21348658643870325,-0.6586010313332207,0.18849213697483902,0.6965192479198513
1681249794842651000,2.95265087890625,-0.2974718511104584,-0.017726631835103035,0.23128828406333923,0.9980033040046692,0.014017822220921516,-0.06159014254808426,-0.08197218179702759,0.3628285527229309,-0.21024519205093384,0.21030277088484853,-0.6585396430191295,0.1884952715551904,0.6975442917105784
1681249794857684000,2.96768408203125,-0.3196195363998413,-0.0026595313102006912,0.061624426394701004,0.9980189204216003,0.012210479937493801,-0.06171936169266701,-0.09056341648101807,0.3810848593711853,-0.2087579369544983,0.2081091130293716,-0.6587482647775023,0.18759276033417688,0.6982480392436392
1681249794872716800,2.982716796875,-0.4467884302139282,-0.057800814509391785,-0.07696087658405304,0.9979931712150574,0.012649578973650932,-0.06204867362976074,-0.04424232244491577,0.3879242241382599,-0.20423245429992676,0.20633884772086747,-0.6591961522969266,0.18556965135924258,0.6988911388906627
1681249794887750000,2.99775,-0.7068641185760498,-0.13131684064865112,-0.21802853047847748,0.997870147228241,0.01548550184816122,-0.06337108463048935,0.11309200525283813,0.3591483533382416,-0.16392379999160767,0.20444600260370355,-0.6597834096741316,0.18165987472446377,0.6999197267464772
1681249794902783000,3.012782958984375,-0.9948328137397766,-0.17173750698566437,-0.3304583728313446,0.997646689414978,0.0204456876963377,-0.06544766575098038,0.16652274131774902,0.34114187955856323,-0.13317596912384033,0.2018645520872954,-0.6606476344210873,0.175558738975525,0.7014090852573294
1681249794917815800,3.02781591796875,-1.2240958213806152,-0.14294767379760742,-0.42196354269981384,0.9973466396331787,0.027257045730948448,-0.06750477850437164,0.20294028520584106,0.3278302848339081,-0.07972723245620728,0.19852317895622523,-0.6619542966384007,0.16752349510579503,0.7030939062922339
1681249794932849000,3.042848876953125,-1.308384656906128,-0.07222023606300354,-0.48506155610084534,0.9970251321792603,0.03538614884018898,-0.0684744194149971,0.20616090297698975,0.3302450180053711,-0.0730813667178154,0.19469434317788104,-0.6638451022467139,0.15834289094188075,0.7045078649474206
1681249794947883000,3.057883056640625,-1.2767287492752075,-0.07096801698207855,-0.5268707871437073,0.9966520667076111,0.04435374215245247,-0.06868447363376617,0.2575594186782837,0.3450353741645813,-0.08388811349868774,0.1909625498821601,-0.6659687875103554,0.14880636891276694,0.705603042670147
1681249794962915800,3.072915771484375,-1.1033971309661865,-0.08376983553171158,-0.5598287582397461,0.996164083480835,0.053739193826913834,-0.06906147301197052,0.2894347310066223,0.36558765172958374,-0.0955045223236084,0.18792501727508013,-0.6678194151703417,0.13959402871185836,0.7065515517597469
1681249794977949000,3.087948974609375,-0.890821635723114,-0.011833056807518005,-0.6021618247032166,0.9956005811691284,0.06346605718135834,-0.0689314529299736,0.2738543748855591,0.39986714720726013,-0.1094742938876152,0.18605051075560788,-0.6695460788572453,0.13131001671776024,0.7070013759999474
1681249794992982000,3.10298193359375,-0.6899638772010803,-0.021135743707418442,-0.674383282661438,0.9949415326118469,0.07374416291713715,-0.06821510195732117,0.24980950355529785,0.3994309604167938,-0.09050679206848145,0.18544861177742789,-0.6712187723172482,0.12392662808264905,0.7069062653797794
1681249795008014800,3.118014892578125,-0.4847794771194458,-0.06580521166324615,-0.8298211097717285,0.9940014481544495,0.08549601584672928,-0.06820427626371384,0.2314930558204651,0.3712453842163086,-0.010180115699768066,0.1864727880186901,-0.6724712836605684,0.11696253944717509,0.7066329760930875
1681249795023048000,3.1330478515625,-0.23732733726501465,-0.03814082592725754,-1.0513383150100708,0.9926355481147766,0.09987378865480423,-0.0685572400689125,0.17753058671951294,0.34591180086135864,0.028029918670654297,0.18964139502987465,-0.6734834311697966,0.11018824341347752,0.7059141887892819
1681249795038081000,3.1480810546875,0.07319553196430206,0.059787869453430176,-1.2972381114959717,0.9907262325286865,0.11745183914899826,-0.06831242144107819,-0.000003635883331298828,0.2980145215988159,0.059691257774829865,0.19541383068403276,-0.6745889737201869,0.10379549269678691,0.7042511429362461
1681249795053113900,3.16311376953125,0.4499369263648987,0.18165944516658783,-1.5668139457702637,0.9880862832069397,0.13853992521762848,-0.06702742725610733,-0.06373918056488037,0.2684425711631775,0.054576270282268524,0.2042003112381202,-0.6759250712604733,0.09803868375233962,0.7012960929886112
1681249795068147000,3.17814697265625,0.8813900947570801,0.2755923569202423,-1.7718818187713623,0.9845220446586609,0.1627105176448822,-0.0651283860206604,-0.08757990598678589,0.22849437594413757,0.027744360268115997,0.21623512079426313,-0.677283468768311,0.09339651904179806,0.6969982698140866
1681249795083180000,3.193179931640625,1.1845353841781616,0.30094802379608154,-1.9329441785812378,0.9798923134803772,0.18913844227790833,-0.06354549527168274,-0.03645658493041992,0.18932539224624634,0.011696159839630127,0.23106362380348916,-0.6783417187135944,0.089887509252681,0.6916520199874302
1681249795098212900,3.208212890625,1.3009017705917358,0.23136547207832336,-2.054104804992676,0.9740527868270874,0.2172553837299347,-0.06341603398323059,0.13272827863693237,0.13359002768993378,0.03782707452774048,0.24762272505201668,-0.6788048067151107,0.08669496648928646,0.6858507008444151
1681249795113246000,3.223245849609375,1.323169231414795,0.18077899515628815,-2.147310495376587,0.9669153094291687,0.2466600388288498,-0.0650690346956253,0.19234085083007812,0.08323509991168976,0.07715403288602829,0.2649975277947331,-0.6786444433568815,0.08310958707378843,0.6799345917419279
1681249795128279000,3.238279052734375,1.3308297395706177,0.21002477407455444,-2.1999614238739014,0.9585422277450562,0.27684977650642395,-0.06746415793895721,0.16835004091262817,0.0177517831325531,0.1252949833869934,0.2827074596857425,-0.6782357453549056,0.07914666784670059,0.6736533230517631
1681249795143312000,3.253311767578125,1.3724286556243896,0.21990829706192017,-2.2228798866271973,0.9490470290184021,0.30720651149749756,-0.07024228572845459,0.1439552903175354,-0.016450226306915283,0.1270202398300171,0.30059055832345355,-0.6776694782376097,0.0751194690198724,0.666908181342666
1681249795158345000,3.268344970703125,1.4839050769805908,0.19607965648174286,-2.1959264278411865,0.9385507702827454,0.33707892894744873,-0.07416646927595139,0.12982404232025146,-0.021740704774856567,0.09743612259626389,0.3187633106136978,-0.6766191321258062,0.0714374801142728,0.6599040879535448
1681249795173378000,3.2833779296875,1.5939708948135376,0.14883305132389069,-2.1594533920288086,0.9272310733795166,0.365868479013443,-0.0798938125371933,0.14474469423294067,-0.03751450777053833,0.07647585868835449,0.33727490719796993,-0.6748129873795766,0.06841437007359837,0.6528343338334991
1681249795188412000,3.298411865234375,1.6160800457000732,0.0910070389509201,-2.102221727371216,0.9152016639709473,0.39339569211006165,-0.08744130283594131,0.1501670479774475,-0.07495996356010437,0.0772331953048706,0.3557971164551541,-0.6722724346198212,0.06579606244065514,0.6458554021787865
1681249795203445000,3.313445068359375,1.5635387897491455,0.05175551027059555,-2.0244622230529785,0.9026880264282227,0.4194026589393616,-0.09620765596628189,0.14153200387954712,-0.11962839961051941,0.10000711679458618,0.3737518054428491,-0.6692485298101801,0.06326593974941071,0.6390723732466504
1681249795218478000,3.32847802734375,1.498513102531433,0.03482765704393387,-1.935892105102539,0.8898957371711731,0.443778932094574,-0.10557432472705841,0.09508967399597168,-0.1695021390914917,0.14280575513839722,0.39089620839684125,-0.6659724367698597,0.060774605939441305,0.6324455602640194
1681249795233511000,3.343510986328125,1.4122400283813477,0.016388993710279465,-1.8333483934402466,0.8770231008529663,0.4664303958415985,-0.11521054059267044,0.08220547437667847,-0.19171106815338135,0.16286373138427734,0.4070863514081698,-0.6625661803253576,0.05831625743134794,0.6260080873575441
1681249795248544000,3.3585439453125,1.3240416049957275,0.010528442449867725,-1.7170162200927734,0.8643249869346619,0.4871769845485687,-0.12490443885326385,0.042993128299713135,-0.22318458557128906,0.17429715394973755,0.42219139668112393,-0.6591035877374988,0.05594854324026245,0.6198441556993833
1681249795263577000,3.3735771484375,1.2476472854614258,0.022362465038895607,-1.6150487661361694,0.8519216775894165,0.5061567425727844,-0.13429459929466248,0.016303420066833496,-0.25621771812438965,0.17642414569854736,0.4362383882081891,-0.6557193605158077,0.05371050367201241,0.6138758259478941
1681249795278610000,3.38860986328125,1.1857470273971558,0.037266843020915985,-1.5119876861572266,0.8398857116699219,0.523495078086853,-0.14333510398864746,-0.050197601318359375,-0.28222304582595825,0.16042494773864746,0.4493918130990991,-0.652424477459539,0.0517179523382867,0.6080416329393004
1681249795293643000,3.40364306640625,1.123748540878296,0.056769974529743195,-1.4115095138549805,0.8283035755157471,0.5392793416976929,-0.15195786952972412,-0.0718643069267273,-0.2957032322883606,0.16215074062347412,0.46167403849347183,-0.6492486291985067,0.0499727943806047,0.6023588145916655
1681249795308676000,3.418676025390625,1.0974348783493042,0.07961136847734451,-1.305076003074646,0.8173167705535889,0.5534581542015076,-0.1602422595024109,-0.10810345411300659,-0.311697781085968,0.1648656725883484,0.47316510172809645,-0.6461552454537731,0.04860316523041161,0.5968551029832022
1681249795323709000,3.433708984375,1.0729482173919678,0.09524412453174591,-1.2176071405410767,0.8069055080413818,0.5661948919296265,-0.16830581426620483,-0.11388182640075684,-0.32971417903900146,0.17558427155017853,0.4840272795995745,-0.6430997584329626,0.047642331603142955,0.5914985151076794
1681249795338742000,3.448741943359375,1.0583643913269043,0.11658722907304764,-1.1039029359817505,0.7971581816673279,0.5774967074394226,-0.17617179453372955,-0.11319822072982788,-0.34655487537384033,0.19599294662475586,0.49426628594393507,-0.6400744375657482,0.04710435187432949,0.5863333745229932
1681249795353775000,3.463775146484375,1.080645203590393,0.15137290954589844,-0.9740762710571289,0.78840172290802,0.5870195031166077,-0.1839318424463272,-0.10113060474395752,-0.35507065057754517,0.2088647037744522,0.5039113435257088,-0.6370227700387043,0.04728706252126077,0.5814115076040091
1681249795368808700,3.47880859375,1.1289448738098145,0.18059870600700378,-0.8155313730239868,0.7809082269668579,0.5944711565971375,-0.1917976588010788,-0.059182822704315186,-0.35284823179244995,0.21285483241081238,0.5130380099920203,-0.6338401136555005,0.04845495010689221,0.5767935299208036
1681249795383841800,3.493841796875,1.144286036491394,0.1870158612728119,-0.6249164342880249,0.774986982345581,0.5995422601699829,-0.19986049830913544,-0.01244431734085083,-0.3521667718887329,0.21623320877552032,0.5215061680670516,-0.6304766185747975,0.05068511782941053,0.5726792695958204
1681249795398875000,3.508875,1.1107265949249268,0.19689618051052094,-0.4074418544769287,0.7708570957183838,0.6021450161933899,-0.20784857869148254,0.09570485353469849,-0.3472163677215576,0.21340274810791016,0.5289974355477142,-0.6270412112287651,0.05380549030086938,0.5692856620945885
1681249795413909000,3.523908935546875,1.095397710800171,0.22818060219287872,-0.15843524038791656,0.768951416015625,0.6019262075424194,-0.21540366113185883,0.1384429931640625,-0.34792834520339966,0.21900475025177002,0.5353204007609956,-0.6236429366497709,0.05803148892676577,0.5666868809713166
1681249795428942000,3.538942138671875,1.0834215879440308,0.24606825411319733,0.10399825125932693,0.7694780826568604,0.5986707210540771,-0.22247949242591858,0.22243481874465942,-0.3371502757072449,0.2288881540298462,0.5404150642793384,-0.620266230533651,0.0634827282701672,0.5649703177186971
1681249795443975000,3.553974853515625,1.0832703113555908,0.29328373074531555,0.3605424165725708,0.7724717855453491,0.5922942161560059,-0.229074627161026,0.26729267835617065,-0.3258909583091736,0.2359563112258911,0.5443397382486719,-0.616867418431393,0.07026576102335658,0.5641203140176687
1681249795459007700,3.5690078125,1.0161070823669434,0.24259443581104279,0.5691174268722534,0.777580738067627,0.5831623077392578,-0.2351379543542862,0.39905494451522827,-0.2989368438720703,0.2100220024585724,0.547074047838115,-0.6134655854356171,0.0780448637901546,0.5641621040130878
1681249795474040800,3.584040771484375,0.8427547812461853,0.15244829654693604,0.71095871925354,0.7838594317436218,0.5722478628158569,-0.24103307723999023,0.4683378338813782,-0.26667529344558716,0.20840978622436523,0.5485549105483265,-0.6100181953427498,0.0857977985445334,0.5653354613371766
1681249795489073700,3.59907373046875,0.5463886260986328,0.1791749745607376,0.8567082285881042,0.7910982966423035,0.5603886246681213,-0.2452104538679123,0.47248202562332153,-0.26717567443847656,0.206071674823761,0.5483485617220668,-0.607239471089201,0.09303225516691446,0.5673792118658457
1681249795504106800,3.614106689453125,0.04652392119169235,0.19248519837856293,0.942656934261322,0.799386739730835,0.5483601093292236,-0.2455240786075592,0.44605082273483276,-0.30191540718078613,0.2068430334329605,0.5457393995589379,-0.6061171958321541,0.09929706457194376,0.5700268235172754
1681249795519139800,3.629139892578125,-0.5724630951881409,0.19333527982234955,1.0295140743255615,0.8081003427505493,0.537477970123291,-0.24102190136909485,0.5015006065368652,-0.38498151302337646,0.24459239840507507,0.5401815260844403,-0.6072810482314968,0.10343488473549368,0.57333679155874
1681249795534172700,3.644172607421875,-1.1336246728897095,0.13932770490646362,1.1914057731628418,0.8175432682037354,0.5270411372184753,-0.23205822706222534,0.575523316860199,-0.3919396996498108,0.26408639550209045,0.5313444218132319,-0.6106125106042978,0.10546681682416838,0.5776698184767853
1681249795549205800,3.659205810546875,-1.5618255138397217,0.08290756493806839,1.4574843645095825,0.8282076120376587,0.5154138803482056,-0.22004728019237518,0.6937955617904663,-0.3649316430091858,0.2999880909919739,0.5192305425321824,-0.6154212168680296,0.10598625397802594,0.583458138918539
1681249795564238800,3.67423876953125,-1.729367733001709,0.10538837313652039,1.7890247106552124,0.8409037590026855,0.5003482699394226,-0.20623499155044556,0.6878134608268738,-0.32323938608169556,0.28815940022468567,0.5042734469231787,-0.6209091788895617,0.1065565279006649,0.5906149478698023
1681249795579271700,3.689271728515625,-1.6667437553405762,0.10399820655584335,2.0973381996154785,0.8556236028671265,0.4806484878063202,-0.1920556277036667,0.617932915687561,-0.2340664267539978,0.20610900223255157,0.48741755509340856,-0.6262674677674692,0.10844926869386391,0.5987086097655884
1681249795594304800,3.7043046875,-1.4093140363693237,0.03759414702653885,2.248161792755127,0.8712181448936462,0.4566073417663574,-0.18024609982967377,0.5737433433532715,-0.17709684371948242,0.15276505053043365,0.4701527145421281,-0.6303404587772395,0.11201722580966901,0.6075191019521305
1681249795609337900,3.719337890625,-1.1838661432266235,-0.016419019550085068,2.3356213569641113,0.8865290284156799,0.4297315180301666,-0.17145662009716034,0.45102596282958984,-0.12974366545677185,0.08388644456863403,0.45346237393431676,-0.6329147896299625,0.1170066714653088,0.6165227760201956
1681249795624371700,3.734371826171875,-0.9960737824440002,-0.09470317512750626,2.3184356689453125,0.9010161757469177,0.4009902775287628,-0.16545912623405457,0.3637238144874573,-0.09227439761161804,0.08126115798950195,0.43740250709464545,-0.6341653458683973,0.12290137529366581,0.6256266348989067
1681249795639404800,3.74940478515625,-0.8674273490905762,-0.12916314601898193,2.13252592086792,0.9137054681777954,0.3728437125682831,-0.16164715588092804,0.17011100053787231,-0.1363019347190857,0.13404400646686554,0.42255172505434824,-0.634498923729871,0.12879260143270585,0.634250380924905
1681249795654438000,3.76443798828125,-0.8007636070251465,-0.08424733579158783,1.919053316116333,0.9243805408477783,0.3468615710735321,-0.1587701141834259,0.060345470905303955,-0.13107171654701233,0.1564050316810608,0.409001684290515,-0.634530546265533,0.1341116181238762,0.6419523589174634
1681249795669470700,3.779470703125,-0.8161932229995728,0.06215781718492508,1.7284090518951416,0.9335233569145203,0.3233290910720825,-0.15489549934864044,-0.10188877582550049,-0.13357073068618774,0.14657944440841675,0.39636905622829227,-0.6350308000674365,0.1388817220680015,0.6483359066190846
1681249795684503800,3.79450390625,-0.9211508631706238,0.14360712468624115,1.5710595846176147,0.9415307641029358,0.3020472228527069,-0.14928995072841644,-0.13110589981079102,-0.12887516617774963,0.10803020000457764,0.3840641383673617,-0.6363508167272868,0.14287288687648686,0.6535593738824361
1681249795699537000,3.809536865234375,-1.1054718494415283,0.11299462616443634,1.472027063369751,0.9484593272209167,0.28285667300224304,-0.14288881421089172,-0.006595253944396973,-0.13698258996009827,0.06804448366165161,0.3716155552855734,-0.6382734338778381,0.14547376807515214,0.6582905276373641
1681249795714569700,3.82456982421875,-1.2191033363342285,0.04499320685863495,1.4397895336151123,0.9546181559562683,0.2644127607345581,-0.1370769441127777,0.06849890947341919,-0.10218125581741333,0.05774654448032379,0.35867919286398603,-0.6402210456800185,0.1468963675988807,0.6632403025151246
1681249795729602800,3.839602783203125,-1.2421005964279175,0.059292517602443695,1.4231854677200317,0.9601930379867554,0.24637584388256073,-0.13163739442825317,0.05897200107574463,-0.03852057456970215,0.06741316616535187,0.34552535759862146,-0.6421550893788104,0.14770967222284084,0.6681549230468524
1681249795744636000,3.854635986328125,-1.2262238264083862,0.10954876244068146,1.4225162267684937,0.9654380679130554,0.22812910377979279,-0.12604205310344696,-0.016081929206848145,0.01851402223110199,0.062473952770233154,0.3322736095904838,-0.6441286856262628,0.1485840090146409,0.672766947354701
1681249795759668700,3.869668701171875,-1.1496951580047607,0.1570928394794464,1.375553011894226,0.9703091979026794,0.20992635190486908,-0.12013040482997894,-0.12022662162780762,0.06663930416107178,0.06612955033779144,0.3191892117666357,-0.6461757747804879,0.14963844842244245,0.676892637051369
1681249795774701800,3.884701904296875,-1.0044052600860596,0.21512232720851898,1.315639853477478,0.97469162940979,0.19221173226833344,-0.11415410786867142,-0.14612406492233276,0.08171410858631134,0.05281376838684082,0.3068789386529819,-0.6481472253574392,0.15108977691596936,0.6803694245182061
1681249795789735000,3.89973486328125,-0.8639125227928162,0.23221449553966522,1.2880886793136597,0.9786510467529297,0.17468087375164032,-0.10830020904541016,-0.1499003767967224,0.10989560186862946,0.008095741271972656,0.29543532379707066,-0.6499114745146108,0.15318280110481255,0.6832775493106851
1681249795804767700,3.914767822265625,-0.7718772888183594,0.22101004421710968,1.2382822036743164,0.9821708798408508,0.1572832614183426,-0.10296891629695892,-0.13735264539718628,0.11827528476715088,-0.004346132278442383,0.28468107000861864,-0.651363632692826,0.15569508554135725,0.685887211051461
1681249795819801900,3.9298017578125,-0.7394091486930847,0.23480841517448425,1.1979241371154785,0.9852270483970642,0.14050401747226715,-0.09790995717048645,-0.1374334692955017,0.10159197449684143,-0.014425210654735565,0.2744484939940547,-0.6526985133649608,0.15820768262796156,0.6882100480273438
1681249795834834700,3.944834716796875,-0.6658954620361328,0.2475266009569168,1.2015825510025024,0.9879596829414368,0.12372103333473206,-0.09289175271987915,-0.147963285446167,0.13776889443397522,-0.01944345235824585,0.264448821026859,-0.653958105508427,0.1609127763498943,0.6902990223676614
1681249795849867800,3.95986767578125,-0.5116463303565979,0.26031723618507385,1.190027117729187,0.9903742671012878,0.10676685720682144,-0.08809034526348114,-0.17257940769195557,0.20915117859840393,-0.054915010929107666,0.25501922671726107,-0.6549743261772739,0.1642055421120087,0.6921058641333558
1681249795864900900,3.97490087890625,-0.28633052110671997,0.2858535051345825,1.198726773262024,0.9924911856651306,0.08944504708051682,-0.08343406021595001,-0.1925642490386963,0.22777000069618225,-0.07133585959672928,0.2465050282172575,-0.6556452076306457,0.168559580656078,0.6935074101825593
1681249795879934000,3.989933837890625,-0.23058335483074188,0.3431612551212311,1.1976069211959839,0.9943252205848694,0.07192744314670563,-0.07838516682386398,-0.23835879564285278,0.22494763135910034,-0.09883040934801102,0.23861722188076726,-0.6562289387144972,0.17369799871521582,0.6944455536672883
1681249795894966800,4.004966796875,-0.24815596640110016,0.36688071489334106,1.200137972831726,0.9958676695823669,0.05415835231542587,-0.07290180027484894,-0.25326812267303467,0.2568463385105133,-0.09810340404510498,0.23076916508885,-0.656862439312148,0.17911123630381517,0.6951234470028234
1681249795909999900,4.019999755859375,-0.3129275143146515,0.3811693787574768,1.1436350345611572,0.9970678687095642,0.03687680512666702,-0.06705167144536972,-0.23319756984710693,0.23561471700668335,-0.0923110842704773,0.22266939003403863,-0.6577305490822932,0.18402361175477014,0.6956610457693209
1681249795925033000,4.035032958984375,-0.3012823164463043,0.3548096716403961,1.065635085105896,0.9979031682014465,0.020605415105819702,-0.061358436942100525,-0.21067166328430176,0.23406383395195007,-0.06774616241455078,0.21486144877111266,-0.6586257071186561,0.18850188359888287,0.6960703171886078
1681249795940065800,4.050065673828125,-0.26465585827827454,0.29960739612579346,1.0093140602111816,0.9983963966369629,0.0052299173548817635,-0.056371159851551056,-0.1464064121246338,0.2573738992214203,-0.04720551520586014,0.2075139766737663,-0.6593102360961152,0.192677015032806,0.6965082480917096
1681249795955099000,4.065098876953125,-0.21243871748447418,0.29751816391944885,0.9263488054275513,0.9986072778701782,-0.009065779857337475,-0.05197630822658539,-0.11898380517959595,0.2844259440898895,-0.04583251476287842,0.2008365237179792,-0.6598024941857201,0.1966532864802412,0.6968880702390194
1681249795970132000,4.080132080078125,-0.15884841978549957,0.26256656646728516,0.897964596748352,0.9986070394515991,-0.02263714000582695,-0.047665853053331375,-0.08408653736114502,0.34656602144241333,-0.06910962611436844,0.1947103154500855,-0.6602308946991818,0.20065452800307057,0.6970803864748504
1681249795985164800,4.095164794921875,-0.16014721989631653,0.221135213971138,0.8350449800491333,0.9983903169631958,-0.035555969923734665,-0.04418933764100075,-0.06381994485855103,0.37961119413375854,-0.08871471881866455,0.18902480094301363,-0.6603731812780648,0.204481279018374,0.6973982909404716
1681249796000199000,4.110198974609375,-0.21349941194057465,0.2338009476661682,0.7528278827667236,0.9980385899543762,-0.04736923798918724,-0.040927790105342865,-0.06436854600906372,0.3823760151863098,-0.14764028787612915,0.18359896620248384,-0.6605771906470033,0.20778325276857504,0.6976785023326204
1681249796015231700,4.125231689453125,-0.2656504809856415,0.21834474802017212,0.6274523735046387,0.9976251125335693,-0.05764906108379364,-0.0376933254301548,-0.07645195722579956,0.3857588768005371,-0.1779438853263855,0.17838786287508138,-0.6610142528286047,0.21027005241573596,0.6978713785368169
1681249796030264800,4.140264892578125,-0.2839053273200989,0.21338514983654022,0.45327743887901306,0.9972412586212158,-0.0656028464436531,-0.03473754972219467,-0.07525920867919922,0.3952385187149048,-0.20152950286865234,0.1738286583674247,-0.661649598639833,0.21178062562848401,0.6979632087977984
1681249796045298000,4.1552978515625,-0.2811972200870514,0.215736985206604,0.28767940402030945,0.9969708919525146,-0.07097762823104858,-0.03180486708879471,-0.0676494836807251,0.41643667221069336,-0.2006322741508484,0.17015079449985476,-0.6625555782583221,0.21240920980255812,0.6978189553605507
1681249796060330800,4.170330810546875,-0.2909684479236603,0.25258156657218933,0.1346094161272049,0.9968456625938416,-0.07402367889881134,-0.02862462028861046,-0.03833425045013428,0.4522128105163574,-0.17450034618377686,0.16724187267570217,-0.6638018222204056,0.2122612313536103,0.6973826413756152
1681249796075363800,4.18536376953125,-0.2939479947090149,0.2685448229312897,-0.029457543045282364,0.9968949556350708,-0.07468217611312866,-0.024961818009614944,0.007408082485198975,0.45223045349121094,-0.16435396671295166,0.1650813369653347,-0.6654806635356411,0.2113162982324766,0.6965838763028523
1681249796090397000,4.20039697265625,-0.2796138525009155,0.16996310651302338,-0.14973336458206177,0.9970802664756775,-0.07315311580896378,-0.02190207876265049,0.18445360660552979,0.46390023827552795,-0.13317298889160156,0.16378184683458918,-0.6671669630269036,0.20961203265730305,0.6957920861115496
1681249796105429800,4.2154296875,-0.24245131015777588,0.015439843758940697,-0.22814108431339264,0.9973157644271851,-0.07020032405853271,-0.020817436277866364,0.278639554977417,0.4837135672569275,-0.12287455797195435,0.1632993879105429,-0.6682732624094417,0.20736954490814802,0.6955157184435934
1681249796120462800,4.230462890625,-0.11683698743581772,-0.05305665731430054,-0.29161912202835083,0.9975742101669312,-0.06624864786863327,-0.021377207711338997,0.3409268260002136,0.5199535489082336,-0.12709081172943115,0.16377298142900487,-0.6687718415851073,0.20507466961158116,0.6956055737222152
1681249796135496000,4.245495849609375,0.038064174354076385,-0.0862060934305191,-0.3700462877750397,0.9978670477867126,-0.06130976602435112,-0.022416722029447556,0.31295448541641235,0.5286102294921875,-0.14178305864334106,0.1653939906775324,-0.6689753786879641,0.20313439424817595,0.695595600001041
1681249796150529000,4.260529052734375,0.18084177374839783,-0.1791195273399353,-0.5172879695892334,0.9982065558433533,-0.054735176265239716,-0.024245575070381165,0.278816819190979,0.5480824112892151,-0.14239561557769775,0.16845078154162546,-0.6688354229678842,0.2013365076524212,0.6955193565709008
1681249796165561900,4.275561767578125,0.3370203971862793,-0.27387210726737976,-0.723321259021759,0.9985811710357666,-0.045563384890556335,-0.027564428746700287,0.2637937664985657,0.5433356761932373,-0.12593895196914673,0.1733273677361865,-0.6682109742407264,0.19927839605056064,0.6955141348516604
1681249796180596000,4.290595947265625,0.49522560834884644,-0.29714202880859375,-0.9759498238563538,0.9989527463912964,-0.03303861990571022,-0.031655874103307724,0.1466619372367859,0.5179477334022522,-0.09900510311126709,0.18026428195036961,-0.6674100713251612,0.19681427525150863,0.6952214534588711
1681249796195628800,4.30562890625,0.6174513697624207,-0.2994038462638855,-1.3072030544281006,0.9992209672927856,-0.016244549304246902,-0.035971228033304214,0.0703897476196289,0.4827668368816376,-0.07293075323104858,0.18944373442204884,-0.6667302691178739,0.19361077796489634,0.6943319404121262
1681249796210662000,4.320661865234375,0.6472047567367554,-0.27695712447166443,-1.6589595079421997,0.9991718530654907,0.005717978812754154,-0.0402890145778656,-0.015239238739013672,0.402851402759552,-0.02039515972137451,0.20083241299881302,-0.6664094391184088,0.1890871552752619,0.6926838899442362
1681249796225695000,4.335695068359375,0.5133453011512756,-0.3028219938278198,-1.9614125490188599,0.9984695911407471,0.03255859389901161,-0.04470759257674217,-0.0041457414627075195,0.34386053681373596,0.004653275012969971,0.2136056259338691,-0.6665517698182107,0.18263335177507167,0.6904539077935336
1681249796240727800,4.350727783203125,0.32074975967407227,-0.37785470485687256,-2.2440860271453857,0.9967001676559448,0.06384581327438354,-0.05012787505984306,0.10777688026428223,0.25208747386932373,0.06915563344955444,0.2270558184199631,-0.6669150767378736,0.17366733196600712,0.6881204412103376
1681249796255761000,4.365760986328125,0.20885813236236572,-0.3737228214740753,-2.4315688610076904,0.9935277104377747,0.09874164313077927,-0.05615059658885002,0.14839434623718262,0.2032298445701599,0.08715647459030151,0.24091737019388856,-0.6674630936156221,0.162535289248546,0.6855903785240107
1681249796270794000,4.3807939453125,0.29317790269851685,-0.3226228654384613,-2.5554914474487305,0.9888219237327576,0.1357124298810959,-0.0617532916367054,0.14060312509536743,0.2010185867547989,0.05357462912797928,0.25532519216910343,-0.6681725295477438,0.15056169874081035,0.6824117075348086
1681249796285826800,4.395826904296875,0.45418134331703186,-0.2590108811855316,-2.661768913269043,0.9824541211128235,0.17404705286026,-0.06702078878879547,0.13274985551834106,0.17817164957523346,0.025928854942321777,0.2709302586142764,-0.668745135813395,0.13881480732007961,0.6783121000685196
1681249796300860000,4.41085986328125,0.40668144822120667,-0.2387026846408844,-2.7619221210479736,0.9743090867996216,0.21347005665302277,-0.07178044319152832,0.18197143077850342,0.165527805685997,-0.04127191752195358,0.28717815959320236,-0.6693240816259014,0.12694506914683132,0.6733639144052779
1681249796315893000,4.42589306640625,0.15538080036640167,-0.4010780155658722,-2.8472933769226074,0.9641029238700867,0.2540125250816345,-0.07735278457403183,0.2561424970626831,0.09869444370269775,-0.008813560009002686,0.3030979720729307,-0.6696345544717757,0.11363613715562358,0.6684371027978161
1681249796330925800,4.44092578125,-0.18132179975509644,-0.4997510612010956,-2.9126999378204346,0.951633870601654,0.2955324649810791,-0.08398701995611191,0.3407551050186157,-0.03981032967567444,0.1320217251777649,0.3178156576203299,-0.6696340725914975,0.09796273372831517,0.6640684365718655
1681249796345959000,4.455958984375,-0.46712571382522583,-0.4418390095233917,-2.928936243057251,0.9370752573013306,0.33753702044487,-0.08921220898628235,0.29533135890960693,-0.10596960783004761,0.17666035890579224,0.3310316608639983,-0.6700219980345145,0.08040160968992593,0.6595636395759412
1681249796360992500,4.470992431640625,-0.5832335948944092,-0.32420212030410767,-2.9064972400665283,0.9208065867424011,0.3790803849697113,-0.09172550588846207,0.12721288204193115,-0.14264535903930664,0.18402594327926636,0.34295563734062606,-0.6710357856551603,0.062034035520335706,0.6544038031300784
1681249796376025300,4.486025390625,-0.5212208032608032,-0.18332065641880035,-2.8591244220733643,0.9031355977058411,0.41942697763442993,-0.09179960936307907,0.07841652631759644,-0.16909122467041016,0.17552459239959717,0.3543283978482802,-0.6724295133010902,0.044031173284619585,0.6483449877856441
1681249796391058400,4.501058349609375,-0.28048238158226013,-0.0606546625494957,-2.77156138420105,0.8843778371810913,0.45786723494529724,-0.09073811769485474,0.013861238956451416,-0.18378883600234985,0.14316731691360474,0.3659511664792615,-0.6737041652570024,0.02745249498698815,0.6414427405873377
1681249796406091500,4.516091552734375,0.045153193175792694,0.04565872997045517,-2.635120153427124,0.8650044798851013,0.49363937973976135,-0.08993030339479446,0.015915870666503906,-0.21101602911949158,0.11797595769166946,0.378337186798546,-0.6744342722114626,0.013162818903421235,0.6338975965408241
1681249796421124400,4.531124267578125,0.34825170040130615,0.05816573649644852,-2.4602742195129395,0.8455477952957153,0.5261405110359192,-0.09069293737411499,0.06402868032455444,-0.22285676002502441,0.08075946569442749,0.39141745163171493,-0.6742786311585647,0.0013640134309281357,0.626209955919075
1681249796436157400,4.546157470703125,0.570326030254364,0.03127925843000412,-2.283181667327881,0.8263264894485474,0.5552980303764343,-0.09396235644817352,0.11157029867172241,-0.2532044053077698,0.08500546216964722,0.4048850223398572,-0.6730151861470985,-0.008329536725605253,0.6189098662437555
1681249796451190500,4.5611904296875,0.7297630906105042,0.0514226108789444,-2.0936663150787354,0.8076559901237488,0.5812721848487854,-0.09906883537769318,0.0943673849105835,-0.3070716857910156,0.11750149726867676,0.41832285062979513,-0.6709702236713738,-0.016264667081605858,0.6119971635343682
1681249796466223400,4.576223388671875,0.8518816828727722,0.11137969046831131,-1.880905270576477,0.7900644540786743,0.6039387583732605,-0.1051483005285263,0.05347186326980591,-0.3449970483779907,0.137725830078125,0.43141935370004564,-0.6685240773723954,-0.02239214986241372,0.6053523843696946
1681249796481256400,4.59125634765625,0.9938479661941528,0.18373005092144012,-1.6637705564498901,0.7739702463150024,0.6232531070709229,-0.11191882193088531,-0.018782198429107666,-0.3686143755912781,0.16981065273284912,0.4440640976339123,-0.6658310998824107,-0.026637134654421225,0.5989712910948968
1681249796496289500,4.60628955078125,1.0824438333511353,0.24981293082237244,-1.4462648630142212,0.7595239281654358,0.639449417591095,-0.11928091943264008,-0.017473816871643066,-0.3853905200958252,0.17898859083652496,0.4562945200692381,-0.6629598818933787,-0.029047151099104124,0.5928202058583204
1681249796511323400,4.621323486328125,1.1910840272903442,0.2880876362323761,-1.1913241147994995,0.7472377419471741,0.6522613167762756,-0.1272444874048233,-0.012984812259674072,-0.3982328772544861,0.19017177820205688,0.46784646322908446,-0.6599248678838023,-0.02961289547935115,0.5871473788079474
1681249796526356500,4.6363564453125,1.2810006141662598,0.2884998917579651,-0.9684351682662964,0.7371444702148438,0.6618571281433105,-0.13624794781208038,0.009697020053863525,-0.4249947667121887,0.1793845146894455,0.47878873320867277,-0.6565554984497632,-0.028476344163542628,0.5821387470051826
1681249796541389600,4.6513896484375,1.3431862592697144,0.2606320381164551,-0.6900820732116699,0.729378879070282,0.66826993227005,-0.1463623195886612,0.05547219514846802,-0.4223134517669678,0.1607666015625,0.4889480533167647,-0.6528016474604521,-0.025862070537485328,0.5780234521179083
1681249796556422400,4.66642236328125,1.335843563079834,0.21491806209087372,-0.4150102734565735,0.7243751883506775,0.6712186336517334,-0.1573094129562378,0.09581524133682251,-0.4159696102142334,0.1662968546152115,0.4979549117831919,-0.6487433436580887,-0.021848773229886646,0.5750614470496772
1681249796571455500,4.68145556640625,1.2543443441390991,0.1981329619884491,-0.16733631491661072,0.7219457626342773,0.6711850166320801,-0.1682422161102295,0.14574533700942993,-0.412411093711853,0.1999652236700058,0.5055697964547675,-0.6446660550718308,-0.01686911901675952,0.5731671328477849
1681249796586488600,4.696488525390625,1.1245313882827759,0.19687461853027344,0.0995025709271431,0.7221237421035767,0.6684586405754089,-0.17804640531539917,0.16160428524017334,-0.4111495614051819,0.22467726469039917,0.5114717065252272,-0.6409775234303776,-0.01116284764783957,0.5722062597957542
1681249796601521400,4.711521484375,1.0255049467086792,0.20837627351284027,0.35508933663368225,0.7249475121498108,0.6630429625511169,-0.18661576509475708,0.19862127304077148,-0.39889800548553467,0.23912125825881958,0.5156567608476068,-0.6377069259674328,-0.004690028701506482,0.5721941725972645
1681249796616554500,4.726554443359375,0.9818052053451538,0.2082793414592743,0.5851156115531921,0.7302375435829163,0.6550015807151794,-0.1942325085401535,0.21782153844833374,-0.38447844982147217,0.2334170937538147,0.5184161287524118,-0.634725466145069,0.0027068811800202387,0.5730280462017547
1681249796631587600,4.741587646484375,0.990234375,0.20685453712940216,0.7743669748306274,0.7374938726425171,0.6445772647857666,-0.20155148208141327,0.2851806879043579,-0.3526613116264343,0.18987852334976196,0.5201399751831084,-0.6317465984910506,0.010977013050133263,0.5746566170585029
1681249796646620400,4.756620361328125,1.0265607833862305,0.21857139468193054,0.9690747261047363,0.7465013265609741,0.6317692399024963,-0.20881438255310059,0.3095442056655884,-0.33733564615249634,0.16872955858707428,0.5211175989804939,-0.628634224307167,0.02029328116991237,0.5769260689619693
1681249796661653500,4.771653564453125,1.0202795267105103,0.2090710997581482,1.1607704162597656,0.7571887373924255,0.6164212226867676,-0.21607939898967743,0.38267338275909424,-0.3099483847618103,0.15653961896896362,0.52129828540287,-0.6253172831644341,0.030636527057921355,0.5799033466674386
1681249796676687400,4.786687255859375,0.9427412748336792,0.21293534338474274,1.3218036890029907,0.7692321538925171,0.5989004969596863,-0.22271060943603516,0.41803884506225586,-0.2981497645378113,0.16950324177742004,0.5204440701059134,-0.6220237700472261,0.041606832329532044,0.5835179730438331
1681249796691720400,4.801720458984375,0.7514300346374512,0.2188912332057953,1.5019739866256714,0.7824519872665405,0.5795722007751465,-0.22773924469947815,0.5244023203849792,-0.2929205298423767,0.20073115825653076,0.5181543534010806,-0.6191470092771922,0.052795421450026234,0.5876953374344583
1681249796706753500,4.81675341796875,0.45045608282089233,0.19255869090557098,1.7076302766799927,0.7969011664390564,0.5584118962287903,-0.23048873245716095,0.5857131481170654,-0.27382010221481323,0.22438517212867737,0.5137703980787903,-0.6170009161870115,0.06376130280847568,0.5926926510665843
1681249796721786600,4.83178662109375,0.10155244916677475,0.1624910682439804,1.928175449371338,0.8124432563781738,0.53548264503479,-0.23063911497592926,0.6770281791687012,-0.26410508155822754,0.26497137546539307,0.5068238706398536,-0.6157858653269291,0.07408247700001425,0.5987062580301562
1681249796736819500,4.8468193359375,-0.1644965410232544,0.15439453721046448,2.1240768432617188,0.8289515972137451,0.5105701684951782,-0.22838038206100464,0.6715672612190247,-0.23775821924209595,0.25775355100631714,0.49732798047894794,-0.6154484506549388,0.08386304605958045,0.6056857381100523
1681249796751852500,4.8618525390625,-0.2929020822048187,0.17224091291427612,2.284018039703369,0.8459830284118652,0.4836176037788391,-0.22455944120883942,0.586313784122467,-0.17886897921562195,0.19097483158111572,0.48604847993456796,-0.6155958756194015,0.09360555226010554,0.6132183425595849
1681249796766885600,4.8768857421875,-0.3695962727069855,0.17210641503334045,2.318112850189209,0.8629076480865479,0.45494014024734497,-0.22004485130310059,0.5049054026603699,-0.13107234239578247,0.14799287915229797,0.4736378237753646,-0.6158596065978931,0.10341430459102227,0.6210390975600878
1681249796781918500,4.89191845703125,-0.4727779030799866,0.21204930543899536,2.222818613052368,0.8785958886146545,0.42656734585762024,-0.21473143994808197,0.33273833990097046,-0.12584707140922546,0.12893128395080566,0.4608731884213026,-0.6163959769552873,0.1126511334758242,0.6284597631807276
1681249796796951600,4.90695166015625,-0.5640862584114075,0.24328632652759552,2.1016764640808105,0.8927626013755798,0.3993930220603943,-0.20847110450267792,0.24210983514785767,-0.11373317241668701,0.1282861828804016,0.4479650877056084,-0.6173550988853517,0.12098399958372538,0.6352660005432805
1681249796811984600,4.921984619140625,-0.5583063364028931,0.3127642273902893,1.9094147682189941,0.9053062796592712,0.37395432591438293,-0.2014421969652176,0.09371721744537354,-0.13236185908317566,0.1249498724937439,0.4353980542833085,-0.6186813587558961,0.12850009946967356,0.6412096121481572
1681249796827018500,4.9370185546875,-0.4545702040195465,0.44272381067276,1.6891216039657593,0.9162066578865051,0.3508819043636322,-0.193513423204422,0.017066657543182373,-0.12839344143867493,0.11482381820678711,0.42395623663532894,-0.6203671536609293,0.1356019345948594,0.6457692872476004
1681249796842051600,4.952051513671875,-0.32348620891571045,0.5363144278526306,1.525237798690796,0.9258286356925964,0.3297688663005829,-0.1846456527709961,-0.02461397647857666,-0.09115186333656311,0.061598777770996094,0.4138023407480555,-0.622332084787589,0.14275837446741282,0.6489148861843124
1681249796857084400,4.96708447265625,-0.20130649209022522,0.4964621365070343,1.4070442914962769,0.9342962503433228,0.31001847982406616,-0.17600934207439423,0.01763862371444702,-0.053457111120224,0.03095930814743042,0.40485866302513396,-0.6241028311336997,0.14996993990056795,0.6512252072737046
1681249796872117500,4.982117431640625,-0.14932702481746674,0.44988319277763367,1.3363240957260132,0.941685140132904,0.2911848723888397,-0.1686435341835022,0.10807383060455322,-0.011155515909194946,0.017947733402252197,0.39682003195180426,-0.6253320749911686,0.15696505812178152,0.653341951626537
1681249796887150600,4.997150634765625,-0.1772880256175995,0.4663679003715515,1.2990773916244507,0.9483948349952698,0.2728661596775055,-0.1615288406610489,0.09225469827651978,0.01221388578414917,0.0196831077337265,0.3890683192482913,-0.6264385917602885,0.16373841107828252,0.6552789202374961
1681249796902183400,5.012183349609375,-0.28798946738243103,0.4677159786224365,1.267392635345459,0.9546175003051758,0.2549823820590973,-0.15391512215137482,0.008212268352508545,0.018821418285369873,0.04032866656780243,0.38106394198200133,-0.6277930940554441,0.17005373465179716,0.6570753869125777
1681249796917216500,5.027216552734375,-0.4584623873233795,0.4375500977039337,1.2128589153289795,0.9602309465408325,0.238001748919487,-0.1459866315126419,-0.017100274562835693,0.022664234042167664,0.04892544448375702,0.372583873483028,-0.6294926310679018,0.17534454759440124,0.658919432345333
1681249796932249600,5.04224951171875,-0.6034607887268066,0.4100814461708069,1.1632689237594604,0.9652246236801147,0.22200052440166473,-0.1380482017993927,-0.052077651023864746,0.024856209754943848,0.052461639046669006,0.3636003170612125,-0.6314832357154033,0.1794570286615126,0.6609228028415118
1681249796947282400,5.057282470703125,-0.6787341833114624,0.4139467477798462,1.130207896232605,0.9697520732879639,0.20659270882606506,-0.13000133633613586,-0.08802300691604614,0.049449801445007324,0.032299354672431946,0.35425033139190243,-0.6337037561076325,0.18280831374614356,0.6629534999830995
1681249796962315500,5.0723154296875,-0.7237555980682373,0.4022000730037689,1.1034308671951294,0.9738713502883911,0.19162000715732574,-0.12188661843538284,-0.1479284167289734,0.09260548651218414,-0.00770626962184906,0.3447620288528764,-0.6360565821431928,0.18571137299940155,0.6648927887941378
1681249796977349600,5.087349609375,-0.7542815208435059,0.3627815842628479,1.0845746994018555,0.977590799331665,0.1768464744091034,-0.1142011359333992,-0.1628323197364807,0.12292777001857758,-0.02247186005115509,0.335192588744211,-0.6383283270360545,0.18824553199476252,0.666893313535784
1681249796992382500,5.102382568359375,-0.839100182056427,0.3169424533843994,1.0470086336135864,0.980884850025177,0.16245116293430328,-0.10711958259344101,-0.1686747670173645,0.1456696093082428,-0.045971862971782684,0.32553835405429826,-0.6405029027085969,0.19025309980114177,0.6690176384232878
1681249797007415600,5.11741552734375,-1.0624611377716064,0.23707209527492523,0.9883583784103394,0.9836975336074829,0.14891333878040314,-0.10081765800714493,-0.15854793787002563,0.15186797082424164,-0.04948139190673828,0.31549739769344604,-0.6427075404334149,0.19109732431872947,0.6714687958943452
1681249797022439200,5.132439208984375,-1.3742321729660034,0.1274137794971466,0.9461296796798706,0.9860482811927795,0.13633668422698975,-0.09550660848617554,-0.11712104082107544,0.14065614342689514,-0.01923932135105133,0.7401037473755016,-0.09210647095733053,0.6661554579803398,5.672573030317149e-19
1681249797037472300,5.14747216796875,-1.6632159948349,0.05011580139398575,0.9025925993919373,0.987981915473938,0.12478448450565338,-0.09121811389923096,-0.11629301309585571,0.1412220001220703,-0.00517147034406662,0.7385438187240373,-0.09598534227275117,0.6672164249698824,0.012735206182437814
1681249797052505300,5.16250537109375,-1.8512825965881348,0.03460261970758438,0.8795064687728882,0.9896319508552551,0.11391117423772812,-0.08748205751180649,-0.2036362886428833,0.14153622090816498,0.0257146954536438,0.7369127252960116,-0.10128043422097145,0.6678332449719552,0.02647255484668746
1681249797067538200,5.1775380859375,-1.9104686975479126,0.08317787945270538,0.8649352788925171,0.991127073764801,0.10335703939199448,-0.08357583731412888,-0.26457953453063965,0.15773612260818481,0.0369298979640007,0.7349317984401389,-0.10740689025310099,0.6683381189952788,0.040785073835843795
1681249797082571300,5.1925712890625,-1.768669843673706,0.16144631803035736,0.8081238865852356,0.9925199747085571,0.09310460835695267,-0.07896816730499268,-0.3492550253868103,0.18231654167175293,0.030643761157989502,0.7324613748404529,-0.11345860331712791,0.6690613296572515,0.05463137701034115
1681249797097604400,5.207604248046875,-1.4290803670883179,0.2308533489704132,0.7663612961769104,0.9937836527824402,0.08323951810598373,-0.07392878830432892,-0.34911495447158813,0.22053244709968567,-0.004836857318878174,0.7297209984707581,-0.11844118825471593,0.6700800633287648,0.06687150665956408
1681249797112637200,5.22263720703125,-0.9825674295425415,0.2859642803668976,0.7619678378105164,0.9949637055397034,0.07311881333589554,-0.06856513768434525,-0.2566975951194763,0.33314645290374756,-0.11669158935546875,0.7268881016484204,-0.12135905427994423,0.6715574513222776,0.07691828169775716
1681249797127671300,5.23767138671875,-0.5734306573867798,0.2658563554286957,0.7561666965484619,0.9960160851478577,0.06253541260957718,-0.06357377022504807,-0.18433988094329834,0.3644970655441284,-0.153467059135437,0.7243021025980899,-0.12190380806263583,0.6733146198891622,0.08469662804984596
1681249797142704000,5.2527041015625,-0.19646455347537994,0.2404114454984665,0.7641143798828125,0.9968990683555603,0.051511336117982864,-0.059490520507097244,-0.08507949113845825,0.37355273962020874,-0.17436546087265015,0.7221825547795262,-0.120304425917929,0.6751159792652661,0.0905416132973185
1681249797157737200,5.2677373046875,0.13402175903320312,0.30138665437698364,0.761157751083374,0.9976552724838257,0.040100522339344025,-0.05546348914504051,-0.08850598335266113,0.3822017014026642,-0.17257893085479736,0.7202698984075936,-0.11675411050452686,0.6772272388736748,0.09456827251331253
1681249797172770300,5.282770263671875,0.4145651161670685,0.34376341104507446,0.7314932942390442,0.9983068108558655,0.028626397252082825,-0.05063988268375397,-0.12959325313568115,0.3896017372608185,-0.18365859985351562,0.7182847399348149,-0.11163210651603309,0.6798664065714555,0.09688732822599959
1681249797187803400,5.297803466796875,0.544177234172821,0.3255564272403717,0.6300390958786011,0.9987937211990356,0.017966629937291145,-0.04570392146706581,-0.11552321910858154,0.3885122239589691,-0.18946433067321777,0.7164393577040757,-0.10573208595629427,0.6826190477738886,0.09781050287728014
1681249797202836200,5.312836181640625,0.5490525960922241,0.2851752042770386,0.4960419237613678,0.9991075396537781,0.009131837636232376,-0.041245799511671066,-0.058067262172698975,0.37490135431289673,-0.20844882726669312,0.7148900199484026,-0.10006553689191278,0.6851014440664797,0.09775185151629884
1681249797217869300,5.327869384765625,0.4674733579158783,0.24701394140720367,0.35489174723625183,0.9993016719818115,0.0024468351621180773,-0.037292011082172394,-0.0402866005897522,0.37298038601875305,-0.2229158878326416,0.7135812894116873,-0.0953240153111748,0.687217088700328,0.09720074969287755
1681249797232902400,5.34290234375,0.33255088329315186,0.2192414402961731,0.22450041770935059,0.9994258284568787,-0.0021030381321907043,-0.03382046893239021,-0.03774052858352661,0.3613101840019226,-0.23191112279891968,0.7124646871159148,-0.09180105116072203,0.6889574238478365,0.09645955455931596
1681249797247935200,5.357935302734375,0.14427098631858826,0.1669052690267563,0.11769063025712967,0.9995138645172119,-0.004772316664457321,-0.03081541508436203,-0.03261005878448486,0.3576165437698364,-0.24315595626831055,0.7114715135771403,-0.08979192563700147,0.6903113087395346,0.09600097035706592
1681249797262968000,5.372968017578125,-0.04504663497209549,0.07458758354187012,0.011260590516030788,0.9995635747909546,-0.005762772634625435,-0.028980817645788193,0.01856410503387451,0.3530680537223816,-0.2360336184501648,0.7108254295617517,-0.08928394329033949,0.6910412209384399,0.0960097338567957
1681249797278002200,5.388002197265625,-0.21442261338233948,-0.004961035214364529,-0.05289682373404503,0.9995800256729126,-0.005329666659235954,-0.028493177145719528,0.044777512550354004,0.3537183403968811,-0.23285913467407227,0.7105836914735778,-0.09013222341472969,0.6911075126848361,0.09652813791012103
1681249797293035300,5.40303515625,-0.34639230370521545,-0.0976097509264946,-0.07906770706176758,0.9995617270469666,-0.0041988203302025795,-0.02930598333477974,0.10428965091705322,0.35832479596138,-0.20763230323791504,0.7107114591422826,-0.09196256090967916,0.6905721507613994,0.09768458814288923
1681249797308068400,5.418068359375,-0.4855070114135742,-0.1988825649023056,-0.12448099255561829,0.999500572681427,-0.0024825837463140488,-0.03151118382811546,0.1511191725730896,0.3627120554447174,-0.19462382793426514,0.7112527734139007,-0.09457906850937436,0.6894194717601697,0.09937479202222987
1681249797323101200,5.43310107421875,-0.6754750609397888,-0.3602016866207123,-0.16244329512119293,0.999363899230957,-0.000021370631657191552,-0.035663850605487823,0.27346330881118774,0.3859619200229645,-0.17296934127807617,0.7123696471792232,-0.09820874866663049,0.6874031683595687,0.10179123427682588
1681249797338134300,5.44813427734375,-0.8637922406196594,-0.5053727626800537,-0.2288968861103058,0.9991018176078796,0.0033111923839896917,-0.042247071862220764,0.3145579695701599,0.3876799941062927,-0.13974428176879883,0.7142024490631347,-0.10298392643871543,0.6843031306658125,0.10506422241648715
1681249797353167400,5.46316748046875,-1.0136218070983887,-0.5512518286705017,-0.34166470170021057,0.9987037181854248,0.00820758007466793,-0.05023522675037384,0.2657616138458252,0.3676469027996063,-0.07325392216444016,0.716434633843962,-0.10906752658738093,0.6804312320117769,0.10880741475272876
1681249797368200000,5.478199951171875,-1.0947744846343994,-0.5153718590736389,-0.47817620635032654,0.9981945157051086,0.015216304920613766,-0.05810847878456116,0.18607079982757568,0.35772374272346497,-0.04154646396636963,0.718610456245675,-0.11645219595489247,0.6763021853390473,0.11248760537840945
1681249797383232800,5.493232666015625,-0.9799304604530334,-0.44177162647247314,-0.6533917188644409,0.9975812435150146,0.024656105786561966,-0.06499353051185608,0.03238725662231445,0.36200159788131714,-0.008980877697467804,0.7205708136536784,-0.1246051186095862,0.6722921984780518,0.1152159125957792
1681249797398265900,5.508265869140625,-0.640306830406189,-0.3216444253921509,-0.8365341424942017,0.9968448877334595,0.03669515997171402,-0.07038508355617523,-0.030749797821044922,0.3613761067390442,-0.007022559642791748,0.7223605384756407,-0.13252100024612307,0.668764265420968,0.11570648192440933
1681249797413299700,5.5232998046875,-0.1393558233976364,-0.1816314160823822,-1.0172910690307617,0.9959632754325867,0.05100376904010773,-0.07386539876461029,-0.11456972360610962,0.3747316896915436,-0.04271155595779419,0.7240056017392239,-0.13910655186566048,0.6661206096203486,0.11291054212645443
1681249797428332800,5.538332763671875,0.3696804344654083,-0.11064405739307404,-1.2015339136123657,0.9948157072067261,0.06750946491956711,-0.07605654746294022,-0.11326950788497925,0.3688918948173523,-0.06166905164718628,0.7257439703515788,-0.1439124546332065,0.664274740821418,0.10641510309690193
1681249797443366000,5.553365966796875,0.8208681344985962,-0.11554373800754547,-1.3605238199234009,0.9932081699371338,0.08597086369991302,-0.07840164750814438,0.0037859678268432617,0.3503694534301758,-0.040967635810375214,0.7279318247706706,-0.1469266371517683,0.6627305173542228,0.09652059666561694
1681249797458398700,5.568398681640625,1.1644785404205322,-0.1387113779783249,-1.4716863632202148,0.9910038113594055,0.10597394406795502,-0.08174014091491699,0.07401406764984131,0.3216841220855713,-0.011139869689941406,0.7306356568769005,-0.14845448142878484,0.6611287284220082,0.08391582851631123
1681249797473431800,5.583431884765625,1.4947272539138794,-0.13140499591827393,-1.5303003787994385,0.9882012605667114,0.1266607791185379,-0.08611370623111725,0.14261245727539062,0.3050866425037384,0.05141545087099075,0.7336674159855581,-0.14852366238475756,0.6594572530294184,0.06920324503617374
1681249797488465000,5.59846484375,1.790128231048584,-0.1287626028060913,-1.5983422994613647,0.9848035573959351,0.14764246344566345,-0.09145369380712509,0.15403622388839722,0.28666841983795166,0.064476378262043,0.736861325139412,-0.14709803909958552,0.6577501958721852,0.052557375012773154
1681249797503497700,5.613497802734375,2.047497034072876,-0.12200616300106049,-1.6776820421218872,0.9807193279266357,0.16910767555236816,-0.09794091433286667,0.1430600881576538,0.27191710472106934,0.06159466505050659,0.7401400853437083,-0.1444631217765825,0.655865801019243,0.03410623132734662
1681249797518530800,5.62853076171875,2.1903445720672607,-0.11803406476974487,-1.782427191734314,0.9758573770523071,0.19130031764507294,-0.1053885892033577,0.13254117965698242,0.23124608397483826,0.0594903826713562,0.7433001943420874,-0.141098127643871,0.653756088141665,0.014115516724441975
1681249797533564000,5.64356396484375,2.2360589504241943,-0.132818341255188,-1.8847955465316772,0.9700616002082825,0.21445786952972412,-0.11396628618240356,0.13351505994796753,0.15971814095973969,0.08488322794437408,0.7462808062343937,-0.13763063805184245,0.6512101549632275,-0.0069375988610900444
1681249797548597800,5.65859765625,2.1017777919769287,-0.22770783305168152,-1.9812933206558228,0.9631515741348267,0.23870234191417694,-0.12393780052661896,0.16361862421035767,0.11421822011470795,0.10823673009872437,0.7491127139139642,-0.13487050224013708,0.6479514245271776,-0.028270582476223126
1681249797563630800,5.673630859375,1.8428771495819092,-0.30496320128440857,-2.056760549545288,0.9549888372421265,0.2639732360839844,-0.13533170521259308,0.20182585716247559,0.05086138844490051,0.1608598828315735,0.7518397873149335,-0.1335751997337782,0.6438103837580554,-0.04901982804572535
1681249797578664000,5.688663818359375,1.4896043539047241,-0.33482733368873596,-2.121743679046631,0.9455886483192444,0.2903324365615845,-0.1468660980463028,0.18891775608062744,-0.003451913595199585,0.18617290258407593,0.7541416744214664,-0.13436649666570077,0.6391499030462195,-0.06858304011135259
1681249797593696800,5.70369677734375,1.137264609336853,-0.32982566952705383,-2.1733927726745605,0.9349945783615112,0.317720890045166,-0.15760324895381927,0.11352849006652832,-0.06480640172958374,0.2036849856376648,0.7558316430820948,-0.1374054896561109,0.6342855100716831,-0.0867196588949725
1681249797608729900,5.718729736328125,0.8600107431411743,-0.3103283941745758,-2.2199394702911377,0.9232462048530579,0.3460087478160858,-0.16701647639274597,0.08761811256408691,-0.10394328832626343,0.20653696358203888,0.7568211325702963,-0.1424413298783852,0.6294459707648979,-0.10358596189991837
1681249797623763000,5.733762939453125,0.6482623815536499,-0.263992041349411,-2.236480712890625,0.9104265570640564,0.37480688095092773,-0.1750524491071701,0.02925550937652588,-0.13574740290641785,0.20180131494998932,0.7571301861991471,-0.1489141068205359,0.6247386360328628,-0.11949968514866742
1681249797638795800,5.748795654296875,0.4992215037345886,-0.22526384890079498,-2.2268965244293213,0.8967069983482361,0.4036300778388977,-0.18165822327136993,0.013113737106323242,-0.16269373893737793,0.19912970066070557,0.7567814480749135,-0.15637590730671622,0.620255969053697,-0.134577752037004
1681249797653828900,5.763828857421875,0.43893009424209595,-0.19167819619178772,-2.193861722946167,0.8822285532951355,0.43194979429244995,-0.18732993304729462,-0.004008829593658447,-0.19049465656280518,0.19245707988739014,0.7559412193110001,-0.1642559038333743,0.6159180397196787,-0.14905731986092877
1681249797668862000,5.778862060546875,0.4363291561603546,-0.15348978340625763,-2.1243069171905518,0.8672519326210022,0.4591425955295563,-0.19251538813114166,-0.0019870400428771973,-0.20561781525611877,0.19742897152900696,0.7547521895788268,-0.17196934748348444,0.6116934262612806,-0.16311611910081292
1681249797683895800,5.793895751953125,0.49042609333992004,-0.10918331146240234,-2.026691198348999,0.8521248698234558,0.48463717103004456,-0.1975097954273224,-0.019712090492248535,-0.21713533997535706,0.2118838131427765,0.7533150537273826,-0.1790358339260787,0.6076111223353198,-0.17683711451598744
1681249797698929000,5.808928955078125,0.5487474799156189,-0.07587755471467972,-1.9110746383666992,0.8371358513832092,0.5081097483634949,-0.20255425572395325,-0.014671802520751953,-0.2436596155166626,0.22336746752262115,0.7517269951031167,-0.1852054517736379,0.6036735961614276,-0.19022022058706398
1681249797713961700,5.823961669921875,0.6342408657073975,-0.05259433388710022,-1.7790307998657227,0.8225374221801758,0.5293164849281311,-0.20798160135746002,-0.0019349455833435059,-0.2695813775062561,0.23846890032291412,0.7501249467928751,-0.19030685432470135,0.5998270562050351,-0.20323246304663944
1681249797728994800,5.838994873046875,0.7018346786499023,-0.046796366572380066,-1.6213264465332031,0.8086069226264954,0.5480426549911499,-0.214019313454628,0.016283273696899414,-0.2911761403083801,0.24890108406543732,0.7486360620980218,-0.19424459346073666,0.5960363922906977,-0.21576334429527316
1681249797744028000,5.85402783203125,0.7223217487335205,-0.032840073108673096,-1.4427756071090698,0.7956464886665344,0.5642191767692566,-0.22046227753162384,0.03626281023025513,-0.3115793466567993,0.2537723779678345,0.7473053973399056,-0.19715276455803926,0.5923678328412704,-0.22752125558521702
1681249797759060700,5.869060791015625,0.6802704334259033,-0.024060161784291267,-1.2439693212509155,0.784017026424408,0.5778055191040039,-0.22684431076049805,0.05056256055831909,-0.33235251903533936,0.2606579661369324,0.7461249032044246,-0.19920527775618793,0.58897801417419,-0.23815955682649942
1681249797774093800,5.88409375,0.6005509495735168,-0.011281248182058334,-1.0356945991516113,0.773945152759552,0.5889647006988525,-0.23265811800956726,0.07394009828567505,-0.3553982973098755,0.2735671401023865,0.7450790428676304,-0.2006905858102723,0.5859984888127004,-0.2473589949331601
1681249797789127000,5.899126953125,0.5032007694244385,0.015787385404109955,-0.8093496561050415,0.7657129168510437,0.5977087020874023,-0.23754625022411346,0.08925241231918335,-0.3644169569015503,0.2781500816345215,0.7441567361742008,-0.2016600853717174,0.5835752593685246,-0.2549587715184529
1681249797804160800,5.914160888671875,0.4274824857711792,0.0678924024105072,-0.5689921379089355,0.7596202492713928,0.6039559841156006,-0.2412766069173813,0.10445451736450195,-0.3733651041984558,0.2825060486793518,0.7433425592448317,-0.2020053990934084,0.5818552371081761,-0.26092189434994023
1681249797819193900,5.92919384765625,0.3632630407810211,0.13629648089408875,-0.31015124917030334,0.7559674382209778,0.6075546145439148,-0.24370259046554565,0.12934762239456177,-0.37963396310806274,0.28166663646698,0.74262531663125,-0.2015455634197004,0.5809716767747809,-0.26525296449637903
1681249797834227000,5.94422705078125,0.35269859433174133,0.20862767100334167,-0.022841719910502434,0.7550656795501709,0.6081889867782593,-0.2449125200510025,0.23010283708572388,-0.366108238697052,0.27170711755752563,0.7420454783392867,-0.1999698559897866,0.5809955203441072,-0.26800166927849717
1681249797849259800,5.959259765625,0.34943297505378723,0.2026510089635849,0.24496974050998688,0.7568793892860413,0.6056123971939087,-0.24569745361804962,0.31230396032333374,-0.3493562340736389,0.26232969760894775,0.7418667894550267,-0.19708828447030913,0.5816420538260653,-0.2692256139169569
1681249797864292900,5.97429296875,0.3703151345252991,0.21695831418037415,0.5016041994094849,0.7609975934028625,0.600050151348114,-0.24662266671657562,0.4410441517829895,-0.29572874307632446,0.22193413972854614,0.742247239137915,-0.19304122488787595,0.5826008489862607,-0.26903626302137496
1681249797879326000,5.989325927734375,0.36421436071395874,0.27646905183792114,0.7539288401603699,0.7675619125366211,0.5914285778999329,-0.2471051663160324,0.4542398452758789,-0.2768685817718506,0.19397428631782532,0.7429657297420678,-0.18770734431753358,0.584134718816317,-0.2674967866681364
1681249797894358800,6.00435888671875,0.2819550335407257,0.33840087056159973,0.950716495513916,0.7762405276298523,0.5802909731864929,-0.246400386095047,0.477681040763855,-0.26342689990997314,0.1558549553155899,0.7437720259613328,-0.18150278429504615,0.5863928251562531,-0.2645816686835157
1681249797909392000,6.019391845703125,0.1352642923593521,0.3543049991130829,1.095697045326233,0.7863742709159851,0.5674993991851807,-0.24404919147491455,0.5140865445137024,-0.2653753161430359,0.15826448798179626,0.744505207175372,-0.17510751660758564,0.5893324700539803,-0.2602626666678644
1681249797924425000,6.034425048828125,-0.09029773622751236,0.3061087131500244,1.2729406356811523,0.7975106239318848,0.5533878207206726,-0.24028949439525604,0.6244560480117798,-0.28031641244888306,0.19231605529785156,0.7453228020885144,-0.16906695626232882,0.5926817141402936,-0.2542417760849932
1681249797939458800,6.049458740234375,-0.3647306263446808,0.28677523136138916,1.4957596063613892,0.8099295496940613,0.5374584197998047,-0.23484651744365692,0.6651987433433533,-0.2635478377342224,0.19900381565093994,0.7463118998608896,-0.16357550039272845,0.5965063273097957,-0.24584966251285978
1681249797954492000,6.064491943359375,-0.5366074442863464,0.27480751276016235,1.7432016134262085,0.8237544894218445,0.5191637277603149,-0.22781120240688324,0.6988133788108826,-0.2262558937072754,0.18879467248916626,0.7474370217214077,-0.15835242273320269,0.6008484903051947,-0.23503995828339125
1681249797969524700,6.079524658203125,-0.5823317170143127,0.24869093298912048,1.958739161491394,0.8388537168502808,0.4978713095188141,-0.22011052072048187,0.6740247011184692,-0.1769331693649292,0.15672573447227478,0.7487508588879973,-0.15267892813116402,0.6055029987274881,-0.22232288754290683
1681249797984557800,6.094557861328125,-0.5869572758674622,0.1922692060470581,2.04113507270813,0.8542699813842773,0.47414878010749817,-0.21308714151382446,0.5603878498077393,-0.09521189332008362,0.1009351909160614,0.7503608610927059,-0.14640793900773127,0.6099353638628611,-0.2085722798038011
1681249797999591000,6.1095908203125,-0.6616847515106201,0.1892947256565094,1.9734477996826172,0.8688598275184631,0.44998958706855774,-0.20637913048267365,0.43340176343917847,-0.0728837251663208,0.07460436224937439,0.75189188506192,-0.14034534562473322,0.6140957733994317,-0.19454662620521057
1681249798014624000,6.1246240234375,-0.7942054271697998,0.21561767160892487,1.7985026836395264,0.8819495439529419,0.42728692293167114,-0.19897562265396118,0.15577030181884766,-0.10271716117858887,0.06700253486633301,0.7528827094259909,-0.13538285923610843,0.6182100508180397,-0.1807088927358446
1681249798029656800,6.13965673828125,-0.9453696608543396,0.27996206283569336,1.5924999713897705,0.8933060765266418,0.40722882747650146,-0.19018197059631348,0.038517773151397705,-0.11491614580154419,0.0709041953086853,0.7530628308831397,-0.1321003536405679,0.6224616569820838,-0.1672947256727757
1681249798044690000,6.15468994140625,-1.0623564720153809,0.32595592737197876,1.3538309335708618,0.9029871821403503,0.39012545347213745,-0.18004609644412994,-0.09373718500137329,-0.17129909992218018,0.11545586585998535,0.7524252574082394,-0.1305047795147281,0.6268536138568477,-0.1545299105742683
1681249798059723000,6.169722900390625,-1.1187078952789307,0.3627277910709381,1.1447954177856445,0.9110414981842041,0.37605607509613037,-0.16907280683517456,-0.12069708108901978,-0.1830628514289856,0.11835277080535889,0.7511215096277835,-0.13043726369908185,0.6312287373635797,-0.14266430606951516
1681249798074756900,6.1847568359375,-1.0899105072021484,0.38097843527793884,1.0293651819229126,0.9179685711860657,0.36395445466041565,-0.15770621597766876,-0.07578998804092407,-0.150743305683136,0.09961621463298798,0.7493472005512337,-0.1311872709880776,0.6355602190692815,-0.1316514223838574
1681249798089790000,6.1997900390625,-0.9492253661155701,0.31431442499160767,1.0275286436080933,0.9242905378341675,0.3521309494972229,-0.1472790390253067,-0.02658534049987793,-0.09227371215820312,0.07737869024276733,0.7476078751503611,-0.1317090004281518,0.6395414162359421,-0.12133504135139411
1681249798104822800,6.21482275390625,-0.7658535838127136,0.22286972403526306,1.057708978652954,0.9302712678909302,0.33948662877082825,-0.139084592461586,0.07639694213867188,-0.006570309400558472,0.0634317398071289,0.746381797991612,-0.13129791005472066,0.6428207865929864,-0.11160956734375141
1681249798119855900,6.22985595703125,-0.6030939221382141,0.15441131591796875,1.0896728038787842,0.9360129237174988,0.3258252441883087,-0.13310876488685608,0.07709449529647827,0.010005444288253784,0.05861558020114899,0.7456870365176058,-0.12975492460112314,0.6454527665609248,-0.10249559082653092
1681249798134889000,6.244888916015625,-0.5309538841247559,0.15434499084949493,1.1142899990081787,0.9415938258171082,0.31134334206581116,-0.12832310795783997,-0.008610188961029053,0.016049325466156006,0.061581358313560486,0.7452332821437285,-0.12739996187204553,0.6477713298558969,-0.09375064477100128
1681249798149921800,6.259921875,-0.576489269733429,0.16684721410274506,1.1451160907745361,0.9470637440681458,0.2963355779647827,-0.12351447343826294,-0.07133114337921143,0.01727837324142456,0.061106204986572266,0.7446797559918089,-0.12484151220135521,0.6501210355317039,-0.08490855067949812
