seconds_elapsed,rotationRateX,rotationRateY,rotationRateZ,gravityX,gravityY,gravityZ,accelerationX,accelerationY,accelerationZ,quaternionW,quaternionX,quaternionY,quaternionZ
5.0,-0.19827085159670174,0.46662342090401776,1.2930717270495966,0.9495743056619782,0.26947639177897,-0.16008570380577883,0.07632493572019634,0.013466305828676669,0.023596355486876858,0.38755113525707974,-0.6266953299336532,0.16493544458961004,0.655619430234652
5.01,-0.27191120393190216,0.46752018390717254,1.271994525354278,0.9537137211797903,0.2575798196665521,-0.15502093766818406,0.020418580283037807,0.01786174109762148,0.03733010820464367,0.3822264967273878,-0.6275963663127999,0.16913649785188253,0.6568144683190926
5.02,-0.3766284091413831,0.45203095508456975,1.2390373327313302,0.9575362626172295,0.24615314775951805,-0.14979263149299643,-0.00494921804674698,0.02081952521153247,0.04479863926065534,0.37665465340964155,-0.6286767837483092,0.17280474085524247,0.6580342150699853
5.029999999999999,-0.4853097567817663,0.43246410345092323,1.203677015306503,0.9611555573904459,0.2350390211772595,-0.14451678113244318,-0.023576556642122954,0.023070092184292762,0.04958019323262833,0.37092051129439463,-0.6298612040859474,0.17610599942787467,0.6592903690408577
5.039999999999999,-0.5817634233913348,0.41419181815986617,1.1706895032531142,0.9644773765642176,0.22439492606966746,-0.13923609772108017,-0.046843683557976856,0.024528205463956752,0.05193248765888689,0.3649446043347917,-0.6311853643191859,0.17884164253804727,0.6606230211809061
5.049999999999999,-0.642269220468327,0.41207426573849737,1.146223769397018,0.967558824496205,0.21405677266373677,-0.13389950848235632,-0.07060986812744598,0.03753583885429641,0.04206664302970702,0.35877977877363026,-0.6326280613812043,0.18118483858918905,0.6619697620206727
5.059999999999999,-0.686872768251087,0.4118232847358763,1.125367374751225,0.9704967208282276,0.20388607232952186,-0.12853442728289616,-0.09885219273216178,0.05725111578495823,0.02506748128194236,0.3525351174972724,-0.6341290798039672,0.18333310388090593,0.663304067969387
5.0699999999999985,-0.7168212400080897,0.40400933753606943,1.1075551602262559,0.9732368846274561,0.19392615579924916,-0.12313647608168085,-0.13870157293414992,0.08595849475940406,-0.0015444614073583454,0.3462234508793513,-0.6356941915281499,0.18526423351165613,0.66459409264986
5.079999999999998,-0.7393586176407304,0.38205170743688144,1.093792725956725,0.9757725093998895,0.18406866391629073,-0.11795826105908566,-0.1555463974217988,0.10810441791275263,-0.015253553226147864,0.33987070542221254,-0.6372177617834607,0.18700668297890724,0.6659153369715987
5.089999999999998,-0.7692355019417897,0.3546999016836179,1.0779516022001152,0.9781715579890542,0.1743085044315099,-0.11295262041478722,-0.16386237426642355,0.1269372772427502,-0.02661503555592404,0.33349049582023826,-0.638711716293076,0.18859947687671194,0.6672678433121335
5.099999999999998,-0.8256573024010854,0.32420748104567737,1.052962466110997,0.980362777094312,0.1647326707651226,-0.1082419354808907,-0.167748799611531,0.14206526323226962,-0.04224735580974255,0.3270684503001601,-0.6401582549783759,0.18993492108863705,0.6686809549222376
5.109999999999998,-0.9522806153372553,0.27647091390615536,1.0172896468073191,0.9823100800771704,0.15559133911902595,-0.10392630043319805,-0.16354334685941052,0.14881041446716467,-0.047750195286837625,0.320450446958645,-0.6416200265681506,0.19068088135490938,0.6702596776316424
5.119999999999997,-1.1160940444548093,0.21820794962560383,0.9810939195520874,0.9841019246882623,0.14674981983891608,-0.09990401629193421,-0.15142141021739866,0.14993923843838952,-0.044278951766624934,0.38854097826658573,-0.5479895184065461,0.27281995302887585,0.5559583115787345
5.129999999999997,-1.3236137740737732,0.14521764112408936,0.9529858301099638,0.9856666194425362,0.13837859975168723,-0.0963688977717122,-0.12384701264967586,0.14247646888193893,-0.024149351526754553,0.6711656769515485,-0.18150074245484482,0.5890261566913726,0.10901806620064214
5.139999999999997,-1.5195758997943323,0.08853694500464393,0.9242328085562574,0.9870207979618121,0.13052653281537901,-0.09334972031950013,-0.11670458624336823,0.14094073970773757,-0.012163929100379134,0.739319184965316,-0.09405734007251058,0.6666890688077719,0.006405141701400923
5.149999999999997,-1.6948393804811062,0.04750726100193655,0.8987106681780005,0.9882593688054006,0.12295613816107148,-0.09058989628465136,-0.13097977863783472,0.14127483632479898,2.2036227797953695e-05,0.7382695504806671,-0.09687571160547506,0.6673201432091551,0.015045140378707116
5.159999999999997,-1.8199401991086919,0.03718798203164003,0.8833539072621207,0.9893569628228547,0.11572327489333406,-0.08810469312710781,-0.18908002169367014,0.14148385417913237,0.020567335550166602,0.7371845565412763,-0.10039797622479259,0.6677304483164193,0.024183145466527747
5.169999999999996,-1.8807900985737522,0.05882003815782337,0.8722419352531002,0.9903773512365398,0.1086493619225597,-0.0855345935233007,-0.23401982328837426,0.1496127561728379,0.031306086083824944,0.7359251251300073,-0.10433480696391846,0.6680849522309928,0.03360812680772473
5.179999999999996,-1.8872469935972622,0.09599551838046624,0.8556315553634517,0.9913551823317235,0.10167804896460061,-0.08282126175917141,-0.2784464250365557,0.16176153747496133,0.03590044812068971,0.7345272292641744,-0.10839794966809299,0.6684565556640348,0.04305261510535476
5.189999999999996,-1.7929232139641698,0.1480592322322999,0.8178409449160994,0.9922817320045871,0.094858190981047,-0.07975626624835207,-0.33477207310509904,0.17811229044436033,0.03171894617879336,0.7328839177362554,-0.1124235142890904,0.668937631224552,0.052263096104890175
5.199999999999996,-1.6008577674490394,0.1957446069047824,0.7874864184416102,0.99314443587676,0.08822965965770295,-0.07647789975757724,-0.3491858077204136,0.20120137432072446,0.013110602262115117,0.7311071860921456,-0.11592080541994292,0.6695647487097369,0.060679978958637096
5.2099999999999955,-1.3579211067370713,0.2396361921663958,0.7656611255402991,0.9939717138089444,0.08162661553337017,-0.0730740014016282,-0.33438671172176304,0.23847936125239483,-0.022662768573005403,0.7292695292621906,-0.11890619871846757,0.6703155096686806,0.0684726273002395
5.219999999999995,-1.0608984527074248,0.2762962611879152,0.7627385749160603,0.9947566908440643,0.07489427176751026,-0.0695060740058582,-0.2729102190045467,0.3133907648696826,-0.09706909945759931,0.727385072033722,-0.12084717788847738,0.6712982755998911,0.07515579263624274
5.229999999999995,-0.7821980437896113,0.27611668698778263,0.7591268047124176,0.9954790946956419,0.06793573118090844,-0.0661206807204383,-0.22126135049258838,0.34850000561579675,-0.13470189493558504,0.7256216424188034,-0.12162584032376367,0.6724180016574525,0.08072762514183214
5.239999999999995,-0.5150374605975693,0.26191486143912246,0.7573978168856638,0.996152861934083,0.06082774960934015,-0.06294126241639943,-0.16896414446432284,0.3658998170193852,-0.15670428516865054,0.7239737781901675,-0.1216560589007139,0.6735936559389436,0.08560203405384545
5.249999999999995,-0.2642736379417327,0.24498850436077518,0.762684741713919,0.9967402363484058,0.053494359329421856,-0.060225020034107235,-0.10293456109461922,0.3719237948372342,-0.1706062329900723,0.7225638214121708,-0.12059212456727465,0.674791948725594,0.08949021081248498
5.2599999999999945,-0.036073281502547655,0.27000387017893035,0.7626794718822546,0.9972660685531871,0.045973451894249735,-0.05753612585295252,-0.08674243276066755,0.377750244718083,-0.17349842399052925,0.7212543063869903,-0.11858139055002541,0.676140613573075,0.09249582734192476
5.269999999999994,0.1762479195514413,0.30776501866117256,0.7566927866329867,0.9977533391932377,0.038373487157720196,-0.054737460973167194,-0.09469025970423446,0.38331552247181905,-0.17424659422921676,0.7199711010267463,-0.11598316884045456,0.6776244748659277,0.09491732664802842
5.279999999999994,0.36286677311543225,0.3359542505430231,0.736959840594112,0.9981867457984956,0.0307408413830681,-0.05152877367062083,-0.12202171841820024,0.3882380635802233,-0.1816168458278767,0.7186505636163523,-0.1125759860005244,0.6793800625054095,0.0964599741834187
5.289999999999994,0.4768979024880563,0.33500734680887506,0.6827021552231078,0.9985409747507643,0.02349992444623859,-0.04826609062987475,-0.12282672205792106,0.38907777082247175,-0.18645067966973775,0.7173972626060044,-0.10879468107697558,0.6811902009706952,0.09733129943147485
5.299999999999994,0.5448896067844549,0.3196560494348036,0.6104598488338218,0.998839575368609,0.01667571776117139,-0.04505251465197224,-0.10712793466140196,0.3865234463222173,-0.1922382858466838,0.716212973324504,-0.10490410755742305,0.6829817677440769,0.0978019329241384
5.309999999999993,0.5481327747485102,0.2927938203676961,0.5213228077138408,0.9990483323749143,0.010798673998359853,-0.04208690132016067,-0.06890732212861733,0.3774692802666888,-0.2048670736543417,0.7151823293112457,-0.10113462937382187,0.6846330970737377,0.09776291710990197
5.319999999999993,0.5101773916975547,0.26699010072389334,0.4287791975405607,0.9992000501270384,0.0059462129188465745,-0.039361688593672645,-0.04959418901387252,0.3739859494042472,-0.21534285997726557,0.7142663665747051,-0.09780604508108615,0.6861096186879385,0.09748923327535045
5.329999999999993,0.448350849819597,0.24307775598787534,0.33641143651311106,0.9993192686291182,0.0018019834489341312,-0.03679999080866771,-0.039925746827701766,0.37132637297773746,-0.22419077886878355,0.713423033817125,-0.0948247070181842,0.6874637457012579,0.09709570040452069
5.339999999999993,0.35859974043190684,0.22460334842786173,0.2496744676552627,0.9994018581414,-0.0012246151728261476,-0.03449070349311629,-0.03823208691093355,0.36356329584238406,-0.23017445445495904,0.7126802643484309,-0.09248121352890201,0.6886214254031165,0.09660265367012064
5.3499999999999925,0.24365647541919336,0.19453145781719705,0.17407128022160656,0.9994673937730949,-0.0033633104097380217,-0.03240166380904813,-0.03531823028068303,0.35956626993246094,-0.23722025472944014,0.7119957704919729,-0.0908524633048463,0.689596646609857,0.09624303876674102
5.359999999999992,0.11826879183309909,0.15422571814257055,0.10307279081049286,0.9995206920708067,-0.004908352753385765,-0.030563438754450622,-0.02558144437888673,0.35699182261592105,-0.24217772501927942,0.711382775919718,-0.08972215582010296,0.6904115599407903,0.09600217399686865
5.369999999999992,-0.0076682882342372916,0.09281453164403505,0.03227384275132372,0.9995537601322043,-0.005567219751438257,-0.02934303548222558,0.008460419882001545,0.3539660949980345,-0.2374398331001051,0.7109529906000974,-0.08938423791775334,0.6908971090957446,0.09600800361568394
5.379999999999992,-0.12426937459769713,0.037380067042468566,-0.018747951261214674,0.9995712694118223,-0.005560194664356982,-0.028752732077040787,0.030824981563531473,0.35337221427914656,-0.23454880753423937,0.7107123606732544,-0.08968071192338231,0.6910722277778593,0.09625220855552762
5.389999999999992,-0.23196070474908667,-0.017273571806635867,-0.056374799183006995,0.9995775938798779,-0.005179383013106129,-0.02860119489716166,0.05268636887601557,0.35433051458907167,-0.22950661885367124,0.7106006711379385,-0.09037546583001352,0.6910363658457055,0.09668182418303536
5.3999999999999915,-0.31974760715469186,-0.07890396393930249,-0.07378380253020214,0.9995654215417739,-0.004427138341775081,-0.029141877666206024,0.0922741429320458,0.3573947520218265,-0.21272560357758477,0.7106856628344086,-0.09159301554650777,0.6906802403989502,0.09745110070003393
5.409999999999991,-0.4108437845012922,-0.14452918117689115,-0.10010756363846937,0.999533394389111,-0.0034036924026802267,-0.03032764696466479,0.12598564600932582,0.36035740182308745,-0.20160551060016535,0.7109622486307311,-0.09317478204785004,0.6900381175902445,0.09846765518637644
5.419999999999991,-0.5099171067110136,-0.21961139348304093,-0.12935898875364746,0.9994830107179341,-0.0021663282137340746,-0.032044784041556466,0.1668398794609222,0.36569956524661834,-0.19184131748467625,0.7113962869948146,-0.09504546714198024,0.6891603852544127,0.09968529468761253
5.429999999999991,-0.6362868619420124,-0.32692342819876086,-0.15461211366165886,0.9993920933740673,-0.0005290902695312678,-0.03480720375119314,0.24822513655502604,0.3811657433920202,-0.17743641000038946,0.7121392491123903,-0.09745998786893002,0.6878191082984149,0.1012927503466285
5.439999999999991,-0.7618961805868343,-0.4268225172573115,-0.19293968290487115,0.9992436266815073,0.0015079844043311924,-0.03868497354742139,0.2923221649195,0.38675036580454536,-0.15772194405169132,0.7132107429898557,-0.10040013773840176,0.6859805221150896,0.10329324965376523
5.44999999999999,-0.8823871078897725,-0.5110666665110459,-0.24289213826591116,0.9990524107645253,0.003918867366644667,-0.04323845616219062,0.3085020102606331,0.3851937513531925,-0.1314923763495793,0.7144794783618061,-0.10373894255434259,0.6838226017338587,0.10552877801986194
5.45999999999999,-0.9820528712223842,-0.5415851565553618,-0.3179046386972903,0.9987875973251374,0.007175916213763475,-0.04855213071426867,0.27604295591366684,0.3718678545764955,-0.08726337268915002,0.7159643148016965,-0.10778571828010172,0.6812470370841689,0.1080187279693952
5.46999999999999,-1.0505071112661182,-0.5349437581016422,-0.4037115561515572,0.9984722767969249,0.011393167483732963,-0.05381375681108963,0.22954075208642424,0.3631366538611024,-0.058842330636823245,0.7174235829894358,-0.11242398732372452,0.6785545084449075,0.1104801254351732
5.47999999999999,-1.0810228201285275,-0.5065588127397087,-0.4991568795851248,0.998121081205847,0.01634664648985159,-0.05893290932967863,0.16766840979207087,0.35823598207901547,-0.03764699231341065,0.7188451935563764,-0.11742844402603812,0.6758220210956011,0.1128142986111628
5.4899999999999896,-1.0046267563602387,-0.45759877234370294,-0.6157130135471528,0.9977131228320812,0.022626151532064646,-0.06351295478311661,0.06543568283447007,0.36108167908206257,-0.015983848558348807,0.7201492543520339,-0.12285189730073602,0.673154514326082,0.1146292117826875
5.499999999999989,-0.8270457748408819,-0.3876952673919828,-0.735834957148601,0.997249766220145,0.030075596220460042,-0.06742058746318852,0.003965533676479106,0.36172002731855507,-0.008099322900834658,0.7213764746634858,-0.1281685251816731,0.6707040671215305,0.1154367468692019
5.509999999999989,-0.5825232515439248,-0.30549423774504664,-0.85738404991688,0.9967431957252577,0.03834562604313707,-0.07078653013577796,-0.040418238894260924,0.3629166433783369,-0.011139205590661389,0.7225502928458182,-0.1332806289044851,0.6684593256338379,0.11538397651859321
5.519999999999989,-0.24930976566287183,-0.212362928998106,-0.9776166569896995,0.9961567808785771,0.04786316655924449,-0.0731015029501707,-0.09617205367131301,0.3718002673042589,-0.0348781634994035,0.7236445261278845,-0.13766108643605007,0.6667008667177567,0.11352422410097962
5.529999999999989,0.08752182273747905,-0.1499923243752596,-1.0994081721844597,0.9954518038549909,0.05836036372488425,-0.07484199454011757,-0.11399021698409349,0.3721288909822129,-0.05116091871376317,0.724780393264963,-0.14124854448526758,0.6652979052221714,0.11001552257750212
5.5399999999999885,0.41971877413518144,-0.111187449606209,-1.2191664663957675,0.9946374255383167,0.06955690048326295,-0.07631662749750873,-0.1002876343688257,0.36683768940887856,-0.059373190130546066,0.7259866112803153,-0.14424673832196708,0.6641034808815485,0.10531776672528323
5.549999999999988,0.7198462295294699,-0.1144466888872396,-1.3249256349435747,0.9935681010196326,0.08183731645771632,-0.07787657451991284,-0.022423007157638383,0.3545166682444846,-0.0456027277316285,0.727441959419298,-0.146251755146059,0.6630762723389944,0.09873599812346727
5.559999999999988,0.9725056042114628,-0.12576776569658402,-1.4095805612265306,0.9922353723986841,0.09479835099714612,-0.07987494600007383,0.034778077426461704,0.3377104332491653,-0.027804451856285873,0.7291250431716589,-0.14760088460262896,0.6620236376541061,0.09095803186683055
5.569999999999988,1.1996562283474255,-0.1379331111222201,-1.4779298562723975,0.9907052870861638,0.1081774803661189,-0.08220600772842768,0.08132108398007634,0.3199161789165377,-0.004476553664931158,0.7309585961388456,-0.14846185049936786,0.660950684913175,0.08234866216829433
5.579999999999988,1.419335767529688,-0.13307294792260208,-1.5169195613218471,0.9888410464653252,0.12193824371014653,-0.0851152781479346,0.12695233705046735,0.30887563124095224,0.03713488472300709,0.7329753048092791,-0.14850786927221185,0.6598388291238987,0.07256193650656881
5.589999999999987,1.6237921745446444,-0.13025049649648082,-1.5600288691212283,0.9867167553551286,0.13582797771296012,-0.0884468233363881,0.14760366463534372,0.29703945704898094,0.05712195723884762,0.7350628806703484,-0.14790078713926977,0.6587114152916846,0.0619304258524357
5.599999999999987,1.8164105702025084,-0.1280726394525603,-1.606444423730063,0.9843864784693783,0.14983447731047547,-0.09211616465837168,0.15291534785958152,0.28516202488132697,0.06418209953408545,0.7371961500547907,-0.14682896301145068,0.657557762663331,0.05067315590610694
5.609999999999987,1.98761359370028,-0.12357822167888476,-1.659221619984632,0.9816696284643031,0.16411324447069714,-0.09643149641207663,0.1456139671120174,0.2753493757999219,0.06226516939775515,0.7393771978496422,-0.1450762027426694,0.6563042537201476,0.038399362234079505
5.619999999999987,2.1092827990651104,-0.12028811359473614,-1.7229874025704814,0.9786163910588203,0.17870664651223533,-0.10116225294148037,0.13851035060023892,0.25432569107052594,0.06068450098061129,0.7415069255053593,-0.14300766276340626,0.6549532880989275,0.0254596588219776
5.629999999999987,2.1948123700559177,-0.11947897473285689,-1.792431946170538,0.9752909390724608,0.1935635719526045,-0.10622691225811001,0.13263635978545932,0.22425545189316748,0.06197209864595075,0.7435914981352493,-0.1407592398894758,0.6535072667523624,0.012057935043387905
5.639999999999986,2.225221310836415,-0.12931339016815196,-1.8605267852718086,0.9714356217486455,0.2089678418823706,-0.11193274680828709,0.13328417933721243,0.1766754768071221,0.07886327284341033,0.7455741839724076,-0.13845268581500708,0.6518137266882336,-0.0019464759996053946
5.649999999999986,2.178572187311085,-0.1734412387629615,-1.926106961671096,0.9671033666289515,0.22483710855985733,-0.11823516567088364,0.14640261980836225,0.14023928628251567,0.09488103598931916,0.7474931669841529,-0.1364490033727684,0.6498150682154449,-0.016070407884782
5.659999999999986,2.0776267381588553,-0.2349144530842301,-1.9883331375120106,0.9623901287549517,0.24105968919412168,-0.12500065924617784,0.1671827132397636,0.10830809862082028,0.11314558077584479,0.7493671037673975,-0.13474967241039085,0.6475651354181482,-0.030206136369785412
5.669999999999986,1.9054075243011797,-0.28630427838649997,-2.038533502837991,0.9569603232605217,0.2578697422211994,-0.1325798189177627,0.192597944201807,0.0661634996667575,0.14815019841806826,0.7511811372626506,-0.13388804465508916,0.644810538986044,-0.044008414830985054
5.6799999999999855,1.6932030822882729,-0.31761599034104415,-2.0842925005388278,0.9510061798548817,0.2751410610463568,-0.14021857878539273,0.1963569730208191,0.027850013315076118,0.17158446357541102,0.7528150472554141,-0.13391045518420366,0.6418358385561049,-0.057308339233170406
5.689999999999985,1.4582871728734812,-0.3343827683950845,-2.126334429991374,0.9446470105623944,0.29276681749400824,-0.1478204533352381,0.18221689610676414,-0.00890531373414867,0.18772943738799372,0.7542918847094001,-0.13463661292451243,0.6387175388927588,-0.0701950858214891
5.699999999999985,1.2239090009287064,-0.33105563621380163,-2.1606916671005894,0.9375997818905514,0.31098575463874983,-0.15496286017521954,0.1320675768061162,-0.04971862813097033,0.1993785632000112,0.7554160603706155,-0.13665816636157613,0.6354817201962585,-0.08225965594535514
5.709999999999985,1.021013853065272,-0.32165058783726,-2.1929095025009815,0.9300685611915477,0.32958180619502925,-0.16155015445146625,0.10266443604531184,-0.08121624562971552,0.20488080157867444,0.7562465296368057,-0.1395169849522272,0.6322563224822024,-0.09379159086380126
5.719999999999985,0.8421185980631186,-0.3064131017920506,-2.221337159086189,0.9221629804239727,0.3484421096242374,-0.16769549364025524,0.08268663561882982,-0.10663064716994455,0.20613681450070434,0.7568472467386556,-0.1429882614496077,0.6290482141290256,-0.10493062706268017
5.729999999999984,0.7012648094015428,-0.27559042718313165,-2.232340298245521,0.9136354246646262,0.3675984616640443,-0.1730409763345326,0.04386416864204411,-0.12778656072722586,0.20298668834816516,0.7570528274297971,-0.14729391533343417,0.6259169222194477,-0.11551634396973451
5.739999999999984,0.5864254486658383,-0.24792374738633666,-2.232504241285397,0.9047343238729012,0.38676560071730864,-0.17779317916486317,0.022558301850851937,-0.1469274147065482,0.2006928644636125,0.7569854950493148,-0.1520100014679516,0.6228787813325597,-0.12575556222008358
5.749999999999984,0.49439141533939296,-0.22257322227984905,-2.2242500278119013,0.8955470956353933,0.4058988377658748,-0.1821125974483913,0.011742007511515124,-0.1649209366547424,0.19859514112006738,0.7567141353476767,-0.15700719259425508,0.6199084472042031,-0.13573774469769137
5.759999999999984,0.45428591753485204,-0.20023223983602542,-2.20227546842594,0.8859161175047096,0.4247369497890243,-0.1858853860741849,0.0003521749138923353,-0.18341394669010447,0.1941565522725458,0.7561552200207654,-0.16224892082817582,0.6170228816344783,-0.14536946968905057
5.769999999999984,0.4378624069630911,-0.17600182049383295,-2.1653094164455826,0.8760806378608907,0.4431124621641613,-0.18945856673824643,-0.0031788832756942235,-0.19670272597767233,0.19449804560495557,0.7554531216018266,-0.16742227896562245,0.6141838323273888,-0.1548284688213289
5.779999999999983,0.44042389493378387,-0.15013611057298504,-2.116918127923058,0.8661069256428879,0.46107234668103925,-0.1928934278922114,-0.0033286955065702866,-0.20648960684914827,0.19852309632618745,0.7546434090045392,-0.1725042283387971,0.6113844259917263,-0.16415469715838513
5.789999999999983,0.4764076967278505,-0.12066465825526862,-2.0519868238250023,0.856044817549291,0.47803064043043053,-0.19621557091165936,-0.015118913870373337,-0.21415074901842968,0.20813806128932383,0.7536874655754711,-0.177204661686562,0.6086689891667667,-0.17328152771809083
5.799999999999983,0.5141075541127565,-0.09565947366908975,-1.979744971747247,0.8460385630146269,0.4941682359103005,-0.19955810387211115,-0.017665476224498367,-0.22790555014421235,0.21654676316321406,0.7526702208414788,-0.18154101378579834,0.6060122856631496,-0.18227133890688976
5.809999999999983,0.5548386788544976,-0.07421868100550126,-1.901666831183562,0.8360957482729243,0.5096206775431416,-0.20294094109917346,-0.013764331975009954,-0.24550647896302832,0.22444340843426924,0.7516128529987071,-0.18556891448502835,0.6033995394038931,-0.19114731169157623
5.8199999999999825,0.6117102331149183,-0.058730313754752114,-1.8138291785217269,0.8263846419592817,0.5237277345751271,-0.20655129737208786,-0.005291573015770138,-0.2627500455835779,0.2344891207073063,0.7505471450897278,-0.18896244825726258,0.6008407601039641,-0.19980326146167718
5.829999999999982,0.6613910179664276,-0.050265486193281965,-1.7156862862409064,0.8169420108923338,0.536838155127028,-0.2104067464350684,0.005382697937783537,-0.2782552645463912,0.24265915627495815,0.7495269120852341,-0.19188851117235742,0.5983044745077337,-0.20826569492142086
5.839999999999982,0.7032044759301741,-0.04586322714584257,-1.6093882604853613,0.8077403679109095,0.5491242423262577,-0.21445010002554982,0.01761913649683993,-0.29254033032924776,0.24922678633089904,0.7485470917884958,-0.1944390382907387,0.595791106716146,-0.2165494964800855
5.849999999999982,0.7168325780921712,-0.03657943047067537,-1.4906153431843094,0.7991190219912996,0.5598849460539268,-0.21873599216673928,0.030909624786019343,-0.30611264591237763,0.2524671955593551,0.7476619268921509,-0.196373568345883,0.5933507625009851,-0.22437091826548683
5.859999999999982,0.7056159545792087,-0.029352063513604174,-1.3637955118651053,0.7910264333621736,0.5696166449981086,-0.22299767821118918,0.041943695208314646,-0.31983193849962954,0.2565078267342486,0.7468364205223328,-0.1979681698012866,0.5910211540879798,-0.23174755075311704
5.8699999999999815,0.6752898267775207,-0.023261778014468493,-1.2309570134003198,0.7833877694534304,0.5785027074368426,-0.22720753798724153,0.05202311090562535,-0.33379234216193965,0.2614644881384612,0.7460595613495229,-0.199298074834287,0.5887918633976504,-0.23873430694254705
5.879999999999981,0.6222600247703157,-0.014761180350685427,-1.0924116196985378,0.7766879083846121,0.5859258512147555,-0.2310749118389974,0.06757396669632725,-0.34912250989437926,0.2700517356516562,0.7453638497880923,-0.20028610922966328,0.5868098681267351,-0.24485381948576768
5.889999999999981,0.5623039774064559,-0.0006465141344670494,-0.9467681202935327,0.7707108690922466,0.5924000469634868,-0.2345785690705962,0.07995600547512288,-0.3589415513835584,0.27536768774343257,0.7447166866975742,-0.20107148313050102,0.5850464495975304,-0.25034479776463364
5.899999999999981,0.4988036765463782,0.01881321467725109,-0.7953916755426698,0.7653591050115472,0.5980714926577647,-0.2377628785476463,0.09013522509043419,-0.36493659143171525,0.27840304024300766,0.744109455498981,-0.20168013834219012,0.5834753746740204,-0.25530506046833723
5.909999999999981,0.4484387648323598,0.05347148286254251,-0.6355150301714778,0.7613064951272929,0.6022269461707318,-0.24024416941232832,0.10024708502086921,-0.3708885574149442,0.2813004632306536,0.7435678960870555,-0.2019098278473861,0.5823312815288918,-0.2592715021315296
5.91999999999998,0.4025383287947353,0.09446195734491909,-0.46845299806417046,0.7582014221192614,0.605353766396619,-0.2422189089640115,0.11412351278475319,-0.37580005829574487,0.2821800036629778,0.7430639674204066,-0.20182678943351334,0.5815120440510304,-0.26260417132423225
5.92999999999998,0.36269652457057105,0.14017522569295413,-0.29474433632125885,0.7559190816026373,0.6075886326210512,-0.24376747268412233,0.13475059951068027,-0.3789086489921073,0.28113255936813925,0.7425942229252603,-0.2014610664414386,0.5809729553811521,-0.2654003632100066
5.93999999999998,0.3556691157333214,0.18828951611251515,-0.10362769479727194,0.7553192369365945,0.6080106133719728,-0.24457231086491216,0.20177238711867443,-0.36991141513679066,0.27450754484086826,0.7422085178382327,-0.2004129149484987,0.5809888159859268,-0.2672287857752196
5.94999999999998,0.35144451252048603,0.20633247902959312,0.08000477037891515,0.7557621907466863,0.6071995100947347,-0.24521395473327637,0.2616701830445649,-0.35967503797395733,0.26810594706180835,0.7419768572109339,-0.19886325839746963,0.581243805833345,-0.26847169550581573
5.9599999999999795,0.35046121182648854,0.20335550015197154,0.2576064119300465,0.7570821695069366,0.6053385124108117,-0.24574301107736252,0.31864312266734435,-0.34671561836785536,0.26034062180847406,0.7418855227835717,-0.1968890074036988,0.5816892648648732,-0.26921629028574684
5.969999999999979,0.3643519038485929,0.21287263705075782,0.4283181735989282,0.759821575129663,0.6016385385599,-0.2463584574934276,0.40428035539092677,-0.3110429207056181,0.23346972972744914,0.7421385957180121,-0.19419692671485156,0.5823270498746432,-0.2690903351622728
5.979999999999979,0.3679990697487929,0.2395506487882133,0.5973953614423064,0.7634896360186998,0.5967771038300638,-0.24680584025513608,0.4460536934977869,-0.28856877343520776,0.21131961218771614,0.7425200030252493,-0.19101629931399258,0.5831831590333133,-0.2684518245441817
5.989999999999979,0.3605258832098045,0.27924605145612336,0.7627527251204087,0.767951058395682,0.5909291718648072,-0.2470735642341797,0.4552909397255794,-0.27626586177803003,0.1922650297543835,0.7430018837633641,-0.18742913416371199,0.5842359714611302,-0.2673660738665889
5.999999999999979,0.30580656463870404,0.3204434090675207,0.8936568641911514,0.7737241168482802,0.5835203811370365,-0.2466047408829566,0.47088414097913145,-0.2673243873312175,0.1669078588595153,0.7435382360677262,-0.18330182959982932,0.5857380751669163,-0.2654269227070264
6.0099999999999785,0.22690937758093788,0.3443688899576074,1.0051204026832325,0.7800432117121665,0.5754909389376387,-0.24551810102980015,0.49134219496021353,-0.2641580425081213,0.15675913171486155,0.7440471519886415,-0.1791029620427375,0.5874959260089795,-0.26296096449231376
6.019999999999978,0.1261393895857104,0.3523552630417291,1.1028672704717164,0.7868247817540002,0.5669285283596345,-0.24389709641474341,0.5185514404667338,-0.26597974434390204,0.15964201257224148,0.7445382822196842,-0.17486315133833305,0.5894679606187897,-0.26001909712061555
6.029999999999978,-0.02390317067993905,0.32029537163847455,1.2207686843494812,0.794232619540333,0.5575415877674196,-0.2413961676050967,0.5919685975292434,-0.2759184754191176,0.18229291872505382,0.7450821416396256,-0.1708450054415273,0.5916958584649537,-0.2560140354362841
6.039999999999978,-0.19206581972812253,0.2989392685977212,1.355568704073483,0.8021159402750295,0.5474807131493554,-0.2382710725775732,0.6395646817428652,-0.27409811364723713,0.19479608075600482,0.7456895897014947,-0.16703055698366068,0.5940999973213847,-0.2511297244850889
6.049999999999978,-0.37091892869236703,0.28634434218154897,1.5046685794944334,0.8104273067970762,0.5367997324500273,-0.23459321593924135,0.6664090143390086,-0.262205167864397,0.1986362427266069,0.7463524090716969,-0.16338744720364992,0.5966626637941469,-0.24546046681525424
6.059999999999977,-0.4852503965189613,0.2783834848035732,1.6692655752293728,0.8196235769550919,0.5246302088379468,-0.2299133649598624,0.6887692759466146,-0.23739878181555177,0.19184517958664596,0.7471008336430691,-0.1599130860737589,0.5995510455710005,-0.23826991391738794
6.069999999999977,-0.5533610304917478,0.2652382764556825,1.822175573569752,0.8292869165828466,0.5113620866789411,-0.2249896368187099,0.6897306920044995,-0.2081838180928428,0.17704446443712965,0.7479184177703132,-0.15627362792182015,0.6025539238406955,-0.2303803644130095
6.079999999999977,-0.5824779746972841,0.24690690833096035,1.9613444758854957,0.8393411708428467,0.49712121589854663,-0.21988844524765636,0.6704315650022673,-0.17434918657209447,0.15496166749327842,0.7488017662917328,-0.1524806428280795,0.6056431477290172,-0.22188810072228288
6.089999999999977,-0.5855548697639495,0.2093755010367745,2.016153760727599,0.8495959810824282,0.48134112617710534,-0.21521653391361914,0.5948409870224158,-0.11998866515471182,0.1178501197463898,0.7498727304710374,-0.14830921703725516,0.6085915314490521,-0.2127412757743527
6.0999999999999766,-0.6140096536109368,0.19119240308505348,2.0166313454973266,0.8595517070874967,0.46540281872660166,-0.2106587489211368,0.5144171335880172,-0.08712878822364217,0.09140306746000632,0.7509151129042788,-0.14421319651321515,0.6114414895466499,-0.2034947995867514
6.109999999999976,-0.665291751841791,0.1900111940437665,1.968686074100059,0.8692161086140676,0.4493716569481981,-0.20617761886905436,0.4258450801591787,-0.07369574346490666,0.07439745269543684,0.7519188537125969,-0.14021027470121003,0.6142077574346596,-0.19416998528515494
6.119999999999976,-0.7534437408472444,0.20752106584789307,1.8523135920758171,0.8779233124784991,0.43426997572423354,-0.2012528481683909,0.24116623340121562,-0.09354077300665105,0.06934076097123648,0.7525779443640253,-0.1369092573815065,0.6169445510403855,-0.1849652048040388
6.129999999999976,-0.8482645499443273,0.23862841469540835,1.7248323077711494,0.8860108498169715,0.4201137774169917,-0.19583085021253224,0.11383863128833539,-0.10707974346001084,0.06839784072497813,0.7529471241868705,-0.1342089745897726,0.6197305037321241,-0.17591173876294267
6.139999999999976,-0.948040887573854,0.28101226703105275,1.58705030484518,0.8935271307440629,0.40683829636294355,-0.18995053238894422,0.03549792010557343,-0.11620357001695304,0.07192146906454323,0.7530482728036015,-0.13206392098465047,0.6225619410434954,-0.16700325935428742
6.1499999999999755,-1.0258598395219518,0.3116071204058446,1.4282890376459116,0.8999669463530255,0.39546123063573285,-0.18320820737151175,-0.05247731514740336,-0.1537091858539864,0.10155698331979172,0.7526241626059285,-0.13100255428018126,0.6254834454216674,-0.15851217798435685
6.159999999999975,-1.0822613596479664,0.3389447708222201,1.2799937842682694,0.9058321902435253,0.3851557583088939,-0.17617002581491903,-0.10326016900305501,-0.17545438364563634,0.11647913313666541,0.7519647374857906,-0.1304809310536595,0.6283990289810211,-0.15033864954337636
6.169999999999975,-1.118177113105395,0.363064179793929,1.142667852906509,0.9111691752795839,0.3758330227699593,-0.16886330228618712,-0.11986937114561458,-0.18246715022535778,0.11800742594341393,0.7510888062581006,-0.13045108753956203,0.6313085735372025,-0.14246132091252844
6.179999999999975,-1.099022189907145,0.37520381159565946,1.065888066600503,0.9157767997969721,0.3677834868397415,-0.16130267997138106,-0.08999888719410476,-0.16096942220525326,0.10554458405217956,0.7499086035952532,-0.1309499637564098,0.6341897098119967,-0.13513597110553993
6.189999999999975,-1.0408434341548443,0.3577278784879175,1.0287246483246135,0.9201734977115623,0.3598307441744551,-0.15406950602203912,-0.058628772460398854,-0.13035073405562833,0.09186038324085335,0.7487405721195565,-0.13136923573822343,0.6369487501585174,-0.12805335497038275
6.199999999999974,-0.9466642245174731,0.313037222880118,1.0279501703585954,0.9243740702967035,0.3519543471029758,-0.1471645877302156,-0.02514699374543045,-0.0910766983802679,0.07718389410522247,0.7475907506114908,-0.13170325875599947,0.6395872189855882,-0.12119920629689784
6.209999999999974,-0.824682410714167,0.25220675951616955,1.0480266072221653,0.9283525466523892,0.34354314469687725,-0.1417135120935834,0.043358451684050656,-0.034065437507935066,0.06790616178567636,0.7467751446670604,-0.13142979492880388,0.6417687080852817,-0.1147296669563802
6.219999999999974,-0.7098012032512621,0.1992935092352113,1.06871691807311,0.9322486219486409,0.33478181973069177,-0.1370265925988297,0.07663717067356149,-0.0008618282922829784,0.06177311500844282,0.7461425308775139,-0.13076652526959615,0.6437272073932953,-0.10847082845159864
6.229999999999974,-0.6024026899430037,0.15441068040371142,1.0899086811848933,0.9360663988654998,0.3256864813421748,-0.1330629096276177,0.07627328922741461,0.010063355614186363,0.05864399772589107,0.7456826887290465,-0.12973235979381656,0.6454749825957405,-0.1024117984079875
6.239999999999974,-0.5544147734666525,0.15436656063424836,1.1062841633205005,0.9397788430392717,0.3160530471409971,-0.12987946654499483,0.019262101778164335,0.014083775801711895,0.06061684825750908,0.745380849035112,-0.1281658267303489,0.6470173025723879,-0.096594616265324
6.249999999999973,-0.546435545476159,0.15859564523529174,1.124770619895314,0.943453553605738,0.3062408241372133,-0.1266882112681635,-0.029934804157746336,0.016467191729657635,0.061419810040715145,0.7450450877468081,-0.12653010975908366,0.6485702107056373,-0.09074440457928927
6.259999999999973,-0.576859171463975,0.16694772587741571,1.145056030743519,0.9470912303326242,0.29625632999103824,-0.12348781578240661,-0.07170611650428538,0.017282763163440736,0.06100762348279086,0.7446759695170277,-0.12482946631615735,0.6501335550396259,-0.08486065607530274
6.269999999999973,-0.6242065929900595,0.17981323303966662,1.137368346770722,0.9506094721870698,0.28611258934827566,-0.12007563583163533,-0.11970267653016686,0.017844673181711096,0.048389190994464065,0.7441913007448702,-0.12328759301030606,0.6517360520541957,-0.07873014673620049
6.279999999999973,-0.6883286463709927,0.18864330685044825,1.1284227913345781,0.9540146859511458,0.2760901024742755,-0.11648394823113123,-0.15029773677539357,0.01980631722227641,0.03562205652574947,0.7436184555499481,-0.1219651464288633,0.6533609600823896,-0.07247822211221314
6.2899999999999725,-0.7689568797734637,0.19350542465345066,1.1182400831359116,0.9573086475968922,0.2661869065822004,-0.11271563538155366,-0.16379097309858504,0.02313965716491538,0.022716613561624934,0.7429588387406164,-0.12085884898536953,0.6550078747287904,-0.06610656503796068
6.299999999999972,-0.8762126719065122,0.1943801746688021,1.1065519567707727,0.960395751046988,0.2564575589331819,-0.10867044312729375,-0.16735515344962362,0.023987992114593085,0.016265945493788125,0.7421539783863677,-0.120296230820888,0.6566521730583709,-0.059324907977426615
6.309999999999972,-0.9920085214633507,0.19743898843506907,1.094482062874563,0.9633748576043021,0.24686395135023864,-0.1044451164946225,-0.17228679348503206,0.027595802812219284,0.010751809085126577,0.7412566008632234,-0.12008694536139132,0.6582971977494014,-0.05229068315081978
6.319999999999972,-1.116418977520698,0.20270093139034467,1.082027068868173,0.9662450245270884,0.23740726875474727,-0.10003808302905515,-0.17859783022722844,0.033987177663647526,0.0061823796402131525,0.7402658985572326,-0.12023407696868454,0.6599429551425391,-0.045001685807886715
6.329999999999972,-1.1970582875300984,0.21219220561219582,1.0874211774334923,0.9689528588497411,0.22802468295560785,-0.09526574895591883,-0.20089773628408159,0.037710108613744374,0.019357095154776047,0.7390658456309064,-0.12098297692102528,0.6616105745742502,-0.03718955889978695
6.339999999999971,-1.2384954539247484,0.22383927232209408,1.088301956416446,0.9715815802100539,0.21861674918958823,-0.0904252097978754,-0.2186805622682805,0.04576683355158216,0.026705229093615477,0.7377824286898529,-0.12185108556261728,0.6632781021781112,-0.029272945596512216
6.349999999999971,-1.2395780386791129,0.23769508047018534,1.0844057773411317,0.974129286259587,0.20918213645232706,-0.08551611476165191,-0.23169318819448798,0.05832770515442884,0.027916758359563955,0.7364138622583877,-0.12283922599427942,0.6649454095916881,-0.02125109973328121
6.359999999999971,-1.123095180269427,0.2535632158748247,1.0901005660330652,0.9765331986905817,0.1995166450618185,-0.0807098609527429,-0.250107142705473,0.10282660439821392,0.009797652411262025,0.7349427463348243,-0.12348355631752211,0.6666297516295895,-0.013518880555391268
6.369999999999971,-0.9598958138080077,0.2681788851842879,1.0932216806831145,0.9788606848765612,0.1896719971261322,-0.07612581693345831,-0.25837947443714976,0.14041550283376855,-0.01238019216342689,0.7334850127820357,-0.12364676456978847,0.6683166171698638,-0.006207290022972186
6.379999999999971,-0.7485440011090743,0.2814364078366804,1.0934809829579457,0.9811087642317482,0.17963982405761253,-0.07177674981740219,-0.2557961656119785,0.17024028990774415,-0.038622930430973285,0.7320428451557442,-0.12330278373571778,0.6700059447862691,0.0006607398460505044
6.38999999999997,-0.5498721171343917,0.28007887899982603,1.096387858098381,0.9831869242101189,0.16929549942807776,-0.06795849369479189,-0.2482615959711529,0.20613508485337742,-0.09036251899200984,0.7306976276326957,-0.12182200196645757,0.6716974997982145,0.006495922266767139
6.39999999999997,-0.39068227818802137,0.2742767570695737,1.0962566146993797,0.9851722601049461,0.15882262712130135,-0.06441460294429516,-0.24213963673071812,0.22918187733071466,-0.1262337618675215,0.7294190273743596,-0.11988589303937801,0.6733616537872174,0.011929916101651944
6.40999999999997,-0.27434022651483925,0.2639255807475797,1.0927528620958902,0.9870597744926538,0.1482158854112351,-0.061159254188603594,-0.23766318340728468,0.23807322942380865,-0.14424729563035815,0.728211151054547,-0.11747625479096255,0.6749958414113197,0.016947332950804795
6.41999999999997,-0.19773690275821648,0.24864948569195847,1.0700291452879993,0.9887176553382441,0.1377189751597178,-0.05838842756927998,-0.2258830926736789,0.23036261166660024,-0.1448586927314256,0.7271343133989935,-0.11463973381662404,0.6765043775130293,0.02142943301529527
6.4299999999999695,-0.12227942697885942,0.2287907882382988,1.050547281053161,0.9902662192126901,0.12729043893146816,-0.0558074498295996,-0.2158582210250626,0.22948569801451318,-0.145893862340849,0.7261095701110736,-0.11164858287529382,0.6779565567182823,0.02569874177615837
6.439999999999969,-0.04695052610742151,0.20393647133978654,1.0352601242916146,0.9916988772211307,0.11693538131684968,-0.053425269328630565,-0.20801418550050416,0.23675521329454932,-0.14791064517116181,0.7251394323031614,-0.10849645191841313,0.6793491936782997,0.029745003755562764
6.449999999999969,0.08660143993453492,0.20197957806890682,0.9754273420274485,0.9928834112790581,0.10710756353552014,-0.05155919469219344,-0.19118673072418535,0.26034804635692027,-0.15645618593285843,0.7243494035857241,-0.10498022497660867,0.680582341250472,0.03304219364235544
6.459999999999969,0.18429457455105402,0.21322183809925443,0.9608488081722935,0.9939913369083089,0.09733383489270671,-0.04959092178375736,-0.18026727816456337,0.28601417536887724,-0.16916662067212107,0.723527789136114,-0.10123353176537285,0.6818707391834634,0.03604533697319538
6.469999999999969,0.23846462377756686,0.23879725958360315,1.0000957537659485,0.9950204576797944,0.08760234739402657,-0.04748528026073105,-0.176495381633752,0.3134473648293601,-0.18642627965806866,0.7226629350881921,-0.09723521268556198,0.683228852149415,0.03873826565516032
6.4799999999999685,0.2938156998485263,0.23833180911770752,0.9614564870877882,0.9959152911554832,0.07771141993724001,-0.04539187201303662,-0.1356062554642272,0.32358287926288437,-0.20709881043410566,0.7218012569047901,-0.09288700411436947,0.6845912549176109,0.04117855783995037
6.489999999999968,0.2883872514072602,0.24758414746195095,0.9274459746665898,0.9967227546974141,0.06811664857944236,-0.043131879914228406,-0.10315845302781111,0.32206451681591175,-0.22536042156226305,0.7208804736753224,-0.08866473520532672,0.6859765235095057,0.04352737042814323
6.499999999999968,0.2109922150250561,0.26957173167708426,0.9026140084414588,0.9974332306794481,0.058879848726779524,-0.04067421496913484,-0.08246214770909478,0.3075802274584214,-0.2406073653934643,0.7198896101749147,-0.08460810106318838,0.6873886415799128,0.04577995855890847
6.509999999999968,0.1649670486191716,0.24279626258165565,0.8592472568829725,0.9979899750518627,0.05003197735410491,-0.038330388924509906,-0.060594552133485705,0.30714667030528775,-0.23847101566708265,0.7189127868170168,-0.0809972008237218,0.6886702095663026,0.048229365959859695
6.519999999999968,0.12803058001005088,0.23389261038376713,0.8063677398269004,0.9984683711171574,0.041648627125051636,-0.03598066181816404,-0.045451166673373664,0.30801424655205195,-0.2454250248775958,0.7179309005989646,-0.07765287482866004,0.6899091357938879,0.05062290139709422
6.529999999999967,0.1003310022355517,0.24951075105317388,0.7429971599319574,0.9988604234923094,0.03380728473026528,-0.03361721106736483,-0.03854520849229387,0.3096538049856187,-0.2644246965813101,0.716942054644874,-0.07460677850284889,0.6911037676358693,0.05293722071215116
6.539999999999967,0.06718522894701079,0.20863968655152476,0.6864359132783809,0.9991360047532772,0.02670191029220085,-0.031392904902538925,-0.011832286079555988,0.34194124730313685,-0.26398891896761095,0.7160010196416169,-0.07191547298512821,0.6921902484528001,0.055101454983216266
6.549999999999967,0.01671711553402816,0.15894177269619808,0.5968183423225867,0.9993499043693291,0.020293002924045546,-0.029537310200239062,0.014862268326265155,0.36229362935792203,-0.2566168478189714,0.7151908522510844,-0.06959430031537693,0.6930988971898351,0.05717313812770343
6.559999999999967,-0.05499697779844501,0.10208196270808756,0.4654834206036345,0.9994947735363747,0.014703048793572593,-0.02813235878937355,0.040182694818555874,0.3656608265000078,-0.2419144511136212,0.7145407402368196,-0.06771083365699139,0.6937929972999245,0.05913956017773048
6.5699999999999665,-0.10169403051545356,0.05558291985111694,0.3785221485594941,0.9995630917450395,0.010737673460578936,-0.02739758264641172,0.07617884802602753,0.35944319041727185,-0.2205205886053984,0.7141381414980842,-0.06667682554919327,0.6941576464138416,0.06086156055264687
6.579999999999966,-0.13978901347894143,0.008726377550386261,0.2942165752271735,0.999605715474219,0.007403231424364467,-0.02703502249830221,0.10700698057899374,0.3613190931674232,-0.20645215321692073,0.7138725741627505,-0.06594928568221615,0.694358052494902,0.06247177491300007
6.589999999999966,-0.1688486071845332,-0.03941473518568406,0.2097780272959186,0.9996214958995133,0.0047482773992260805,-0.027096306701779288,0.13035701420160767,0.3743374285942397,-0.2023105052647284,0.7137629823799644,-0.06554698754992112,0.6943741238504108,0.0639581387454049
6.599999999999966,-0.21792962190204684,-0.07717407095216242,0.13933118878221792,0.9996096616453434,0.0032435565811021567,-0.02773296893023887,0.15554700094358337,0.3822580756586188,-0.2014839532488612,0.7138707126575745,-0.06569434126364358,0.6941309060496418,0.06522642006566226
6.609999999999966,-0.28039899650158295,-0.12289432279636485,0.08393516386525182,0.9995853116783491,0.0021584785247230663,-0.02870346170831352,0.17734938567795766,0.3831148441279614,-0.20083558037577254,0.7140904170816297,-0.06614206680081657,0.6937384650603905,0.0665274640524575
6.6199999999999655,-0.3586652547859356,-0.18005292986197413,0.047079055126310755,0.9995470110671125,0.0015205680418869465,-0.03006085113088054,0.19452098497699505,0.37513535187702335,-0.20011766198275008,0.7144376626160285,-0.06693498024625617,0.6931732723202932,0.06789167467663441
6.629999999999965,-0.47382468297442915,-0.2522386892834687,0.00951965300014887,0.999473707790431,0.0014640780908864665,-0.03236412967600351,0.24037119043411637,0.37128520841783574,-0.1839250424933615,0.7150813422921872,-0.06835981992749433,0.6922016856493509,0.06956386566689567
6.639999999999965,-0.5767218512242304,-0.31489234422693635,-0.022126410731237986,0.9993779520123399,0.0016809637972291659,-0.03515408938570133,0.27168201228458655,0.3693677627142595,-0.16690793008245242,0.7158710077004243,-0.07012843390308111,0.6910150943367179,0.07143805116809467
6.649999999999965,-0.6591685161560799,-0.3630766145417691,-0.045697717296640704,0.999255477283448,0.0022069357194971096,-0.03850363345934846,0.2803203860650567,0.3696335078972955,-0.15039374531231126,0.7168271983183502,-0.07229610633409676,0.6895800908714355,0.07355333839059434
6.659999999999965,-0.6939071592942778,-0.39137576671514207,-0.06693420504032731,0.9990978098167336,0.0031041572327679305,-0.04226190169076195,0.2817439862948988,0.37699329395045483,-0.1413007937608587,0.7178971690442557,-0.07483006499450832,0.6879422319362481,0.0758373808205323
6.669999999999964,-0.7041723570919717,-0.4287442121975989,-0.09685249756966334,0.9989128890085788,0.0042252908265154035,-0.04632290223576008,0.2878565101971588,0.39028352342146455,-0.13524165842714853,0.7190687671485596,-0.07745539649464289,0.6861735886479331,0.07809486456487977
6.679999999999964,-0.6860505484954937,-0.48107163725829394,-0.1391169421674443,0.9986942372690448,0.0056138524942492074,-0.0507564850234381,0.301340642051667,0.410980407232555,-0.13252335938496285,0.7203682101142866,-0.08016447473419655,0.6842470908506838,0.08029548044373594
6.689999999999964,-0.7075750135203241,-0.5185046002169487,-0.23289094468527438,0.9984029081736074,0.008006474581446231,-0.05577228333870296,0.3066418924236638,0.4281113106149681,-0.12080880706350108,0.721896977712535,-0.08315065453697225,0.6820500606000779,0.08214595964827032
6.699999999999964,-0.765470843007236,-0.55480912129897,-0.3542404526806857,0.9980584880342216,0.011323534392199243,-0.0610567711269779,0.2973105767025337,0.431815728754328,-0.10417438945037548,0.723531908783566,-0.0865690024854794,0.6796817268157022,0.08383123267202426
6.7099999999999635,-0.8700803191906274,-0.5914792207999917,-0.5081575053561849,0.9976478468017407,0.015828378018931357,-0.06664792191110774,0.2681542562230663,0.4168055764755389,-0.08170371622047035,0.7252881026270916,-0.0905681707674284,0.6771045097912244,0.08532690933125227
6.719999999999963,-0.9486670935047,-0.5907005124726205,-0.7185136634105174,0.9970868265702019,0.023003607602212473,-0.07239458375648604,0.17912436805560938,0.37184243840614667,-0.021357559744088872,0.7271395888262026,-0.09591094454580835,0.6742277157900494,0.0863891369729262
6.729999999999963,-0.9686251299885674,-0.5622654500545236,-0.9383611726616233,0.9964199295845622,0.03186757398366639,-0.07789031333122742,0.09710915446134308,0.3342632199551903,0.024069469610308786,0.7289653513401555,-0.1018871039980382,0.6713046882350292,0.08691046200176542
6.739999999999963,-0.906333666111609,-0.49876194628605913,-1.1637848519613962,0.9956198195071779,0.04281601037429692,-0.08299446450848205,0.03426843761600008,0.31196703059163905,0.041972824686759475,0.730739213678252,-0.10859439004725197,0.6683581519567222,0.08670161559313212
6.749999999999963,-0.7098569263676321,-0.41071487866602546,-1.3621565095915158,0.9945535443790398,0.0564823257298248,-0.08694270309481378,-0.04902045437796229,0.31383526373720994,0.02449724857184887,0.7323137200934103,-0.11560904242906883,0.6656819451589273,0.08476090558234471
6.7599999999999625,-0.4639884287113122,-0.32124835115532063,-1.5500485824380115,0.9932909947878221,0.0714090703681884,-0.09028776616558892,-0.10414540444160372,0.3164374970218499,0.004097537436887284,0.7338023787856445,-0.12245962088391496,0.6632033468087791,0.08165845978616004
6.769999999999962,-0.16562499362200012,-0.23367559467186838,-1.7265693713641124,0.9917759153623248,0.08779161503710023,-0.09291235718295841,-0.11338956171931355,0.31617351191730264,-0.014897852141370231,0.735194225347936,-0.12901195283468767,0.6609786072227212,0.07708703751265121
6.779999999999962,0.08332998281617551,-0.1772677131955693,-1.8672348520550202,0.9897550292601763,0.10587056949600682,-0.09481883741433554,-0.07816010528026907,0.31243223457186997,-0.051947671377408196,0.7364913227760999,-0.13492400546206815,0.659064204973412,0.07045160523300502
6.789999999999962,0.28277668053299887,-0.14555280478695182,-2.0006088589592577,0.9873772836130018,0.12477421009649506,-0.0966469888556566,-0.03370289475581863,0.29858509829831315,-0.0721690844902749,0.7377899158312368,-0.14059528465391857,0.6571873190589276,0.06290256733687762
6.799999999999962,0.4143727057322111,-0.14649414711055747,-2.1291838525650335,0.9845376655639306,0.14464934595792428,-0.09848409462597556,0.01699187778737847,0.26968699015166375,-0.06299383901038308,0.7391080496929948,-0.1460092807033473,0.6553122524754594,0.05431085107509593
6.809999999999961,0.48000131985926225,-0.16639128036384848,-2.225852917304965,0.9808616025178194,0.16577894459664588,-0.10084394599122935,0.09396526649925531,0.22224637835644567,-0.0055627937371679065,0.7405167277504191,-0.151440873609996,0.653165339937703,0.04477846572234584
6.819999999999961,0.520089865503251,-0.1725242328308179,-2.302574001572256,0.9767177718972355,0.1873932822050832,-0.10335783159809225,0.14939253365459834,0.1777412917513257,0.043740921066868554,0.7418991816576528,-0.1569370977563987,0.650903899438458,0.03491690890139464
6.829999999999961,0.532625906725845,-0.15288644513542676,-2.353844365457759,0.9719948254142882,0.20953006677293667,-0.10601286337304903,0.1651590420412198,0.1416378197405676,0.07040122600177937,0.7432216296929127,-0.16253296990389288,0.6485141040467834,0.02471836807447799
6.839999999999961,0.5669478614426593,-0.1229085347470234,-2.3917064318459964,0.9664958972627177,0.2319653401214695,-0.1085388387636104,0.15486598598831808,0.1100157004327404,0.09345943822679516,0.7443161487770041,-0.16814890735823756,0.6460928743752749,0.014181378577033884
6.849999999999961,0.6063115202861002,-0.08790084433726757,-2.426167687331928,0.9605549775078165,0.2545208959628418,-0.11096942321777974,0.1426303121485458,0.07977821359159958,0.10836035660693617,0.7452657742505086,-0.17373231577238313,0.6436745342297958,0.0034284207507292597
6.85999999999996,0.6491604104226194,-0.04691041151747347,-2.457994981282394,0.9540591517871508,0.2772082607586947,-0.11327179916301922,0.132936571347186,0.05082817092894321,0.11066275237683056,0.7460276731225193,-0.1792579132427306,0.6412678502352994,-0.007604632166038885
6.86999999999996,0.7053387922670409,-0.0268729002818158,-2.469110101999578,0.9467922432133776,0.29985115188131645,-0.11558326065507445,0.12419171995495602,0.020385728261221966,0.098608744679356,0.7465651302060321,-0.18459508270105093,0.6388382191894213,-0.01898310690737913
6.87999999999996,0.767636793065075,-0.016171068600006337,-2.466982853746666,0.9391245557533293,0.3222885369866435,-0.11806174289378082,0.12312917124189483,-0.00860164239296447,0.09102463307439325,0.7470223676057881,-0.18974023884350594,0.6363607971966737,-0.03051078286788902
6.88999999999996,0.8370605934355559,-0.01619108654528396,-2.4474791996662772,0.9309656793830494,0.34438961735103574,-0.12082006112072706,0.1348102147482891,-0.034772942477971656,0.09444271085999506,0.7473981575223174,-0.19460651284922412,0.6338081997072302,-0.04220727353753821
6.8999999999999595,0.9060356215057181,-0.009970875929766036,-2.4147445120563127,0.9222357290671378,0.3657545286031365,-0.12412446600981453,0.12439375151675798,-0.061248498472496464,0.10370593592248165,0.7477041260474713,-0.19897161930906226,0.6311370143478368,-0.05406477710298685
6.909999999999959,0.9656448218813702,-0.0017354242051481907,-2.374765032104041,0.9132454523159157,0.3866101395402744,-0.12768870023452247,0.10962016138328419,-0.08694919277277621,0.11244294543784217,0.7479539012729232,-0.20304571961910736,0.628426007970643,-0.06595778004654868
6.919999999999959,1.0091029553105837,0.008361566960972712,-2.32567619017944,0.903952971442769,0.40677442894646426,-0.13156083818435121,0.09308208123420722,-0.11122399611863107,0.11873062014355562,0.7481244048479029,-0.20674596208895157,0.6256769783367241,-0.07787015608747905
6.929999999999959,1.0265560234962163,0.014384911672843993,-2.2773185683518404,0.8943486247545142,0.42597669282137607,-0.13573003917362084,0.05997717106013276,-0.13752057221028527,0.1299001067314887,0.7481659858972736,-0.21006903671256325,0.622893082833974,-0.08964608253073789
6.939999999999959,1.045845190935557,0.02141160622253145,-2.2251210526226037,0.884602567557191,0.444612119475104,-0.14006485678026806,0.033194012293470646,-0.16192967035439648,0.14249365633204997,0.7481394217247701,-0.2131863106025234,0.6200907508688257,-0.10131819651642254
6.949999999999958,1.0758640798667376,0.03139888697176035,-2.165848030647372,0.8746924208230257,0.4625094610681809,-0.14461074927037146,0.022458723773373532,-0.18238482857100152,0.15623566104873143,0.7480279241339653,-0.21604359446001198,0.6172654365305158,-0.11284375583246106
6.959999999999958,1.0324791039534797,0.04716313354943738,-2.120564404905711,0.8646060911900494,0.4795365160093509,-0.1492472824681395,-0.008173168715969924,-0.21538349143140303,0.1725165130325657,0.7477636156999671,-0.2186876739696199,0.6144460025783133,-0.12411102605468961
6.969999999999958,0.994233235135551,0.06488142479796369,-2.06956792808619,0.8544780611217897,0.496053119038022,-0.15377808815928842,-0.033910323369104996,-0.2448977178515011,0.1871224636523784,0.7473791853686803,-0.22126331766272106,0.6116764063485199,-0.1351550724243511
6.979999999999958,0.9882889933746213,0.08439835620842805,-2.003703486773706,0.844328109120438,0.5119010667627613,-0.15808609528029313,-0.0444469417190779,-0.2640953333159721,0.19785567638535484,0.746821225131062,-0.2237793539569366,0.6089967064504221,-0.1458686543852538
6.989999999999958,1.0251273600092556,0.0926506136288115,-1.9311538148358465,0.8342638481677399,0.5266658438576406,-0.1626079660250031,-0.05605932320183015,-0.293676429428874,0.2020568804909903,0.7461911311583117,-0.22588219276137442,0.6063555950921411,-0.15633997855765716
6.999999999999957,1.083673900034805,0.10544725011346398,-1.845128420976533,0.8243592477985869,0.5406506286784162,-0.1673761437510945,-0.06421380300048635,-0.3137872551375643,0.20532006176754017,0.7455608792774162,-0.22761280447955412,0.6037392888749767,-0.1666893711212838
7.009999999999957,1.1689090159890698,0.13065667476310844,-1.7358272785113313,0.8147282300192373,0.5535232024338155,-0.1725388064470158,-0.06545345818777515,-0.31244966774556093,0.20901094616179977,0.7449546780008213,-0.22877763849916014,0.6011569548263257,-0.1768895175534524
7.019999999999957,1.226024164872788,0.14842945645940528,-1.63012186873522,0.8056382797865743,0.5648638597455651,-0.17817070879148345,-0.0736712149569371,-0.317025213340755,0.20330662329572163,0.7443818528940807,-0.22913380969446678,0.5986726448192333,-0.1868844448445397
7.029999999999957,1.266184049985983,0.1609865931836777,-1.5178921202946631,0.7969167444101561,0.575312009295962,-0.18402419952880542,-0.07951848698189476,-0.32497925104428255,0.20055290446355298,0.7438405293270425,-0.22908523536758948,0.5962428577209715,-0.19666785854325897
7.0399999999999565,1.2835481653897254,0.1660877069692257,-1.3916182914084645,0.7887161091846369,0.5845791243546251,-0.19013839977518177,-0.07818887604642469,-0.33736219199761497,0.20699187557138496,0.7433484591297208,-0.22854274498271018,0.5938835957201336,-0.206113660592369
7.049999999999956,1.284573764981083,0.17186421259987053,-1.2649673475278014,0.7813469841235666,0.5923264312879335,-0.19637908850118063,-0.06654027836918275,-0.35358496000737066,0.21682217226389752,0.7429214388062622,-0.22745189581718675,0.5916693533555788,-0.21497601345922365
7.059999999999956,1.2800255297743708,0.1768704508602407,-1.1332399249809033,0.7745073025032292,0.5991841449952198,-0.20266796456835434,-0.053599088970308635,-0.36725975842769026,0.22646038989633963,0.7425479330921009,-0.22606240746720468,0.5895413527411035,-0.2234549112165836
7.069999999999956,1.270740613006202,0.1800604757282877,-0.9914547861766045,0.7684028551194494,0.6048550668258124,-0.20900363681447168,-0.04214547390484008,-0.37429081018114113,0.23436936657937327,0.7422562658399244,-0.22428961941454081,0.5875293239767992,-0.2313938699971679
7.079999999999956,1.2623033148459655,0.19728406528066325,-0.8431985696260251,0.7633947053916096,0.6089899757021504,-0.21521509277517759,-0.02737963269802377,-0.37674031115332623,0.2425410961576872,0.7420474562412053,-0.22198228989664195,0.5857571072260456,-0.23863163156695605
7.0899999999999554,1.2501223127328198,0.2103699742012664,-0.694419920163462,0.7590572278227093,0.6122216556065795,-0.22135239476968147,-0.0101900325881609,-0.37764124294562323,0.2504310833469701,0.7419051292112085,-0.21936853423865713,0.5841206524752157,-0.2454349430369913
7.099999999999955,1.2298232266694598,0.20888137495310663,-0.5473269777909318,0.755640186851491,0.6142392176183616,-0.22738921142651086,0.010603868825335407,-0.3772938809838809,0.25762501658090026,0.741865086381241,-0.21634863006046554,0.5826628654667142,-0.2516381760802466
7.109999999999955,1.2207456685930398,0.22772730984235495,-0.3980603576232129,0.7533927429315672,0.6148048133896087,-0.23322400908745036,0.044325177794311076,-0.36961047947033443,0.26282254092103463,0.7419539783611521,-0.21283804342429236,0.5814463666429114,-0.257100358684716
7.119999999999955,1.2194235712846913,0.25447219347027744,-0.2516709883076046,0.7518635341815111,0.614497839650457,-0.23891719648285573,0.07266364045260995,-0.3634021212539829,0.26654517506277003,0.7421074942611818,-0.208993294090043,0.5803928508167481,-0.26215900571673495
7.129999999999955,1.229480455384219,0.28869601984756504,-0.11242814972099957,0.7513279600028537,0.6129980495663536,-0.2444012810008702,0.08354216385509247,-0.36372930204479426,0.26804028660430007,0.7423394743120773,-0.2046615662175861,0.579575944707173,-0.26669812195397563
7.139999999999954,1.255599989574667,0.32999917304189647,0.031119520748605883,0.7519944815576167,0.6100626053509118,-0.2496132788767886,0.11058679833631727,-0.35914379209713343,0.260860593271009,0.7426450746628236,-0.1996696585117619,0.5790599699588175,-0.27069652623233115
7.149999999999954,1.2835044973957477,0.36941067009377226,0.17439895159986346,0.7533909086603984,0.6062356848209435,-0.2546763730092275,0.13891924475898915,-0.35160035570118114,0.25341089719653337,0.7430023579775754,-0.19425705767545026,0.5787163099229994,-0.27437537359834746
7.159999999999954,1.3073448437005164,0.40113255662043124,0.31494493775606675,0.7557964328677803,0.601160100507453,-0.2595469737201374,0.16204115723807924,-0.33998809408799213,0.24968443803681625,0.7434368159595417,-0.18824658670830882,0.5786023428039896,-0.2776196135534234
7.169999999999954,1.2993870372275464,0.4184540650423476,0.44699698258787046,0.7592596353403108,0.5947135052331491,-0.2641885326888282,0.2216870967957208,-0.32618375449829495,0.24375004021699967,0.7439952810405835,-0.18166748642389513,0.5786858620249918,-0.28028858109180815
7.1799999999999535,1.2714743924990732,0.4341319792825277,0.5754979037106372,0.7633256170972625,0.58751282490186,-0.2685596520754299,0.27790085140542015,-0.31306320973943125,0.23872202396147765,0.7446109687819459,-0.17484187855093716,0.5789059246806911,-0.2825480654441253
7.189999999999953,1.2152876325892508,0.45380178604578153,0.7004883163518254,0.7681935608646195,0.5793345461488556,-0.27243926127152923,0.30672200626075596,-0.30267218601949697,0.23693771656940682,0.7452901262499299,-0.16776131976947373,0.5793302382527946,-0.28418591060031745
7.199999999999953,1.1154677994894213,0.48263207689732013,0.8077283041759609,0.7738970371142743,0.5702596451176241,-0.2753458853844296,0.3515650358872049,-0.2920523807445644,0.22914752792883525,0.7459353044703614,-0.16057063076585268,0.5800986276403536,-0.28504945064304205
7.209999999999953,0.9928746323935294,0.5042541030321601,0.9057497514727614,0.780035634081457,0.5607576217982895,-0.2775664601140077,0.3943247155119629,-0.28137026747605215,0.22007508125727407,0.7465512253519216,-0.15343689587604747,0.5810817162535067,-0.2853848982667889
7.219999999999953,0.842093065199056,0.5036916379235528,0.9924114461159782,0.7867117452137142,0.5507721017262232,-0.27874071407259476,0.42295108103419093,-0.2706741921233322,0.21146451994992563,0.7471181861431003,-0.14650024085194763,0.5823693999634819,-0.28492956208806386
7.2299999999999525,0.6506292712983661,0.49106908102232766,1.0595451759582442,0.79373068968258,0.5406003360084731,-0.27866794568661013,0.49437419078391,-0.2762529509956661,0.2079474284133056,0.7476319648818078,-0.14009929882970745,0.5839645099614205,-0.2835117168647893
7.239999999999952,0.43692024801346696,0.47235392328604675,1.1266725524766117,0.8009126658648371,0.5303746087542897,-0.2778205032586854,0.563051960322922,-0.2820488288486955,0.207016696662753,0.748130157120095,-0.1341214757590543,0.5857387122365605,-0.28143961983485494
7.249999999999952,0.19465554089498222,0.44638782820382933,1.2059109050953716,0.8082761770808341,0.5201339850230673,-0.2758732463565335,0.5985122412303528,-0.2782637471393977,0.20918028019909082,0.7486236653110246,-0.1288346480923909,0.5877552919782959,-0.2783823727155121
7.259999999999952,-0.06894747425599129,0.41791858179082253,1.3151263723819993,0.8159870979033662,0.5097042298309716,-0.2725117489090777,0.6533096917650675,-0.26645589050598256,0.21624887205048937,0.7491330760637742,-0.12441158357557446,0.5901292558654235,-0.2739386285209005
7.269999999999952,-0.3266076873693079,0.39268201105002826,1.4448367709759093,0.8239898776854311,0.49896787408775456,-0.2683126943323945,0.6972024517451464,-0.2517089156033206,0.22268645025361344,0.7496750791998428,-0.12045896846183395,0.5927279365324627,-0.2685657960769658
7.279999999999951,-0.5551624904885661,0.377197712875779,1.6057577734231632,0.8324901933625023,0.4875914300681606,-0.2629645103256508,0.7009232034016896,-0.23497302699012798,0.2242709813538952,0.7502879318925538,-0.11710546614652642,0.5956496592614714,-0.2617965096673324
7.289999999999951,-0.6997557484963679,0.36839567795854217,1.777384887669891,0.8416769764392553,0.47486199629949005,-0.2567412619618103,0.6946331552345579,-0.2031603111426617,0.21441721677984027,0.7510013364721533,-0.11392893971655481,0.5988638592858291,-0.25362598099352546
7.299999999999951,-0.8063087129366872,0.35681163410333133,1.9394141917526262,0.8512231431721278,0.461195988813433,-0.2501795527289707,0.6817732299367494,-0.16770636166993205,0.19908678218702583,0.7517867237756414,-0.11074979812880095,0.6021934624596766,-0.24468940784522078
7.309999999999951,-0.874905190809202,0.3332465029751335,2.0689733072875462,0.861204539715977,0.4460827622794801,-0.2433720338717588,0.6591345445809834,-0.1336731188956214,0.17782535525594526,0.7526858070585599,-0.1074368547332838,0.6056111053503627,-0.234780612895515
7.3199999999999505,-0.9362665777226733,0.29712619187354883,2.145223004007446,0.8711809528004182,0.42986039302534385,-0.23670391344853128,0.5968417959530523,-0.09230942266743528,0.14204778783669222,0.7536789931479024,-0.10408313238644107,0.6089353130476565,-0.22417320152575992
7.32999999999995,-0.9913239534684091,0.25995028250802626,2.183130637988703,0.8809940949233159,0.4131983436079244,-0.23016797693341248,0.5272026003082745,-0.055896141493354215,0.10744416323233157,0.7546956873928286,-0.10079038283349617,0.612169043401159,-0.21325104855292623
7.33999999999995,-1.0351350134054764,0.22963783999952647,2.1598104999456673,0.8903753198649519,0.3962180310762055,-0.22387734630321074,0.4685318513486743,-0.03834741645656026,0.08716652488796058,0.7557025645334723,-0.09769180875523868,0.6152333396212846,-0.20202754526210753
7.34999999999995,-1.0429115669710751,0.2246413029080671,2.1019981763026205,0.8990500725595281,0.3794853486212529,-0.21790661977342482,0.34897823312010523,-0.01467495055089997,0.07019944524728905,0.7565938142934889,-0.09484101346694152,0.6180963383453606,-0.19091751807357196
7.35999999999995,-1.0593356604415662,0.237811133162913,2.0225751968360672,0.9072710594243215,0.36308549395320044,-0.21193317279349114,0.22611831358203666,0.005546809780463459,0.05869400889570597,0.757333266408541,-0.09220887383306206,0.6209079209824276,-0.1799304239328489
7.3699999999999495,-1.1294623131785149,0.2801645892336813,1.9120588015484896,0.9148244549067894,0.34739929821463833,-0.20568736339709934,0.1445381373154737,0.011173951036563656,0.059523010127963086,0.7577494543332005,-0.08997513060465957,0.623744241479706,-0.16918870262232394
7.379999999999949,-1.1788954126209337,0.31364342364557374,1.7832714333890316,0.9216329770859875,0.33291148382738356,-0.19899631837684625,0.03764562260353868,-0.018045122847216696,0.0806744478748012,0.7577844714407417,-0.08840962826859831,0.6266416291072703,-0.15874670038764702
7.389999999999949,-1.20253957756754,0.3448835775892159,1.651313000384218,0.9279699200979541,0.31921487087702566,-0.19208575512865092,-0.05403966725270871,-0.052616835300099155,0.10044884600681128,0.7575850354464077,-0.08721360888823042,0.6295617222814841,-0.14858699382293586
7.399999999999949,-1.1708976837896279,0.37761788915031913,1.5265391600472349,0.9336217309612305,0.30671340385256407,-0.1849438439050418,-0.07976861981310172,-0.07149985873442662,0.09821964286277975,0.7570546177388779,-0.08647914394427345,0.6324923946136692,-0.13896738685236967
7.409999999999949,-1.1155584587223546,0.3918780097997781,1.420459109084986,0.9386992558007833,0.29508097905001457,-0.177925197361629,-0.08719837984126112,-0.07048076922317531,0.09962798417798999,0.7563174959086785,-0.08587978342831139,0.6353403745160662,-0.1300118728490811
7.419999999999948,-1.059794574747701,0.3963334206717123,1.3228111487407923,0.9434213658391133,0.2839906771732086,-0.17103344620746977,-0.08575790120025158,-0.060246517028810016,0.09859707685960897,0.7554752586913499,-0.08536804269325388,0.638117008940324,-0.12146432017051319
7.429999999999948,-1.0254026875879305,0.38942838744168945,1.2322539130686128,0.9476405786183415,0.27367407448785813,-0.16439933231137982,-0.07555392055032276,-0.041759117279668315,0.08687777376071974,0.7545194812050643,-0.08498646153387131,0.640761573952366,-0.11348933579374718
7.439999999999948,-0.9937458419284864,0.3662900748093695,1.170548808549003,0.9514361808305792,0.26397830631944463,-0.15813017203643778,-0.04466323825725207,-0.010467571494832108,0.07212339601343244,0.7535343418196393,-0.08475628278210445,0.6432324473063739,-0.1059219124079488
7.449999999999948,-0.9553311060010405,0.3347306375754355,1.1269693075275662,0.9549920609748488,0.25453662952710443,-0.15219371326728331,-0.011890167081827276,0.02402139283270666,0.058350255666443356,0.7525707270607993,-0.08455128381303012,0.6455639854020114,-0.09858350688247909
7.459999999999948,-0.8934077799867475,0.2940071161915475,1.1093544361440328,0.9582476129299529,0.24523717371614553,-0.14690257898175624,0.005448709938541164,0.055184044839346726,0.05069414784655944,0.7517031542802203,-0.0842682619330396,0.6476466300674111,-0.09152908205866371
7.469999999999947,-0.8367527096688187,0.2646204405430179,1.0931265011003708,0.9612783463876753,0.23591854576119997,-0.14220069374661348,0.00978165994759765,0.08524357009887784,0.04931945633560229,0.7509291429125985,-0.08380063319151759,0.6495191455984296,-0.08473580484826944
7.479999999999947,-0.7911777107934764,0.2437075801589479,1.077158962071952,0.9641693147421668,0.2266083683843752,-0.13781590430714005,0.0019479792247858799,0.10915582354930271,0.050089820355514014,0.7501977852934548,-0.08324039775549737,0.651277327552585,-0.07809339775895104
7.489999999999947,-0.7749877728128717,0.2372319717168654,1.0604930418575018,0.9668637587777894,0.21734610302200835,-0.13378990938889385,-0.030211925938141627,0.1147640976010079,0.05076331241842204,0.7494989665582029,-0.08258914366288769,0.6529035750520262,-0.07164282386124861
7.499999999999947,-0.7866597127054119,0.23063183154304168,1.0425252981702466,0.9693938647207223,0.20819912075095243,-0.12988549385651035,-0.0791466782705273,0.1123365028471375,0.049600531045799846,0.748773883230667,-0.08200312035344207,0.6544701785531604,-0.0652483446406894
7.5099999999999465,-0.8143646153963078,0.22581630780163595,1.0236622789764191,0.9718146256998795,0.19915639733682802,-0.12603294908953067,-0.12483693943885067,0.10872241761740055,0.047445421635892514,0.7480239408142634,-0.08150768123609324,0.6560025477052278,-0.058858423293724954
7.519999999999946,-0.8620021306087062,0.22702785208481846,1.003386387382597,0.9740691281389384,0.19032108863295025,-0.12220777466394797,-0.14003276641993856,0.1106861367409226,0.04418863561606294,0.7472230992605164,-0.08123369239120422,0.6574925352212665,-0.05241729431349923
7.529999999999946,-0.939442279278381,0.23031527088782783,0.9835689152155869,0.9761760492712234,0.18176850338800174,-0.11827564507959251,-0.1523859436395144,0.11429964238946388,0.028806811151448043,0.7463328641299536,-0.08132271075391889,0.6589746057830597,-0.04582287399292005
7.539999999999946,-1.0302558680179044,0.22810000960947077,0.963623561998015,0.9781844344367985,0.1733944790167948,-0.11430273503316515,-0.15916099475319764,0.11933984132826617,0.010317690130792118,0.7453920564410673,-0.08168559332652042,0.6604357103616664,-0.03908410231730031
7.549999999999946,-1.1290157782812338,0.20443339384640552,0.9426595678079092,0.9800429656497507,0.16527262823102834,-0.11032597880185416,-0.1504635048119059,0.12716733050640044,-0.0034234223432104225,0.7443916451284623,-0.08252478323054971,0.6618351505321788,-0.03204602924855873
7.559999999999945,-1.1944401437634173,0.17876452169222692,0.9219598053222027,0.981739340772283,0.15741622047195256,-0.10660863044154519,-0.13650381569361905,0.13530173969322376,-0.009398626459339931,0.7434101934072759,-0.08376467060498055,0.6630816489927753,-0.02479676530506311
7.569999999999945,-1.22922316146019,0.15692164255629018,0.9018568860793404,0.983333857280175,0.14970734506982677,-0.10306792247214872,-0.12682991920128178,0.14508854502438462,-0.011907758511420178,0.7424376259035766,-0.08519469555071976,0.664234084411022,-0.0174704491929648
7.579999999999945,-1.2005299868509747,0.15139972283186898,0.8835147981784073,0.9847872820289569,0.14216118930830648,-0.09980157763892972,-0.13955013146782624,0.16032857005102846,-0.012677153367794456,0.7414708058795035,-0.08675463148630445,0.6652605785625666,-0.010157957976764848
7.589999999999945,-1.1221156252050595,0.13977078155810096,0.8596145594910384,0.9861267859171937,0.13472516272573515,-0.09678223885007531,-0.17146798268283636,0.18864795104043963,-0.02406231942421843,0.7405094150649812,-0.08811878640155286,0.6662150878557893,-0.003173248957387113
7.599999999999945,-1.0251386784919978,0.11848988774857772,0.8318584700827418,0.9873791356042533,0.12738869628858124,-0.09401741851365589,-0.2049885236178707,0.21887082749457684,-0.03997873109466986,0.7395846592506109,-0.08932263656462731,0.6670924995120534,0.0035466030418608127
7.609999999999944,-0.9323246830414706,0.07048802196391735,0.7979894097014305,0.9884761825731352,0.12025890692191676,-0.09183146689171857,-0.21634661313303333,0.2369924211024844,-0.05710461314088937,0.7387872917898906,-0.09022071178127944,0.667790412480814,0.00976755697293051
7.619999999999944,-0.8793979227965041,0.021493712671765003,0.762252003546145,0.9894188086144009,0.1133944463806418,-0.09036369960995709,-0.229582183654168,0.24181218287563122,-0.10318211496655146,0.738186916444773,-0.09094066918996146,0.6682422022576975,0.015612116769542907
7.629999999999944,-0.8656356474652783,-0.028334182306398857,0.7280674085605153,0.9902587797566755,0.1067399158251391,-0.08935224230593691,-0.24106040240742505,0.24036275797157206,-0.15082366826298377,0.737708907759057,-0.09164085405390363,0.6685249545245926,0.021291964890072353
7.639999999999944,-0.939729448659633,-0.07980621292225623,0.7027957850662775,0.9909469616502907,0.10047521846118564,-0.08896549930681293,-0.24282456979559164,0.23573642277895965,-0.1589142957243726,0.7373915012819685,-0.09254532717366243,0.6685449263531137,0.026930702238524423
7.6499999999999435,-1.0836478052221492,-0.13084732133387786,0.6823173354156906,0.9915161490269974,0.09457577280175891,-0.08906472027030578,-0.23608521451363648,0.23165108895201772,-0.13706250975722412,0.7371727391555258,-0.09403675889467926,0.6682985506334395,0.032971085554067546
7.659999999999943,-1.2389204474531914,-0.17080969613467556,0.6770129007228276,0.992020290526817,0.08882091108458873,-0.08943007967722792,-0.22766061523734202,0.2293060140778236,-0.10601029838193904,0.7369903271053266,-0.09590893975312573,0.6678958332528289,0.039339116870464624
7.669999999999943,-1.3214960754577039,-0.16710532982150467,0.7244020496026293,0.9924652026574444,0.08302715576673711,-0.09003931608477972,-0.22687725110181,0.2330189447809967,-0.08877474600828394,0.7367865990438027,-0.09831331959590836,0.6673174696197296,0.04634024619792313
7.679999999999943,-1.3269718615704025,-0.16202578786848523,0.7409220926537963,0.9928977618290856,0.0769463141358524,-0.0906177436025645,-0.22309151620771456,0.2573914574044674,-0.08427310895793158,0.7364873272422163,-0.10069822480230534,0.6667440574255603,0.0535313202345952
7.689999999999943,-1.2894222331738774,-0.15522967654427258,0.739133232510222,0.9933105582635265,0.07076255257872247,-0.09119996894097655,-0.21710649510496452,0.28942977523478697,-0.08667294062091624,0.7361378939811851,-0.10302608291253951,0.6661714603386516,0.06073651404858992
7.6999999999999424,-1.21251803542215,-0.14376581213222395,0.7170648628264009,0.9936632785233723,0.06467161569725155,-0.09185417264009856,-0.20740030442033172,0.31587191975493584,-0.09471747333794095,0.7357528805265147,-0.10515105149261596,0.665593251265382,0.06765477075991498
7.709999999999942,-1.104789691343787,-0.12293836693685213,0.6746239858580728,0.9939699946357798,0.058854816491032545,-0.09242084674775847,-0.18066872271221868,0.33825192814223487,-0.12220955851867388,0.7353230123167711,-0.1070277018201136,0.6650810251374366,0.07408685401249622
7.719999999999942,-0.9745051010330799,-0.09909416850246675,0.6201094806030746,0.9942416379281731,0.05329963865819579,-0.0929346224972306,-0.15053663496801356,0.35578739121908254,-0.15332904625832885,0.734878183008376,-0.10870011121752214,0.6646175928527163,0.08009397714191904
7.729999999999942,-0.8062949499974261,-0.08045568366490122,0.5528905042678011,0.994450536571075,0.04834785818600155,-0.0933893457601708,-0.13896188983625246,0.36016064406679626,-0.16213074020786886,0.7344560673989411,-0.10996874063822305,0.6642375664884138,0.08520115571863746
7.739999999999942,-0.6456086828453558,-0.04915455568335794,0.4926332621659042,0.9946353653606911,0.04384157398969954,-0.09363959609409395,-0.1288740925028579,0.36924028662606473,-0.1716018736282026,0.7340314875183874,-0.11081882329415456,0.6640023594801553,0.08949355343557937
7.749999999999941,-0.4957645679843453,-0.015454593408855341,0.42921928311822705,0.9948030398911294,0.03970492482616888,-0.09374501909865597,-0.12008154250724232,0.3786186854654391,-0.1798947394346648,0.7336097123246293,-0.11140761428668224,0.6638643037716391,0.09320763047625577
7.759999999999941,-0.37945149386234345,0.002398182979543889,0.33668104532387366,0.9949433984477677,0.036311627859182564,-0.09362248786292976,-0.11405060494380359,0.3794033651307354,-0.1813977159083503,0.7332059415269252,-0.11169016194713516,0.6638629626605929,0.09600781849567308
7.769999999999941,-0.2860230756714247,0.02531718499883997,0.25077631861011457,0.9950630474635739,0.033761493201824574,-0.0933139916955654,-0.10625477911026489,0.3734393879148391,-0.17688581366539166,0.7328196430967211,-0.11194716356511861,0.6639358376108538,0.09813624923519257
7.779999999999941,-0.20353415901897023,0.04742499285513632,0.16792326571490612,0.9951687708952494,0.03180236255143071,-0.09288606524608646,-0.0977324084491933,0.3657909418252475,-0.1698661704064037,0.7324511107661648,-0.11218326485557015,0.6640571250256456,0.09979189901743805
7.7899999999999405,-0.12103589303039844,0.05409940833869045,0.08449793672417562,0.9952552870942538,0.03073998293067269,-0.09231247414692378,-0.08976978579444077,0.3655033210610045,-0.16460327345009926,0.7321275042213714,-0.11237790515872341,0.6642401225000399,0.10072392696602452
7.79999999999994,-0.04544628368826036,0.06442968473721679,-0.004151867049574716,0.9953222514279121,0.03050757349793292,-0.09166691121758805,-0.07382488719733057,0.3603329522685938,-0.15792330320189882,0.7318621346077423,-0.1125856542649783,0.6644478621609575,0.10105135804165916
7.80999999999994,0.021385085640572246,0.07665418126543522,-0.093765760745349,0.995376088659888,0.030874688936055928,-0.09095581823304788,-0.05515995414778631,0.3538162767814589,-0.15269612736007485,0.7316323244499104,-0.11281676782180804,0.6646761841570004,0.10095604584569036
7.81999999999994,0.06143539863222477,0.08934448804007519,-0.17532837572834953,0.9954124470769606,0.03219525504295367,-0.09009431803004345,-0.04255924490093258,0.3525972191028149,-0.15822673028333925,0.7314368674838214,-0.11313243768637325,0.6649464830723869,0.10023612863790146
7.82999999999994,0.06206813829812341,0.08662024611629046,-0.2727035649645507,0.9954125640827064,0.03448419799679978,-0.08922075746660221,-0.014929562908444546,0.34025041196725647,-0.1588477267964577,0.731290316634598,-0.11373261716857129,0.6651722940479486,0.09911651937998234
7.8399999999999395,0.032955804999812745,0.07412283033571261,-0.3710094126390474,0.9953792960340293,0.0374810608882607,-0.08838436706191638,0.017286463094709326,0.3232486380243823,-0.15613162159010288,0.7311866821105293,-0.11459060613709986,0.6653392771395887,0.09776453465886188
7.849999999999939,-0.04730979177826392,0.05138520263846225,-0.4320492474316186,0.9952672885529288,0.041614692022194616,-0.0877753635540562,0.03352687382697456,0.31146188263267166,-0.14897583037274573,0.731178087365625,-0.1160442685646467,0.6653158670106498,0.09625752966086143
7.859999999999939,-0.10932423088681048,0.04711600743167326,-0.4852990361714806,0.9951030288776452,0.04630905014258927,-0.08724496761534602,0.05465838042290004,0.2910232305020062,-0.13161750605001185,0.7311857543669266,-0.11791892865389866,0.6651843216519839,0.09480979119279306
7.869999999999939,-0.1515455271273682,0.053547513201739644,-0.5296781199615236,0.9949031819911992,0.051387269972776733,-0.08672227287469574,0.07614303966672144,0.26869277402103936,-0.11144705634754028,0.7311924359250708,-0.12005917340923535,0.6649988475584603,0.0933725630642148
7.879999999999939,-0.13717147276340624,0.06573576554739309,-0.5475677299391936,0.9946577131143214,0.05696594272799153,-0.08601509274153744,0.08545273725350608,0.2609013476291898,-0.10521149365246553,0.7311467126876792,-0.12245024001060666,0.6648278508622766,0.0918222181374052
7.889999999999938,-0.1112277263757023,0.06350442915071987,-0.533608588972178,0.9943904918091033,0.062447203134905274,-0.08527415317464423,0.128453157705659,0.27758654483760575,-0.1033774923065805,0.7310926898796538,-0.12473143840537884,0.6646820612978945,0.09021824578686632
7.899999999999938,-0.07795275169822713,0.04796283201957333,-0.503397190465088,0.9941046482826424,0.0677971816331628,-0.08458798378875536,0.1877245230030254,0.3035821494150908,-0.10347399227269419,0.7310584538032231,-0.12689256422985562,0.6645326350851868,0.0885844356181329
7.909999999999938,-0.03826894347471779,0.0001654670155905938,-0.4783918275865425,0.9937786173031415,0.07268871188357218,-0.08432602009722732,0.23613134127942192,0.3070847323829374,-0.10101573533969684,0.7311652694810905,-0.1286994266472267,0.6642831375274562,0.0869450159346203
7.919999999999938,-0.0071252964681385485,-0.039668898978935475,-0.4398719314707067,0.9934137771185932,0.07726507174138121,-0.08454904255714678,0.28573398382010434,0.30893034020531196,-0.08393316030882002,0.7314272864354613,-0.13030180588287404,0.663886710261444,0.08536643070252077
7.9299999999999375,0.0372021470796792,-0.07063484038466629,-0.39506871775890573,0.9930306134501811,0.0815412978728224,-0.08508258278867024,0.3280632544976725,0.31066153000329894,-0.06106501241563982,0.7317903140731119,-0.13169104932333112,0.6634124056118814,0.0838083657025438
7.939999999999937,0.19146601406972324,-0.07426450723881285,-0.357669994725075,0.9926669955354294,0.08504772180517567,-0.08587215623309762,0.3216973440019033,0.3173254596961275,-0.052429453690446895,0.7322453464421244,-0.13246789146572047,0.6629599108523027,0.08216933374929371
7.949999999999937,0.40103181106694497,-0.06151312803044684,-0.344551149208213,0.9923012643010043,0.08829662148492447,-0.08681202160298584,0.2753569287925015,0.33111095811668356,-0.04847845787623612,0.7328173424562704,-0.13247214779540084,0.6626046818570807,0.07988018245235082
7.959999999999937,0.6449698673643182,-0.0423218842215419,-0.3500616209567333,0.9919342574429595,0.0913647264600147,-0.08785020513271788,0.21203320767425693,0.3490136561453609,-0.047905754679574426,0.7334756527657085,-0.1318543744450655,0.6623358153189927,0.07704445846819086
7.969999999999937,0.90730391708031,-0.04197785770381633,-0.38662595764153,0.9915667936076178,0.09421253153524682,-0.08897024029505786,0.18646719283588736,0.3672779726759484,-0.05192164414410541,0.7342612934595318,-0.13005856355107143,0.6622675404817959,0.0730671453783665
7.9799999999999365,1.1559643557227692,-0.041681044489159026,-0.4549258580155823,0.9911146549011152,0.09751159419226586,-0.09041542685761686,0.16482959094700672,0.36610173675240787,-0.045820267032114476,0.7352260996797093,-0.12761857926633144,0.66219439117786,0.068062823216466
7.989999999999936,1.3963529986657826,-0.042417510686271434,-0.5453155109461713,0.9905904758184697,0.10120675425143202,-0.09210563995732296,0.14676253949541873,0.35509908808424817,-0.034549985888973664,0.7363219796050964,-0.12468887197872068,0.6621159092262477,0.06223507698779144
7.999999999999936,1.6350505664185293,-0.05007680079709941,-0.6595362513415255,0.9899125122704591,0.10580528120027502,-0.09416877692348474,0.13740193219487037,0.35500726028278656,-0.0285790327750753,0.7375962150337383,-0.12099081990954,0.6620204127422045,0.05488868866587908
8.009999999999936,1.8539636637383614,-0.06282707449315385,-0.7904267432280836,0.9890524163073914,0.11137929942562293,-0.09666834748399356,0.12125522982927453,0.35396526346980167,-0.019247622878775343,0.7390092485224798,-0.11690818922282507,0.6618066508889595,0.04639059079176567
8.019999999999936,2.0508140604163083,-0.07772708620906589,-0.9332191208704903,0.9880373403275194,0.11775942354236303,-0.09951147098468054,0.10118699723902443,0.35034083873403593,-0.008517564933487208,0.7405181361755391,-0.11256403297900759,0.6614908151949461,0.03699796057217958
8.029999999999935,2.1736361116213185,-0.08586650630989884,-1.0894551248914301,0.9866928937163195,0.1257283395116781,-0.1029403173461636,0.08240383826677947,0.33201885321893126,-0.0023989431667885254,0.7421152171150585,-0.10800525572331456,0.6609505741378618,0.02614799770893901
8.039999999999935,2.207374187427806,-0.09547410650237702,-1.2597001683830986,0.9850323806726806,0.13511821609968347,-0.10670638481821719,0.044217955468235565,0.29923861254174583,0.010494099476338925,0.7436805402740124,-0.10377417558667765,0.6602033304549709,0.014550893156505613
8.049999999999935,2.1724643647891773,-0.10589967378201179,-1.4411549611449357,0.9830978286111816,0.14570164252716544,-0.11072119956528356,-0.0026640544876548452,0.25791787721982923,0.0271705884448844,0.7452041290063111,-0.09990457933289999,0.6592853183202945,0.0024199338939280305
8.059999999999935,2.0335632999476707,-0.1155941923640874,-1.6421959384870515,0.9805565522375397,0.15871268972492172,-0.11504296121685618,-0.023395767954807065,0.22000994959205594,0.04054577602944312,0.7465559845601358,-0.09726752712386778,0.6580378809991718,-0.010256401224865198
8.069999999999935,1.8814952713161677,-0.12336951797966342,-1.8414472527067929,0.9774660754644648,0.17358081947047696,-0.11946545024948238,-0.05360062235265825,0.16213333184458348,0.05767014968088916,0.7477324009617072,-0.0957600119358312,0.6565786867854122,-0.023149283300457152
8.079999999999934,1.7266394887030405,-0.12833783695542644,-2.036270830107972,0.9739110832960102,0.1899283277663691,-0.12395836240366834,-0.08643939020988112,0.09511211717804774,0.07535057723632951,0.7487594446926017,-0.09515311881465544,0.654955008485776,-0.036217761979427034
8.089999999999934,1.6187513302473644,-0.12009752584983627,-2.203655488709812,0.9694060555549995,0.20872522097362728,-0.12850211328072514,-0.09073474899565101,0.05824754297477813,0.07767136832713079,0.7494747703824988,-0.09604284246786099,0.653087158207635,-0.049597685009179084
8.099999999999934,1.538121155021326,-0.11686709480016716,-2.3320474902671005,0.9642363412087561,0.22863670239762876,-0.13309279528531878,-0.08266266331337074,0.03978924060962603,0.07787633893294159,0.749967367984878,-0.09759154719815248,0.6510952500209876,-0.0631903950253847
8.109999999999934,1.481043766221566,-0.1177347531695161,-2.430316650724783,0.9585219610197641,0.24936812881270717,-0.13775569785160632,-0.06561423317007616,0.03323008268145352,0.07723539973943246,0.7502865552345112,-0.09962972147832615,0.6489949037126019,-0.07694636419741889
8.119999999999933,1.474678624625951,-0.12585322193696197,-2.4880544514251492,0.9518370477407343,0.270889496618737,-0.14278993106567467,-0.04089249202614535,0.024995327444572467,0.08146774548775772,0.7503621438243934,-0.10217700739969947,0.6466526011808778,-0.09091343388841752
8.129999999999933,1.4908209036307312,-0.13430390526881528,-2.509989502574209,0.9445764911731884,0.2924116100766935,-0.14822599373666304,0.0032754726595821196,0.013499617364698225,0.0841506620366629,0.7503177402061778,-0.10473489976516635,0.6441353038525627,-0.10501172043966887
8.139999999999933,1.5259863579563593,-0.14521413158680552,-2.5020129137434544,0.9368615282836004,0.31384053142522533,-0.15402579849922435,0.05857836160798084,9.24951814064573e-05,0.08617231145406505,0.7501855827519621,-0.10725960520138768,0.6414676192262233,-0.11919743927796486
8.149999999999933,1.5981962360268036,-0.17773850996492754,-2.4384810801056123,0.9285097580212168,0.33436347013690876,-0.16072016813863788,0.09463017056809139,-0.010513655536722039,0.0919125303658344,0.7499880472431585,-0.1093941863922377,0.63848791097825,-0.13337216706110033
8.159999999999933,1.6586076529822937,-0.2013911007488232,-2.363428654885999,0.9199305423066013,0.3538506217997154,-0.16808836118600437,0.1335989715290275,-0.02246346328388059,0.09722399357340267,0.7497993764421337,-0.11106827771381016,0.6353052132519343,-0.14744345986460106
8.169999999999932,1.707202629504751,-0.2216634930120638,-2.279084352648048,0.9111740599306454,0.372457338364283,-0.17601882561133847,0.1714755959254903,-0.03542367772886105,0.10343451809323621,0.7496228220402551,-0.11236729913697228,0.6319513018141919,-0.16140758636342428
8.179999999999932,1.7176991498813234,-0.27103369346310985,-2.181101075140952,0.902213117672729,0.38936550897684746,-0.18494424208768762,0.17667076568797455,-0.049205599388167535,0.12219551086437233,0.7495088595565439,-0.1130827228677522,0.6282784722831962,-0.1750002242755424
8.189999999999932,1.6739285648749818,-0.30658972815747615,-2.080499507304573,0.893214025614973,0.40522943521787785,-0.1942725027122403,0.1741127492283352,-0.07112112745083532,0.14465947236765792,0.7494452333731784,-0.1136627456758892,0.6244486053628548,-0.18809824911446002
8.199999999999932,1.588069146811053,-0.33264796036457067,-1.9778750063711346,0.8841930945216726,0.42022980749742894,-0.20388375380027438,0.16615692159058879,-0.09846962021747839,0.16962669730387178,0.7494160541373652,-0.11415816577319271,0.6205031591376867,-0.2007536142151847
8.209999999999932,1.4634292794106523,-0.36274209680887864,-1.8734683517512902,0.8752335134307294,0.4338704422988971,-0.21344613313753497,0.15969806308040205,-0.12162116871628609,0.19302405569073083,0.7493703242396954,-0.1147902358726809,0.6165165776843605,-0.21238035987808995
8.219999999999931,1.3084669317300053,-0.383647597593344,-1.7728872482266391,0.8664020400737419,0.4467232629270689,-0.2227555657727254,0.14475779474857056,-0.15133074720857514,0.21715235576932332,0.7493298386009055,-0.11563159042249156,0.6125706702567366,-0.22321820504524167
8.229999999999931,1.1291052512927557,-0.3976361306575347,-1.6768819091327969,0.8576780824626989,0.45894184636568186,-0.23180246805587443,0.12435047446454743,-0.18549359843423155,0.2407820520417699,0.7492860127646876,-0.1166785606154028,0.6086732784435813,-0.23337439429691934
8.239999999999931,0.9223532513815893,-0.4093056758640906,-1.603118174611894,0.8491254487969466,0.47044486447114153,-0.23988080676565343,0.11331309785320048,-0.21524675769123244,0.2514385772079788,0.7491520834355239,-0.11838140745658805,0.605010672391068,-0.24223013611305397
8.24999999999993,0.7304390687292684,-0.4125056775659447,-1.5376105996987142,0.8406522482880044,0.48170732775940006,-0.24725278008763654,0.09199290918645768,-0.25233369136829387,0.2636818896072607,0.7489475765007696,-0.12053868812397299,0.6015270077012274,-0.2503467320046426
8.25999999999993,0.5509737046150756,-0.4085641687393287,-1.4782479234169477,0.8322509877919918,0.4927688050301074,-0.2540012688244304,0.06449068058880618,-0.2927586246429308,0.2762986255414267,0.748678615410571,-0.12308441814645739,0.598203781559942,-0.2578313704143766
8.26999999999993,0.3892678778645782,-0.3939909410942506,-1.4179148711842458,0.8240183037727846,0.5035539854487567,-0.25947616565411263,0.05861558962333901,-0.30289421314383014,0.27752085506569635,0.7482524559366571,-0.12627374916766115,0.5952377908790142,-0.26426728213632694
8.27999999999993,0.2695931240562953,-0.3761541978901946,-1.3493378539444898,0.8159925044411105,0.5140119929463957,-0.2642923491256381,0.04402878245265169,-0.3023041614139307,0.2737348361384661,0.7477617943441486,-0.129659318511657,0.5924796065083567,-0.2701531722752773
8.28999999999993,0.1854227613800395,-0.35578800243538244,-1.2765507348052099,0.8081443258296503,0.5241818526126396,-0.268555472914953,0.023586044236066025,-0.29443196949699696,0.26613468356365577,0.7472152609725636,-0.13319784227132428,0.5898974608898636,-0.2755812500578876
8.29999999999993,0.1476387930233642,-0.33534840657286913,-1.2374108393525134,0.8005688890528544,0.5338077930942667,-0.27214389404771766,0.016859776726931487,-0.3023222217934843,0.25947135933380466,0.7465760317770245,-0.13675406755209635,0.5875524330041031,-0.28050787664200977
8.30999999999993,0.11018342902567585,-0.3240743387370095,-1.1834470778120274,0.7931616070355268,0.5430807654459152,-0.2754676332702951,0.008347767976326914,-0.30790253894189934,0.2540591873771547,0.7459274660834291,-0.14028576904331266,0.5853008512916711,-0.28515878443914966
8.31999999999993,0.07300145914534319,-0.3201369920457001,-1.1181378507925632,0.7859076688721696,0.5520353981743146,-0.27856142889056335,-0.0005420472696686331,-0.31188211571557434,0.2502105620904512,0.7452730967750835,-0.1437922179999774,0.5831310739480453,-0.28956443901408185
8.329999999999929,0.03603498586689597,-0.31714294286638317,-1.0604351649094697,0.7789998007625369,0.5603256963170566,-0.2813109250987552,0.008832285046797613,-0.3199795627474939,0.25635015800139854,0.7446470616031725,-0.14719752003887007,0.5810937733869266,-0.2935110727341148
8.339999999999929,-0.017083139800743923,-0.30944192010410404,-0.9785712711329326,0.772380271030245,0.5681876742750609,-0.2837921810268277,0.019488806466895246,-0.32671531654633096,0.2589408738880052,0.7440611396803097,-0.15057221969746706,0.5791582129948393,-0.29709162473422235
8.349999999999929,-0.0844035563819399,-0.29786783408653833,-0.8772434457239331,0.7660381731957423,0.5756548150504144,-0.28601068613970654,0.03125492919832578,-0.33223919364456306,0.2587527433153373,0.7435101766814877,-0.1539191924101322,0.5773236917622419,-0.30032940244404843
8.359999999999928,-0.17224784200369375,-0.28566205176951387,-0.78106006436391,0.7605433042406098,0.5822111977370534,-0.2873473021393959,0.04429133124112608,-0.3357404087334368,0.2609318339918995,0.7430038863770255,-0.1572108170343442,0.5758514531595361,-0.3026818984285201
8.369999999999928,-0.2524002563477556,-0.2735273282022517,-0.6881976650887355,0.755450210174385,0.5883904831798303,-0.28820471963212213,0.06039889406198133,-0.3471801931622744,0.27036201916852515,0.7425230801176872,-0.16054138447164357,0.5745585400625848,-0.3045664682546988
8.379999999999928,-0.323841896450542,-0.2600348956977837,-0.5968240195775819,0.7507354901667979,0.59421242666567,-0.2886271318344565,0.07858640518011971,-0.36467561223035344,0.28515369252458034,0.7420653321492006,-0.16389464136323995,0.5734320954228476,-0.30602716182845013
8.389999999999928,-0.34185983617137417,-0.21309407692999743,-0.4748922593404912,0.7470029647612018,0.5990603879883646,-0.2882623641083944,0.08511015701474255,-0.36805181507571927,0.2830430750939865,0.7416476641967328,-0.167013040547322,0.5726871009698322,-0.3067403448783268
8.399999999999928,-0.3382709975535603,-0.14151859899901575,-0.36072204707631117,0.7439935318619442,0.6031590617230341,-0.28751209479834955,0.0799538190879956,-0.3633048528615203,0.2765218918444302,0.7412149312270756,-0.16973434704475532,0.572216077859689,-0.3071749799750898
8.409999999999927,-0.31422584304911766,-0.04894724356394848,-0.25337031661644055,0.7416529461691912,0.6065653126558098,-0.2864077890524407,0.06467744977903826,-0.35184915286181573,0.26625755244482885,0.7407658935237066,-0.172082749019539,0.5719995807592739,-0.3073597699461128
8.419999999999927,-0.23762513102681057,0.037494382541476426,-0.14986017313351555,0.7406243241254438,0.608630645202501,-0.28467628386948285,0.047618334244121055,-0.34850445603629804,0.2575426936280909,0.7402222579531458,-0.17355169734497752,0.5723116079579504,-0.3072607432543282
8.429999999999927,-0.1364922133787972,0.12274878655234644,-0.03551419983046916,0.7403033905410666,0.6098493609755555,-0.28290108213327264,0.03554571827500286,-0.348725158061794,0.24720571732558672,0.7396751171852228,-0.17438463185786454,0.5728343278343894,-0.30713388276049386
8.439999999999927,-0.012610807059690924,0.20708235281922147,0.08935354659583725,0.7406549255724191,0.610257192069698,-0.28109845361091734,0.028410442954559335,-0.3514298663615436,0.235421491905264,0.7391293429478585,-0.17460959991658276,0.5735522141248635,-0.30698075234495714
8.449999999999926,0.1487609679495397,0.29598323573791324,0.24757307424890446,0.7426633683910496,0.6084559531789371,-0.2796930670002655,0.040003078478139525,-0.3304450169731869,0.22317584285470096,0.7387418397429268,-0.1732176909571322,0.5745847479028412,-0.3067687868289848
8.459999999999926,0.3068226940160501,0.37877659237457817,0.4134248758361725,0.7456301756302594,0.6053487302824577,-0.27851634084544086,0.0724594142505356,-0.3021214626295512,0.19981160381662022,0.738465250740137,-0.1709097984380833,0.5757826660811656,-0.3064756921325561
8.469999999999926,0.46234353967053726,0.45544226369055124,0.5857127437598081,0.749502414202098,0.6010013706704945,-0.277563377582491,0.1234988794690194,-0.2676628314505662,0.16688748684643667,0.7382956230952169,-0.16773231216272544,0.577133735025935,-0.3061070140755977
8.479999999999926,0.6397307056647353,0.5046951517462714,0.7347594950539479,0.7550353960839488,0.5940949763470076,-0.2773706422876271,0.15758221914623916,-0.2580666676005874,0.15916328585932815,0.7384205039511101,-0.16276969214098347,0.5786255116509278,-0.30564787496101964
8.489999999999926,0.826233671067417,0.5465048892604205,0.9027180330262853,0.7613582568940127,0.5857696876758127,-0.27773095204985154,0.21621666972976583,-0.24228778758615663,0.1537414834789206,0.7387438450857943,-0.15684018133503622,0.5800955126459536,-0.30516058533742985
8.499999999999925,1.0188496298332232,0.5814011922834176,1.0879446184626633,0.7684390579613462,0.5760834034301276,-0.27861227472265365,0.29725838197009913,-0.2207997230468832,0.15046597641385825,0.7392566085946816,-0.1499874016565234,0.5815463135441965,-0.30464074460076607
8.509999999999925,1.0444666719289122,0.6181296977580284,1.2476720780032111,0.7770244227891344,0.5637312136995802,-0.2798702686291219,0.3445001519719451,-0.20317948186604845,0.14716642621562123,0.7400764892377716,-0.14160963554709208,0.5830742682454907,-0.30367962920130714
8.519999999999925,0.9553112381728717,0.6469820753508819,1.382041806564101,0.786105847356115,0.5506841205376108,-0.2804339839247429,0.4152920684198218,-0.20222834154528216,0.14989220246819177,0.740891990023678,-0.13314289675774962,0.5848221571706188,-0.30214848579512127
8.529999999999925,0.7548144205181347,0.6679430521199474,1.4921514965518228,0.7956663933662997,0.536969578496632,-0.280313315922993,0.5083307254305675,-0.21726304136236493,0.15846641379825127,0.7417024625684532,-0.1245996404086385,0.5867858007607503,-0.3000568578582151
8.539999999999925,0.3650846523714745,0.642716733859698,1.6054260854677684,0.8057655880095185,0.5229939501343718,-0.2776098673846254,0.5608279579087396,-0.23529106708049155,0.17740324134595553,0.7424025162340937,-0.11720678528001759,0.5894292524890203,-0.296032585772904
8.549999999999924,-0.03385412945145261,0.6169962943197554,1.7430848408546247,0.8161507160857365,0.5089065712379248,-0.273380704196202,0.6387507958700588,-0.25514183597048823,0.21436408065517537,0.7430920430030572,-0.11069647710309978,0.5924811345360209,-0.2906577100793027
8.559999999999924,-0.44172252349616126,0.5908209159574005,1.9047565629822412,0.8268177430898938,0.49470820412964933,-0.26764903229865966,0.7415948057667356,-0.2767537860909086,0.2690075487916555,0.7437712575208014,-0.10505504254466767,0.5959352959535429,-0.2839523633718668
8.569999999999924,-0.710223684427927,0.598879162379446,2.1051026221580247,0.838290270876129,0.47929419793167066,-0.2594754063851403,0.7549394550130804,-0.2638570947465127,0.2781299430390156,0.7444939379342433,-0.10054975852659587,0.6001108838551884,-0.2746319418213755
8.579999999999924,-0.9138263509749057,0.5933413710342591,2.2995678379534477,0.8501516330008123,0.4627553912182789,-0.2506457281887596,0.764905107587359,-0.22699607679844291,0.2710600405850029,0.7452652732375696,-0.0961509420367207,0.604493480553769,-0.2642670980554034
8.589999999999923,-1.0519064379177638,0.5740767979609439,2.4880956582486857,0.8624055686225435,0.44508096753859916,-0.24115368889547298,0.771459269948709,-0.16594028341785655,0.24764213099081323,0.7460857313121684,-0.0918596169017321,0.6090850767138088,-0.2528477885671849
8.599999999999923,-1.0550849291090212,0.49998104747840744,2.6095947402698876,0.874778905869573,0.4249923980324333,-0.23198929735825036,0.7677712248403746,-0.1067916618043637,0.2052069639463654,0.7471533217748718,-0.08725649677455097,0.6134909150326725,-0.24015518238191558
8.609999999999923,-1.0478891814516238,0.4131426933213397,2.683321048935404,0.8867813940082171,0.4040942482687649,-0.22359914722992486,0.7449138460605934,-0.03338888178276519,0.1419485302300792,0.7483866126366816,-0.08251458509168721,0.6175541108840504,-0.2272221971785348
8.619999999999923,-1.0307381588166253,0.31341569864386043,2.7079015592378815,0.8983985624765487,0.38237086722938146,-0.21601001161659744,0.7022369546299183,0.05480827203118349,0.05720757701309062,0.7497902789974011,-0.07763059042932231,0.6212630586265838,-0.2140475019681449
8.629999999999923,-1.016909029086054,0.28844758386316977,2.6373879219297716,0.9087600261371472,0.360366941812584,-0.2096897181741993,0.607696925061207,0.09033750184388659,0.042823155664747474,0.7512443126325804,-0.07285134307973713,0.6243647318107752,-0.20096980172364248
8.639999999999922,-1.0288283331469539,0.2819102146539391,2.524620338147665,0.9183853104604617,0.33893791247921146,-0.20351767673978235,0.44883917741433554,0.10446238235498426,0.04453127521821521,0.7525115295201359,-0.06836117954466159,0.6273398331045814,-0.18816940263202225
8.649999999999922,-1.0681208784423262,0.29399873411699257,2.368131173511039,0.9272434817074169,0.3181248002938678,-0.19748653101746694,0.22218762506455297,0.09649959164624478,0.06243436596121203,0.7535791451163871,-0.06417743994763092,0.6301882776664344,-0.17566298463233662
8.659999999999922,-1.1023324913010715,0.3414431762343851,2.1888266471571667,0.9346712437990512,0.2993802334749334,-0.1911371502833645,0.13249838823873672,0.10041886428966766,0.0857940259687458,0.7540853102396028,-0.0609708649013358,0.633012391029636,-0.1638684204295524
8.669999999999922,-1.1187214024925907,0.3916178975244981,2.0041205892295277,0.9414759261279212,0.28180939671788224,-0.18448240550874262,0.03750201761581295,0.08016541023616783,0.10664778787125345,0.7542657970511133,-0.05823446889204415,0.6358937272936458,-0.15253475660686147
8.679999999999922,-1.1157300513845743,0.4440294663913275,1.8139913690787797,0.9476295989443696,0.26547815570732025,-0.1775005046341346,-0.06619692498018626,0.03322928190252804,0.12464601206084591,0.7541020646568715,-0.05599149212291408,0.6388381477556169,-0.1416899833371009
8.689999999999921,-1.0417046089278728,0.4901901951959431,1.6557927793767027,0.9527666493717502,0.25124076869540174,-0.17020389790608587,-0.09137529933126104,0.01722518400064828,0.11002677671523847,0.753403152983476,-0.05425904328377099,0.6418316467486025,-0.13205276196469293
8.699999999999921,-0.9779030810644789,0.510080983865955,1.5184053183927437,0.9574971408313145,0.23775182612595575,-0.16297553893809344,-0.09326949638825832,0.013121885267804178,0.07269075626691986,0.7525515403150136,-0.05263162313843701,0.6447766703307604,-0.1229559599006023
8.709999999999921,-0.9276742369424967,0.5006622677908725,1.4034416037182997,0.961801150657615,0.22504144984926736,-0.15583308064138307,-0.07133688333987709,0.02146796885872506,0.010811719277848172,0.7515442643716712,-0.05110707035912909,0.6476658227718793,-0.11443029849221144
8.71999999999992,-0.9706494191847963,0.471051805605258,1.3157074119584016,0.9654150256527575,0.21363091406432352,-0.14912697159179622,-0.03766231643372179,0.049052490926950396,-0.010893097512453919,0.7504675919221294,-0.05011399593945747,0.6503237401618079,-0.10643458744066796
8.72999999999992,-0.9965654880343036,0.44118540420625185,1.2436846916940312,0.9687581327229411,0.20267721208680575,-0.14266659226066217,-0.003960871580575507,0.09064417189573469,-0.030238621107699794,0.7493937715936154,-0.04938163058731356,0.6528593048261477,-0.09855277647647967
8.73999999999992,-0.9992194938833695,0.411801102478179,1.1887337616798257,0.9718155306497578,0.19220033794323177,-0.13647281498193764,0.02931956957350173,0.14764967958135167,-0.048409671798547646,0.7483259119968294,-0.048929480955624605,0.6552626618621188,-0.09078192581609533
8.74999999999992,-0.9622191665306401,0.39352479991715233,1.1346644106257262,0.9744699790781255,0.182281947141232,-0.13080708317950063,0.016011043844971557,0.17659574979113393,-0.05397543022655475,0.7472753543191679,-0.0486077252458911,0.6574429537110938,-0.08339246487003808
8.75999999999992,-0.9525264251269658,0.37950783779555075,1.0683558549037053,0.9769305509963873,0.17276021060224886,-0.12532169917373281,-0.02379562437050746,0.1946322722889656,-0.05020596061688873,0.7462098313077942,-0.04840769921680459,0.6595406796894134,-0.07621131436396152
8.76999999999992,-0.9770777954166775,0.3700033275657362,0.9875087269814111,0.979180804819531,0.16368151113785978,-0.12002461404483833,-0.09275422912098846,0.20109217161043735,-0.035983834462980285,0.7451257538593532,-0.04834560236886237,0.6615513042976083,-0.0692586110567725
8.77999999999992,-1.0465574102150808,0.3595550607499184,0.9074671073362505,0.9810671819151421,0.155792098160186,-0.1148403065908248,-0.12692396839594944,0.1920434114539385,-0.0312894883696502,0.7439702659664719,-0.04899367823208714,0.6634586100856202,-0.06248071715290388
8.78999999999992,-1.1033291325138188,0.342806058819297,0.8329686544966248,0.9827955676267238,0.14842595785873802,-0.10976415795996865,-0.16009249446812962,0.1818026559023653,-0.026428787404133316,0.7427996455593027,-0.04997632325056388,0.6652953932360071,-0.05576004058686394
8.799999999999919,-1.1420398638374043,0.3184479811447154,0.7651658368580805,0.9843528735671419,0.14162736009622853,-0.1048130296992099,-0.19405954271975048,0.1710109067651353,-0.020813523292151456,0.7416147578952089,-0.0513247539594733,0.6670523858227473,-0.049098827422120586
8.809999999999919,-1.128701769546321,0.28404458885033146,0.702386157277847,0.9856353277960906,0.13570857057307434,-0.10038571178195084,-0.2008787669635067,0.17493572860768924,-0.016791688875718237,0.7405042111003829,-0.05307583122939206,0.6685710514172036,-0.04271421703161861
8.819999999999919,-1.0936975323807856,0.25152358933542496,0.642506973911089,0.9867988967835021,0.13014995098024798,-0.0962783756530792,-0.21109225869560444,0.18511910648581373,-0.017046257023053235,0.7394491201442984,-0.05487212704410246,0.6699608668881089,-0.03657542994362327
8.829999999999918,-1.035192516095019,0.22204496485104905,0.585907472507338,0.9878327753948928,0.12498099901470203,-0.09253493695220055,-0.22741220465161752,0.20211287160622832,-0.022535530560213936,0.7384582252512005,-0.05669727533464603,0.6712060302686169,-0.03072484544467253
8.839999999999918,-1.0076278207370948,0.18930288485711871,0.5426778034065053,0.9886833795866227,0.12046749169032929,-0.08931212854167468,-0.23579186381236975,0.21152534172225362,-0.03862437605469019,0.7375618722994682,-0.058554834757272224,0.6722446581405461,-0.025362344791525125
8.849999999999918,-1.0160721681298257,0.14754391646309678,0.5129821933990961,0.9894605689897749,0.11612918731290824,-0.08643470407374046,-0.24326213855013332,0.21989860007119527,-0.056929369387567146,0.7367511988533044,-0.06049779397247545,0.6731422231952429,-0.0200481534654977
8.859999999999918,-1.068254213424967,0.09447309180542217,0.4995858409431377,0.9901582269145345,0.11196319295545278,-0.08395883817701084,-0.250202042781794,0.2275460545697517,-0.07722873299158822,0.7360429162201976,-0.06254776831281283,0.6738752929878452,-0.014756821648603813
8.869999999999918,-1.1404666162934705,0.07356684648940656,0.4705276442491342,0.9907455796097674,0.10813211729785693,-0.08198232963216966,-0.2578950680526098,0.22268766698418987,-0.08717268323956055,0.7354518800916819,-0.06504199814795707,0.6743699735168853,-0.009242680595705717
8.879999999999917,-1.2059137383037142,0.05865410914830557,0.44765404161051076,0.9912898144187607,0.10452079399557809,-0.08008339727175673,-0.2769657206493809,0.21325993608264102,-0.09258005704559519,0.7348559867723397,-0.06779563676514323,0.6748019512408489,-0.00361916526794848
8.889999999999917,-1.2605919603652196,0.048676216612209805,0.4343805430505749,0.9917873736072503,0.10116832590534292,-0.07824067577485276,-0.31096916696738425,0.19896117575796207,-0.0929611711674105,0.7342428696667543,-0.07085033137491836,0.6751732483599092,0.0021280083249964367
8.899999999999917,-1.2678848217078345,0.02589599153291029,0.40609040146841413,0.9922266132348505,0.09798627235533432,-0.07667241496221666,-0.3237488188667158,0.2054596583759306,-0.09401915554296608,0.7336590102369797,-0.07407389657664469,0.6754044950440862,0.007921414352629613
8.909999999999917,-1.276066279449913,0.007909799133278904,0.388221492051864,0.992628512904408,0.09498335915599092,-0.07525199620019725,-0.3319778441917851,0.21684966418551044,-0.0923047441042292,0.7330917331711262,-0.07740252483350207,0.6755570943769641,0.013693063230053412
8.919999999999916,-1.2904311681110034,-0.0022371593098470897,0.3860469238136476,0.9929859620559183,0.09220519405793517,-0.07400299567813759,-0.3362731809234754,0.2326799516418673,-0.08676381145849679,0.7325438432675653,-0.08085572098897595,0.6756178788436299,0.01943038204127776
8.929999999999916,-1.2004138522581311,0.01718581975839231,0.38132568244897663,0.9933396808029366,0.08924694694819525,-0.07284313267557108,-0.33545004834010667,0.2454091368532634,-0.09332737503060802,0.7319699951140609,-0.08404163069472895,0.6756552920276812,0.02500002100640037
8.939999999999916,-1.0958211279508032,0.0372749976229706,0.3656309489557824,0.9936875072321771,0.08636040887795911,-0.07157439918026065,-0.32714929818014993,0.2590208387629526,-0.11260766039875003,0.7313415725538593,-0.08700857400017802,0.6757506949237381,0.030264906026457598
8.949999999999916,-0.9833518588387549,0.05477442324265958,0.33496135784581377,0.9940275738393983,0.0835951275446653,-0.0701434887409509,-0.3090467085576718,0.27423008681743966,-0.14815292724886084,0.730640256772076,-0.08970245566571751,0.6759296135927632,0.03512544428703853
8.959999999999916,-0.8616907231904244,0.04823615489824664,0.3182162876392787,0.9943274252675071,0.08099587225378946,-0.06890953734850871,-0.2867627956401595,0.28937562188129085,-0.15673484728285694,0.730001203985682,-0.09186925732209358,0.6760938113623457,0.0392928469560637
8.969999999999915,-0.7573939859104144,0.04908823318975828,0.30629566984844553,0.994613478256344,0.0784312176073,-0.0677459497791642,-0.2610346909884487,0.3002534771589533,-0.1564531067751422,0.7293859208212493,-0.09379101295529935,0.6762610793556934,0.04316901317272343
8.979999999999915,-0.6791672061321948,0.06372104390553968,0.29941958742228825,0.9948851553269897,0.07589391454542167,-0.066656753502393,-0.23093682063217516,0.3050339944397085,-0.14708758296018057,0.7287963377657799,-0.09543250320875338,0.676434704112664,0.04672098467262388
8.989999999999915,-0.6068783154476283,0.09452342711527845,0.26410219902662696,0.9951484790624643,0.07356511631030375,-0.0652990533087945,-0.22768127666950877,0.29989998501348425,-0.1490976093776355,0.7281226178821146,-0.09682068414927675,0.6767386290469762,0.049817971077165846
8.999999999999915,-0.4991492250960365,0.1265609807609108,0.2323758376540813,0.9954063814722404,0.07140815966326604,-0.0637496119833875,-0.2195853220557775,0.29258479930083914,-0.15941246531085357,0.727399087670952,-0.09801662659332053,0.6771391378321371,0.052562696412899804
9.009999999999915,-0.33842903626181714,0.15800881570903272,0.2101609875285766,0.9956575557705668,0.06947283889667785,-0.06195820348372225,-0.2003787946293052,0.28353776672118186,-0.18024538101157223,0.7266148397488776,-0.09896760986317005,0.6776622669103021,0.05485718810332873
9.019999999999914,-0.13140632543383737,0.1566875831412785,0.19765930264991402,0.9958937792557384,0.06756401580344071,-0.0602284243108819,-0.1681288940619156,0.2983637949992561,-0.19311047499448944,0.7259196859301837,-0.09901331474904071,0.6782933920060454,0.05616052200421788
9.029999999999914,0.06485573696988485,0.1399191857345577,0.1822697821052002,0.9961112649548197,0.06568528450582387,-0.058703434022529796,-0.11898388645743166,0.32074189201655373,-0.20552936033449873,0.7253349063767137,-0.09856700988023337,0.6789198713614791,0.05693104208288052
9.039999999999914,0.23719803320316524,0.10520942165587988,0.16090916251336548,0.9963028900690096,0.06384767281371817,-0.05747789368173604,-0.04644920124123002,0.35059409524940066,-0.21859004122416612,0.7249022880232093,-0.09752637676130547,0.6795214834317587,0.05705972885040373
9.049999999999914,0.3446445476375837,0.0809610596166849,0.12305014467157596,0.9964353730327162,0.06233049795831421,-0.05683667920684605,-0.020075833693091648,0.35536722389990916,-0.22360068426930194,0.7247304763278295,-0.09594455340501998,0.6799814129279094,0.05642653215653401
9.059999999999913,0.42429569845567844,0.07409755914262131,0.08060831482996535,0.9965463888737124,0.06106392244988796,-0.056269328229760295,-0.0003389806445042937,0.3523255298819095,-0.2276915188238021,0.724608027253805,-0.0942262058510749,0.6804301629890761,0.05547290677183451
9.069999999999913,0.47260429854956354,0.09234290768384226,0.03405840571609996,0.9966348464838423,0.06012828794991347,-0.05571000532895343,0.017518156548449737,0.34172035057187194,-0.23182373024026534,0.7245146427030308,-0.09239455742555189,0.6808874271868337,0.05416047392358906
9.079999999999913,0.47831434653378296,0.07006842990045228,-0.05214105302416018,0.9966657946612967,0.06011147244158269,-0.05517377255521712,0.025948452654417857,0.3231375025560652,-0.22576345048480584,0.7244583665498457,-0.09076161476104433,0.6813031179575241,0.052396250925931406
9.089999999999913,0.44414819450094595,0.03346030393388777,-0.14369117645467755,0.9966416012736681,0.06076497980165983,-0.05488628186325326,0.04171002109096818,0.3016478055627115,-0.20850906861877064,0.7244959783333899,-0.08941531410757945,0.6815874026121279,0.0504682868801151
9.099999999999913,0.35482210240163436,-0.017904797334245673,-0.23581708064810106,0.9965408507412802,0.06230495178833346,-0.05499167639646993,0.07108433245057809,0.27711719202376345,-0.17541491755155197,0.7246761738155167,-0.08848714405967331,0.681670041629694,0.04836951518911965
9.109999999999912,0.22165632415215525,-0.0716353359028176,-0.3107556845578544,0.9963246120825552,0.06503286368683114,-0.055707634003636985,0.09256474008531135,0.2674528511576419,-0.16341116278790738,0.7250476443401294,-0.08850409521785964,0.6814052718752208,0.04645247703610953
9.119999999999912,0.07423763724656232,-0.11884742649734678,-0.3774217864992265,0.9960458205576729,0.06833561262294074,-0.056708777886905114,0.11096606240587534,0.2532992155389435,-0.15757643304371458,0.7255019192710166,-0.08907744147568233,0.6809625100055806,0.044727781337042895
9.129999999999912,-0.08693017340810302,-0.15482487533973446,-0.4342854917789729,0.9956897135904033,0.07232091226407714,-0.058043866796133874,0.1260491470537448,0.22848702053334352,-0.15722583697250933,0.7260500669752994,-0.0903566157956157,0.6803038964394844,0.04327908252162986
9.139999999999912,-0.22899106452195755,-0.16966020706790177,-0.46382775710480684,0.9952468631986812,0.07699120901542014,-0.059519126386380974,0.13117598378940604,0.217490404683675,-0.16193909182371452,0.7266141993897016,-0.09255218806787485,0.6794638625296799,0.042319295184383314
9.149999999999912,-0.3676921267609655,-0.18041402738429124,-0.4809281770809131,0.9947680355212233,0.08187910419780338,-0.06099792162442929,0.15089189749501192,0.20938682774539064,-0.16363987297344043,0.7271608821869431,-0.09518005718658815,0.6785552678057822,0.041665338966585676
9.159999999999911,-0.5053315139095014,-0.1893778838664768,-0.4835952473775531,0.9942493432506183,0.08696933710577844,-0.062448803861221196,0.19768553711132922,0.20283496763767192,-0.15902211610935232,0.7276741924094875,-0.09831737275147315,0.677574601042323,0.04141033514254364
9.169999999999911,-0.6462158556113287,-0.24000653680868927,-0.4662414650382918,0.9936813583223223,0.0920334152094747,-0.06412236328609479,0.24094069304096077,0.206100977777161,-0.15098244858226278,0.7282258815643523,-0.10202357913289511,0.6764031956113896,0.041810859457813085
9.179999999999911,-0.7893891832971618,-0.3079471010240509,-0.43885086061704404,0.9930789731301414,0.09699950876820249,-0.06613029840998964,0.3029107746675371,0.21118721651440026,-0.13550267674884317,0.7288634219145591,-0.10607343248231263,0.6750360979233923,0.04268778646593385
9.18999999999991,-0.935688670562988,-0.3950132052365608,-0.3992809205094105,0.9924297447880246,0.10180203011193106,-0.06866122434298784,0.3983747390767207,0.21684973544170197,-0.10798152492593582,0.7296401994164902,-0.11057105454077967,0.6733788634583212,0.04422059030045003
9.19999999999991,-1.0396448398875962,-0.46731162620206035,-0.3643689818845021,0.9917116559634449,0.10629514641779918,-0.07205308396189372,0.4261195686042559,0.2167425519969938,-0.0786467238545101,0.7306596825570919,-0.11542592429939462,0.6712930855725302,0.04647029533678444
9.20999999999991,-1.13482059840012,-0.5151140601766768,-0.3298504724948127,0.990974544086933,0.1105637384227683,-0.07571391755540192,0.41705821602935833,0.2245454104469095,-0.04481643483192141,0.7317394060065644,-0.12042884288611455,0.6690490371729741,0.04909367358563857
9.21999999999991,-1.226441901802052,-0.5233063838203907,-0.29469815148617906,0.9902231591789286,0.11451927327814719,-0.07960894158259164,0.36156075703613355,0.2481662409108768,-0.0034593800856803497,0.7328572479608152,-0.1255941689632029,0.6666447639577009,0.05218005073205646
9.22999999999991,-1.2813216669226946,-0.48481000237520244,-0.2942726713890369,0.9894701731209895,0.11847113353008011,-0.08305636675433188,0.30379662118260164,0.25105068960715043,0.018185937315048684,0.7337727154127983,-0.13110926560794542,0.6642754370884911,0.055663973134353256
9.23999999999991,-1.281913808364924,-0.43267972323975523,-0.31365516497662815,0.9887153022402716,0.12255272663553762,-0.08609827669213958,0.22226744366258086,0.24657554235341544,0.036244429832891153,0.7345412061004355,-0.1366891286410751,0.6620064263922143,0.05911040160769286
9.24999999999991,-1.1939246960788905,-0.37001292526728247,-0.3586937299651671,0.9879574576407117,0.12687459972288578,-0.08853263043569673,0.09764165570085923,0.23501667758099537,0.053853111068464715,0.7351020401320638,-0.14227903911549572,0.6599114006762736,0.06236345143445558
9.25999999999991,-0.9694262210145088,-0.2956140670506024,-0.4221182264209494,0.9871437857672055,0.13179312151582837,-0.09034443914566392,0.03559618854389154,0.2352184387372678,0.05762104813568438,0.7355273496039418,-0.14736171993097347,0.6581008567888325,0.06457233075157014
9.269999999999909,-0.6664227157039508,-0.2091580560786283,-0.48329035756726807,0.9863086524250773,0.136963419731363,-0.0917835667878361,-0.0257487313777495,0.2472619971847395,0.053280614993221696,0.735901163443139,-0.15184200840387332,0.6565415008182605,0.0658898867027177
9.279999999999909,-0.26074166018225775,-0.10380119263130178,-0.5339537201890162,0.9854517258094925,0.14240915407730825,-0.09272661526178749,-0.10698559656771496,0.27778807003640243,0.03824747144430762,0.7362232179087234,-0.15535122130527884,0.6553623215011676,0.06587018041270953
9.289999999999909,0.23463379796270967,0.0012506549638225395,-0.5907460148426987,0.9845879786391188,0.14796223547387735,-0.09314668097487994,-0.13705260557108792,0.2907851941256503,0.02138384202139587,0.736565213120364,-0.15695539032606362,0.6548211211108781,0.0635690606932974
9.299999999999908,0.7614431350392447,0.08536038522244219,-0.6501413587089412,0.9836924161216074,0.1535891596858073,-0.09352347225894148,-0.1385580737081961,0.30377400583754,-0.0021560638885609797,0.7370029290332059,-0.15730500452835453,0.6545934730623562,0.059792340206166555
9.309999999999908,1.3167391726457707,0.12865702510203122,-0.7123726553365237,0.9827371849502716,0.15932096303157411,-0.09400776875330805,-0.10304133218363579,0.3231843056180397,-0.03807048799026286,0.737620378961971,-0.1559026180595376,0.6547442634094371,0.05396987734563817
9.319999999999908,1.8061091288438653,0.1272445511284055,-0.7815458139793671,0.9816229672002259,0.16519791075861334,-0.09541834171918924,-0.059176387876340796,0.33063180085797794,-0.04671895806858013,0.7386328582661078,-0.15234369799565478,0.6550368782455619,0.04568635502455978
