time,seconds_elapsed,rotationRateX,rotationRateY,rotationRateZ,gravityX,gravityY,gravityZ,accelerationX,accelerationY,accelerationZ,quaternionW,quaternionX,quaternionY,quaternionZ
1681250209783787800,0.064787841796875,-0.0777149423956871,-0.1773301362991333,-0.5227367877960205,0.16922083497047424,-0.5072334408760071,-0.8450316786766052,-0.046265557408332825,-0.044646382331848145,-0.18025219440460205,0.9604767559683058,0.26405293507035554,0.08809210349091501,8.26717391409998e-18
1681250209798820600,0.079820556640625,-0.0623001903295517,-0.2728270888328552,-0.4907369911670685,0.17037959396839142,-0.5050914287567139,-0.8460811972618103,0.008102446794509888,-0.010502934455871582,-0.18742716312408447,0.960741168268322,0.2632390851440397,0.08754768110191999,-0.0040994514675266915
1681250209813853700,0.094853759765625,-0.07490546256303787,-0.5474714636802673,-0.4488238990306854,0.16872015595436096,-0.5030052065849304,-0.8476551175117493,0.04703909158706665,-0.009506940841674805,-0.17099112272262573,0.9611243404457123,0.26240588362439865,0.08553122486019377,-0.008208415336363
1681250209828890600,0.109890625,-0.12785108387470245,-0.812444269657135,-0.40489479899406433,0.16327136754989624,-0.5007014274597168,-0.8500826358795166,0.09635688364505768,-0.023559927940368652,-0.1085355281829834,0.9617905898839645,0.26029650386738856,0.08487885486884678,5.696422301738278e-18
1681250209843923500,0.12492333984375,-0.21442149579524994,-0.7242640852928162,-0.5236957669258118,0.15666142106056213,-0.4974430203437805,-0.8532336354255676,0.07197624444961548,-0.04477798938751221,-0.08821845054626465,0.9625969507577332,0.25879147762496485,0.08006352449643171,-0.004875762734253876
1681250209858956500,0.13995654296875,-0.2890241742134094,-0.5821785926818848,-0.46888789534568787,0.1520688831806183,-0.4929075837135315,-0.8566896319389343,-0.08901959657669067,-0.04890143871307373,-0.08898907899856567,0.9634582854990587,0.256564594864405,0.0763530712460893,-0.009632815087529804
1681250209873989600,0.15498974609375,-0.23847021162509918,-0.442149817943573,-0.4605309069156647,0.1487981677055359,-0.4883395731449127,-0.8598741292953491,-0.09491941332817078,-0.0008266270160675049,-0.08028090000152588,0.9642346044902049,0.254273890203159,0.07353720124559616,-0.01373310104026564
1681250209889022500,0.1700224609375,-0.08864668011665344,-0.37829864025115967,-0.5132889747619629,0.14717209339141846,-0.4850543141365051,-0.8620108366012573,-0.06810106337070465,0.0850147008895874,-0.07510769367218018,0.9647194722303686,0.25272749660190846,0.07157789805217975,-0.017938118933506563
1681250209904055600,0.1850556640625,0.048137106001377106,-0.3879563510417938,-0.5730995535850525,0.14612622559070587,-0.4836425185203552,-0.8629814982414246,-0.03594253957271576,0.116058349609375,-0.06763684749603271,0.9648734040733635,0.25225896512881685,0.06981890164233187,-0.02258279790633147
1681250209919088600,0.200088623046875,0.11930710077285767,-0.3690718710422516,-0.6093432903289795,0.14554259181022644,-0.48347923159599304,-0.8631715774536133,0.002162456512451172,0.13798978924751282,-0.05354595184326172,0.964790522970969,0.25251667488185664,0.06818745327155924,-0.027660309288450237
1681250209934121700,0.215121826171875,0.07095181941986084,-0.3637114465236664,-0.5806754231452942,0.14517268538475037,-0.4835432171821594,-0.8631980419158936,0.005965590476989746,0.1257247030735016,-0.052405595779418945,0.964637946978894,0.2528978182398753,0.0666609239391939,-0.03275112717170739
1681250209949154600,0.230154541015625,-0.09346194565296173,-0.3767279088497162,-0.569997251033783,0.144440695643425,-0.48219096660614014,-0.8640767931938171,0.01908773183822632,0.043577104806900024,-0.04516392946243286,0.9646897664009936,0.25245331476812477,0.06503009285516875,-0.037577170263362256
1681250209964187600,0.245187744140625,-0.24242910742759705,-0.3750205636024475,-0.6092559695243835,0.14377093315124512,-0.47866111993789673,-0.8661486506462097,0.02244304120540619,0.004707932472229004,-0.03570687770843506,0.9650230586607039,0.250798314516417,0.06344983030821832,-0.04248400533595167
1681250209979220700,0.260220703125,-0.2892238199710846,-0.3691725432872772,-0.6245267987251282,0.1433081179857254,-0.47371575236320496,-0.8689396381378174,0.005037814378738403,0.0032110512256622314,-0.009997129440307617,0.9655094553309207,0.24837170290601385,0.0619811853572628,-0.047552257273907404
1681250209994253600,0.275253662109375,-0.2682628929615021,-0.4224384129047394,-0.5510403513908386,0.14251311123371124,-0.46876806020736694,-0.8717491030693054,-0.00767122209072113,0.02635478973388672,0.00739973783493042,0.9659895290572031,0.2459107584703438,0.06044289118755733,-0.05233344803356976
1681250210009286700,0.29028662109375,-0.18798790872097015,-0.3830561339855194,-0.6185269355773926,0.1411954164505005,-0.4645538628101349,-0.8742159605026245,0.005517810583114624,0.08016976714134216,0.05465114116668701,0.9663496352977339,0.24383712406927777,0.05861291088543202,-0.057239623875019456
1681250210024319700,0.30531982421875,-0.1666451394557953,-0.3581443727016449,-0.6338214874267578,0.14077024161815643,-0.4609434902667999,-0.8761934041976929,-0.023994743824005127,0.0757811963558197,0.0665619969367981,0.9665415382355997,0.24214216743797928,0.05718810987510501,-0.06240315246053771
1681250210039352600,0.3203525390625,-0.21826742589473724,-0.388465017080307,-0.6514878273010254,0.1402645856142044,-0.45703941583633423,-0.8783170580863953,-0.025350674986839294,0.040611863136291504,0.10512369871139526,0.9667391625562965,0.24028109672363027,0.05573573535759009,-0.06763068004980098
1681250210054385700,0.3353857421875,-0.2836427092552185,-0.39325815439224243,-0.680574357509613,0.13965144753456116,-0.45229020714759827,-0.8808695077896118,-0.024371325969696045,0.011006057262420654,0.13059478998184204,0.9670005499834915,0.23796145572150618,0.05421807397679345,-0.07310771576555725
1681250210069418800,0.350418701171875,-0.3164314031600952,-0.3898594379425049,-0.6620227694511414,0.13899335265159607,-0.4468390643596649,-0.8837509155273438,-0.04719652235507965,-0.004149675369262695,0.15935516357421875,0.967317472727096,0.235251427749117,0.052738131340253645,-0.07856345069920112
1681250210084452600,0.36545263671875,-0.29580530524253845,-0.3767971694469452,-0.6481447815895081,0.13825973868370056,-0.4413663148880005,-0.8866115212440491,-0.05596913397312164,-0.0026033222675323486,0.17497211694717407,0.9676081322871043,0.232517621078074,0.051281590887418904,-0.0839049861678964
1681250210099485700,0.380485595703125,-0.2205965667963028,-0.3483103811740875,-0.6029756665229797,0.1375417858362198,-0.4365408718585968,-0.8891087174415588,-0.06930451095104218,0.034136176109313965,0.19690895080566406,0.9677980828326066,0.2301216407093232,0.049896657380194415,-0.0890007670311835
1681250210114518500,0.3955185546875,-0.1269722878932953,-0.31175026297569275,-0.554223358631134,0.1368940770626068,-0.43311700224876404,-0.890881359577179,-0.0672377198934555,0.050274044275283813,0.19631654024124146,0.967810052050855,0.22846772795442663,0.048598438511086056,-0.09372431594089459
1681250210129551600,0.410551513671875,-0.1538451761007309,-0.25439003109931946,-0.49595707654953003,0.13650228083133698,-0.4303254783153534,-0.8922931551933289,-0.06554894149303436,0.04484277963638306,0.18755072355270386,0.9677518458620858,0.22714488918976042,0.04752501183424326,-0.09799348638040069
1681250210144584700,0.425584716796875,-0.3493707776069641,-0.21975722908973694,-0.4548218846321106,0.13638779520988464,-0.4261110723018646,-0.8943308591842651,-0.05885791778564453,0.0124453604221344,0.17541301250457764,0.9678938280271869,0.22504179871084487,0.04680553946095033,-0.10171935211260265
1681250210159617500,0.440617431640625,-0.6352769136428833,-0.2152405083179474,-0.4703902006149292,0.136426642537117,-0.4185425341129303,-0.8978919386863708,-0.03619168698787689,-0.07724598050117493,0.16986459493637085,0.9684334636101293,0.22113625489973177,0.04639827875300958,-0.10527299115039145
1681250210174650600,0.455650634765625,-0.8425382375717163,-0.2334219068288803,-0.47637537121772766,0.13628289103507996,-0.4074018895626068,-0.9030230641365051,-0.02490900456905365,-0.10665139555931091,0.16318541765213013,0.9693727598548894,0.2153131754057578,0.04613789227205866,-0.10875612762777795
1681250210189683700,0.47068359375,-0.8273003697395325,-0.2554057538509369,-0.46582740545272827,0.13580834865570068,-0.394797146320343,-0.9086755514144897,-0.011495009064674377,-0.03748428821563721,0.14657533168792725,0.970423791626991,0.20871769265237028,0.04581632522129801,-0.11231879631466218
1681250210204716800,0.485716796875,-0.6733473539352417,-0.2909347116947174,-0.3779025971889496,0.13461171090602875,-0.3836285173892975,-0.9136239886283875,-0.011595383286476135,0.01566287875175476,0.14661043882369995,0.9713074277410161,0.20285512696768582,0.04514194037901743,-0.11564488143648693
1681250210219749600,0.50074951171875,-0.5103303790092468,-0.2036067545413971,-0.31102848052978516,0.1330893337726593,-0.37488803267478943,-0.9174672961235046,-0.02647620439529419,0.0686594545841217,0.14044392108917236,0.9719771704177859,0.19824410958603733,0.04433553337183863,-0.11829628845583554
1681250210234782500,0.515782470703125,-0.5125908851623535,-0.07313822954893112,-0.33422356843948364,0.13300034403800964,-0.3673717677593231,-0.9205155372619629,-0.04355335235595703,0.04408383369445801,0.1264634132385254,0.9724718747910815,0.19437753303775632,0.044267354939145305,-0.12064877711957188
1681250210249815600,0.530815673828125,-0.6240239143371582,-0.008467619307339191,-0.42651113867759705,0.1344967633485794,-0.35879454016685486,-0.9236758947372437,-0.0620633065700531,-0.044983506202697754,0.12886077165603638,0.9729568060302037,0.19008900520429123,0.04503593088627287,-0.12325996311643402
1681250210264848400,0.545848388671875,-0.799220085144043,0.02737400121986866,-0.5247431993484497,0.13722702860832214,-0.3478813171386719,-0.9274412989616394,-0.06064319610595703,-0.09138864278793335,0.1282164454460144,0.9735088737446769,0.18471335525601518,0.04647938138799732,-0.12649557933916647
1681250210279881500,0.560881591796875,-0.9170207977294922,0.05690872669219971,-0.5836848020553589,0.1407393515110016,-0.3346545398235321,-0.9317718148231506,-0.040855348110198975,-0.05598565936088562,0.11687624454498291,0.9741313259487809,0.17824197156136326,0.04841361607898155,-0.1302075744319099
1681250210294914600,0.57591455078125,-0.9833228588104248,0.07528959214687347,-0.5431826710700989,0.14451278746128082,-0.3199891746044159,-0.9363348484039307,-0.03249804675579071,-0.03232094645500183,0.10325074195861816,0.9747928044653426,0.17108748637327859,0.05061267455473098,-0.13396378017801536
1681250210309947400,0.590947509765625,-1.0018117427825928,0.11174321174621582,-0.3802690804004669,0.14804452657699585,-0.30497026443481445,-0.940784752368927,-0.013172104954719543,0.01093342900276184,0.093494713306427,0.9755260372522747,0.16373457472500258,0.052901882435358344,-0.1368989779510879
1681250210324981800,0.605981689453125,-1.0754101276397705,0.19731323421001434,-0.17683981359004974,0.15132419764995575,-0.2897912561893463,-0.9450513124465942,-0.006274178624153137,-0.001971989870071411,0.09390079975128174,0.9764144992776311,0.15623851005451464,0.05535218841525933,-0.13834887475932653
1681250210340014300,0.621014404296875,-1.2342844009399414,0.3273887038230896,-0.020855532959103584,0.1554328352212906,-0.2731045186519623,-0.949344277381897,0.017113521695137024,-0.016751408576965332,0.11453592777252197,0.9775289079673212,0.14797489967310695,0.05857724031195695,-0.13823608039378596
1681250210355047400,0.63604736328125,-1.4821118116378784,0.40555328130722046,-0.013259134255349636,0.1607481688261032,-0.2539513409137726,-0.9537655711174011,0.03430488705635071,-0.04066529870033264,0.14344757795333862,0.9787937342402793,0.13851884059011688,0.06268774824761529,-0.13727887041018275
1681250210370080500,0.65108056640625,-1.8406578302383423,0.47730228304862976,-0.042281731963157654,0.16723810136318207,-0.22981587052345276,-0.9587575793266296,0.09223757684230804,-0.00622229278087616,0.17218226194381714,0.9802036865877463,0.1266425150744418,0.06769704209684635,-0.1363062037184657
1681250210385113600,0.666113525390625,-2.075500011444092,0.3619386851787567,0.057297855615615845,0.17359517514705658,-0.20142878592014313,-0.963997483253479,0.12459205090999603,0.031705304980278015,0.1978689432144165,0.9817345222922177,0.11261025117352477,0.07293963112261811,-0.13489210009170896
1681250210400146400,0.681146484375,-2.302360773086548,0.12668460607528687,0.1565389484167099,0.17672313749790192,-0.16987955570220947,-0.9694894552230835,0.1956828236579895,0.056323692202568054,0.21691077947616577,0.9834399198791732,0.09672812830413087,0.07680447764441564,-0.13262926916213008
1681250210415179500,0.696179443359375,-2.3951125144958496,0.10261442512273788,0.15482786297798157,0.17774562537670135,-0.13572171330451965,-0.9746723175048828,0.18791596591472626,0.011408388614654541,0.1943531036376953,0.985110727362569,0.0794070749945988,0.0797393596124971,-0.12997226948314564
1681250210430212600,0.711212646484375,-2.359478712081909,0.2581545114517212,0.056393977254629135,0.1800677329301834,-0.10099459439516068,-0.9784557819366455,0.1175244152545929,-0.03392358869314194,0.09806942939758301,0.986380489368558,0.061965210504316484,0.08326119163961188,-0.12759818708881274
1681250210445245400,0.726245361328125,-2.131401538848877,0.44296374917030334,-0.022485921159386635,0.185178741812706,-0.06791214644908905,-0.980355441570282,0.08461186289787292,-0.03755658119916916,0.03229635953903198,0.9870737539543643,0.045626798468478516,0.08797999946519854,-0.1259484411180147
1681250210460278500,0.741278564453125,-1.8934500217437744,0.6556400656700134,0.030814053490757942,0.19332759082317352,-0.038271307945251465,-0.9803875684738159,0.08702212572097778,0.013628382235765457,-0.10561096668243408,0.9872679568699622,0.031231176243074855,0.09397253618010314,-0.12448196967140368
1681250210475311600,0.7563115234375,-1.6920117139816284,0.8370510935783386,0.22156429290771484,0.20438285171985626,-0.012238253839313984,-0.9788145422935486,0.11286260187625885,0.0314033105969429,-0.14253860712051392,0.9871619691742073,0.018720631181407484,0.10120413444918,-0.12214094261442646
1681250210490344400,0.771344482421875,-1.6229137182235718,0.9166788458824158,0.34938937425613403,0.21736735105514526,0.011027627624571323,-0.9760275483131409,0.17743851244449615,-0.037638939917087555,-0.14061063528060913,0.9868980659956484,0.007529410220349939,0.10922234825034814,-0.11851580317745716
1681250210505377500,0.78637744140625,-1.5911065340042114,0.9633986949920654,0.25802403688430786,0.231232687830925,0.0334257110953331,-0.9723241329193115,0.18084613978862762,-0.1197751834988594,-0.11771804094314575,0.9863957371109038,-0.003254477550929139,0.11758977422015435,-0.11482845552661919
1681250210520410600,0.80141064453125,-1.4510952234268188,0.9979034066200256,0.2624286413192749,0.2457023411989212,0.055004678666591644,-0.9677834510803223,0.17974317073822021,-0.11799294501543045,-0.17088842391967773,0.985605567639743,-0.013605128186052026,0.1261870358145762,-0.11168381536851979
1681250210535443500,0.816443359375,-1.2706263065338135,1.0333229303359985,0.5048242211341858,0.2607446610927582,0.07325069606304169,-0.9626248478889465,0.18627676367759705,-0.06816951185464859,-0.24295681715011597,0.9847316718185645,-0.022434263808944258,0.13484914301189002,-0.10777685692141017
1681250210550476500,0.8314765625,-1.1990920305252075,1.038593053817749,0.8678719401359558,0.2765774428844452,0.08813638985157013,-0.9569414258003235,0.19916105270385742,0.028715424239635468,-0.3234235644340515,0.9839455782929692,-0.029956173306943806,0.14363815470513816,-0.10159522955241004
1681250210565510400,0.846510498046875,-1.2669464349746704,1.1048080921173096,1.0162763595581055,0.2931600511074066,0.10157904028892517,-0.9506518244743347,0.1875527799129486,-0.026170097291469574,-0.3646557927131653,0.983163432743496,-0.037167155950615496,0.15261943906179154,-0.09335725098607126
1681250210580544300,0.861544189453125,-1.3786745071411133,1.2784522771835327,0.9191305637359619,0.3117018938064575,0.11594735831022263,-0.9430790543556213,0.1293686330318451,-0.14728888869285583,-0.41061967611312866,0.9819994062234458,-0.04497024237140445,0.16259808917740967,-0.08495134571815252
1681250210595577300,0.876577392578125,-1.5058729648590088,1.3282984495162964,0.8671174645423889,0.33192792534828186,0.13213440775871277,-0.9340044856071472,0.08964183926582336,-0.15775391459465027,-0.44271981716156006,0.9803339662304128,-0.05374218280280486,0.1735210213558349,-0.0771198783304961
1681250210610610200,0.891610107421875,-1.5945035219192505,1.2723296880722046,0.9907496571540833,0.352060467004776,0.14902456104755402,-0.9240373969078064,0.10104924440383911,-0.13925893604755402,-0.4670453667640686,0.9784062680497292,-0.06318396921525057,0.18436129625865316,-0.06884681110620364
1681250210625643300,0.906643310546875,-1.6163254976272583,1.3053313493728638,1.1685670614242554,0.372249960899353,0.1654127538204193,-0.9132735133171082,0.09592017531394958,-0.1457441747188568,-0.47344523668289185,0.9762817293337384,-0.07287689118224822,0.19506969925573367,-0.059250619843742344
1681250210640676400,0.92167626953125,-1.6855173110961914,1.3965210914611816,1.267075777053833,0.3939369320869446,0.18085028231143951,-0.9011697173118591,0.030715137720108032,-0.12947392463684082,-0.47178560495376587,0.9737674327535147,-0.08256064826103778,0.20639497100189544,-0.048597442737023135
1681250210655709200,0.936709228515625,-1.6532963514328003,1.316030502319336,1.3842666149139404,0.41613683104515076,0.19544029235839844,-0.8880502581596375,-0.026610523462295532,-0.12369346618652344,-0.46647244691848755,0.9708992163201353,-0.09231512359440912,0.217836641941907,-0.0371446601759473
1681250210670742300,0.9517421875,-1.609462857246399,1.0495685338974,1.433492660522461,0.4362795650959015,0.2079312801361084,-0.8754568696022034,-0.036392539739608765,-0.1663053184747696,-0.43528836965560913,0.9680425209331989,-0.10152512750025357,0.22795662666363148,-0.02493895375037457
1681250210685775000,0.966775146484375,-1.5566562414169312,0.6646958589553833,1.3973370790481567,0.4519861340522766,0.2191370576620102,-0.8646892309188843,-0.05312144756317139,-0.1801356077194214,-0.4324299097061157,0.9654981395546617,-0.11041993085436022,0.23550548598319246,-0.012561468332084587
1681250210700808000,0.981807861328125,-1.6933937072753906,0.4063554108142853,1.2883237600326538,0.46328869462013245,0.2308359593153,-0.8556157946586609,-0.09590286016464233,-0.227997824549675,-0.3627222180366516,0.9632278236142972,-0.11974167344818706,0.24052866425492675,-0.00033037972185973735
1681250210715841000,0.996841064453125,-1.9996771812438965,0.25769802927970886,1.2118263244628906,0.47184786200523376,0.24579335749149323,-0.8467261791229248,-0.17631569504737854,-0.26456165313720703,-0.2976219654083252,0.9608482200589091,-0.13084047884018335,0.2439624635862733,0.011563925294801531
1681250210730874000,1.0118740234375,-2.0712697505950928,0.0048356689512729645,1.2996139526367188,0.4783855080604553,0.262830525636673,-0.8378945589065552,-0.31522336602211,-0.18325597047805786,-0.16932278871536255,0.9583095305974457,-0.14336638431166523,0.24596501022497153,0.024288430516780556
1681250210745907000,1.026906982421875,-2.076561212539673,-0.31633302569389343,1.3197368383407593,0.48172610998153687,0.27949610352516174,-0.8305551409721375,-0.36699530482292175,-0.11520472168922424,-0.12894803285598755,0.9559562745615674,-0.15589319142239033,0.24580427281124406,0.03774964895930853
1681250210760940000,1.04193994140625,-1.812083125114441,-0.4759386479854584,1.3141602277755737,0.4821503162384033,0.2945728003978729,-0.8250805735588074,-0.5033143162727356,0.038557082414627075,-0.0336688756942749,0.9538909857492899,-0.16751447127501384,0.2437183260764506,0.05130571651153964
1681250210775973000,1.05697314453125,-1.2974761724472046,-0.513874351978302,1.194769024848938,0.4816574156284332,0.3046537935733795,-0.8217008113861084,-0.5628800392150879,0.0740388035774231,-0.0027163028717041016,0.9522446160192396,-0.1761391531716075,0.24109044421358755,0.06387918730710851
1681250210791006200,1.072006103515625,-0.9545784592628479,-0.5177170038223267,0.9133736491203308,0.4800974726676941,0.3106361925601959,-0.8203728199005127,-0.6753795146942139,0.004961341619491577,0.028258562088012695,0.9511514074875782,-0.18186296086964723,0.23820047080593754,0.07414388150134997
1681250210806040000,1.0870400390625,-0.8409165740013123,-0.5484434962272644,0.6199835538864136,0.47712624073028564,0.31603822112083435,-0.8200429081916809,-0.7099754810333252,-0.05706608295440674,0.07904559373855591,0.9504280907248422,-0.1865057926339258,0.23493433800224228,0.08190050613892859
1681250210821073200,1.1020732421875,-0.9095094799995422,-0.6317868828773499,0.3685012757778168,0.4722394049167633,0.32320737838745117,-0.8200773596763611,-0.713374137878418,-0.14055967330932617,0.17791122198104858,0.9499136587174769,-0.19145616215931044,0.23088059333827932,0.08776459171166182
1681250210836106000,1.11710595703125,-1.0489238500595093,-0.7452218532562256,0.1096058040857315,0.4649413824081421,0.3334784507751465,-0.8201351165771484,-0.6932128667831421,-0.16840890049934387,0.22383689880371094,0.9495121718379953,-0.19750876354536992,0.22566064363302907,0.092163818629513
1681250210851139000,1.13213916015625,-1.2729192972183228,-0.8419470191001892,-0.22493304312229156,0.4549127221107483,0.3480916917324066,-0.8196868896484375,-0.6421076059341431,-0.15316066145896912,0.2819976806640625,0.9491218717985785,-0.20529082136904864,0.21911693749551933,0.09492722728566118
1681250210866172200,1.147172119140625,-1.2562458515167236,-0.9764339923858643,-0.6249435544013977,0.44146671891212463,0.3668743968009949,-0.8188469409942627,-0.6051020622253418,-0.12146729230880737,0.3257286548614502,0.9488489856434247,-0.2145548321330898,0.21105157110263295,0.09544083329637663
1681250210881205000,1.162205078125,-0.9117560386657715,-1.1030992269515991,-1.0712730884552002,0.42381465435028076,0.3859884738922119,-0.81938636302948,-0.5430468320846558,-0.030687600374221802,0.32408607006073,0.9492468765641802,-0.22301740241973153,0.20142010676266106,0.09286231756263333
1681250210896238000,1.177238037109375,-0.4150543808937073,-1.1972190141677856,-1.5867867469787598,0.4017939567565918,0.40251225233078003,-0.822523832321167,-0.4917140603065491,0.03485038876533508,0.270979642868042,0.9506881178049444,-0.22899723917388362,0.1905212551038428,0.08633591556221808
1681250210911271200,1.192271240234375,0.426276296377182,-1.3259745836257935,-2.0736987590789795,0.37489405274391174,0.41363289952278137,-0.8296759724617004,-0.4102639853954315,0.22264331579208374,0.16056281328201294,0.9534927932430917,-0.23101019125558456,0.17831515050619634,0.07542880417812538
1681250210926304000,1.207303955078125,1.579114317893982,-1.325107216835022,-2.45430588722229,0.3437083065509796,0.41335055232048035,-0.8432116508483887,-0.3716777265071869,0.35145044326782227,0.08549070358276367,0.9581189212041702,-0.22607360300304155,0.16518138861326756,0.060116463207255375
1681250210941337000,1.222337158203125,2.320132255554199,-0.858025074005127,-2.531921625137329,0.31381914019584656,0.4001504182815552,-0.8610442280769348,-0.42357563972473145,0.6975668668746948,-0.2622773051261902,0.963749831205808,-0.21418931342496186,0.15362556443408099,0.04133237152399834
1681250210956370200,1.2373701171875,2.463265895843506,-0.15082129836082458,-2.2959165573120117,0.293229877948761,0.3794213831424713,-0.8775281310081482,-0.47146785259246826,0.8288000822067261,-0.4970751404762268,0.9686533248743284,-0.19915338380229608,0.14688046050170678,0.021785711481787432
1681250210971403000,1.252403076171875,2.2448606491088867,0.22881576418876648,-2.3467938899993896,0.28131303191185,0.35739898681640625,-0.8905778527259827,-0.43788352608680725,0.6158370971679688,-0.8621534705162048,0.9722567152617456,-0.18415120733201332,0.14422000031625756,0.0023766189777445733
1681250210986436000,1.26743603515625,1.6158455610275269,0.4327617287635803,-2.7122950553894043,0.27259406447410583,0.34169870615005493,-0.8994078636169434,-0.3200031518936157,0.46510976552963257,-0.9274659156799316,0.9743524745230453,-0.17263273785651007,0.14315730604116078,-0.018470690599074257
1681250211001469200,1.28246923828125,0.9674646258354187,0.6054413318634033,-3.1123640537261963,0.26479268074035645,0.33624300360679626,-0.9037839770317078,-0.09882286190986633,0.43392911553382874,-0.8277071118354797,0.9747416938511553,-0.166304786777463,0.14300606477972708,-0.04207719169954274
1681250211016502000,1.297501953125,0.6251871585845947,0.5898623466491699,-2.8599090576171875,0.25773876905441284,0.337697833776474,-0.9052794575691223,0.02190902829170227,0.4610539972782135,-0.7370087504386902,0.9738025274173279,-0.1636796739389944,0.14341980295063303,-0.06594089531061176
1681250211031535000,1.31253515625,0.7058145999908447,0.21956634521484375,-2.1743922233581543,0.2504960596561432,0.33871370553970337,-0.906931459903717,0.30237558484077454,0.5837410688400269,-0.620229184627533,0.9726971842992023,-0.1615295533098037,0.142977141501085,-0.08559071560418133
1681250211046569200,1.3275693359375,0.8765670657157898,-0.4642772078514099,-1.8138902187347412,0.23905496299266815,0.3348885178565979,-0.9114287495613098,0.43695512413978577,0.6182364821434021,-0.5931183695793152,0.9724092994234106,-0.15777892284869566,0.13925312164741982,-0.10066962728483765
1681250211061602000,1.34260205078125,0.897170901298523,-0.9458449482917786,-1.7716491222381592,0.21989388763904572,0.3288455009460449,-0.918426513671875,0.4967503547668457,0.4745907485485077,-0.4808807373046875,0.9727735242333919,-0.1537161703631921,0.1309888506800696,-0.11368705845733713
1681250211076635100,1.35763525390625,1.006550669670105,-0.8255472779273987,-2.0015993118286133,0.19786995649337769,0.32167497277259827,-0.9259442090988159,0.41617417335510254,0.32187968492507935,-0.3811084032058716,0.9730310692371181,-0.1494480756093687,0.12121539397991551,-0.12721049450693372
1681250211091668200,1.372668212890625,1.102635145187378,-0.28983190655708313,-2.25422739982605,0.17960309982299805,0.3128044605255127,-0.93268221616745,0.11885879933834076,0.0748603343963623,-0.22840481996536255,0.9725478948979099,-0.14410403525631083,0.11354701369632315,-0.14314909368880663
1681250211106701000,1.387701171875,0.9292367696762085,0.2774142026901245,-2.2508134841918945,0.16908809542655945,0.30422303080558777,-0.9374740123748779,0.013880014419555664,0.04567626118659973,-0.16346287727355957,0.9710406444210565,-0.13845063553177714,0.10997459244949279,-0.16067643846771423
1681250211121734100,1.402734130859375,0.6023876070976257,0.5921697020530701,-1.898462176322937,0.16611017286777496,0.2986144721508026,-0.9398068189620972,-0.009661838412284851,0.09175112843513489,0.022723019123077393,0.9687909124463931,-0.13397457718413772,0.1102153251576272,-0.17705239124191913
1681250211136767200,1.417767333984375,0.19435402750968933,0.532171368598938,-1.4933141469955444,0.16680854558944702,0.29710277915000916,-0.9401621222496033,0.05909779667854309,0.09913745522499084,0.12007850408554077,0.9663838488333436,-0.1316308832650194,0.11221517014280605,-0.19021869657317927
1681250211151800000,1.432800048828125,-0.1712600141763687,0.2894993722438812,-1.2804162502288818,0.16649408638477325,0.3004491329193115,-0.9391539096832275,0.16982485353946686,0.015056818723678589,0.30626511573791504,0.9640203713725669,-0.13214003584076636,0.11385107622044441,-0.20060317391521384
1681250211166833200,1.447833251953125,-0.4057331383228302,0.12222354859113693,-1.1686782836914062,0.16362892091274261,0.30780425667762756,-0.9372737407684326,0.1706911027431488,-0.04573458433151245,0.3893154263496399,0.9616635388118754,-0.1351091675965376,0.11449292425372311,-0.20938039505141734
1681250211181866200,1.4628662109375,-0.4094686508178711,0.13729490339756012,-1.046478509902954,0.16005530953407288,0.3163890540599823,-0.9350295662879944,0.09404927492141724,-0.1277599334716797,0.5540938973426819,0.9593490228893253,-0.13889597289338745,0.11486136804620266,-0.21717322178763013
1681250211196899000,1.477899169921875,-0.3422166407108307,0.3667891025543213,-0.7851247191429138,0.15890394151210785,0.3240233063697815,-0.9326083660125732,0.04878340661525726,-0.16356191039085388,0.6306827068328857,0.9571966650806941,-0.14208473326005594,0.11622277306781685,-0.22378249917590248
1681250211211932200,1.49293212890625,-0.1902942806482315,0.49892956018447876,-0.4858860671520233,0.16214439272880554,0.3292565643787384,-0.9302146434783936,-0.06419827044010162,-0.2174706757068634,0.7551963329315186,0.9554410287082221,-0.143779625558556,0.11924803020843965,-0.22855994284285272
1681250211226965200,1.50796533203125,-0.05378148332238197,0.4543892443180084,-0.3019913136959076,0.16693833470344543,0.33181220293045044,-0.9284569025039673,-0.07349355518817902,-0.24347907304763794,0.7956138849258423,0.9542122727799494,-0.14412124233997828,0.12247697811628412,-0.23174838147585203
1681250211241998000,1.522998046875,0.03570355102419853,0.38369858264923096,-0.1841946691274643,0.17131614685058594,0.33272403478622437,-0.9273324608802795,0.006662324070930481,-0.22336432337760925,0.7777047753334045,0.953386613781617,-0.14379449109597914,0.1251275976724849,-0.2339234343420512
1681250211257031200,1.53803125,0.40696898102760315,0.28824982047080994,-0.05315541848540306,0.1753869652748108,0.33003702759742737,-0.9275316596031189,0.05003109574317932,-0.18066877126693726,0.7704424262046814,0.9530881929659508,-0.14177583472224223,0.12701883719513615,-0.23534806538694036
1681250211272064300,1.553064208984375,0.7900412082672119,0.24225887656211853,0.125671848654747,0.1790524423122406,0.32145872712135315,-0.9298411011695862,0.12259851396083832,-0.13322633504867554,0.6091623902320862,0.9535384077721908,-0.13693926142489962,0.12777746362450665,-0.2359768503089535
1681250211287098000,1.56809814453125,1.0538158416748047,0.29776421189308167,0.4379535913467407,0.1840394139289856,0.30757221579551697,-0.9335570931434631,0.15221849083900452,-0.11644062399864197,0.5576568245887756,0.954704391686688,-0.12947889727022216,0.1282835599344854,-0.2351979749881146
1681250211302131200,1.583131103515625,1.1889922618865967,0.3294348120689392,0.8519163727760315,0.19134633243083954,0.29003071784973145,-0.9376932978630066,0.23655582964420319,-0.13872459530830383,0.45041918754577637,0.9565707732211253,-0.12026912137291376,0.12918467589360352,-0.23198902770092195
1681250211317164300,1.598164306640625,1.1355570554733276,0.3944478929042816,1.3047810792922974,0.20080626010894775,0.2700868248939514,-0.941663384437561,0.28463679552078247,-0.13716751337051392,0.40829241275787354,0.9591199211061873,-0.1100770041705828,0.13058083443605262,-0.2256560926030271
1681250211332197000,1.613197021484375,0.8143808841705322,0.46884623169898987,1.8002896308898926,0.21303574740886688,0.2514605224132538,-0.9441310167312622,0.39595773816108704,-0.004588574171066284,0.2773524522781372,0.962017615550116,-0.10077892341616074,0.13333453733275982,-0.2158417447350052
1681250211347230200,1.628230224609375,0.7791767120361328,0.49186471104621887,2.440631628036499,0.2276892215013504,0.23336513340473175,-0.9453561902046204,0.4434075355529785,0.12880222499370575,0.21207982301712036,0.9654064734504386,-0.09220701957621212,0.13718516751749307,-0.20166401373690612
1681250211362263300,1.64326318359375,0.8245096206665039,0.4835098683834076,3.0093398094177246,0.24360570311546326,0.21218231320381165,-0.9463798999786377,0.5175179243087769,0.28189727663993835,-0.1238715648651123,0.9694010737295786,-0.08278692076407837,0.14126701542238732,-0.18289777956882222
1681250211377296100,1.658296142578125,0.5547907948493958,0.7126767039299011,3.272153615951538,0.26149415969848633,0.18979670107364655,-0.9463604092597961,0.5029406547546387,0.27983832359313965,-0.30475348234176636,0.9732866765471034,-0.07328995218316178,0.14645265826347884,-0.16091356802664827
1681250211392329200,1.6733291015625,-0.12009914964437485,0.9541191458702087,3.299070358276367,0.28241294622421265,0.17301291227340698,-0.9435620903968811,0.4831357002258301,0.13608434796333313,-0.6936448812484741,0.9761614871382587,-0.06692536856200554,0.15407769488334375,-0.13744034509764985
1681250211407362300,1.6883623046875,-0.8336731195449829,0.8316318392753601,3.2639336585998535,0.30384212732315063,0.16537494957447052,-0.9382596015930176,0.4982360899448395,0.07641582190990448,-0.8529086112976074,0.9779081371878542,-0.06568335134213286,0.16295978665859476,-0.11324998544894258
1681250211422395100,1.70339501953125,-1.2408064603805542,0.3613447844982147,3.273172616958618,0.3205774426460266,0.16518400609493256,-0.9327080845832825,0.5751439332962036,0.07355500757694244,-0.9390265345573425,0.9790721907705872,-0.06905645715412399,0.16993283826822564,-0.08815686209968436
1681250211437428200,1.71842822265625,-1.259926676750183,-0.15675482153892517,3.126659631729126,0.3297440707683563,0.16715461015701294,-0.9291545748710632,0.5544264316558838,0.10538262128829956,-0.7974079251289368,0.9801092469532033,-0.07416259658398892,0.17298158502061847,-0.0629538593691025
1681250211452461300,1.73346142578125,-1.3190093040466309,-0.2631446421146393,3.090512275695801,0.33424919843673706,0.1694616973400116,-0.9271246790885925,0.36692264676094055,0.1172204315662384,-0.48431330919265747,0.9808707783463361,-0.07963759804553827,0.173480570511251,-0.03814061778654026
1681250211467494100,1.748494140625,-1.585681438446045,-0.35972949862480164,2.686173677444458,0.33759182691574097,0.17484354972839355,-0.924911618232727,0.22452667355537415,0.08821797370910645,-0.38005053997039795,0.9809383368525489,-0.08652551400261063,0.17337109586644364,-0.014682839920358045
1681250211482527200,1.76352734375,-1.7210279703140259,-0.6799834370613098,2.168977975845337,0.3372255563735962,0.18581046164035797,-0.9229048490524292,-0.002936065196990967,0.008952736854553223,-0.1257401704788208,0.9805199238026208,-0.09575390999019336,0.1714023442506609,0.00573730748041596
1681250211497561300,1.778561279296875,-1.7415518760681152,-1.0677154064178467,1.8413963317871094,0.3306300640106201,0.19981151819229126,-0.9223660230636597,-0.0834987461566925,-0.01379162073135376,-0.015164494514465332,0.9801243331943494,-0.10586783539842945,0.16615952329939146,0.02321794905215407
1681250211512594200,1.79359423828125,-1.7573691606521606,-1.2305525541305542,1.7371362447738647,0.31996139883995056,0.21546608209609985,-0.922604501247406,-0.27568042278289795,-0.026104509830474854,0.163327157497406,0.9796674064640568,-0.11635178645142463,0.15861907306431888,0.03942156095014038
1681250211527627300,1.808627197265625,-1.5875978469848633,-1.1777210235595703,1.6870360374450684,0.30892109870910645,0.23081853985786438,-0.9226540923118591,-0.39191368222236633,-0.03318670392036438,0.23083585500717163,0.9789213821155254,-0.12638045372690443,0.1506682976840882,0.05513609246056978
1681250211542660400,1.823660400390625,-1.197800636291504,-0.9170827865600586,1.424565315246582,0.2996998727321625,0.24301031231880188,-0.9225648641586304,-0.6709157228469849,-0.00791814923286438,0.32921159267425537,0.977996787890381,-0.1344231804166253,0.1436940000582354,0.06931590628869998
1681250211557693200,1.838693115234375,-0.7572317123413086,-0.47890594601631165,1.0284035205841064,0.29445958137512207,0.2511846423149109,-0.9220628142356873,-0.8093216419219971,0.015508472919464111,0.32748883962631226,0.9770447512090557,-0.13995531532957847,0.13921602773378694,0.08009342996770454
1681250211572724500,1.853724365234375,-0.2900943458080292,-0.13724637031555176,0.6677204370498657,0.29355183243751526,0.25483381748199463,-0.9213506579399109,-0.9458193778991699,0.04654249548912048,0.3937627673149109,0.9762603157504821,-0.14279562140644947,0.13760116990076993,0.08712705586350904
1681250211587757600,1.868757568359375,0.06900307536125183,-0.1484377682209015,0.31380316615104675,0.2938080430030823,0.25404325127601624,-0.9214872717857361,-0.919784665107727,0.03739959001541138,0.46654653549194336,0.9759452497895375,-0.1429404162333012,0.13720199353884574,0.09096364498278481
1681250211602790700,1.883790771484375,0.27265846729278564,-0.3459465801715851,-0.04585143178701401,0.29092761874198914,0.25096651911735535,-0.9232426285743713,-0.7904393672943115,0.012796908617019653,0.5668736100196838,0.9762949618833484,-0.14131937009531964,0.1356743381441803,0.0920301132193194
1681250211617823500,1.898823486328125,0.35987886786460876,-0.4914952516555786,-0.44310715794563293,0.28413692116737366,0.24751117825508118,-0.9262852668762207,-0.726641833782196,0.022233694791793823,0.5756077766418457,0.977228916255828,-0.1388951814827263,0.13253485612874166,0.09036714893005122
1681250211632856600,1.913856689453125,0.38491055369377136,-0.6383606195449829,-0.8685882091522217,0.27390119433403015,0.24501508474349976,-0.9300245642662048,-0.6294004917144775,0.10026079416275024,0.5260787010192871,0.9785990032033424,-0.13640431701824038,0.1279904904963179,0.08576875626810132
1681250211647889700,1.9288896484375,0.43802082538604736,-0.859736979007721,-1.2753173112869263,0.2594974935054779,0.24371080100536346,-0.9344870448112488,-0.5705784559249878,0.14651745557785034,0.5192344188690186,0.9803686275292711,-0.1340036965167494,0.1216530807410371,0.07823575981884201
1681250211662922500,1.943922607421875,0.6593968272209167,-1.0822041034698486,-1.6388529539108276,0.24030132591724396,0.24147525429725647,-0.9401834607124329,-0.46208786964416504,0.16448481380939484,0.5013102293014526,0.9825859044871028,-0.13070809157807275,0.11324158522135111,0.0679458828105624
1681250211677955600,1.95895556640625,0.8963657021522522,-1.2706592082977295,-1.9475340843200684,0.21721675992012024,0.23671120405197144,-0.9469871520996094,-0.4133532643318176,0.16453391313552856,0.4427909851074219,0.9851126729971609,-0.12592620052036774,0.10319404397519064,0.05519595718286021
1681250211692988700,1.97398876953125,1.3735350370407104,-1.5565524101257324,-2.3976666927337646,0.1894576996564865,0.2274787276983261,-0.95517498254776,-0.3792160153388977,0.3147576153278351,0.282537043094635,0.9879306481145128,-0.11879502575207938,0.09110577814294886,0.03975471741840382
1681250211708021800,1.989021728515625,1.8923441171646118,-1.479310154914856,-3.073908805847168,0.1578996479511261,0.2109188437461853,-0.9646662473678589,-0.381425678730011,0.4900241494178772,0.10852611064910889,0.9909313906456186,-0.1079654570754204,0.07752642771955945,0.01969568436091529
1681250211723055600,2.0040556640625,2.1608591079711914,-0.7142468690872192,-3.3484392166137695,0.1316203624010086,0.1878383606672287,-0.9733410477638245,-0.5747814178466797,0.9037296772003174,-0.39442628622055054,0.9933006627230276,-0.09422100170507595,0.06672232484448135,-0.004936789345344847
1681250211738088700,2.019088623046875,2.2933170795440674,0.1745288223028183,-3.0293045043945312,0.1197311282157898,0.16132010519504547,-0.9796122908592224,-0.6731979250907898,1.0677295923233032,-0.6645832657814026,0.9944475216358079,-0.07924370813684087,0.0625641900492291,-0.029671006826632373
1681250211753121500,2.03412158203125,2.1592187881469727,0.628562867641449,-3.091954231262207,0.11935476958751678,0.13307926058769226,-0.9838924407958984,-0.579620897769928,0.8959582448005676,-0.9414920806884766,0.9945216145063702,-0.06348772037483087,0.0634277993782545,-0.05359988173444185
1681250211768154600,2.049154541015625,1.4149622917175293,0.8159993886947632,-3.531558036804199,0.12421829998493195,0.11207111179828644,-0.9859055876731873,-0.427547812461853,0.7339066863059998,-1.0029706954956055,0.99330276861224,-0.05108962379294882,0.06661113846218768,-0.07938749657841497
1681250211783187700,2.064187744140625,0.28477659821510315,0.8760499358177185,-3.8373641967773438,0.13084064424037933,0.10657067596912384,-0.9856588840484619,-0.06504477560520172,0.7021604180335999,-1.0554940700531006,0.9905427258257837,-0.046049063330597155,0.07106368184551715,-0.10795631928053456
1681250211798220500,2.079220458984375,-0.8687564134597778,0.5961122512817383,-3.368821859359741,0.13605022430419922,0.11826413124799728,-0.9836177825927734,0.1330995261669159,0.7504187226295471,-0.9769535064697266,0.9866746871322913,-0.04955228387348876,0.07573429312379318,-0.13521061044046084
1681250211813253600,2.094253662109375,-1.7884467840194702,-0.11036229133605957,-2.6921420097351074,0.13358578085899353,0.1447005420923233,-0.9804165363311768,0.5003863573074341,0.7125687599182129,-0.7844760417938232,0.9826545110551087,-0.06121907729704738,0.07774288000944359,-0.15683841759167913
1681250211828286700,2.10928662109375,-2.3159360885620117,-0.6447545886039734,-2.3824620246887207,0.121107317507267,0.18008603155612946,-0.9761670231819153,0.5961167812347412,0.5875378847122192,-0.7047869563102722,0.978706965137623,-0.07853573381892079,0.07581974919474889,-0.1738273373317007
1681250211843319600,2.124319580078125,-2.209886312484741,-0.7037726640701294,-2.4470560550689697,0.10353069752454758,0.2180648148059845,-0.9704272747039795,0.48037734627723694,0.3967728018760681,-0.5123912692070007,0.9742771189369335,-0.09785320242586878,0.07218798057073021,-0.18973060701202293
1681250211858352600,2.1393525390625,-1.6826181411743164,-0.33724814653396606,-2.409677267074585,0.08669398725032806,0.25010186433792114,-0.9643304347991943,0.34744906425476074,0.34703555703163147,-0.37117981910705566,0.9693834237556755,-0.11432926069726929,0.06901884481407437,-0.20606037943715924
1681250211873385700,2.1543857421875,-0.8932374119758606,0.31397274136543274,-2.3500776290893555,0.07721460610628128,0.2717350125312805,-0.9592695236206055,0.12769564986228943,0.298836886882782,-0.09721851348876953,0.9643899937579937,-0.12497735999899073,0.0688905408059129,-0.2226806802666383
1681250211888418600,2.16941845703125,-0.1964266300201416,0.7132841944694519,-2.1881937980651855,0.07544095814228058,0.28187257051467896,-0.9564813375473022,0.046659842133522034,0.22787779569625854,0.044921278953552246,0.9596426303501708,-0.12902456102844106,0.07149827698455523,-0.23942971681750297
1681250211903451600,2.18445166015625,0.03800569474697113,0.8981456160545349,-1.9756791591644287,0.07834283262491226,0.28485435247421265,-0.9553639888763428,0.04444460570812225,0.10625889897346497,0.36899930238723755,0.9552939097711475,-0.12894347619677363,0.07544253506711768,-0.25513798182530356
1681250211918484700,2.199484619140625,-0.03963450714945793,0.8978316187858582,-1.8240147829055786,0.08323284238576889,0.2870429456233978,-0.9542948603630066,0.10492326319217682,0.041127800941467285,0.5119730830192566,0.9510233930852308,-0.12820085812217002,0.08010694433198623,-0.2696328073596473
1681250211933518600,2.2145185546875,-0.06110198050737381,0.7634895443916321,-1.590200662612915,0.08773606270551682,0.29025936126708984,-0.9529175758361816,0.2307606041431427,-0.12515926361083984,0.7375702857971191,0.946869230592004,-0.12803309903274726,0.0845502488197609,-0.2826612665961298
1681250211948551700,2.2295517578125,0.10663274675607681,0.5833573341369629,-1.392349123954773,0.09086129069328308,0.29196810722351074,-0.9521023035049438,0.27155017852783203,-0.20441323518753052,0.8074185252189636,0.9432614556395112,-0.12740555180376728,0.08784451945271245,-0.2937839227540933
1681250211963584800,2.244584716796875,0.1760735958814621,0.4297829866409302,-1.3767446279525757,0.09201409667730331,0.2916993498802185,-0.9520739912986755,0.2994500994682312,-0.3064393699169159,0.8908252120018005,0.9399664945198601,-0.12612361773453498,0.08975431068849,-0.30413807935975656
1681250211978617600,2.25961767578125,0.240335151553154,0.3034878969192505,-1.2466979026794434,0.09114068001508713,0.29073822498321533,-0.9524518847465515,0.3017731010913849,-0.3132602572441101,0.9401075839996338,0.9368210243291842,-0.12484411389474533,0.09048753162002333,-0.31399384528225127
1681250211993650700,2.274650634765625,0.3900023102760315,0.30821871757507324,-0.955685555934906,0.09059004485607147,0.2877100110054016,-0.9534235000610352,0.34867992997169495,-0.334127277135849,0.9311456680297852,0.9342673689948255,-0.12265843556054762,0.0907918170630335,-0.3222673443829959
1681250212008683800,2.289683837890625,0.4314683973789215,0.24852874875068665,-0.6337964534759521,0.0912107601761818,0.2827746868133545,-0.954839825630188,0.3884645104408264,-0.3284747898578644,0.896093487739563,0.9325104905709231,-0.11956843170482265,0.09101365438686447,-0.32839610753493625
1681250212023716600,2.304716552734375,0.33545243740081787,0.13434413075447083,-0.2391098439693451,0.0920952558517456,0.2778133749961853,-0.9562103152275085,0.5239936113357544,-0.2758297622203827,0.820513904094696,0.9316071425362397,-0.11667398719826928,0.09100560772998977,-0.33198357241873866
1681250212038749400,2.31974951171875,0.27553531527519226,-0.15955966711044312,0.48851290345191956,0.092401884496212,0.27333277463912964,-0.9574711918830872,0.58005291223526,-0.272691935300827,0.7928135991096497,0.932124496995978,-0.11451037964764303,0.0902872049091725,-0.33148063800041666
1681250212053782500,2.334782470703125,0.08374585956335068,-0.2122630923986435,1.0068066120147705,0.09255624562501907,0.26953959465026855,-0.9585310220718384,0.6581150889396667,-0.31847456097602844,0.8047834634780884,0.9343727208958313,-0.11318997239229696,0.08900851180500521,-0.32590345556152484
1681250212068815400,2.3498154296875,-0.3500005304813385,-0.019551429897546768,1.125348687171936,0.09509875625371933,0.26951128244400024,-0.9582901000976562,0.6465241312980652,-0.34221944212913513,0.8013839721679688,0.9369788464003774,-0.11350272778024871,0.0892865439718288,-0.3181441257611428
1681250212083848400,2.364848388671875,-0.864289402961731,0.17438022792339325,1.4558597803115845,0.10150334984064102,0.2767477035522461,-0.9555667042732239,0.5922985076904297,-0.3518209755420685,0.5449679493904114,0.939319019874827,-0.11689336089563043,0.09248013585715538,-0.3089711587025882
1681250212098881500,2.379881591796875,-0.5945402383804321,0.4209982752799988,2.3190114498138428,0.11330375075340271,0.2854045033454895,-0.9516861438751221,0.5935291051864624,-0.251087486743927,0.27993321418762207,0.9426323410360896,-0.12069391132416721,0.09792807765149046,-0.295444062816616
1681250212113914400,2.394914306640625,0.5202659368515015,1.0524097681045532,3.1409354209899902,0.13526828587055206,0.28125688433647156,-0.9500510692596436,0.46438682079315186,0.24805521965026855,-0.42943495512008667,0.9479257559673343,-0.11753871554891461,0.10563668416286057,-0.2765181869947371
1681250212128947500,2.409947509765625,1.8334906101226807,2.1584672927856445,3.444262981414795,0.17136169970035553,0.2567472457885742,-0.9511656165122986,0.2829381823539734,0.5832185745239258,-0.7357545495033264,0.9542914767536685,-0.10319620029499123,0.1173359879930731,-0.25477572851077346
1681250212143981600,2.424981689453125,2.2595887184143066,2.668617010116577,2.965534210205078,0.21889157593250275,0.2160104513168335,-0.9515387415885925,0.10628844797611237,0.942452073097229,-1.2834465503692627,0.9593514293051802,-0.07978441371631158,0.13366031690879157,-0.23540221394825706
1681250212159014400,2.440014404296875,1.207237958908081,2.1631569862365723,2.667323589324951,0.2624925374984741,0.18045645952224731,-0.9479098916053772,0.1768384873867035,0.8749634623527527,-1.5276455879211426,0.9624136086560803,-0.05972324348267401,0.14992729372030836,-0.21843765138417368
1681250212174047500,2.455047607421875,-0.07212080806493759,1.0702424049377441,2.7772977352142334,0.2927583158016205,0.16122953593730927,-0.9424954056739807,0.6255918741226196,0.49280792474746704,-1.256113052368164,0.9649779317763463,-0.049927255145731556,0.16204801550745124,-0.2001633323958348
1681250212189080600,2.47008056640625,-1.070690631866455,0.05409642308950424,2.7650301456451416,0.30678507685661316,0.15680333971977234,-0.9387734532356262,0.7183003425598145,0.28709009289741516,-0.9769369959831238,0.9681137201490226,-0.04992947353922772,0.16769111352101643,-0.17928357362206546
1681250212204113400,2.485113525390625,-1.825677514076233,-0.5245360732078552,2.422849655151367,0.30951938033103943,0.16576005518436432,-0.9363340139389038,0.4518483579158783,0.06150434911251068,-0.5816866159439087,0.9711476347785511,-0.057841131875146744,0.16878212491868202,-0.15823802734681303
1681250212219146500,2.500146484375,-1.9629418849945068,-0.9167437553405762,2.0503454208374023,0.30505529046058655,0.1827109009027481,-0.9346432685852051,0.21137836575508118,0.05071805417537689,-0.4519382119178772,0.9736233580805823,-0.07000005882634662,0.1666684487269347,-0.1392090700051662
1681250212234179600,2.5151796875,-1.710030198097229,-1.192605972290039,1.8036491870880127,0.2956736087799072,0.2000385820865631,-0.9341101050376892,-0.1982157826423645,0.2366832196712494,-0.2606073021888733,0.9757673430031517,-0.08223907199742556,0.16180755542065225,-0.12220127716589975
1681250212249212400,2.53021240234375,-1.3361057043075562,-1.238433599472046,1.582661747932434,0.283318430185318,0.21399708092212677,-0.9348453879356384,-0.3742303252220154,0.3291700482368469,-0.15843158960342407,0.9777241677053513,-0.09244997107800597,0.1550171046358851,-0.10713637998597098
1681250212264245500,2.54524560546875,-0.8343974947929382,-0.7711111903190613,1.3303027153015137,0.27350541949272156,0.22349123656749725,-0.9355461001396179,-0.754370927810669,0.35431331396102905,0.010237812995910645,0.9792165415252893,-0.09973013765327307,0.14926776039943193,-0.09438219663008696
1681250212279278600,2.560278564453125,-0.1788555532693863,-0.015661349520087242,1.0892714262008667,0.27191829681396484,0.2257636934518814,-0.9354630708694458,-0.9725256562232971,0.31009441614151,0.046974360942840576,0.9800847869831342,-0.10243033837586782,0.14756856051739875,-0.08464830840900292
1681250212294311400,2.5753115234375,0.44008585810661316,0.6636604070663452,0.8579721450805664,0.28002065420150757,0.21978366374969482,-0.9344964027404785,-1.2737035751342773,0.2598916292190552,0.09489685297012329,0.9804024332044861,-0.10011887712637187,0.15075808743422253,-0.07784021106020016
1681250212309344500,2.590344482421875,0.8657374382019043,0.9452921152114868,0.4962126314640045,0.29398903250694275,0.20748451352119446,-0.9330169558525085,-1.3054178953170776,0.26981040835380554,0.15854185819625854,0.9803114993294101,-0.09394704701349396,0.1570524853621939,-0.07414647424298733
1681250212324377600,2.605377685546875,1.0678175687789917,0.8457626104354858,0.011712795123457909,0.3076685070991516,0.19250647723674774,-0.9318161606788635,-1.1405390501022339,0.20437462627887726,0.3737106919288635,0.9800127319179482,-0.08586562504098576,0.1634595350684259,-0.074047884420626
1681250212339410400,2.620410400390625,0.9796599745750427,0.46356889605522156,-0.5261887907981873,0.3161751925945282,0.17918936908245087,-0.9316245913505554,-1.034147024154663,0.14206919074058533,0.4790641665458679,0.9796848801571519,-0.07817136625812408,0.16756173744861877,-0.07765124083426998
1681250212354444500,2.635444580078125,0.7744992971420288,0.11649402230978012,-1.0324196815490723,0.31780871748924255,0.17073388397693634,-0.9326561689376831,-0.9159227609634399,0.04581885039806366,0.6340721845626831,0.9793625022174353,-0.07258726179255776,0.16853188821007725,-0.08471809281737731
1681250212369477600,2.6504775390625,0.6086835861206055,-0.04834552854299545,-1.459664225578308,0.3149735927581787,0.16721826791763306,-0.9342535138130188,-0.8988054394721985,0.04977695643901825,0.6420172452926636,0.9788472785134965,-0.06918723528790499,0.16758984851727537,-0.09478733648312304
1681250212384510500,2.665510498046875,0.7478589415550232,-0.17829260230064392,-1.8649579286575317,0.3091764748096466,0.16589237749576569,-0.9364238381385803,-0.8599730134010315,0.133622407913208,0.5796886086463928,0.9780587999199695,-0.06658394644758368,0.1653924223028154,-0.1077629266898774
1681250212399543600,2.68054345703125,1.1154556274414062,-0.2339542657136917,-2.3282501697540283,0.30099934339523315,0.1623717099428177,-0.9396993517875671,-0.8187301158905029,0.18143931031227112,0.5262624621391296,0.97694977878662,-0.0625113267443545,0.16199590143826503,-0.12417246064759095
1681250212414576600,2.69557666015625,1.4619145393371582,-0.3084588646888733,-2.886749744415283,0.2910563349723816,0.1556611806154251,-0.943957507610321,-0.7229564189910889,0.2445768564939499,0.37431639432907104,0.9752171142200672,-0.056428909447616776,0.15759764738336862,-0.1446731650198281
1681250212429609500,2.710609375,1.605159878730774,-0.6021693348884583,-3.456801652908325,0.27763602137565613,0.14722305536270142,-0.9493384957313538,-0.6506524085998535,0.2714475989341736,0.30482250452041626,0.9725768647315031,-0.0492984219433973,0.15132881992453748,-0.16959771053298517
1681250212444642600,2.725642578125,1.6540226936340332,-1.018978476524353,-3.841610908508301,0.25809958577156067,0.13853509724140167,-0.9561342000961304,-0.5148897767066956,0.422393262386322,0.13025224208831787,0.9689821385800115,-0.04252040150791649,0.14186228857897876,-0.1978400072780921
1681250212459675600,2.740675537109375,1.878809928894043,-1.25874662399292,-4.255780220031738,0.23315328359603882,0.12820163369178772,-0.9639522433280945,-0.4699392318725586,0.5954464673995972,0.023736178874969482,0.964227692419608,-0.03580810658374738,0.12938960946645073,-0.22856276789040877
1681250212474708500,2.75570849609375,2.146918773651123,-1.009275197982788,-4.7165350914001465,0.20764124393463135,0.11390680819749832,-0.971550464630127,-0.5927121043205261,0.9808807969093323,-0.29508155584335327,0.9574855784023844,-0.02765466133009748,0.11601712934512803,-0.26267210517072637
1681250212489741600,2.770741455078125,2.489034652709961,-0.24676887691020966,-4.509626388549805,0.19086232781410217,0.09393782168626785,-0.9771116971969604,-0.6943108439445496,1.1301374435424805,-0.46633923053741455,0.9485445529373001,-0.016297736477061297,0.10572861447314015,-0.2980250940132763
1681250212504774700,2.785774658203125,2.6999313831329346,0.6186490058898926,-3.7785215377807617,0.1885012686252594,0.06700674444437027,-0.979784369468689,-0.7060946822166443,1.1512550115585327,-0.8622413873672485,0.9387896271799765,-0.00040166586390661605,0.10053688231385373,-0.32949392972524566
1681250212519807500,2.800807373046875,2.3756659030914307,1.325734257698059,-3.484412431716919,0.20011918246746063,0.03937846049666405,-0.9789798855781555,-0.5923464298248291,1.1982619762420654,-1.0993130207061768,0.9286779049806827,0.01756457854726228,0.10100264646039227,-0.35643686740162456
1681250212534840600,2.815840576171875,1.5820441246032715,2.2261452674865723,-3.8153116703033447,0.22409430146217346,0.021399516612291336,-0.9743325114250183,-0.28613659739494324,1.3889245986938477,-1.472017526626587,0.9168235746553879,0.033521550813968494,0.10821304298131518,-0.3828845867024579
1681250212549874400,2.83087451171875,0.5615878701210022,2.4195878505706787,-3.471818447113037,0.25823289155960083,0.019035179167985916,-0.9658951163291931,-0.1057366132736206,1.3420029878616333,-1.393327236175537,0.9032792167770298,0.044938928473313905,0.12260881382623609,-0.40869810237919135
1681250212564907500,2.845907470703125,-0.6026424765586853,1.3034327030181885,-2.4684698581695557,0.28505027294158936,0.031998686492443085,-0.9579783082008362,0.5662069916725159,0.9230489134788513,-0.8930196166038513,0.8920777528790663,0.04773138320915099,0.13686696651010602,-0.4280028271275439
1681250212579942000,2.86094189453125,-1.1522080898284912,-0.3790954649448395,-1.9953346252441406,0.2903093099594116,0.05482417345046997,-0.9553610682487488,0.9688001871109009,0.7394720911979675,-0.6428444981575012,0.8848268212203145,0.04071316367749103,0.14374246438568913,-0.4413183420244409
1681250212594975000,2.87597509765625,-1.1968544721603394,-1.6886409521102905,-2.0939481258392334,0.2725105285644531,0.08061505109071732,-0.9587696194648743,1.1199607849121094,0.5559206008911133,-0.24881094694137573,0.8794583413570887,0.026939714892668772,0.14102990015376873,-0.45380364558498854
1681250212610008000,2.891008056640625,-1.1100400686264038,-2.040177583694458,-1.9950294494628906,0.24167434871196747,0.10547957569360733,-0.9646074771881104,0.9272709488868713,0.5081220865249634,-0.06873297691345215,0.8744524417795219,0.010438674830187584,0.13261712899099867,-0.4665152415393087
1681250212625041000,2.906041015625,-0.9178891181945801,-1.5880992412567139,-1.7337839603424072,0.2111315131187439,0.12655186653137207,-0.9692306518554688,0.45219850540161133,0.38324427604675293,0.25121307373046875,0.8696917283973696,-0.0046676173948243145,0.12394706788120026,-0.47775669655124553
1681250212640074000,2.921073974609375,-0.6993053555488586,-0.7057761549949646,-1.665419340133667,0.191094309091568,0.14355482161045074,-0.9710174798965454,0.2896032929420471,0.29235824942588806,0.3721405267715454,0.8645170569192177,-0.015655107503473417,0.11935732304210066,-0.48797429082497984
1681250212655107000,2.936107177734375,-0.3953995704650879,-0.23255477845668793,-1.470267653465271,0.18125830590724945,0.15590432286262512,-0.9709991216659546,0.06253133714199066,0.14872212707996368,0.5699676275253296,0.8589573557244649,-0.022174234300689134,0.11835857023041897,-0.49768632595011203
1681250212670140000,2.951139892578125,-0.17342057824134827,-0.1727234125137329,-1.1149420738220215,0.17531928420066833,0.1634959727525711,-0.9708409905433655,0.10420644283294678,0.0919666588306427,0.659576952457428,0.8542094647839886,-0.025876478340515076,0.11794031719684543,-0.5057138691381173
1681250212685173000,2.966173095703125,-0.055392537266016006,-0.13306494057178497,-1.0154050588607788,0.17030715942382812,0.16763423383235931,-0.9710274338722229,0.2748221755027771,-0.0435345321893692,0.8114205002784729,0.8503711587147676,-0.028063742409160684,0.11704153765162537,-0.5122328169146085
1681250212700206000,2.9812060546875,-0.2060917764902115,-0.13550812005996704,-1.1271272897720337,0.16575101017951965,0.17209933698177338,-0.9710347056388855,0.31831878423690796,-0.13920140266418457,0.862010657787323,0.8462937569620865,-0.030253594734443712,0.11647901631892033,-0.5189453183589631
1681250212715239200,2.9962392578125,-0.326990008354187,-0.2682914733886719,-1.1150506734848022,0.15920650959014893,0.1791745275259018,-0.9708500504493713,0.3628576397895813,-0.244848370552063,1.0144901275634766,0.8419304872319432,-0.03405875825008115,0.115823089737581,-0.5259068324693779
1681250212730272000,3.01127197265625,-0.28576117753982544,-0.26219895482063293,-0.8081507086753845,0.15225812792778015,0.1860467940568924,-0.9706719517707825,0.38227248191833496,-0.2654077708721161,1.1023399829864502,0.8381952626633216,-0.038047604062131625,0.11496260716212382,-0.5317561495610712
1681250212745306000,3.02630615234375,-0.1536608338356018,-0.07860835641622543,-0.43641331791877747,0.1479557305574417,0.19082757830619812,-0.9704091548919678,0.3914576768875122,-0.2628796100616455,1.1606252193450928,0.8357855024188963,-0.04073949057187809,0.1146111362894257,-0.5354131587686574
1681250212760339000,3.0413388671875,0.024883873760700226,0.07488665729761124,-0.09263491630554199,0.14713583886623383,0.19243575632572174,-0.9702162146568298,0.414509654045105,-0.24913743138313293,1.128861904144287,0.8346974194998514,-0.04142238079795498,0.114787083681747,-0.5370179447979444
1681250212775372000,3.0563720703125,0.2104761153459549,0.26865720748901367,0.2653520107269287,0.14982764422893524,0.19035720825195312,-0.970214307308197,0.4933302700519562,-0.234317809343338,0.975737988948822,0.8349314357535762,-0.0398584864345597,0.11534360570349815,-0.5366530961136309
1681250212790405000,3.071405029296875,0.3412550985813141,0.4800077974796295,0.7138168215751648,0.15668392181396484,0.18545372784137726,-0.9700809717178345,0.5288629531860352,-0.21960291266441345,0.822055459022522,0.8366038735957534,-0.03628544974903872,0.11680277580665394,-0.5339797172394548
1681250212805438000,3.08643798828125,0.6974866986274719,0.7103075385093689,1.281640887260437,0.16800156235694885,0.17567618191242218,-0.9700068831443787,0.6123939156532288,-0.15487846732139587,0.5242671370506287,0.8401587180914668,-0.029865355036669913,0.1187628664608112,-0.5283339125048471
1681250212820471000,3.101470947265625,1.0522522926330566,0.955885648727417,1.9044184684753418,0.1841771900653839,0.1586458384990692,-0.9700052738189697,0.6117822527885437,-0.08364890515804291,0.2933390140533447,0.8458183912207083,-0.019571666456861484,0.12088964177343704,-0.5192243366583422
1681250212835504000,3.116504150390625,1.1529011726379395,1.3595566749572754,2.5552978515625,0.20569510757923126,0.1357995569705963,-0.9691480994224548,0.5712213516235352,0.10991272330284119,-0.24387985467910767,0.8535042337503875,-0.005997437115360407,0.1240564031124868,-0.5060676866918907
1681250212850537000,3.131536865234375,1.2294862270355225,1.7977588176727295,2.861114978790283,0.2338501513004303,0.10921897739171982,-0.9661186933517456,0.5014098286628723,0.2532688081264496,-0.5098181962966919,0.8622282422171019,0.010325286343955728,0.12974607116322512,-0.48951185826998767
1681250212865570000,3.146570068359375,0.9028367400169373,1.9225412607192993,2.8381996154785156,0.265630841255188,0.0825243890285492,-0.9605363011360168,0.47133809328079224,0.3918866217136383,-1.1105239391326904,0.8705030684259105,0.02726701395434509,0.13779826640156498,-0.47169107684119715
1681250212880603000,3.161602783203125,0.31122109293937683,1.3500486612319946,2.714597225189209,0.2926928699016571,0.062264151871204376,-0.9541771411895752,0.5300304889678955,0.4079812169075012,-1.3228156566619873,0.8782261615139765,0.039966189069729055,0.14599356683093326,-0.4536599172920056
1681250212895636000,3.176635986328125,-0.2275119423866272,0.6123074889183044,2.4626998901367188,0.30864354968070984,0.04959312453866005,-0.9498840570449829,0.7033193111419678,0.20509132742881775,-1.291876196861267,0.8858509161666415,0.046503706247176646,0.1513122230674848,-0.4361307464821378
1681250212910668800,3.191668701171875,-1.0419620275497437,0.16671991348266602,2.150952100753784,0.31555598974227905,0.047725845128297806,-0.9477059841156006,0.6460375785827637,0.06943114101886749,-1.1365835666656494,0.8930351881302628,0.04615197815782076,0.15497420297573583,-0.419929650762276
1681250212925702000,3.206701904296875,-1.7172737121582031,-0.20173189043998718,1.9831880331039429,0.31676632165908813,0.05810924991965294,-0.9467219114303589,0.3238433599472046,0.00013354793190956116,-0.7799474000930786,0.8999156649794207,0.03893542082705117,0.15850259520411628,-0.40436700574707635
1681250212940736000,3.221736083984375,-2.0035390853881836,-0.6926251649856567,1.796080470085144,0.3123351037502289,0.07602885365486145,-0.9469246864318848,0.18359076976776123,-0.00655558705329895,-0.6334280967712402,0.9065422699248712,0.027070549535030918,0.1606388355186989,-0.38941407175642656
1681250212955769000,3.23676904296875,-1.9415291547775269,-1.1762142181396484,1.6193861961364746,0.3010953962802887,0.09645526856184006,-0.9487032890319824,-0.10685107111930847,0.014430351555347443,-0.3507046699523926,0.9128741624802942,0.01283654698868281,0.1596357749692088,-0.37551599867467833
1681250212970802000,3.251802001953125,-1.8508012294769287,-1.4465543031692505,1.3840556144714355,0.2844676375389099,0.11681410670280457,-0.9515422582626343,-0.2535838782787323,0.039359599351882935,-0.221843421459198,0.9187317087632724,-0.0020931888308623136,0.15564222961660817,-0.3629090634269593
1681250212985834800,3.266834716796875,-1.7664506435394287,-1.3400208950042725,1.0492528676986694,0.26626068353652954,0.13784034550189972,-0.9539943933486938,-0.6554971933364868,0.08069603145122528,-0.013565421104431152,0.9235258651380603,-0.017145571849982576,0.1506945101576819,-0.3522742241907906
1681250213000867800,3.281867919921875,-1.517687439918518,-0.8554458022117615,0.7916834354400635,0.2522651255130768,0.15816044807434082,-0.9546452760696411,-0.8808814883232117,0.05744624137878418,0.07822620868682861,0.9268593232096812,-0.030615876943380627,0.14744502348552688,-0.343881468436308
1681250213015901000,3.29690087890625,-0.9194728136062622,-0.23480115830898285,0.6164013147354126,0.24612171947956085,0.1733754575252533,-0.9536063075065613,-1.291272521018982,0.03504432737827301,0.2877890467643738,0.9289210939666486,-0.039918568730254046,0.14698075272490452,-0.3375035731302763
1681250213030933800,3.311933837890625,-0.15489254891872406,0.2491881549358368,0.45482125878334045,0.247992604970932,0.17905309796333313,-0.9520712494850159,-1.384238362312317,0.034569934010505676,0.39547640085220337,0.9300734811512196,-0.042985178985186306,0.14871669175794297,-0.33316486695019076
1681250213045966800,3.326966796875,0.3709977865219116,0.3445221483707428,0.1315782070159912,0.2531962990760803,0.17595407366752625,-0.9512790441513062,-1.2625499963760376,0.035822659730911255,0.5718845129013062,0.9305453965542293,-0.04092839568259402,0.15061657460487962,-0.33124713331337763
1681250213061000000,3.342,0.21814323961734772,0.08564609289169312,-0.44281768798828125,0.2561763823032379,0.17185494303703308,-0.951230525970459,-1.1354336738586426,0.013768225908279419,0.581815242767334,0.9300023110598948,-0.03822578631201143,0.1514051645407628,-0.33273237775765524
1681250213076032800,3.35703271484375,0.013126923702657223,-0.3239366114139557,-0.9893654584884644,0.25243571400642395,0.17342008650302887,-0.9519462585449219,-0.9245854020118713,-0.01428617537021637,0.6247520446777344,0.9283277764383975,-0.03877723243241222,0.15007730104403905,-0.33790625345403746
1681250213091065900,3.37206591796875,0.102655790746212,-0.4524911344051361,-1.3692773580551147,0.2434462457895279,0.1772361546754837,-0.9535833597183228,-0.859825074672699,-0.028752893209457397,0.6494299173355103,0.925749829755325,-0.04085921614211958,0.14676115586851154,-0.34609067250892256
1681250213106099000,3.387098876953125,0.5801798105239868,-0.4819861650466919,-1.721157431602478,0.23250149190425873,0.17824390530586243,-0.9561235308647156,-0.8404421806335449,-0.01827077567577362,0.6796953082084656,0.9222750369806718,-0.04160261038364771,0.14215297083190218,-0.3570301955220822
1681250213121131800,3.4021318359375,1.0478435754776,-0.46810629963874817,-2.0391921997070312,0.22074435651302338,0.17267033457756042,-0.9599254727363586,-0.8215439915657043,-0.0029315948486328125,0.6456859707832336,0.9178763891883512,-0.03910664153780771,0.1360439114381097,-0.37076342320689826
1681250213136166000,3.417165771484375,1.1757069826126099,-0.5784027576446533,-2.341684103012085,0.20781195163726807,0.16321943700313568,-0.9644550681114197,-0.6748682856559753,0.19937516748905182,0.4065479636192322,0.9124643420121364,-0.03489228062380707,0.1286661888092152,-0.38682855925556064
1681250213151199000,3.432198974609375,1.172648310661316,-0.806989312171936,-2.696723222732544,0.19179239869117737,0.15374071896076202,-0.9693190455436707,-0.5721940398216248,0.3433143198490143,0.32379597425460815,0.9059294665061459,-0.03128988986727802,0.11983908611171903,-0.40490901948728414
1681250213166231800,3.447231689453125,1.4752615690231323,-1.1063584089279175,-3.1662774085998535,0.17110668122768402,0.1427428275346756,-0.9748573899269104,-0.4440559446811676,0.4568970799446106,0.2168770432472229,0.8979127170536221,-0.028021453223120937,0.10856376140524004,-0.4256539474362664
1681250213181265000,3.462264892578125,2.2575337886810303,-1.1629899740219116,-3.628662586212158,0.147002175450325,0.12443622201681137,-0.9812777042388916,-0.4595785140991211,0.47735515236854553,0.09556609392166138,0.8879562325564304,-0.02240800298116181,0.09412235282862061,-0.4496358564009936
1681250213196298000,3.477298095703125,3.3667678833007812,-0.5113919973373413,-4.152696132659912,0.12756524980068207,0.08997812867164612,-0.9877403974533081,-0.6869829893112183,0.801394522190094,-0.5433570146560669,0.8753420004662689,-0.00900385298198322,0.07777367911360329,-0.4771230525777104
1681250213211330800,3.492330810546875,3.7925796508789062,0.4042757451534271,-4.141578197479248,0.1222890093922615,0.04447777941823006,-0.9914973974227905,-0.7545675039291382,1.1695724725723267,-0.9903751611709595,0.8596946451957217,0.011909600543005893,0.06410502578652191,-0.5066296933343347
1681250213226364000,3.507364013671875,4.187066555023193,1.2605161666870117,-3.5979275703430176,0.13421186804771423,-0.008372950367629528,-0.9909172654151917,-0.5590165853500366,1.5738636255264282,-1.1313360929489136,0.8434914102055349,0.039471159660431104,0.05462037759951041,-0.532898350417324
1681250213241397000,3.52239697265625,3.563683032989502,1.1890619993209839,-3.4427835941314697,0.15500369668006897,-0.059518445283174515,-0.9861193895339966,-0.39391058683395386,1.3830353021621704,-1.138468623161316,0.8271815838627173,0.06815904162131323,0.04790262960784948,-0.5557248577776384
1681250213256429800,3.537429931640625,2.145315408706665,0.8412764668464661,-3.671854019165039,0.174315944314003,-0.09320239722728729,-0.9802689552307129,-0.05827289819717407,0.9567278027534485,-0.9404921531677246,0.8099659763912325,0.08900116020472608,0.04409428635637695,-0.578004850721308
1681250213271463000,3.552462890625,0.7772262692451477,0.22656220197677612,-3.5980441570281982,0.18792285025119781,-0.10459079593420029,-0.9765990972518921,0.1217847615480423,0.8485636115074158,-0.7769714593887329,0.792567789890614,0.09899340826004104,0.04359775363832797,-0.6001131905087022
1681250213286496000,3.56749609375,-0.46873989701271057,-0.5164752006530762,-3.357706308364868,0.18999865651130676,-0.09661555290222168,-0.9770188927650452,0.46626657247543335,0.5824248790740967,-0.45103591680526733,0.7766379164373309,0.09761104038029243,0.04430159726401662,-0.6207599682423371
1681250213301528800,3.58252880859375,-1.3559556007385254,-0.6714064478874207,-3.228131055831909,0.18419940769672394,-0.07329321652650833,-0.9801523685455322,0.5224350690841675,0.43593358993530273,-0.2784383296966553,0.7619781846011022,0.08772864550752209,0.047196354808319234,-0.6398948836102922
1681250213316563000,3.59756298828125,-1.5438073873519897,-0.001160171814262867,-3.0779435634613037,0.18096530437469482,-0.04208715632557869,-0.982588529586792,0.2248421460390091,0.2555881142616272,-0.192765474319458,0.7476539390465956,0.0758864127548829,0.05428613335927829,-0.6575012043404622
1681250213331595800,3.612595703125,-0.8973194360733032,0.9832895398139954,-2.8700900077819824,0.18932466208934784,-0.015276838093996048,-0.9817956686019897,0.041861191391944885,0.27421849966049194,-0.24157768487930298,0.7332204203769882,0.06997035516674095,0.06485600936461362,-0.6732648952497182
1681250213346628900,3.62762890625,-0.027185985818505287,1.7431086301803589,-2.5465385913848877,0.21000482141971588,-0.00037055634311400354,-0.9777002930641174,0.012071549892425537,0.5304608941078186,-0.26047414541244507,0.718785149494116,0.0731024153800768,0.07619642997797692,-0.6871667401441847
1681250213361662000,3.642661865234375,0.5966280698776245,1.9093599319458008,-1.986945629119873,0.23735560476779938,0.0025980626232922077,-0.9714193344116211,0.11733490228652954,0.6290700435638428,-0.1700143814086914,0.7055882776055898,0.08316428105158576,0.0858721372316307,-0.6984660578249721
1681250213376695000,3.657695068359375,0.7599895596504211,1.5610029697418213,-1.4760209321975708,0.2628888487815857,-0.001180207822471857,-0.9648253917694092,0.36923694610595703,0.5974173545837402,0.08773493766784668,0.6948749029589518,0.09498506920952551,0.09254801774135248,-0.7067967357116912
1681250213391727900,3.672727783203125,0.6587262749671936,1.0402631759643555,-1.2749298810958862,0.2816988229751587,-0.006058217491954565,-0.9594837427139282,0.44300204515457153,0.4994969367980957,0.24668467044830322,0.6862098064784588,0.10467300062572754,0.09644525525416318,-0.7133428237954805
1681250213406761000,3.687760986328125,0.5003179311752319,0.5907633304595947,-1.266890048980713,0.29341521859169006,-0.00890391319990158,-0.9559436440467834,0.45899564027786255,0.3061145842075348,0.616511881351471,0.6783294171707718,0.1110383788142681,0.09848179014295289,-0.7196116371400445
1681250213421794000,3.7027939453125,0.34712040424346924,0.24281467497348785,-1.197087287902832,0.2992072105407715,-0.009528983384370804,-0.9541406035423279,0.40483325719833374,0.218376025557518,0.8001794219017029,0.6708353053374287,0.11442959040850241,0.09917448503379643,-0.7259822668339662
1681250213436827000,3.717826904296875,-0.0722157284617424,0.07017739117145538,-0.7945051789283752,0.30111801624298096,-0.0072121755219995975,-0.9535595774650574,0.29238778352737427,0.019205566495656967,1.0798108577728271,0.6651116674936545,0.11513521543032888,0.09982025788514276,-0.7310308445264737
1681250213451860000,3.73285986328125,-0.6908231973648071,-0.05566921830177307,-0.5476961731910706,0.3010728061199188,0.0012178905308246613,-0.9536003470420837,0.2648603618144989,-0.08164697885513306,1.1614861488342285,0.6618739435989189,0.11270197026503748,0.10246015959882036,-0.7339774122813492
1681250213466893000,3.74789306640625,-1.173234224319458,-0.05803970247507095,-0.45091262459754944,0.30004918575286865,0.017081497237086296,-0.9537707567214966,0.19374042749404907,-0.24591757357120514,1.2734730243682861,0.6599270498873191,0.10722832714142089,0.1077807676722981,-0.7357863898556773
1681250213481926000,3.76292578125,-1.430798053741455,0.043769486248493195,-0.1826777309179306,0.29959630966186523,0.03754223510622978,-0.9533271193504333,0.17922443151474,-0.2952937185764313,1.3138771057128906,0.6591311855299503,0.10027104329246367,0.11524822904213203,-0.7363487421129855
1681250213496959000,3.777958984375,-1.4940558671951294,0.3243103623390198,0.2661874294281006,0.3020625114440918,0.05844508484005928,-0.9514948129653931,0.24806258082389832,-0.24937832355499268,1.2583643198013306,0.6602248680574565,0.09395468317459829,0.12419783694038761,-0.7347451636336516
1681250213511992800,3.792992919921875,-1.4710575342178345,0.5935010313987732,0.8876200318336487,0.3093063235282898,0.077113077044487,-0.9478307962417603,0.31955409049987793,-0.1743573546409607,1.1155248880386353,0.6639221719973508,0.08966061720358168,0.13433387055427143,-0.730152477359801
1681250213527026000,3.80802587890625,-1.3915990591049194,0.6526488065719604,1.5404667854309082,0.3199240565299988,0.0919651985168457,-0.9429692625999451,0.517554521560669,0.05444285273551941,0.9317387938499451,0.6708369039316382,0.08715066181740598,0.14463796872709828,-0.7221235263557014
1681250213542059000,3.82305908203125,-0.8808435797691345,0.8750152587890625,2.1085448265075684,0.3327978849411011,0.0995323583483696,-0.9377307295799255,0.6049156785011292,0.10713265836238861,0.8551043272018433,0.6807399801784016,0.08713749051446892,0.15343306651929947,-0.7109559577589882
1681250213557091800,3.838091796875,0.00968201830983162,1.7703660726547241,2.435939311981201,0.3541496992111206,0.09401068836450577,-0.930451512336731,0.6912603378295898,0.058638207614421844,0.44201767444610596,0.6915503481481736,0.09434451172516897,0.16085201792561463,-0.6978421983526153
1681250213572124700,3.853124755859375,0.44774329662323,2.661494731903076,2.688831090927124,0.38887444138526917,0.07564089447259903,-0.9181803464889526,0.6869311928749084,0.14382624626159668,0.06786906719207764,0.701856238199453,0.11078828916999374,0.1692211149512805,-0.6829992711246033
1681250213587157800,3.86815771484375,0.22226406633853912,2.814589262008667,2.9622042179107666,0.4292093813419342,0.053545597940683365,-0.9016163945198059,0.8949940204620361,0.38244378566741943,-0.4138590693473816,0.7120904213860338,0.1303006990398806,0.17948125814301294,-0.6661346117731564
1681250213602190800,3.88319091796875,-0.30804747343063354,2.6030848026275635,3.394683599472046,0.46801167726516724,0.03171733766794205,-0.8831529021263123,1.073675274848938,0.34264177083969116,-0.5768080353736877,0.7241485160361776,0.14832580031393452,0.19084811049098285,-0.6458988609371882
1681250213617223700,3.8982236328125,-1.2770025730133057,2.1820313930511475,3.28641676902771,0.5007874965667725,0.01743064820766449,-0.8653947114944458,1.3683226108551025,0.10566199570894241,-0.7427290678024292,0.7375207214646692,0.16049626226019542,0.20382243825077234,-0.6235066403455722
1681250213632256800,3.9132568359375,-2.3085057735443115,1.971961498260498,3.2008070945739746,0.5279607772827148,0.01580880768597126,-0.8491215705871582,1.3867120742797852,-0.028885597363114357,-0.7241663932800293,0.7513875017553551,0.1648826365787892,0.21966548883781994,-0.5999811662503185
1681250213647289900,3.928289794921875,-2.7218453884124756,1.801750659942627,3.019080877304077,0.5529016852378845,0.02283537946641445,-0.8329335451126099,1.1796422004699707,-0.0634390264749527,-0.7308329939842224,0.7650662341838488,0.16405155483022696,0.23795025510027873,-0.5754479871688957
1681250213662322700,3.94332275390625,-2.7398698329925537,1.4384733438491821,2.8549556732177734,0.5743870139122009,0.03203707933425903,-0.8179566860198975,1.0046229362487793,-0.02315647155046463,-0.7779295444488525,0.7777796488055166,0.16050805355563347,0.25545806676220506,-0.5513955340780284
1681250213677356800,3.958356689453125,-2.7390060424804688,0.9268534183502197,2.751084804534912,0.590362548828125,0.04089583456516266,-0.8061014413833618,0.7830352187156677,-0.013018026947975159,-0.7693380117416382,0.7900506949943196,0.15472552679679516,0.27020231630399405,-0.5280818038590716
1681250213692389600,3.9733896484375,-2.511362314224243,0.2462908923625946,2.626941680908203,0.5995461344718933,0.049011263996362686,-0.7988381385803223,0.6285116672515869,0.008102383464574814,-0.7287498116493225,0.8022679228625372,0.1467066810101974,0.28117271074311945,-0.5057521235552344
1681250213707422700,3.988422607421875,-1.829038143157959,-0.7735517621040344,2.5083155632019043,0.5985883474349976,0.05213657394051552,-0.7993583679199219,0.22260910272598267,0.18226894736289978,-0.5994301438331604,0.8146757416884519,0.13799813814990933,0.28509179880131824,-0.48578044816211663
1681250213722455800,4.003455810546875,-1.3257454633712769,-1.6794037818908691,2.4292376041412354,0.5850076079368591,0.048894982784986496,-0.8095525503158569,-0.0019998550415039062,0.2975558042526245,-0.5641351938247681,0.8278036697228337,0.12910168528043106,0.28027928644463396,-0.4685267371312686
1681250213737488600,4.018488525390625,-1.3350903987884521,-1.3982632160186768,2.2967004776000977,0.5664911270141602,0.04422872141003609,-0.8228800892829895,-0.5754633545875549,0.459982693195343,-0.4707601070404053,0.8406665785310204,0.12021237727664498,0.27222957665554154,-0.45245961466619883
1681250213752521700,4.033521728515625,-1.178072452545166,-0.33213648200035095,1.7450857162475586,0.557113766670227,0.04307699203491211,-0.829318106174469,-0.9685060977935791,0.4308915138244629,-0.4128236174583435,0.8504462958552553,0.11321087176756357,0.26930323910587917,-0.4374929279038477
1681250213767554800,4.048554931640625,-0.7053521275520325,0.3759077489376068,1.0833834409713745,0.558680534362793,0.04302636533975601,-0.8282660841941833,-1.806422233581543,0.2598148286342621,-0.3254203796386719,0.855638002994073,0.11023401102474599,0.27150581357637943,-0.42663392839863534
1681250213782587600,4.063587646484375,-0.39404296875,0.7387405037879944,0.8969440460205078,0.5665221214294434,0.04163500666618347,-0.8229940533638,-1.9741454124450684,0.22653821110725403,-0.20059609413146973,0.857926239187716,0.11057873561873659,0.2761798823047932,-0.4188788128471243
1681250213797620700,4.078620849609375,-0.36367884278297424,0.49632659554481506,0.7291175127029419,0.5752185583114624,0.03897339850664139,-0.8170707821846008,-1.6649556159973145,0.2073950171470642,0.08174973726272583,0.8594514295675145,0.11204202487722249,0.28091134759832503,-0.4121634043329605
1681250213812653800,4.09365380859375,-0.2789749801158905,-0.21385566890239716,0.12331069260835648,0.5771597623825073,0.039350543171167374,-0.8156826496124268,-1.4297142028808594,0.20938298106193542,0.15131491422653198,0.8608538429534447,0.11115591441234529,0.282494317645874,-0.40837730366425473
1681250213827687000,4.10868701171875,0.007405121810734272,-0.6262999773025513,-0.6337724924087524,0.5714269876480103,0.04345468431711197,-0.8195016384124756,-1.2457129955291748,0.30955740809440613,0.19375395774841309,0.8611125464664698,0.10824968629928605,0.28023416818968094,-0.41016592147337083
1681250213842719700,4.1237197265625,0.2953532934188843,-0.7827015519142151,-1.0756995677947998,0.5620929598808289,0.0491129532456398,-0.8256145715713501,-1.2647755146026611,0.3595021665096283,0.16399341821670532,0.8597259480977689,0.10518495487246331,0.2759145775814911,-0.4167475016930408
1681250213857752800,4.1387529296875,0.7181063890457153,-0.9538200497627258,-1.2816588878631592,0.5503157377243042,0.05295497551560402,-0.8332756757736206,-1.2706985473632812,0.3763052821159363,0.1556633710861206,0.857373222386085,0.10313750734044207,0.26967538343799075,-0.4260857007609653
1681250213872786700,4.15378662109375,1.1492397785186768,-1.0260584354400635,-1.5534403324127197,0.5366033911705017,0.05247018113732338,-0.8422016501426697,-1.2098517417907715,0.3322038948535919,0.13350719213485718,0.854077370398382,0.10319252794325677,0.2612479020581753,-0.43778148067991957
1681250213887819800,4.16881982421875,1.4870084524154663,-1.2230032682418823,-2.011779308319092,0.5211523771286011,0.04978812858462334,-0.852010190486908,-1.0338478088378906,0.33859384059906006,0.005040526390075684,0.8492477708179451,0.10451053839782774,0.25114231968687034,-0.4525298878882497
1681250213902852900,4.183852783203125,2.0058491230010986,-1.5394906997680664,-2.5469038486480713,0.5015323162078857,0.04498989135026932,-0.8639683127403259,-0.908316433429718,0.4301077723503113,-0.04301410913467407,0.8425491281807382,0.10646684087013494,0.23807699106342947,-0.4712697751746338
1681250213917885700,4.1988857421875,2.62919282913208,-1.3334972858428955,-3.1002047061920166,0.48030969500541687,0.035397015511989594,-0.8763843774795532,-0.7163174152374268,0.7583652138710022,-0.2872966527938843,0.832977695499585,0.11081733679308284,0.2225473471327178,-0.4943077421259829
1681250213932918800,4.213918701171875,3.00160551071167,-0.7079588770866394,-3.5131924152374268,0.46535053849220276,0.02160147950053215,-0.8848628401756287,-0.6535372734069824,0.9465839266777039,-0.45992475748062134,0.8195175485761271,0.1190900534739916,0.20829339830964103,-0.5204059721242768
1681250213947951900,4.228951904296875,3.777427911758423,-0.0395621582865715,-3.724823236465454,0.4594705104827881,0.0019863322377204895,-0.8881908059120178,-0.5442636609077454,1.0306674242019653,-0.8916553854942322,0.8023596575891544,0.1325080302398235,0.19582190593931306,-0.5480094952663433
1681250213962984700,4.243984619140625,4.022453784942627,0.9774713516235352,-4.135225772857666,0.46644383668899536,-0.023921124637126923,-0.8842272758483887,-0.44613444805145264,0.9216262102127075,-1.2578015327453613,0.780999695208739,0.1525859864067675,0.18602117737305526,-0.5763271045656746
1681250213978017800,4.259017822265625,2.402125597000122,1.3319647312164307,-4.50946569442749,0.4847259521484375,-0.037302400916814804,-0.8738702535629272,-0.19985970854759216,1.0705054998397827,-1.6592565774917603,0.7558935920437636,0.17144703674720568,0.18349600235946603,-0.6046154414192717
1681250213993051000,4.27405078125,1.1337920427322388,1.4738718271255493,-4.586336612701416,0.5055445432662964,-0.024200038984417915,-0.8624610304832458,0.027551651000976562,1.3934322595596313,-1.5343132019042969,0.7303464977848789,0.18069542494852456,0.1900490828291508,-0.6307331228483853
1681250214008083500,4.28908349609375,0.9046081900596619,0.6544802188873291,-4.216677188873291,0.5212993025779724,-0.0035577223170548677,-0.853366494178772,0.7895221710205078,1.343691349029541,-1.1790889501571655,0.7060361474614009,0.18541014374574327,0.19733175598743435,-0.654367067082454
1681250214023116500,4.304116455078125,0.8435667157173157,-1.1451374292373657,-4.260114669799805,0.5183719992637634,0.018637729808688164,-0.8549520969390869,1.1928400993347168,1.130165934562683,-0.9404428005218506,0.6842054329196822,0.1825234593138124,0.19801296606885116,-0.6777455523677363
1681250214038149600,4.319149658203125,0.7862545251846313,-2.4557385444641113,-4.546548843383789,0.49131906032562256,0.04130160063505173,-0.869999885559082,1.509718418121338,0.9353219270706177,-0.5850325226783752,0.6627429669211733,0.1703586238638139,0.18967869825217895,-0.7041105907422995
1681250214053182700,4.3341826171875,-0.1054781824350357,-2.498659133911133,-4.133138656616211,0.4539299011230469,0.06786918640136719,-0.8884488940238953,1.3332862854003906,0.8294696807861328,-0.43441182374954224,0.6423184399088198,0.1521813931524678,0.18060005269794627,-0.7291443487280734
1681250214068216800,4.349216796875,-0.583660900592804,-1.645700216293335,-3.6677751541137695,0.42071136832237244,0.09855897724628448,-0.9018248319625854,0.8664895296096802,0.5255559682846069,-0.10778820514678955,0.6239650413501334,0.1334392314664522,0.17686590020594053,-0.7493864209165887
1681250214083250000,4.36425,-0.4560219645500183,-0.7517151236534119,-3.262028455734253,0.3987993597984314,0.12762285768985748,-0.9081142544746399,0.6795086860656738,0.37448281049728394,-0.016568362712860107,0.6062107152480927,0.11952346621342798,0.17792419776356458,-0.7658757749681607
1681250214098282800,4.37928271484375,-0.042703211307525635,-0.36191701889038086,-2.551841974258423,0.38566145300865173,0.14838115870952606,-0.9106307029724121,0.5517927408218384,0.32277968525886536,0.2457747459411621,0.5901606473555789,0.11143298410478066,0.1796311322015682,-0.7791185354888571
1681250214113315600,4.394315673828125,0.35406702756881714,-0.4463250935077667,-1.9484219551086426,0.37530073523521423,0.1588255912065506,-0.9131942987442017,0.6051374673843384,0.3589508533477783,0.39515841007232666,0.5773539367656799,0.1069359836390101,0.1787947369089751,-0.7894678971723483
1681250214128348700,4.4093486328125,0.6350473165512085,-0.7294037342071533,-1.6322799921035767,0.36296629905700684,0.16197022795677185,-0.9176170825958252,0.6748906970024109,0.32608211040496826,0.6780846118927002,0.5671338280283652,0.10318589575467549,0.17476881056384697,-0.7982278058006445
1681250214143381500,4.424381591796875,0.9191152453422546,-0.9209070801734924,-1.457715392112732,0.34758251905441284,0.15921711921691895,-0.9240326285362244,0.6679050922393799,0.23139259219169617,0.8092712759971619,0.5583214256442256,0.09947800058447911,0.16759420851613754,-0.806407672667518
1681250214158414600,4.43941455078125,0.9337583780288696,-0.9584962725639343,-1.3140860795974731,0.33107104897499084,0.1530391126871109,-0.9311127662658691,0.5251606106758118,-0.011437579989433289,1.1365723609924316,0.5503341767936517,0.09594883496523868,0.15886296625404256,-0.8140568185407477
1681250214173447700,4.45444775390625,0.5264573693275452,-0.8233059644699097,-1.1001633405685425,0.3156377375125885,0.14830076694488525,-0.9372191429138184,0.45038390159606934,-0.12458865344524384,1.2979521751403809,0.5434221417517204,0.09209415068649064,0.15135754787502556,-0.8205496758942753
1681250214188480500,4.46948046875,-0.13072307407855988,-0.6248543858528137,-0.8323068618774414,0.3031467795372009,0.14989781379699707,-0.9410805702209473,0.3192744553089142,-0.36739662289619446,1.5400643348693848,0.5380870219639088,0.08732630812334076,0.14776271658540172,-0.8252288670883745
1681250214203513600,4.484513671875,-0.8212956190109253,-0.3846881091594696,-0.4819357991218567,0.2942078411579132,0.15973298251628876,-0.9422988295555115,0.2837492525577545,-0.48041173815727234,1.5979232788085938,0.5348181903630567,0.08139496281885547,0.1490819778775903,-0.827719067989086
1681250214218546700,4.499546630859375,-1.157791018486023,-0.024810373783111572,-0.11878955364227295,0.2903871536254883,0.17566314339637756,-0.9406474828720093,0.28297701478004456,-0.500034511089325,1.5637249946594238,0.5338793109951201,0.07554553685457205,0.1548196244443378,-0.8278263951634903
1681250214233579500,4.51457958984375,-1.0759047269821167,0.2735465168952942,0.14259649813175201,0.29235661029815674,0.19154120981693268,-0.9369309544563293,0.3240068554878235,-0.41001659631729126,1.451472520828247,0.534405000177246,0.0718829251082428,0.16238035483986094,-0.8263635005630559
1681250214248613600,4.529613525390625,-0.966839611530304,0.3391132652759552,0.5130898356437683,0.29784727096557617,0.20445463061332703,-0.9324619174003601,0.5080150365829468,-0.2181723415851593,1.2329838275909424,0.5364847063491145,0.07018921407288352,0.16983080055871327,-0.8236595295963914
1681250214263646700,4.544646728515625,-0.9868332743644714,0.27376461029052734,1.08453369140625,0.30462518334388733,0.21439826488494873,-0.9280284643173218,0.599717378616333,-0.1722840517759323,1.0902447700500488,0.541472305791879,0.06919433132609698,0.17662926771426946,-0.8190372267999444
1681250214278679600,4.559679443359375,-0.8571204543113708,0.35140347480773926,1.6387004852294922,0.3130004107952118,0.22109021246433258,-0.9236611127853394,0.7481720447540283,-0.14768022298812866,0.8165749311447144,0.5499794671240491,0.06891183006294259,0.18281301516899295,-0.8120056413112764
1681250214293712600,4.574712646484375,-0.6978437304496765,0.958058774471283,2.226179599761963,0.3279436230659485,0.22270925343036652,-0.9180705547332764,0.7400647401809692,-0.1752239465713501,0.6360118389129639,0.5612084327341519,0.07205344340900857,0.18913756605823961,-0.8025461729094546
1681250214308745700,4.589745849609375,-0.40082868933677673,1.684361219406128,2.883024215698242,0.3546888828277588,0.21734373271465302,-0.9093720316886902,0.6383530497550964,-0.0975012332201004,0.2191864252090454,0.5748590625296504,0.08133031060773642,0.1967215597198161,-0.7900777727484396
1681250214323778600,4.604778564453125,-0.2661507725715637,2.113752603530884,3.377051591873169,0.3911043703556061,0.20341752469539642,-0.8975849151611328,0.5877621173858643,0.009061083197593689,-0.09501457214355469,0.5907429745331065,0.09629820351991646,0.20477840585429982,-0.774477413000604
1681250214338811600,4.619811767578125,-1.0371966361999512,1.9396775960922241,3.8048722743988037,0.4290417730808258,0.18942059576511383,-0.8832004070281982,0.696354866027832,0.19586379826068878,-0.7209255695343018,0.6087762644435123,0.1109209162246959,0.2147005733412144,-0.755639904912681
1681250214353844700,4.6348447265625,-1.9498422145843506,1.4237890243530273,3.6765048503875732,0.4618796110153198,0.18364368379116058,-0.8677224516868591,0.8729286789894104,0.26198920607566833,-0.8765402436256409,0.6283717834534994,0.11977318340633032,0.22758113288562648,-0.7341730197963936
1681250214368877600,4.649877685546875,-2.731088161468506,0.9423801898956299,3.5735111236572266,0.48702481389045715,0.18869398534297943,-0.8527610898017883,1.0110372304916382,0.23464582860469818,-0.983405351638794,0.6480556315897156,0.12105871511010181,0.24282556967967006,-0.7116210106599093
1681250214383910700,4.66491064453125,-3.0754988193511963,0.7833620309829712,3.374546527862549,0.5080819129943848,0.1998896598815918,-0.8377928733825684,0.908925473690033,0.22119185328483582,-1.0244050025939941,0.6674450097058895,0.11762516574582456,0.25936053776288176,-0.6880505574724104
1681250214398943700,4.67994384765625,-3.024559736251831,0.16739767789840698,3.311429738998413,0.5248042345046997,0.2122957408428192,-0.8243245482444763,0.5949161052703857,0.3827817440032959,-1.016343116760254,0.6858919733981088,0.11137345344435703,0.2746519176446807,-0.6646158771999067
1681250214413976600,4.6949765625,-2.853998899459839,-0.7770572304725647,3.3586349487304688,0.5319077968597412,0.2222449630498886,-0.8171176314353943,0.537885844707489,0.4544212818145752,-0.9640560150146484,0.7053334072508317,0.10140885702640802,0.2848814040500309,-0.6411423522205938
1681250214429010700,4.7100107421875,-2.5296261310577393,-1.7250295877456665,3.2726314067840576,0.527629554271698,0.22899684309959412,-0.818026602268219,0.3153421878814697,0.505973219871521,-0.8458070755004883,0.7256862785378903,0.0880598879101215,0.28849984199988626,-0.6183791124413034
1681250214444043500,4.72504345703125,-2.138181209564209,-2.4507131576538086,3.191985845565796,0.5128099322319031,0.23243092000484467,-0.8264392614364624,0.11280035972595215,0.5317139625549316,-0.7320324778556824,0.7463916167528183,0.07256662301669582,0.28550736957842987,-0.596757208819822
1681250214459076600,4.74007666015625,-1.9700287580490112,-2.875239610671997,2.9898793697357178,0.4900353252887726,0.23446154594421387,-0.839579164981842,-0.31280457973480225,0.5459033846855164,-0.38483184576034546,0.7668263328762568,0.05570035327771941,0.27768308767839217,-0.5759921202837393
1681250214474109700,4.755109619140625,-1.9546172618865967,-2.6541478633880615,2.477996826171875,0.463873952627182,0.23954437673091888,-0.8529006242752075,-0.5298529863357544,0.5018038749694824,-0.21332252025604248,0.7849918291122887,0.03795825213649581,0.26853094041700437,-0.5569902160994054
1681250214489142800,4.770142822265625,-1.8423031568527222,-1.6916215419769287,1.9682096242904663,0.4433848261833191,0.24942603707313538,-0.8609277009963989,-1.1300609111785889,0.32920247316360474,-0.027515292167663574,0.7990050232213449,0.021667556150439,0.26280537716928587,-0.5404208420769273
1681250214504175600,4.785175537109375,-1.2588216066360474,-0.6017720103263855,1.473158359527588,0.43552669882774353,0.25864019989967346,-0.8622190356254578,-1.443034052848816,0.26021963357925415,0.035970866680145264,0.8082959182723343,0.010997896581827349,0.26223943267639577,-0.5270361426075182
1681250214519208700,4.800208740234375,-0.5884026288986206,0.0959962010383606,1.0407041311264038,0.437602162361145,0.2621603310108185,-0.8601024746894836,-1.7792770862579346,0.18782129883766174,0.18461114168167114,0.8136691669945716,0.007110649309848401,0.2643826842700055,-0.5176809731808498
1681250214534241800,4.81524169921875,-0.16048379242420197,0.22860591113567352,0.6700448393821716,0.44363293051719666,0.261111855506897,-0.8573274612426758,-1.669188380241394,0.14902910590171814,0.3007478713989258,0.816577484681337,0.007430598591663973,0.2669850975004119,-0.5117274127194656
1681250214549274600,4.830274658203125,-0.16283132135868073,-0.2013787478208542,0.15084964036941528,0.44551900029182434,0.2602141201496124,-0.8566220998764038,-1.227638840675354,-0.0026152431964874268,0.5069364309310913,0.8181152495179806,0.007458658166033306,0.2676440059644858,-0.5089189177290432
1681250214564307700,4.8453076171875,-0.3659735321998596,-0.7785784602165222,-0.5266063809394836,0.43824344873428345,0.2649589478969574,-0.8589175939559937,-1.0734974145889282,-0.037603020668029785,0.5418552160263062,0.8184637128538017,0.0034533832392616634,0.26557349303601807,-0.509485864261938
1681250214579341000,4.860341064453125,-0.3309674561023712,-1.0389034748077393,-1.3106886148452759,0.42232611775398254,0.2757667005062103,-0.8634774684906006,-0.9730921983718872,0.0674034059047699,0.4589974880218506,0.8167776767922427,-0.0042894609709546215,0.26123336851689805,-0.5144052288988071
1681250214594374000,4.875373779296875,0.07988150417804718,-1.1266194581985474,-1.9628547430038452,0.40111851692199707,0.28794217109680176,-0.8695937395095825,-0.9705765843391418,0.11777374148368835,0.39264971017837524,0.8124238803742224,-0.0126620805304467,0.2550349306452715,-0.5241796260877795
1681250214609408000,4.890407958984375,0.7430201768875122,-1.2336513996124268,-2.421708822250366,0.37595847249031067,0.29555338621139526,-0.8782387971878052,-0.8955050110816956,0.16683366894721985,0.2720681428909302,0.8059017120248948,-0.0190882474266958,0.24600048952255255,-0.5381836545846534
1681250214624440800,4.90544091796875,1.2142020463943481,-1.4208028316497803,-2.940579652786255,0.3465254008769989,0.29661786556243896,-0.8899089694023132,-0.8018324375152588,0.18035659193992615,0.18858450651168823,0.7974489064497043,-0.023229989631184323,0.23346493551990766,-0.555904500559745
1681250214639474000,4.920473876953125,1.4869906902313232,-1.7703603506088257,-3.5212016105651855,0.31087687611579895,0.2946039140224457,-0.9036393761634827,-0.6139927506446838,0.34043633937835693,0.01943826675415039,0.7866385890594411,-0.027498121664278737,0.21777091427194198,-0.5770783493647016
1681250214654507000,4.935507080078125,2.1630940437316895,-2.151444435119629,-4.2920732498168945,0.2668238878250122,0.2869041860103607,-0.9200494289398193,-0.5125972032546997,0.4729224443435669,-0.032617807388305664,0.7728888631981881,-0.031800598928500415,0.19739300490924483,-0.6022187538137157
1681250214669539800,4.950539794921875,3.0170087814331055,-2.1871697902679443,-5.040347099304199,0.21632099151611328,0.267578661441803,-0.9389392137527466,-0.45289331674575806,0.7994531393051147,-0.3878277540206909,0.7547748684699379,-0.033618959152804995,0.1714647245280032,-0.6322850697717637
1681250214684573000,4.965572998046875,3.592402935028076,-1.4242072105407715,-4.8554253578186035,0.170670285820961,0.23479650914669037,-0.9569442272186279,-0.4811714291572571,1.024007797241211,-0.6654160022735596,0.7334085772597195,-0.030106549894473877,0.14360182628311635,-0.6637648957337134
1681250214699606000,4.98060595703125,3.7360072135925293,-0.07661817967891693,-4.18359899520874,0.14487911760807037,0.19182246923446655,-0.9706771969795227,-0.48041993379592896,1.2274889945983887,-0.9697220325469971,0.7117589268345573,-0.01841408667904235,0.11967595604136082,-0.6919087485681035
1681250214714638800,4.995638916015625,3.282012701034546,0.877447247505188,-3.5254392623901367,0.14169065654277802,0.14753222465515137,-0.9788554310798645,-0.3615240454673767,1.1857807636260986,-1.0012013912200928,0.6915250699851976,-0.0003607275281469917,0.10282092471710895,-0.7149970726237608
1681250214729672000,5.010671875,1.6920651197433472,1.5511176586151123,-3.6383466720581055,0.15260083973407745,0.11762572824954987,-0.9812630414962769,-0.02105484902858734,0.9968151450157166,-1.0595542192459106,0.6709926945010307,0.01678413912831977,0.09532454944386143,-0.7351191229162323
1681250214744705000,5.025705078125,-0.22565141320228577,1.8436498641967773,-3.5974225997924805,0.17112122476100922,0.1164737120270729,-0.9783411622047424,0.1429961621761322,0.9011654257774353,-0.9007787108421326,0.6494683673805124,0.02691564569382357,0.10052350503310163,-0.7532339403974017
1681250214759737900,5.04073779296875,-1.3174114227294922,1.1049872636795044,-2.8682236671447754,0.1879194974899292,0.1378747820854187,-0.9724591374397278,0.7190324068069458,0.521930456161499,-0.5934588313102722,0.6287113103561749,0.0292916699657516,0.1136328386344149,-0.7687337118383253
1681250214774771000,5.05577099609375,-1.5715382099151611,-0.5677165389060974,-1.9157068729400635,0.18648868799209595,0.16661788523197174,-0.9682254195213318,1.0368541479110718,0.3814625144004822,-0.4532986283302307,0.6153491532785828,0.021634151051596967,0.12417430342753932,-0.7781118777398748
1681250214789805000,5.07080517578125,-1.3339080810546875,-1.3224467039108276,-2.1913065910339355,0.1658385843038559,0.19341981410980225,-0.9669986367225647,1.186090111732483,0.5153966546058655,-0.1610073447227478,0.6047096680625039,0.006807025951010446,0.1282745177567298,-0.78601881108531
1681250214804838000,5.085837890625,-0.989025890827179,-1.1113576889038086,-1.893828272819519,0.14086830615997314,0.21505260467529297,-0.9663894176483154,0.8789223432540894,0.521000862121582,-0.02764439582824707,0.593220199637051,-0.007958183851844236,0.12939073586921562,-0.7945340534361978
1681250214819871000,5.10087109375,-0.756420373916626,-0.43411770462989807,-1.2239636182785034,0.12422264367341995,0.23062947392463684,-0.965079665184021,0.48083409667015076,0.39928382635116577,0.243247389793396,0.5848312230211347,-0.018045809600076786,0.13089886532627382,-0.8003200256435863
1681250214834904000,5.115904052734375,-0.5959630012512207,0.3446369171142578,-1.1378196477890015,0.11942151933908463,0.24250218272209167,-0.9627726674079895,0.3532194495201111,0.31160545349121094,0.3670695424079895,0.5777750476476453,-0.02242324551060112,0.13457664302380346,-0.8047124674425531
1681250214849937000,5.13093701171875,-0.4958464801311493,0.9624063968658447,-1.028761863708496,0.12507577240467072,0.25234073400497437,-0.9595208168029785,0.2081608921289444,0.09616997838020325,0.5748467445373535,0.5703172898750271,-0.021804635921157545,0.14058502587832122,-0.8090108122949997
1681250214864970000,5.145969970703125,-0.3761059641838074,1.2534558773040771,-0.8465278744697571,0.13772699236869812,0.2605641782283783,-0.955582320690155,0.2421557903289795,-0.0036062002182006836,0.6690070033073425,0.5633215974416474,-0.017822063662074283,0.14795678823562378,-0.8126868390191262
1681250214880003000,5.161003173828125,-0.32780441641807556,1.2877395153045654,-0.7023155689239502,0.15301258862018585,0.26715293526649475,-0.9514286518096924,0.36889898777008057,-0.17837736010551453,0.8527805209159851,0.5570878008228247,-0.0123064738910333,0.15535198277518952,-0.8157004886549826
1681250214895036000,5.176035888671875,-0.44697606563568115,1.2180856466293335,-0.5469648838043213,0.16828638315200806,0.2740020155906677,-0.9468910098075867,0.40880101919174194,-0.2354583740234375,0.9496833682060242,0.5517113422201441,-0.006943555409512645,0.16280750329048455,-0.8179608941726276
1681250214910069000,5.191069091796875,-0.5817952156066895,1.157923698425293,-0.3285076320171356,0.18320095539093018,0.2826254963874817,-0.9415732622146606,0.44770416617393494,-0.3055900037288666,1.1398307085037231,0.547458762416631,-0.002394478718297077,0.17090239796114218,-0.8191919342637977
1681250214925102000,5.20610205078125,-0.5614902377128601,1.0923471450805664,-0.043855126947164536,0.1980803906917572,0.29144465923309326,-0.9358547925949097,0.4381195306777954,-0.36071962118148804,1.2137172222137451,0.5448171252183281,0.0018002276799908739,0.17907923984854893,-0.819207908193363
1681250214940135000,5.221135009765625,-0.44975629448890686,1.1211113929748535,0.2076530009508133,0.213713601231575,0.2983168065547943,-0.9302330613136292,0.4194955825805664,-0.4886092245578766,1.2292289733886719,0.5438597148120112,0.006529025301537571,0.18665700699789198,-0.8181277763401431
1681250214955168000,5.23616796875,-0.338382750749588,1.2765138149261475,0.42572808265686035,0.23189842700958252,0.30266547203063965,-0.9244548082351685,0.4000290632247925,-0.5203931331634521,1.148804783821106,0.5441066745656921,0.01277877839649828,0.1939311439542784,-0.816195635532888
1681250214970201900,5.251201904296875,-0.21616335213184357,1.2584152221679688,0.7361631393432617,0.2522298991680145,0.30460378527641296,-0.9184751510620117,0.4213082790374756,-0.43596673011779785,0.8546171188354492,0.5457157957789333,0.02028047431012334,0.20087589629255714,-0.8132845524199507
1681250214985235000,5.26623486328125,0.033856332302093506,1.107460618019104,1.1904531717300415,0.27289918065071106,0.30222487449645996,-0.9133378863334656,0.45602840185165405,-0.36141377687454224,0.7046434283256531,0.549767049295365,0.028543160019824616,0.2061949025183167,-0.8089653556968192
1681250215000268000,5.28126806640625,0.5747730731964111,1.0049234628677368,1.6568422317504883,0.29371151328086853,0.29242226481437683,-0.9100674390792847,0.5177508592605591,-0.2736997604370117,0.45912444591522217,0.5567652121967416,0.038262089626936426,0.20857203130096316,-0.8031476273397221
1681250215015300900,5.29630078125,1.193471908569336,1.1323760747909546,1.9776601791381836,0.3156592547893524,0.27154305577278137,-0.909188449382782,0.4928734004497528,-0.25697100162506104,0.290108859539032,0.5657720043501477,0.05123002130579428,0.20683634725339695,-0.7965526642216069
1681250215030334000,5.311333984375,1.2577184438705444,1.4797509908676147,2.423917055130005,0.34201574325561523,0.24349848926067352,-0.9075977802276611,0.4165748953819275,-0.1348559558391571,-0.15780144929885864,0.5762002799504985,0.06782796625236383,0.20396197330693877,-0.7885378622940373
1681250215045367000,5.326366943359375,0.8598189949989319,1.423905372619629,2.882326126098633,0.3715932071208954,0.2146797776222229,-0.9032336473464966,0.40251561999320984,0.11019507050514221,-0.4143322706222534,0.5889585149749952,0.08539844934372186,0.20270736268402825,-0.7776532219876372
1681250215060400000,5.341400146484375,0.9301620125770569,0.9966192245483398,3.5382866859436035,0.3975496292114258,0.18464486300945282,-0.898810625076294,0.47400182485580444,0.5403764843940735,-0.753075361251831,0.6049964954928095,0.10108295183543659,0.2009400941812351,-0.7637960967449833
1681250215075433000,5.356432861328125,0.7661880254745483,0.9126947522163391,3.818272590637207,0.41940560936927795,0.14926575124263763,-0.8954432606697083,0.5271122455596924,0.5564379692077637,-0.9573246836662292,0.6240067620304751,0.11619723403855486,0.19691769306194223,-0.74721948576314
1681250215090466000,5.371466064453125,-0.24101385474205017,0.7399842143058777,3.696692943572998,0.438478022813797,0.12098173052072525,-0.8905618786811829,0.4944595396518707,0.20306915044784546,-1.3561575412750244,0.6434441625784835,0.1278726747966101,0.19587662600275974,-0.7288761072647671
1681250215105499000,5.386498779296875,-1.3397855758666992,0.2629644274711609,3.4668798446655273,0.4514991044998169,0.10781118273735046,-0.8857343196868896,0.5208672285079956,0.07231879979372025,-1.4448626041412354,0.6628080787302331,0.1320080662102992,0.19926542053584187,-0.7096143552347945
1681250215120531700,5.40153173828125,-2.0804038047790527,-0.4735647141933441,3.371009349822998,0.4556245803833008,0.10773233324289322,-0.8836288452148438,0.6247128248214722,-0.0008597895503044128,-1.1763687133789062,0.6825880321538198,0.12782462335615125,0.2045640415373195,-0.6898461879785202
1681250215135564800,5.416564697265625,-2.4096221923828125,-1.2096658945083618,3.374016523361206,0.4499991536140442,0.11500216275453568,-0.8855931758880615,0.5997596979141235,0.039462536573410034,-0.9094202518463135,0.7032239481980543,0.1168949870069248,0.20865996689943866,-0.6695315746446313
1681250215150599000,5.431598876953125,-2.484997272491455,-1.7930874824523926,3.3236985206604004,0.4357461631298065,0.12557914853096008,-0.8912660479545593,0.3233785033226013,0.10241764783859253,-0.4453428387641907,0.7242664773309393,0.10141505766635873,0.20995707342679193,-0.648899793447511
1681250215165632000,5.446632080078125,-2.397935152053833,-2.1694447994232178,3.1453850269317627,0.41531556844711304,0.1377304196357727,-0.899190366268158,0.1551494300365448,0.1290084421634674,-0.26708465814590454,0.7446785545912589,0.08344243667772105,0.2084278956914439,-0.6285291216588048
1681250215180665000,5.4616650390625,-2.2042109966278076,-2.447239398956299,2.865553855895996,0.3904182016849518,0.1508834958076477,-0.9081892967224121,-0.20378801226615906,0.2407638281583786,-0.01499795913696289,0.7635707551932778,0.0642546286132122,0.20439349351795455,-0.6091421878151252
1681250215195698000,5.476697998046875,-1.9035820960998535,-2.6498377323150635,2.467386484146118,0.36166107654571533,0.1639903485774994,-0.9177736043930054,-0.3571292757987976,0.2941242456436157,0.11357438564300537,0.7803538283701825,0.04482861226060134,0.19774625590107986,-0.59155281351215
1681250215210730800,5.491730712890625,-1.6696308851242065,-2.4734408855438232,1.9349653720855713,0.3310460150241852,0.1771267205476761,-0.9268411993980408,-0.7252721190452576,0.3815585672855377,0.30515235662460327,0.7943549165941516,0.026035474338608606,0.18947702899718558,-0.5765594326542121
1681250215225763800,5.506763916015625,-1.320013403892517,-1.5523878335952759,1.2968642711639404,0.3068891763687134,0.19059701263904572,-0.9324654340744019,-0.9407545924186707,0.3745884895324707,0.37103354930877686,0.8043646299799483,0.010393095349270543,0.18346460206907267,-0.5650046141507288
1681250215240797000,5.521796875,-0.6599138379096985,-0.6949030160903931,0.8073896765708923,0.294461190700531,0.2000032514333725,-0.9345005750656128,-1.4149446487426758,0.2198880910873413,0.4038761854171753,0.8102855982149655,0.001070546316482676,0.18096566544933326,-0.557393440008339
1681250215255829800,5.536829833984375,-0.19222325086593628,-0.2451203614473343,0.4876367449760437,0.29016929864883423,0.2028215080499649,-0.9352353811264038,-1.4789053201675415,0.1029951274394989,0.4087156057357788,0.8135166470031251,-0.0023435059397617143,0.17993559334272546,-0.5529993721582886
1681250215270862800,5.55186279296875,-0.1578301191329956,-0.2361372709274292,0.2362590730190277,0.28831276297569275,0.20340804755687714,-0.9356820583343506,-1.2356852293014526,-0.11313708126544952,0.5694863796234131,0.8152944672297928,-0.003667359050343184,0.17929172255740985,-0.5505778432902371
1681250215285896000,5.56689599609375,-0.4609929025173187,-0.6154089570045471,-0.10939791053533554,0.28263047337532043,0.20743511617183685,-0.9365311861038208,-1.03704035282135,-0.20035505294799805,0.6507340669631958,0.8161285521201244,-0.007190244999179563,0.1779963546639698,-0.5497269532715986
1681250215300928800,5.5819287109375,-0.6715189814567566,-1.0521609783172607,-0.5884300470352173,0.2696826756000519,0.21721071004867554,-0.9381315112113953,-0.7469319105148315,-0.25804322957992554,0.7074643969535828,0.8157600600323426,-0.01475475677254361,0.1752613548837945,-0.5510000440304925
1681250215315963000,5.596962890625,-0.5012573599815369,-1.2937320470809937,-1.0928359031677246,0.24998076260089874,0.22909210622310638,-0.9407584071159363,-0.6807974576950073,-0.20956087112426758,0.6662375330924988,0.8137309182645137,-0.02454495798328058,0.17034767697987863,-0.5551766892366357
1681250215330995700,5.61199560546875,-0.16119252145290375,-1.4203940629959106,-1.558370590209961,0.22605054080486298,0.2388761192560196,-0.9443724751472473,-0.6006081104278564,0.019943445920944214,0.4379485249519348,0.8097529844675174,-0.034078406546220276,0.16325571488388485,-0.5625712180238579
1681250215346028800,5.62702880859375,0.31023064255714417,-1.5852935314178467,-1.8395535945892334,0.19864721596240997,0.2434854954481125,-0.9493440389633179,-0.5355308055877686,0.11602680385112762,0.36561906337738037,0.8042209237335556,-0.042099047885958335,0.15347850911363237,-0.5726261931735285
1681250215361062000,5.642061767578125,0.7490569949150085,-1.765629529953003,-1.9813218116760254,0.16780292987823486,0.2410045862197876,-0.95590740442276,-0.39628809690475464,0.2799151837825775,0.16617351770401,0.7979423016851873,-0.048204835089972045,0.14043715463490164,-0.5841589040318214
1681250215376094700,5.6570947265625,1.2708876132965088,-2.1694116592407227,-2.2487294673919678,0.13226500153541565,0.23145915567874908,-0.9638115167617798,-0.32953065633773804,0.3655562102794647,0.041463494300842285,0.7909571732665623,-0.053021897234084174,0.12362413188434107,-0.5969022651618638
1681250215391127800,5.6721279296875,1.951478362083435,-2.538978099822998,-2.8200485706329346,0.08914212882518768,0.21202315390110016,-0.9731905460357666,-0.3032382130622864,0.5461402535438538,-0.3229978084564209,0.782207036018362,-0.056394067658531125,0.1011159356691696,-0.6121660402904464
1681250215406161000,5.687160888671875,2.2806482315063477,-2.2301230430603027,-2.94793438911438,0.0440104603767395,0.18349488079547882,-0.9820349812507629,-0.3505443036556244,0.7463604211807251,-0.6281639933586121,0.77097310176563,-0.0573919625523608,0.07542327802355409,-0.6297761474779938
1681250215421193700,5.70219384765625,2.491912841796875,-0.8005577921867371,-2.4421331882476807,0.014116487465798855,0.1494273990392685,-0.9886718988418579,-0.5392630100250244,1.3032550811767578,-1.1335813999176025,0.7598802382156801,-0.05251345516510125,0.053910800237668026,-0.6456918092662276
1681250215436226800,5.717226806640625,2.4133126735687256,0.3444691598415375,-2.351835012435913,0.0068343570455908775,0.11231434345245361,-0.9936492443084717,-0.47909390926361084,1.4406031370162964,-1.2354919910430908,0.7491469630911103,-0.03994145662744388,0.039750071476348015,-0.6600026370048726
1681250215451260000,5.732260009765625,1.5337424278259277,0.9201462864875793,-2.439509868621826,0.012880253605544567,0.08249866217374802,-0.9965079426765442,-0.16221804916858673,1.0011957883834839,-1.203824758529663,0.7375475178610703,-0.026128305538858965,0.032608933375463625,-0.6740012665427093
1681250215466292700,5.747292724609375,-0.09578561037778854,1.0353291034698486,-2.690366744995117,0.02532915584743023,0.0715750902891159,-0.9971135258674622,0.04312174767255783,0.8233681321144104,-1.144457459449768,0.7242387170557636,-0.017223996801263925,0.03386084400624128,-0.688501981583256
1681250215481325800,5.762325927734375,-1.6203688383102417,0.943638265132904,-2.8060414791107178,0.03719267621636391,0.08671625703573227,-0.9955385327339172,0.492073655128479,0.5335992574691772,-0.8797513842582703,0.7093952236697245,-0.017720141580958144,0.043780407161794675,-0.7032265576868907
1681250215496359000,5.77735888671875,-2.301802158355713,0.39983654022216797,-2.7341787815093994,0.043530113995075226,0.11844149976968765,-0.9920064210891724,0.7344239950180054,0.40739160776138306,-0.6641520261764526,0.6939856307123444,-0.025590566433394753,0.057809279868938426,-0.7172077699901278
1681250215511392800,5.792392822265625,-2.388639450073242,-0.35075944662094116,-2.8922832012176514,0.03818896785378456,0.1554209440946579,-0.987109899520874,0.9536628127098083,0.4797566533088684,-0.267406702041626,0.678022039453429,-0.03898943508502637,0.0701774923745395,-0.7306441505328232
1681250215526425900,5.80742578125,-2.1856958866119385,-0.8355706334114075,-2.1148407459259033,0.021812207996845245,0.19129537045955658,-0.9812901020050049,0.9024125933647156,0.48630163073539734,-0.09099072217941284,0.6639895709912123,-0.055946003330478764,0.07889856435485855,-0.7414599332300583
1681250215541459000,5.822458984375,-1.7385833263397217,-0.3097611367702484,-2.1312355995178223,0.0061218589544296265,0.22076332569122314,-0.9753081798553467,0.6392791271209717,0.39010700583457947,0.19418025016784668,0.6517238020751689,-0.07051237156420725,0.08587146758667764,-0.7502733024178903
1681250215556491800,5.83749169921875,-1.0799263715744019,0.3950657546520233,-2.2764205932617188,-0.00112147384788841,0.2415393441915512,-0.9703903794288635,0.4346083998680115,0.2492137998342514,0.304084837436676,0.6382837535095897,-0.07867634812371198,0.0928161859197726,-0.7601242543675149
1681250215571524900,5.85252490234375,-0.5350894927978516,1.041265845298767,-2.132179021835327,0.0011841971427202225,0.25309818983078003,-0.9674398899078369,0.22124315798282623,0.06208732724189758,0.5306417942047119,0.6244844795021933,-0.07987204155968433,0.09950137837407823,-0.7705445695971139
1681250215586557400,5.867557373046875,-0.2641128897666931,1.5148898363113403,-1.8565977811813354,0.012246500700712204,0.258680522441864,-0.9658852815628052,0.2113710343837738,-0.03010392189025879,0.6418343782424927,0.6116312344402188,-0.07562053533184306,0.10648421286603153,-0.7802883147230414
1681250215601590300,5.88259033203125,-0.3875330686569214,1.8055331707000732,-1.6283172369003296,0.029725342988967896,0.2636133134365082,-0.9641703367233276,0.2963549494743347,-0.24391424655914307,0.8390177488327026,0.5998138380185556,-0.06856310212136982,0.11495188310492405,-0.7888653941235618
1681250215616623400,5.897623291015625,-0.5309705138206482,1.8802297115325928,-1.4620667695999146,0.05043061822652817,0.2714337408542633,-0.9611349701881409,0.34011805057525635,-0.3393811881542206,0.9311361908912659,0.5887119213104496,-0.061006414977510796,0.1253424242667567,-0.7962321678340378
1681250215631656200,5.91265625,-0.42368918657302856,1.7633998394012451,-1.2989068031311035,0.07101792097091675,0.27986687421798706,-0.9574084877967834,0.42924144864082336,-0.42537474632263184,1.1192889213562012,0.5783573807985799,-0.05357201190083722,0.13574167489205152,-0.802625068724366
1681250215646689300,5.927689208984375,-0.21693280339241028,1.5069024562835693,-1.0047249794006348,0.0891498476266861,0.2860821783542633,-0.9540488719940186,0.4528881013393402,-0.4378003776073456,1.195397138595581,0.5694218291380513,-0.04650487956242373,0.1442665879312484,-0.8079500683522701
1681250215661722000,5.94272216796875,-0.14996851980686188,1.2324278354644775,-0.6439486742019653,0.10501536726951599,0.2895433008670807,-0.951386570930481,0.4966386556625366,-0.5110399127006531,1.2790385484695435,0.5628359214191085,-0.03982862386615724,0.15073283286545203,-0.8117320484280185
1681250215676755200,5.957755126953125,-0.35917046666145325,1.1502368450164795,-0.2612074017524719,0.11980085074901581,0.2939509153366089,-0.9482829570770264,0.486369788646698,-0.5806941390037537,1.2463023662567139,0.558637294696681,-0.03425225686649043,0.15711554689770496,-0.8136742074329208
1681250215691789300,5.972789306640625,-0.5205289721488953,1.1634044647216797,0.16620223224163055,0.1359364092350006,0.30051255226135254,-0.9440410733222961,0.471576988697052,-0.6227934956550598,1.1001994609832764,0.5567849311425426,-0.02917504750117659,0.1647066927484649,-0.8136405504972731
1681250215706822400,5.987822509765625,-0.48660773038864136,1.2210861444473267,0.7864260673522949,0.15473628044128418,0.30685436725616455,-0.9390937685966492,0.46713560819625854,-0.5828249454498291,0.9569007754325867,0.557981498346882,-0.023558388136104825,0.17291075093103617,-0.8112973920284905
1681250215721855200,6.002855224609375,-0.1930457353591919,1.3734486103057861,1.5490614175796509,0.17843271791934967,0.3089345693588257,-0.9341954588890076,0.5216862559318542,-0.38391628861427307,0.6286992430686951,0.5633205841514892,-0.015612617326879167,0.18071664063287116,-0.806081659267725
1681250215736888000,6.01788818359375,0.4682798385620117,1.5396218299865723,2.2140562534332275,0.20741109549999237,0.3020939826965332,-0.9304406642913818,0.5436722040176392,-0.2612157166004181,0.49014830589294434,0.5726759822132013,-0.003848003207296989,0.18645336346615687,-0.7982872013052106
1681250215751921200,6.032921142578125,1.3463835716247559,2.057185173034668,2.8638007640838623,0.24334795773029327,0.28053370118141174,-0.9284840226173401,0.5659629106521606,-0.05435273051261902,0.1755238175392151,0.5853028837329762,0.014349040299405662,0.18855262598114939,-0.7884556852071254
1681250215766954200,6.047954345703125,1.5259690284729004,2.377687931060791,3.317183256149292,0.2872408628463745,0.24705666303634644,-0.9254488945007324,0.5544644594192505,0.09376361966133118,-0.09487581253051758,0.6000503610609562,0.03881837004743451,0.1891260864210604,-0.7763144055478087
1681250215781987000,6.062987060546875,0.8365300297737122,2.324934720993042,3.5310614109039307,0.3317387104034424,0.2142416387796402,-0.9187219142913818,0.6855189204216003,0.3820717930793762,-0.7615149021148682,0.6161131372581641,0.06285253182593241,0.1915426984173318,-0.7614233862699972
1681250215797020200,6.078020263671875,0.1890537440776825,1.9505707025527954,3.717088222503662,0.37207329273223877,0.187975212931633,-0.9089701771736145,0.7919739484786987,0.4348122477531433,-1.0360066890716553,0.6332265307030286,0.08265448130103119,0.19668032795520796,-0.7439819758117435
1681250215812053200,6.09305322265625,-0.572894811630249,1.2175899744033813,3.7509851455688477,0.4039943516254425,0.16848503053188324,-0.8991113901138306,1.0693484544754028,0.16047918796539307,-1.4928869009017944,0.6516799900496367,0.09630127308402094,0.20290480255184679,-0.7244782956554775
1681250215827086300,6.10808642578125,-1.3220622539520264,0.5302712321281433,3.415165901184082,0.4241381883621216,0.15872716903686523,-0.8915786147117615,1.0880839824676514,0.08623740077018738,-1.4462203979492188,0.6703925536406077,0.10171860231711517,0.20943738768579087,-0.704530274064645
1681250215842119200,6.123119140625,-2.0554144382476807,0.14026619493961334,3.0849480628967285,0.43637681007385254,0.16046717762947083,-0.8853392601013184,0.9489991068840027,-0.05759245157241821,-1.1998353004455566,0.6881249114553075,0.0999681848210248,0.21757008342893921,-0.684947972318759
1681250215857152300,6.13815234375,-2.465315103530884,-0.4198210537433624,2.732776165008545,0.44189098477363586,0.1717774122953415,-0.8804685473442078,0.8203312158584595,-0.10439464449882507,-1.09580397605896,0.7047519960702233,0.09212590424739638,0.2264476661321692,-0.666002108932373
1681250215872186000,6.15318603515625,-2.430596351623535,-1.1302189826965332,2.4937965869903564,0.4387548565864563,0.18723157048225403,-0.8788847923278809,0.5106011629104614,-0.023382723331451416,-0.8395295143127441,0.7205451687006336,0.0795811502927522,0.23286141933610416,-0.6482722675977205
1681250215887219200,6.16821923828125,-2.1992766857147217,-1.8851248025894165,2.404599905014038,0.42594820261001587,0.20209544897079468,-0.8818874955177307,0.35260093212127686,0.05196334421634674,-0.7021579146385193,0.7361891927881993,0.06390681192171296,0.23446147098723114,-0.6316399422128146
