seconds_elapsed,rotationRateX,rotationRateY,rotationRateZ,gravityX,gravityY,gravityZ,accelerationX,accelerationY,accelerationZ,quaternionW,quaternionX,quaternionY,quaternionZ
2.0,2.088422546362871,-0.9206359189933286,-3.2743798914598266,0.13870965406794927,0.19406472005772896,-0.9710008703627985,-0.5226203639450898,0.7921254577826313,-0.2587461807170749,0.9926615106135436,-0.09792880619381647,0.06963691840658513,0.0017082463520257107
2.01,2.213235668131262,-0.3628069903383059,-3.222246898739406,0.1269191188128364,0.1773525062744279,-0.9758208240835442,-0.6136972947184549,0.96857855959438,-0.5012518183090204,0.9937541539257622,-0.08829867699863038,0.06507811427209317,-0.014717199044644512
2.0199999999999996,2.285187336599932,0.20205475151513402,-3.0331026599836,0.11970831137844765,0.1596079968244534,-0.9798717760352452,-0.6675247940637721,1.0573159107918038,-0.681370932952294,0.9944520135348873,-0.07828849738059952,0.06261654658394693,-0.03112170094000319
2.0299999999999994,2.1959844780432967,0.5040804843136675,-3.074777573706701,0.11945795572413882,0.14082204481280666,-0.9827189533215829,-0.605276884375386,0.9430527456349865,-0.8655720707288814,0.9945013004854066,-0.0678075349976209,0.06319102385746507,-0.04703930899885572
2.039999999999999,1.8681882088367754,0.7018571681517374,-3.2638548472563356,0.12125658176630591,0.1248643323448788,-0.9846796523348567,-0.5201549497707844,0.8325903613181217,-0.9655323906734676,0.9940450027087435,-0.058639626676113644,0.06467259740444906,-0.06368375002860484
2.049999999999999,1.3514012767669896,0.8193765980731988,-3.5487564051942506,0.12459073694343177,0.1117617703458314,-0.9858917131985149,-0.40716084324278795,0.7321212938312175,-1.005924580874526,0.9931475453406815,-0.05080614547540456,0.06686154702618091,-0.08099419128117778
2.0599999999999987,0.5996082729041585,0.8593218756189336,-3.7521768987712862,0.1289958821412867,0.1081029121614334,-0.985727607370453,-0.16602591421771495,0.7110038593041703,-1.0408628266500703,0.9913115808003857,-0.04745319373222673,0.06982335320035868,-0.09999800734390962
2.0699999999999985,-0.1612259419631683,0.7678146992609514,-3.6562067695045015,0.1328548786993933,0.11109183895713932,-0.9848697116322545,0.011565829395084132,0.7208190313690243,-1.0251271100175514,0.9890471855461859,-0.04740355015075819,0.07286952916259717,-0.11849393109143194
2.0799999999999983,-0.9164466069311205,0.5594782832653967,-3.3337328837873224,0.13592243152908345,0.11963498125166372,-0.9834517831885695,0.1521450447428123,0.7484560272460039,-0.9669726609339827,0.9864662224347724,-0.050157260997714864,0.07583844763083918,-0.13633211213322594
2.089999999999998,-1.5282193362107688,0.08953549280119089,-2.8836093512320415,0.13428309796542845,0.13722032924736915,-0.9813223326416844,0.3964621261302859,0.7232784503872246,-0.838937761734218,0.983792024498541,-0.05791794468338692,0.07717454804067804,-0.1507188046906163
2.099999999999998,-1.9900791958913826,-0.31463336727256,-2.573767055483642,0.12881589710894115,0.15822662029791457,-0.9787921629492177,0.5369792438356704,0.6647757967071315,-0.7540149454880886,0.9811455644329435,-0.0678383569487757,0.07700776462194124,-0.1633324200914068
2.1099999999999977,-2.3109035681284484,-0.6475552514787033,-2.385527290734525,0.12027323088787076,0.18188828904140236,-0.9758946472979937,0.5906244445892743,0.5784852566643873,-0.6956569490392408,0.9784967497807676,-0.07945243123295727,0.0756474060697899,-0.1745820162436899
2.1199999999999974,-2.2403587231731095,-0.686814372405926,-2.4284955649428075,0.10858117478568337,0.20715196686379878,-0.9720765377136454,0.5136339897641121,0.451587363152918,-0.5676743693599883,0.9755499937859607,-0.09230250860430257,0.07323153529691452,-0.18516095130022253
2.1299999999999972,-2.010650444975628,-0.5652760997256755,-2.4329319420317805,0.09716870421638552,0.23017047508140803,-0.9681234959940395,0.4301484816760929,0.3779788680426139,-0.4590324903280106,0.97242796577766,-0.10407891818389531,0.07099047701165466,-0.195901046557544
2.139999999999997,-1.6486205172002955,-0.30920089119583155,-2.407110386472791,0.08628572236150943,0.2510335765148815,-0.9641124677918287,0.3379845642065917,0.3449597016133818,-0.3593806541321266,0.9691683630769407,-0.11478786079061776,0.06901331892363578,-0.20677619465411984
2.149999999999997,-1.1235290096654031,0.12398748687937938,-2.3674650510844093,0.0799800927061217,0.26542382190269487,-0.9607459788696026,0.1918058605961662,0.31289822426349123,-0.17714317397549215,0.9658467622469897,-0.12187091502276194,0.06892797183752608,-0.21783192289199593
2.1599999999999966,-0.6329999620482265,0.46310331881004463,-2.28961898456034,0.07655220300464519,0.2755210794326689,-0.9582282216596862,0.09743126173532637,0.27233584324546234,-0.04413366165192804,0.9626169991673186,-0.12648886542129856,0.06986445026711442,-0.22893593158250947
2.1699999999999964,-0.18735787275120944,0.7204353557370385,-2.1799729024263255,0.07555321397275967,0.28198791747822904,-0.9564381141398999,0.046574148142920636,0.2231731021144753,0.057457881717846826,0.9594744048659047,-0.1290214243506927,0.07165085628091425,-0.24003737381452037
2.179999999999996,-0.03141484263459143,0.8434041070057949,-2.038609390516248,0.07748352413919779,0.2839713816373576,-0.9556948602493824,0.045100585651294434,0.1422729135707961,0.2730327134679387,0.9565816610222515,-0.12896748718840387,0.07427455400505603,-0.25048642108487745
2.189999999999996,0.00935037638242384,0.898029726457654,-1.9197031199463013,0.0801476294064818,0.2856621148438163,-0.9549693966783068,0.0667659694106257,0.08222042014481476,0.42176783082639246,0.9537177544775369,-0.12866939193589777,0.0771640675876751,-0.2604877082579996
2.1999999999999957,-0.04037043719473611,0.8932262156607039,-1.8159993619352193,0.08338721803485225,0.2871532081061237,-0.9542476454417493,0.1092371141274843,0.03542728626492118,0.5197068184657585,0.9508809835458889,-0.12819510714476262,0.080259265996411,-0.27007943815014385
2.2099999999999955,-0.054649780944069824,0.8038669963296429,-1.660475135052884,0.08638258827952779,0.28929264500450824,-0.953331528352827,0.1929393094432815,-0.07518052100805142,0.6697654655009668,0.94811779324201,-0.12808352020274089,0.08321478251696589,-0.2787454718682347
2.2199999999999953,5.788854088802087e-05,0.6978092731068073,-1.5180595240857486,0.08887559139820984,0.2908824086266703,-0.952620309135179,0.24563340400159828,-0.154057051220271,0.7630385310793381,0.9455537543799523,-0.127804281142903,0.0857514142779096,-0.28671683818341026
2.229999999999995,0.10870328510756318,0.5787781623627113,-1.391883840078854,0.09089566425051625,0.2919600936062589,-0.9521014593115097,0.27238207872833536,-0.20745537864446992,0.8099054870854934,0.9431632088085634,-0.12736732799619782,0.08790146426324993,-0.2940926557062295
2.239999999999995,0.15489568754647137,0.47661973323664586,-1.3815036507771894,0.09166251659490068,0.2917813148684392,-0.952082625889362,0.29094124660034104,-0.2753236771181299,0.8653880350452983,0.9409713840832542,-0.12651457899943364,0.08917186700815372,-0.3009802928084294
2.2499999999999947,0.1992223667519844,0.38428803925783883,-1.329898238780338,0.0916994680945246,0.29135312639113353,-0.9522101188596555,0.30028690822183446,-0.3088964401857644,0.9085780710076126,0.9388334100813815,-0.12566270543781796,0.09001843693262032,-0.3076883959480901
2.2599999999999945,0.24414154652768258,0.303608213040191,-1.2392967604139902,0.09112667604173742,0.29066121023552244,-0.952476595255402,0.3029660543033295,-0.31379095563063036,0.9398796609722919,0.9367560787465038,-0.12478852685014435,0.09049527032897575,-0.31420426021674697
2.2699999999999942,0.34370089401106124,0.3067551787578117,-1.0457138822547338,0.09076039076178155,0.2886468270519049,-0.9531229186542042,0.33416871302744633,-0.3276718023178512,0.9339181493502863,0.9350573743616832,-0.12333460261841496,0.09069768253759447,-0.3197078334715826
2.279999999999994,0.40475746544217467,0.2869788366651455,-0.8411456032914989,0.09081091814077524,0.28595384158270726,-0.9539274806629852,0.36283674338370914,-0.33211591477473773,0.9186728162313861,0.9336422071924012,-0.12155889881761665,0.09087075492197942,-0.3244481831744409
2.289999999999994,0.42944902770715737,0.24612726305376584,-0.6254955609027715,0.09122936253918944,0.2826703424666642,-0.954868649225025,0.39131490485495396,-0.3273675804709608,0.8945039278471054,0.9324914917125594,-0.11950755689344258,0.09101348515276149,-0.3284715576766264
2.2999999999999936,0.3655776904430035,0.17016984672341764,-0.36294377727022936,0.09181774307108752,0.2793699992693529,-0.9557803206107762,0.4814710092603212,-0.2923472743022664,0.8442271917881575,0.9318905702927939,-0.11758212656589485,0.09100813238916666,-0.33085799613507544
2.3099999999999934,0.3143941111333549,0.03104941553584986,0.016618680219428583,0.0922030228106557,0.2762386340732958,-0.9566534598755531,0.5436960771216199,-0.2747269491896719,0.81077842215916,0.9317889706785568,-0.11591357094162215,0.09075311961881982,-0.33180681230916664
2.319999999999993,0.27233960302906823,-0.16043784355127536,0.4971490276089841,0.09240445655497208,0.27326957037329985,-0.9574888514165606,0.5813536315742219,-0.27345479318051036,0.7930130482503998,0.932161958266318,-0.1144883782210259,0.09026589854904517,-0.3313877076036298
2.329999999999993,0.14476029152347714,-0.19549642738894676,0.8419206119002334,0.09250713835498726,0.27074632794790404,-0.9581938557938444,0.6332809845228601,-0.3039096262727748,0.8009754622906959,0.9336574881232078,-0.11361003666716515,0.08941530545855891,-0.3276777377668941
2.3399999999999928,-0.06679566056059966,-0.1453781400753752,1.0479493272105527,0.09343868159165934,0.26952976825708685,-0.9584474046376485,0.6540921842582486,-0.32671576040960276,0.8036035929334117,0.9352772358476392,-0.11329852124160114,0.08910500917304708,-0.32321040420685593
2.3499999999999925,-0.3563148201700092,-0.01717039322183628,1.1294066065613595,0.09517738999714638,0.2696001291245949,-0.9582566630332114,0.6458583648109233,-0.3423373269729823,0.7982357705729672,0.9370075783719019,-0.1135443569907258,0.08932575396720373,-0.3180315027307572
2.3599999999999923,-0.6984223673368167,0.11183392191166654,1.3492642496795009,0.09943775789516188,0.2744138328776398,-0.9564450464198335,0.6097872069876399,-0.3487243153382887,0.6276665412921163,0.9385642735487342,-0.11579982320925654,0.09145014736749556,-0.3119295988620055
2.369999999999992,-0.7718511620590868,0.2588918463666783,1.7516465053040995,0.10554713734973221,0.2797142348702425,-0.9542369052450276,0.5927202115647272,-0.31730140059198547,0.45414525958422963,0.9404544361055613,-0.11819574193032625,0.09434704861215867,-0.3043356635374352
2.379999999999992,-0.5857592432371961,0.4259717149460666,2.3254854993476153,0.11347675883361628,0.2853718337898454,-0.9516732648809287,0.5925118899994294,-0.24715588878725325,0.27434573307400034,0.9426740356838544,-0.12066905878980382,0.09798879604168355,-0.29529498934773357
2.3899999999999917,0.15582748066412577,0.8459966401757697,2.8722423424855466,0.12808791546463644,0.28261277193566375,-0.9505855873506401,0.5066043970844003,0.0848817448552946,-0.19753720801872937,0.9461952991324495,-0.1185701725885769,0.10311668318082863,-0.28270519700576846
2.3999999999999915,0.9645264144542414,1.4265861403371338,3.243550342569803,0.14747859351455914,0.2729653376203744,-0.9504281176846796,0.40300322024553226,0.3614401073558926,-0.533062073974618,0.9500792626858595,-0.11268668009266573,0.10959452809697041,-0.26916277006803363
2.4099999999999913,1.834978286206917,2.160248426095285,3.442591550986202,0.1715276451922066,0.25660501761692844,-0.9511669192386933,0.2823214286533427,0.5844727999571873,-0.7376667576905029,0.9543091430381503,-0.10311446053998036,0.11739298264582217,-0.25470808795165945
2.419999999999991,2.1183978788607756,2.4995750324914296,3.1241646190480794,0.20314219099390696,0.2295088970978887,-0.9514151037649193,0.16482267710873333,0.8234173290504352,-1.101964652387942,0.9576747756544205,-0.08754208674552272,0.12825112672487077,-0.24182177492014503
2.429999999999991,1.9082867100729546,2.4998813296210067,2.8659837617661323,0.23344670902417908,0.2041416056784737,-0.9503273372392753,0.12983988299871949,0.9199226224549102,-1.3649665298552405,0.9603736642835419,-0.07308747419392128,0.1390906561487322,-0.2297390024709437
2.4399999999999906,1.208246317872128,2.1636413163341586,2.6676093337405105,0.26245075920351024,0.18049052723779732,-0.9479133687572457,0.1767708865758418,0.8750281297129465,-1.5274115972233617,0.962410674486109,-0.059742466028628025,0.14991170675775076,-0.2184539067710568
2.4499999999999904,0.35744172453246736,1.437203704281588,2.740372383352059,0.28259615901295687,0.16768524343892277,-0.944313394770899,0.4749166715959399,0.6211219714540477,-1.3472838847146722,0.9641169245574364,-0.053216394727170276,0.15797831427726966,-0.20629918963054683
2.45999999999999,-0.4010853046264225,0.7354876953681055,2.77325635390025,0.2973792309132723,0.1597713891200529,-0.9412692618621762,0.6561333484587097,0.42503713759245293,-1.1641425074431253,0.9660109722495841,-0.04992798596362952,0.16390705315592774,-0.19328479554280892
2.46999999999999,-1.0653389787296919,0.05954227244480026,2.7650958915575785,0.3067099029849325,0.15682706111241498,-0.9387934003619731,0.7178034884049116,0.28819260015716514,-0.978433189220943,0.9680969144622485,-0.04992946165015171,0.16766087036478883,-0.1793954748871278
2.4799999999999898,-1.5688654921856044,-0.32771175108081596,2.539243814686998,0.30858929529211165,0.16271339005393384,-0.9371637996647658,0.5424831418115894,0.1382383061337738,-0.7161327257277159,0.9701156357218625,-0.05514994740342676,0.16841101271853337,-0.165396760058726
2.4899999999999896,-1.87029540094466,-0.6520234748784955,2.301766873993785,0.30806832456560007,0.17126994031717352,-0.9357844358917384,0.37368340634319297,0.05799825584143836,-0.5395117997591667,0.9719523704974313,-0.061793400213396764,0.16809507288493888,-0.15205265046995958
2.4999999999999893,-1.961604351538445,-0.9129219996069684,2.0539751819515684,0.30509878950926644,0.1825457282282572,-0.9346597435703825,0.21372155690907316,0.05082315814553929,-0.45320250818131735,0.9735992341019981,-0.06988157963558322,0.1666890448408631,-0.13939449224480607
2.509999999999989,-1.797170875458926,-1.0975576938242078,1.8886483311577473,0.29890606555751065,0.19406833257382133,-0.934293806444473,-0.0570901906516805,0.17260895451650285,-0.32653033357803507,0.9750286333741188,-0.07802212215595883,0.16348237535676863,-0.12806130920563322
2.519999999999989,-1.5901295061596181,-1.2073008219194197,1.7327884991567788,0.2917118611888621,0.2045144420438298,-0.9343458770443328,-0.2546556944344309,0.2663395672074658,-0.2278441672734462,0.9763948082794068,-0.08551324602293171,0.15963016463405175,-0.1173706452446369
2.5299999999999887,-1.3413890107293303,-1.2377860853321416,1.585784154663775,0.2834930007082313,0.213799856541908,-0.9348349988733516,-0.371743355850975,0.3278632703621539,-0.1598752650176259,0.9776965190632132,-0.09230569781005876,0.15511304922585914,-0.10734923704491194
2.5399999999999885,-1.0094608732139863,-0.9341761715306176,1.4183595259926873,0.27692951894285767,0.22017839669162229,-0.9353015973720668,-0.6217266997471781,0.34553995733911547,-0.04861678594291553,0.9786958005889624,-0.0971898352783781,0.15127390581752825,-0.09883257313367787
2.5499999999999883,-0.6270727076358356,-0.5321890595893262,1.254073022667578,0.273003468586574,0.22420993450280197,-0.935519840910916,-0.823365571433847,0.34032843671969376,0.02185628696613834,0.9794911369300157,-0.10058411587286997,0.14873036342821574,-0.09130371121852493
2.559999999999988,-0.19100290780142548,-0.02966002216951369,1.0937377956832148,0.27194770659027884,0.22572158426300293,-0.9354646094223856,-0.9684831950762499,0.31091380326963386,0.0462936236109812,0.9800686981797652,-0.10238030298772956,0.14760004711204722,-0.08482867976849509
2.569999999999988,0.2213982520014205,0.4236389026192735,0.9396960128851111,0.27715788705049194,0.22189655901889613,-0.9348379509631964,-1.1672898227373245,0.2776295396094318,0.07796462825964065,0.9802902007856188,-0.10093557466505065,0.14963114715647052,-0.08024568350714927
2.5799999999999876,0.5728379968663098,0.7514956538906241,0.7451466526002732,0.2843771095320291,0.2159478069736088,-0.9340349931093538,-1.283594631647292,0.26298509628366323,0.11474644583020382,0.9803740727637721,-0.09819400785333253,0.15272118313553704,-0.07668820908151448
2.5899999999999874,0.855983570893156,0.9388384840266364,0.5045024028603735,0.29366894510475544,0.2077663503214062,-0.9330508575911849,-1.304691157098977,0.2695831181002994,0.15708342372809245,0.980313583092264,-0.09408847539010107,0.15690824832643768,-0.07423111675454679
2.599999999999987,0.9955293552504724,0.8813663586767844,0.18502833843738925,0.3027750780546651,0.1978644284716167,-0.932245709777375,-1.1995195997247494,0.22778234960887392,0.29674038043348583,0.9801196071578515,-0.08875651567676689,0.16116760178468698,-0.07408315202516604
2.609999999999987,1.0407105474541034,0.7282442813624812,-0.15368316301188906,0.3102841740443478,0.18841168383881035,-0.9317572562371699,-1.1078252386353862,0.18521672178926857,0.4061051658126153,0.9799119228526425,-0.08349976604960117,0.16472089534490578,-0.07515585770446866
2.619999999999987,0.9820667195625625,0.47400296942861914,-0.5115038171735576,0.3159429559635122,0.17955293258016222,-0.9316298212859323,-1.0370515779537266,0.1437701592848278,0.476187965700758,0.9796938306688927,-0.07838142324669711,0.1674497453382909,-0.07755286746025607
2.6299999999999866,0.8487975801469814,0.24218607751303206,-0.8490897839416763,0.3172171416744144,0.17379601085804294,-0.9322825864146141,-0.9587372996681168,0.0806756032396338,0.57793652672245,0.9794792503569877,-0.07460952736071136,0.1681805512154143,-0.08215885497918847
2.6399999999999864,0.7242523567938456,0.0665428866321083,-1.1618870944117181,0.3169495929686293,0.16966855096759256,-0.9331402104809848,-0.9107357191168447,0.04701827062734413,0.6364797669932192,0.979206374582977,-0.07155695575033075,0.16824642302732548,-0.0877693639104927
2.649999999999986,0.613950911021414,-0.04310921248164987,-1.4460923160672183,0.3150636537240597,0.16732994546553712,-0.934202772333908,-0.8993491906835316,0.04965122269291457,0.6417648613902959,0.9788636451812176,-0.06929524100196569,0.16761977348096468,-0.0944674754906623
2.659999999999986,0.6968426695693424,-0.13065905943760853,-1.716393021272642,0.31130147276688014,0.16637839735304608,-0.9356282816570153,-0.8742074703860832,0.10288792662650417,0.6025358625277827,0.9783478255039654,-0.0675382108798214,0.16619791328270497,-0.10300658001415829
2.6699999999999857,0.8576394605439495,-0.19491562022186631,-2.003317344353777,0.3067344241465663,0.16484095150094705,-0.9374020504080246,-0.8476560723970739,0.14790263557400485,0.5637332142798653,0.9777275974900694,-0.06536768329334176,0.1643780719629369,-0.11266353440319336
2.6799999999999855,1.1021666266650407,-0.23194203895346893,-2.3115016755809377,0.30129495516184235,0.1624989857198874,-0.9395809385779393,-0.8202210893352592,0.17971067978457111,0.5281938726487246,0.9769898710487865,-0.06265855616310606,0.16211868918401717,-0.12357923900583961
2.6899999999999853,1.3333934521352673,-0.2808209205256346,-2.6795708551654775,0.29474475575962616,0.15815049318682803,-0.9423779182361558,-0.7584842672531096,0.22115559123011802,0.4306817327876671,0.975859856912501,-0.05868521995645864,0.15922920706769705,-0.13706830128603772
2.699999999999985,1.504064132657792,-0.39488245742376116,-3.054486134418236,0.28710744028071555,0.1531782827473586,-0.9455408503000365,-0.7016811394857141,0.2524835072155258,0.35386798598222124,0.974440227218514,-0.05433078081213731,0.15575306012415663,-0.15200715202092993
2.709999999999985,1.5993532011211422,-0.5902633139439587,-3.43369369234649,0.27818003512721146,0.1475651081874542,-0.9491203688214497,-0.6535833666331317,0.27035835066164804,0.30763954984744984,0.9726838914428362,-0.049587467592713236,0.15158293681377047,-0.16858735444758532
2.7199999999999847,1.63568247377488,-0.8625328990020208,-3.6971762015534653,0.2654324118674923,0.14179604449520225,-0.9535834933389661,-0.5658470644214423,0.36573715978602983,0.19577562628575973,0.9703313868392928,-0.04506447076063276,0.14541546631801908,-0.18723951419028684
2.7299999999999844,1.719179048890327,-1.0884771674866536,-3.9616611540956956,0.2508687030882132,0.13553986122949988,-0.9584003216650072,-0.5018605063177909,0.47255410043854895,0.09937772002213778,0.9676040248151626,-0.040574789818007495,0.13824698404305336,-0.2067452420553014
2.7399999999999842,1.8687086494790348,-1.247972146298057,-4.237168665260932,0.2342742972886299,0.1286659892523635,-0.9636009233829324,-0.4719591775901224,0.5876699636515983,0.0285226985163545,0.9644413432929518,-0.03610973744132934,0.1299500951035628,-0.22718217708868257
2.749999999999984,2.045109256669757,-1.1040074900328936,-4.541571706871258,0.21732898264944578,0.11933501135963245,-0.96866517659952,-0.5460913117328458,0.83451903495039,-0.17401624892975673,0.960045775072318,-0.03075078568123627,0.12109508842263744,-0.24971969714327003
2.759999999999984,2.244583620132221,-0.791600230678471,-4.657468243187567,0.2028513164061611,0.10820620170309167,-0.9731380463769306,-0.6217158013583558,1.0234895396540762,-0.3439709980806391,0.9549331570361698,-0.024412565916927788,0.11308003613491083,-0.27276442896889125
2.7699999999999836,2.472160825268227,-0.28437718705473114,-4.519831532367433,0.1916898969291517,0.09492273134174414,-0.9768374062784733,-0.6892997944562017,1.1227758124286364,-0.4578924654857307,0.948985541883107,-0.016857882328127995,0.10623606424442587,-0.2962814151319574
2.7799999999999834,2.6189202689860442,0.28621868917673216,-4.059358601495355,0.18940821504909103,0.07735169653616623,-0.978757724067179,-0.7015681925672572,1.143143184933141,-0.7101647062654728,0.9425367568886069,-0.00650777470848931,0.102531166462937,-0.3174059023915873
2.789999999999983,2.608788000161939,0.8173940030152288,-3.695854400699741,0.19176679035303704,0.059241085070591386,-0.9795582480100635,-0.6741227297019896,1.1644675612998956,-0.9288766353319833,0.9359474604196152,0.004648221946254614,0.10066779763662159,-0.3370669544168889
2.799999999999983,2.393081467169124,1.287758311230736,-3.5002083652891027,0.19949521064368808,0.040862313015860297,-0.9790230925847826,-0.5984555906827833,1.1957373386968073,-1.0865804405348645,0.929220982664669,0.01659965227531318,0.10097763132360336,-0.3549898232775191
2.8099999999999827,1.8903755168149903,1.876325003305158,-3.6867534254558936,0.2147796858373809,0.02838454770471577,-0.9761380709265423,-0.40510271765676564,1.3148499280928412,-1.3272174438807034,0.9214291213679525,0.027322079469003648,0.10541171915432808,-0.37260933678632624
2.8199999999999825,1.2997155189497125,2.2796648324030198,-3.720277745694819,0.2335393908512086,0.020745377749392262,-0.9719981458093546,-0.23622551521657217,1.375942843814018,-1.4502463631064122,0.9130762707827592,0.036680385208509435,0.11219590642313576,-0.39002638612405677
2.8299999999999823,0.6209469747448204,2.4083354539318664,-3.4917991666033306,0.2562470777313236,0.019172710740854488,-0.9663859126921394,-0.11623033261196267,1.3447323795374386,-1.3979045859279107,0.9040670809827049,0.04427478896509502,0.12177142362555786,-0.4071965513121726
2.839999999999982,-0.14513729265785313,1.7420458756598358,-2.8627536715148905,0.27451190221804983,0.026904443914597467,-0.9610893598659995,0.30215470732122196,1.0876844268831694,-1.0896244638764905,0.896479568907322,0.04663403806512731,0.13126396983137847,-0.42041668949478217
2.849999999999982,-0.7522400533307612,0.8454307270931452,-2.3396774398994107,0.2864818384817619,0.038212025637239626,-0.9572658677838789,0.6757971206912707,0.8730773593975452,-0.8249193014011474,0.8901039725345588,0.04582094956876349,0.1387385498050816,-0.4316274512196454
2.8599999999999817,-1.1177782472465911,-0.27368643176695806,-2.024976166119762,0.2899798355303645,0.05339417509568882,-0.955525036221587,0.943578048009045,0.7509730311043246,-0.6585177676234846,0.8852810862426429,0.04115284947268218,0.14331171998718123,-0.440484135751837
2.8699999999999815,-1.179109318834481,-1.1681489381277808,-2.0547531990240486,0.2795848330964391,0.07036420759050001,-0.9574148565302291,1.0598804862470728,0.6288749852906186,-0.40542354166161537,0.8815920976285743,0.03241411052669479,0.14210803606731012,-0.4488412362153998
2.8799999999999812,-1.1736109113539446,-1.78276085317841,-2.0674637848123107,0.26425449509233456,0.08727224236317084,-0.9603326389114812,1.0683702914212898,0.5431230969067583,-0.20059713591634187,0.8781180691616298,0.02252175067880281,0.13877747716734923,-0.4572070296028844
2.889999999999981,-1.115861533055122,-2.0166047903231514,-2.0016625832796273,0.2437421130093819,0.10381224930972985,-0.9642160112597353,0.9401920423982493,0.5113272845082606,-0.08080836364928995,0.874788119560377,0.011545175754576623,0.13318125943568765,-0.46566284722836476
2.899999999999981,-0.995105246777611,-1.7697675564059634,-1.8387658260804136,0.22340519438421075,0.11808393694158223,-0.9673728226395617,0.6431070322653802,0.43342659910777837,0.12264230512050849,0.8716048277384715,0.0014028672956649928,0.12743114408260553,-0.4732393021084319
2.9099999999999806,-0.8603242900168185,-1.3557362503228858,-1.7157798891885379,0.20585464262742284,0.13102965653642257,-0.9697012195130239,0.4093784653653728,0.35930911067644467,0.28305975791243376,0.8683289598599876,-0.007561212841044054,0.1227383418997065,-0.48044753713170935
2.9199999999999804,-0.7149212706425804,-0.7688104912765013,-1.6703033996432681,0.19252579363102623,0.14234010785658596,-0.970889826521753,0.3012193114499246,0.29885126820156666,0.3635013084859211,0.8648867423407817,-0.014870146577954577,0.11968522052561768,-0.4872443322831857
2.92999999999998,-0.5188600617911745,-0.4247990413861292,-1.5495472338541516,0.18525414226648879,0.1508873881181769,-0.9710065796225973,0.1547783972686111,0.20707371861716833,0.48960117102650025,0.8612159617623236,-0.01952586550711891,0.11876430950520614,-0.493740851111604
2.93999999999998,-0.33791662261389643,-0.21706104522585193,-1.3782537130458996,0.1797203564300196,0.15787023148468252,-0.9709581725518859,0.07332338508818324,0.1340249181731076,0.5931725628232627,0.8577278575426754,-0.02313295520910368,0.11825026080403285,-0.499765112063278
2.9499999999999797,-0.19025268131587927,-0.1772602730001826,-1.1418855098726923,0.17576962512944544,0.1629203172269143,-0.9708529812246821,0.10104632543803076,0.09627028180886107,0.6527821049874658,0.854569485292669,-0.025595746579995034,0.11797203226186943,-0.5051051609309931
2.9599999999999795,-0.10385848205085388,-0.14934992925334073,-1.0562780194834789,0.17236529205639314,0.16593493651842542,-0.9709508745054213,0.20476210663550778,0.012106425569373955,0.7490688680407852,0.8519472852731763,-0.027165584490882577,0.1174106041840562,-0.5095559364006238
2.9699999999999793,-0.09375568099036058,-0.13368689491164762,-1.0438459191047815,0.16914731144324913,0.16877090442702736,-0.9710292850284135,0.2858950028174961,-0.0678882178521323,0.8242991152837014,0.8493331843343709,-0.02862120786102625,0.1168983379457365,-0.5139416023005556
2.979999999999979,-0.19400157361923337,-0.13531211020739975,-1.1181641095737194,0.16611653802795281,0.1717411135216273,-0.9710341222442074,0.3148291659315836,-0.131526301727866,0.8579519427552796,0.8466208761607645,-0.03007790865263961,0.11652414592320144,-0.5184067920555008
2.989999999999979,-0.2768133938692221,-0.21318215518547828,-1.1200628536497614,0.16192268565001838,0.17623809824263625,-0.9709266882307024,0.34437259703740564,-0.20100151607382882,0.951206294095688,0.8437413830553796,-0.03247949427051182,0.11609532014736344,-0.5230175825244908
2.9999999999999787,-0.3166757700415739,-0.2667673048106756,-1.0382733476996076,0.1574682292912155,0.1808937660623422,-0.9708054954091763,0.36771466106722495,-0.24999172655505628,1.0364675721493057,0.8409960441349424,-0.03505664990708696,0.115607822358618,-0.5273701592059864
3.0099999999999785,-0.2892496988076732,-0.2627144649667988,-0.8341186304716645,0.15284605576195612,0.1854653066007085,-0.9706870213474781,0.3806297215406996,-0.26366816526472836,1.0949066873298186,0.8385113135939554,-0.03771009331601904,0.11503541572122679,-0.5312612175760087
3.0199999999999783,-0.2090709000566454,-0.15561623489628712,-0.5923401903331372,0.14976038992860483,0.1888222574689134,-0.970519386190763,0.38760490673397746,-0.26394005815736943,1.1361772223468964,0.836796286879983,-0.039610367016389376,0.11475856228231013,-0.5338792102816117
3.029999999999978,-0.10978872180916256,-0.04089147010907426,-0.3519398840606994,0.14775426628213228,0.19122274076819906,-0.970361745502329,0.39712202246181794,-0.2595028737215562,1.1528203185917663,0.8355181380351459,-0.04090729076547403,0.11465437018759385,-0.5358074877487946
3.039999999999978,0.008982045448841014,0.061215844044928414,-0.12325304659557279,0.1472088613438162,0.19229252625687424,-0.970233398602156,0.41245656276088855,-0.2503613588179953,1.1316908582574536,0.8347943280444992,-0.041361560159375824,0.11477141317959502,-0.5368750168318426
3.0499999999999776,0.13180979234036563,0.1865243739172751,0.11361336587211014,0.14868667826871118,0.19123823502741027,-0.9702151157692747,0.45992085603048605,-0.24059934980130873,1.0406420779870136,0.8348322441168632,-0.04052136877321044,0.11510771469453755,-0.5368077432271267
3.0599999999999774,0.24203723091015072,0.3196628066321891,0.37358079008808776,0.15148228141793896,0.18917384294296885,-0.9701821292022648,0.5019054332085803,-0.23076663817569756,0.9386495213127583,0.8353350480367203,-0.03899619938386523,0.11569574971864646,-0.5360079250203299
3.069999999999977,0.32903206896650694,0.46025428314076144,0.6719018400652399,0.15604311178550376,0.18591202308722898,-0.9700934336962761,0.5255419529190444,-0.22097821482257157,0.8364191286894365,0.8364475621092429,-0.036619397392165104,0.11666639701747325,-0.5342295799340733
3.079999999999977,0.5449275870846269,0.6116797809620544,1.0384655626615897,0.16315468974436978,0.17986349634437443,-0.9700386121850938,0.5766210942116088,-0.18259724318337647,0.6517974342560989,0.838636326709375,-0.03261481338122157,0.1179234415229255,-0.5307517748004563
3.0899999999999768,0.7815472754282501,0.7684964890259436,1.4292060502302548,0.17183432578796037,0.17164089631925591,-0.9700065018198523,0.6122489840869162,-0.13800084958763081,0.46954945431399003,0.8414997596010908,-0.027426298335436736,0.11926679909273989,-0.5261754275417997
3.0999999999999766,1.0175391346319573,0.9318562843086219,1.8434808326348289,0.18259443477598278,0.16031222614124682,-0.9700054312884879,0.6118421028699044,-0.09061858623057294,0.315934904286082,0.8452646026603474,-0.020578884868462443,0.12068154073797172,-0.5201156918264472
3.1099999999999763,1.1093551999826878,1.1849074640662045,2.273693368567701,0.19638533038538164,0.14568405395322345,-0.9695189579241054,0.5887701201038019,0.026167833348230987,-0.011450858285170729,0.8501789360559299,-0.011870359096135976,0.12268629643400929,-0.5117599419822231
3.119999999999976,1.1707109851222928,1.4614603434131184,2.6264154571223948,0.21224254758704486,0.12961825773735902,-0.9684436126987371,0.5549867201676129,0.14325010236828012,-0.30572367047142884,0.8555329971445805,-0.0022015967084944572,0.12537953230367088,-0.502217637853556
3.129999999999976,1.2216565762504459,1.7529593489288304,2.8298498536412113,0.2309717285858476,0.11193643522216186,-0.9664284038012115,0.5085469894294984,0.23861284044563139,-0.4826300672079723,0.861336345746208,0.008656537453547435,0.12916438960315174,-0.4912044385785189
3.1399999999999757,1.0455947032686865,1.8680066965248294,2.848214480719604,0.25174149885919517,0.09419091604303448,-0.9629760139611115,0.4844805590283262,0.331305486507411,-0.8479932088884485,0.8668866619021663,0.019862849479145645,0.13427915788428924,-0.4794794204983356
3.1499999999999755,0.7678510605786502,1.7919187815862319,2.809997939752365,0.2718054350845887,0.07790172245139815,-0.9590853666817517,0.48472961351664184,0.3955588367374626,-1.158961369534284,0.87226520398302,0.03016451470457645,0.13966814290351978,-0.46757700660855384
3.1599999999999753,0.37429896222062786,1.4110876373532764,2.7277756721353508,0.28980752514466884,0.06442429181566153,-0.9548551527699343,0.5237727246892756,0.4062652163642633,-1.3001811822799232,0.8774027278224195,0.0386122071190067,0.14511978654510432,-0.4555823937015658
3.169999999999975,0.010296662154931802,0.9379626598409629,2.5738929111852995,0.30160256898894583,0.05518639454527262,-0.9517791187595243,0.6268258156968085,0.2946513846904258,-1.305533554546835,0.8824851818510824,0.043617902453476624,0.14896445128681943,-0.44386850781422826
3.179999999999975,-0.4097691893314157,0.5125941163603804,2.3929371203008265,0.31019041218124,0.04917526565349438,-0.9493966489361425,0.690500832678211,0.17473335639349946,-1.2571248870316416,0.887458609079007,0.04642499670511016,0.1521316991638146,-0.43250527310177755
3.1899999999999746,-0.9515542851231501,0.21618220402979932,2.1855575533874436,0.3147886767884097,0.04793312181602348,-0.9479477603275173,0.6523961169601332,0.08449005182742612,-1.1538217699235713,0.8922377005726557,0.046191021609452626,0.15456770619668492,-0.421728047638343
3.1999999999999744,-1.41621516573983,-0.03747356788705347,2.0579783965746685,0.31622674745081775,0.053480257375015716,-0.9471606177328578,0.4674797360644998,0.031026886697619487,-0.9389382310762716,0.8968483015588192,0.042152611214340205,0.156929613927943,-0.41130493884298835
3.209999999999974,-1.7800726554341633,-0.3094207057336811,1.942141653292296,0.31579423132569556,0.06204033025185559,-0.9467663948258702,0.29307570420314305,-0.0013338688351329613,-0.7478049956020221,0.901369364333227,0.036332586363221134,0.1589712290204441,-0.4010867331702963
3.219999999999974,-1.970482361304572,-0.6359388695107228,1.8176868663281867,0.31284680220021865,0.07395957300914895,-0.9469012708255861,0.19978655035855253,-0.005783153813926897,-0.6503475310995476,0.905777057392104,0.028440655084865533,0.16039215145118957,-0.3911407738286756
3.229999999999974,-1.9694509953965726,-0.9584636686016933,1.6989481196365934,0.3061564134027048,0.0872576594718995,-0.9479024195932411,0.023929123447742062,0.004980800051237215,-0.47800941590464235,0.9100230369749375,0.01924583573576487,0.1600874332200455,-0.3817740250533392
3.2399999999999736,-1.9220294655624515,-1.2343170307300246,1.5688077971477683,0.2975216770893573,0.10083088957613663,-0.9493134541768974,-0.13838760331471062,0.0197882673545621,-0.3230091805078948,0.9141330949611435,0.009627775184635059,0.1587774626801973,-0.37280645452417976
3.2499999999999734,-1.8616767928817777,-1.414148616321782,1.4122647094498395,0.28646080826196185,0.11437369120429583,-0.9512019508019482,-0.2359950053650554,0.03637132849538371,-0.23729002925688006,0.9180295642384604,-0.000303560246441922,0.15612093620610026,-0.36442025772764597
3.259999999999973,-1.804801159233221,-1.3884569680479313,1.2014730076268911,0.2745385878029185,0.12828063596243536,-0.952879514962776,-0.4727648183878733,0.06190216688784419,-0.10826030238475311,0.9213461722853512,-0.010301912795480253,0.15294402141654412,-0.35710941963720805
3.269999999999973,-1.7140728513002854,-1.2379922462125172,0.9950208992498544,0.26331387942823226,0.14211880025455403,-0.9541314385363808,-0.7029524906029196,0.07580072275487243,0.005761564737999266,0.9242277341113324,-0.019981782476434545,0.15001032159876074,-0.3505071058596886
3.2799999999999727,-1.5485970032375316,-0.9156556897492764,0.8236871986958705,0.25400411496414554,0.15563561526961114,-0.9545644019677502,-0.8528768235030092,0.060335096514662734,0.0668208273768498,0.9264451311915841,-0.02894215172136059,0.1478487818090461,-0.344924293145261
3.2899999999999725,-1.1940832013839278,-0.519708044295601,0.696864561570288,0.24894184964511593,0.16639100836339848,-0.9540832459621704,-1.1028825424525999,0.045327924635942124,0.19158923870715006,0.9279746382262235,-0.0356481686320191,0.1471938761892943,-0.3404313455820995
3.2999999999999723,-0.7618506961908031,-0.13502429525945225,0.5830907628842185,0.2465074120565361,0.17454593203147079,-0.9532898474736693,-1.3104379029007043,0.034946528768278924,0.3099893435208284,0.9291586644566333,-0.04055076605994564,0.1473386254018869,-0.3366091267437637
3.309999999999972,-0.25324805483310076,0.1869278325603959,0.4756068961883735,0.24775193450438932,0.1783227270350232,-0.9522687191494713,-1.372279248566557,0.034630959911701543,0.381623513613193,0.9299252382135157,-0.04259069064040886,0.14849338078626775,-0.3337229975495079
3.319999999999972,0.12728188539004742,0.3003410547991722,0.28138029756037286,0.25078472595411344,0.1773902694824755,-0.9516461796998703,-1.3189446242342866,0.03524210299266291,0.49013084850092425,0.9303266945170333,-0.04188158071423039,0.14973610271011054,-0.3321358778860178
3.3299999999999716,0.340156795052433,0.292289523431777,0.015684115170684354,0.25379758129665103,0.17512700469661588,-0.9512692547872871,-1.2369021272234229,0.03137280449819349,0.5738882057013318,0.9304358198655591,-0.04038309850804864,0.1507756859691014,-0.3315468065135779
3.3399999999999714,0.238478832190105,0.12008666464878542,-0.36640072079420694,0.255779915468802,0.17240028664697,-0.9512369807732638,-1.1523450827529749,0.016702322339966817,0.5804940699229845,0.9300745625275064,-0.03858533834468857,0.15130025144548465,-0.3325347825503066
3.3499999999999712,0.10903915932585637,-0.13232262855955207,-0.733675474451484,0.25418570086708697,0.1726878696147048,-0.951611419285818,-1.0232259860058148,-0.0011615597332320024,0.6046650352933176,0.9291111694988947,-0.03851925086642118,0.15069851187794264,-0.3354857730027008
3.359999999999971,0.030798319214490916,-0.3493109727303688,-1.064353265869387,0.2506613539195868,0.17417331004089356,-0.9522693930073963,-0.9118028728045086,-0.017141646472860306,0.6296230149304247,0.9278189359163475,-0.039188178742785296,0.14942275335560576,-0.3395217112491539
3.369999999999971,0.09035240512627439,-0.434824699859749,-1.3170684699464608,0.24468161151728626,0.17671173657629294,-0.9533583832643551,-0.868724676627224,-0.026764823728533088,0.646038593468532,0.9261041006536047,-0.04057310229659864,0.14721687271396605,-0.3449659395927958
3.3799999999999706,0.35468300300249167,-0.4680579960500523,-1.5549923175370424,0.23766983309343118,0.17776802442758968,-0.9549240090389102,-0.8495951876977564,-0.02322065032503365,0.6654033590340185,0.9239159066438307,-0.04125156410900693,0.1443290519737624,-0.3518643244598822
3.3899999999999704,0.6704315120081411,-0.47930757080161024,-1.78253310597272,0.23023255094035097,0.17716829440917164,-0.9568572454446631,-0.836795129383998,-0.015310556662098487,0.6731320446011593,0.9214261676064841,-0.04112092791844571,0.1409740191018868,-0.3596804910085133
3.39999999999997,0.98152380291354,-0.4700746144539143,-1.99409143486533,0.2224116452866766,0.17346072710050336,-0.9593863163185974,-0.8242239588729344,-0.005106856350613552,0.6505088621255198,0.9185001649499928,-0.03946059687621094,0.13691024203701088,-0.3688159032045354
3.40999999999997,1.1147621984680909,-0.5258310799794615,-2.197504433742631,0.21397605003948109,0.16772411058841794,-0.9622960828428383,-0.7447797594404544,0.10294772012228427,0.5205306468115529,0.9150439388985708,-0.036901012613403304,0.13218270477864613,-0.3791712766078031
3.4199999999999697,1.175130327378717,-0.62149846557435,-2.4086200706097034,0.20479176536097224,0.16143240248071217,-0.9653720798369361,-0.6555109821630837,0.22651219522273097,0.39094662796047386,0.9112323137909425,-0.03421311740612316,0.12700200413963383,-0.39023729095017934
3.4299999999999695,1.173095716440608,-0.7735529230486444,-2.6447900450112476,0.1941356511497235,0.15512721391673256,-0.9686075695671069,-0.5872126661085357,0.3222596890622764,0.33590048198842504,0.9068853523006646,-0.0318168278552036,0.12113026634423577,-0.40226430879952596
3.4399999999999693,1.3296853952164351,-0.9623428826498339,-2.9403920586203998,0.18105782354406344,0.14803351097141015,-0.9721930949488898,-0.5056984969949958,0.40225656711767066,0.26831183155695193,0.9017692820897448,-0.02959377858507546,0.11398790784906432,-0.41567432112029823
3.449999999999969,1.6193141982715633,-1.1167869089375577,-3.251423984033254,0.1666679227664912,0.13937173165373604,-0.9760396678271108,-0.446914370279261,0.46066436075551737,0.1945380661394681,0.8960792660708952,-0.026987756453391458,0.10590442770625906,-0.4300701301332261
3.459999999999969,2.1396771662653804,-1.1544578993599621,-3.558999936920741,0.15063374456978118,0.12719428326456306,-0.9803104238719781,-0.4572398939144333,0.474272952519912,0.11384272242803883,0.8894562700171572,-0.02325372173352263,0.09629808602608617,-0.4460227576373709
3.4699999999999687,2.828273424573176,-0.8277200848570849,-3.8982961260984244,0.13700119917133421,0.10670633096428381,-0.9846029853404819,-0.5765860493095213,0.644084711840002,-0.23318213345565966,0.8814657701147167,-0.015511100219984555,0.08571038989970686,-0.4637789776895375
3.4799999999999685,3.443301141359894,-0.34681449861992053,-4.150697851102064,0.1266169249785281,0.08180012553425614,-0.9884156616664788,-0.6991302888738218,0.8675689688206909,-0.6237018002380055,0.8725296238011648,-0.005244974394294591,0.0753169443494327,-0.48242642726913426
3.4899999999999682,3.7265578730973155,0.26230218589662646,-4.1433020245356555,0.12310708629452342,0.05153257258301174,-0.9909148775489941,-0.7440885783913129,1.1124867725634435,-0.9210653511076907,0.8621207552546742,0.008666986114744112,0.06622433967412737,-0.5020547120222985
3.499999999999968,3.9938271680906903,0.8410868462564922,-3.8642347982626832,0.12837145643237735,0.017515976528203327,-0.9912014430451981,-0.6548071913836707,1.3758216278876159,-1.0622863887583704,0.851428563918201,0.025970131538069964,0.05926643195942449,-0.5200306502809454
3.509999999999968,4.077758038785834,1.2479868829672949,-3.5707235181930286,0.1378576556845926,-0.01734116650398975,-0.9900759716126967,-0.5300657211038924,1.5404024252448418,-1.1325867617057526,0.8406315288409998,0.044501497647079155,0.05344243971782016,-0.5369009131451568
3.5199999999999676,3.663080181497975,1.200455211098639,-3.4675209641430897,0.15168848476751984,-0.051363407214354596,-0.986884400421568,-0.4202363796630685,1.413462463815691,-1.1373313567118428,0.8297821502457614,0.06358482115690825,0.04897375993319274,-0.5520852207615347
3.5299999999999674,2.8463333853203667,1.0131669599011697,-3.5586376124240378,0.1647710050976637,-0.07655434672757672,-0.9831604902230411,-0.22415940698041184,1.1674272120845484,-1.0383405967136663,0.8184746663170465,0.0787000932968611,0.045976532562995984,-0.5669931247731527
3.539999999999967,1.9114238233079297,0.7361835384469463,-3.659235319713889,0.17664221144837597,-0.09514938339352576,-0.9796415480858885,-0.027489837147825387,0.9382358102039978,-0.9125362888820661,0.8069915434348433,0.09070945732656042,0.04400939801008644,-0.5817845420398451
3.549999999999967,1.001364040078666,0.3272725146700617,-3.610136627823919,0.185693593781912,-0.10272500354837986,-0.9772003400824375,0.09228542461691382,0.8662844456333547,-0.8037615001335923,0.7954181821832751,0.09735635103903609,0.043679101946240945,-0.5964911209710937
3.5599999999999667,0.1525434791233078,-0.14597012707816912,-3.4775473715289533,0.1889635851294263,-0.10059229484802776,-0.9768095676800135,0.294495598024971,0.7151311873868968,-0.6135590573068791,0.7845811221426671,0.09830033853834083,0.04395063561202164,-0.6104647450460212
3.5699999999999665,-0.6165179243828718,-0.5422811393871879,-3.336123760699291,0.18903271153710385,-0.09273089571142487,-0.977540816427699,0.475622211238734,0.558024731911538,-0.42228740520358055,0.7741961356579378,0.09596499104431004,0.04478375910787879,-0.6239471526385291
3.5799999999999663,-1.2067078620937286,-0.6453438588258886,-3.249928250520484,0.18517495937798956,-0.0772165081785508,-0.9796252541444097,0.5129863847712913,0.46057640626881835,-0.30747275668361207,0.7644442498617916,0.08939106545901976,0.04670939767309513,-0.6366760013972814
3.589999999999966,-1.449307993949293,-0.33832953102646834,-3.153495822939666,0.1825922295567388,-0.057785456632638454,-0.9813630116144555,0.3745471406823082,0.34631143588300156,-0.23586345603246137,0.7548597928755905,0.08184368274859682,0.05071959942045723,-0.6486442929474505
3.599999999999966,-1.4390027176931495,0.1584327898470807,-3.044247617237867,0.18232047228170908,-0.037740831633599724,-0.9824599958168536,0.19517839365551282,0.2586083583102331,-0.2006786111272266,0.7453140653440913,0.07492733770950652,0.055999656961509325,-0.6600567174247833
3.6099999999999657,-1.0089486935210155,0.8133043295926461,-2.905980140045789,0.18788124942778026,-0.019906183328054803,-0.9819325721325468,0.07345656459870717,0.2710015857428751,-0.23314926667228209,0.7357126601291122,0.07099188250422024,0.06303090588440759,-0.6705429742806499
3.6199999999999655,-0.4687529933163066,1.3575228997679374,-2.710731372007566,0.19951025180236073,-0.007935053747194526,-0.979778575102704,0.027188912461952257,0.4004254526740425,-0.2508847502139539,0.7261106228043347,0.0715129873960122,0.07044150170514372,-0.680111964756627
3.6299999999999653,0.07120592825103507,1.769330841186811,-2.4582760359737943,0.2143187606462313,9.767309093088999e-05,-0.9767096203815003,0.02867435425193085,0.5460141553258918,-0.24620625701631724,0.7167036550600195,0.07468943672640665,0.07772254396654543,-0.6889489402792102
3.639999999999965,0.48617017869866197,1.8799220441151467,-2.0860319801983294,0.23251263942718886,0.0020724133729283552,-0.972531495064306,0.09869606621396669,0.6116094579928608,-0.18603196658036716,0.7079250294399788,0.08138264042766513,0.084158873144128,-0.6964653032870062
3.649999999999965,0.676369467468851,1.7393169734406249,-1.737548727480925,0.24981910865435722,0.000753781169677431,-0.9682006431358642,0.24029546697153925,0.6136194642363391,-0.044199595072354436,0.7003587741991903,0.08893434454485402,0.0891308247150616,-0.7025324990559698
3.6599999999999646,0.7444630927864903,1.4811591331715546,-1.4451881031882183,0.2657729389228596,-0.0019281418415200901,-0.9640063689881699,0.38054717932301746,0.5824034418234829,0.11210633512711936,0.6935463036171666,0.09647049748280577,0.09314557221820759,-0.7078004323628444
3.6699999999999644,0.6771011520221275,1.1347547749501565,-1.3114191511447462,0.2782856316660422,-0.005173071130863083,-0.9604530194362082,0.4296168914909968,0.5172652290632289,0.21784221479527974,0.687782144201813,0.10291506289690298,0.09573807633560652,-0.712154993832166
3.679999999999964,0.5820972419590746,0.8228204726711181,-1.2710406632315643,0.2873665551472371,-0.007434804767064932,-0.9577712424054035,0.45073884549780785,0.4059494485463957,0.4255862413707149,0.6823977180624051,0.10775221200842734,0.0974304161079386,-0.7163753225465135
3.689999999999964,0.4775006429987212,0.5389397475215212,-1.2564936036403154,0.29427787970682073,-0.008997011351126443,-0.9556750986230548,0.4509286777896061,0.29304677549675295,0.6438673830056999,0.677213241781044,0.11154346694305776,0.09858496033936083,-0.7205604807441374
3.6999999999999638,0.37559287680911835,0.3074825501409208,-1.210060455548559,0.2981307419111954,-0.009412811184757978,-0.9544757070020642,0.4148995878840044,0.23468264456204618,0.7660439556559191,0.6722281208603178,0.1137993179686336,0.09904574446812986,-0.7247982556895376
3.7099999999999635,0.1461114672907361,0.16006092639573602,-1.0041093986875649,0.3001231559911349,-0.008418420641936273,-0.9538620884680831,0.350932476023258,0.12290358918496075,0.9342208585420673,0.6680916773293737,0.11476783203487874,0.09948403649916776,-0.7284023044981367
3.7199999999999633,-0.16163879107828721,0.05198558165619098,-0.7588275993907241,0.3011114808746436,-0.0059935637812779784,-0.9535654709283965,0.28840854551418393,0.004626784422537758,1.091617463793539,0.664643636955505,0.11478347665296956,0.10020186998669446,-0.7314567868664771
3.729999999999963,-0.5731395937785502,-0.03172821654150712,-0.5946490062116796,0.30108140687317186,-0.00038584140168132844,-0.9535925910562892,0.2700971660036791,-0.06246083648803012,1.1459482786027129,0.6624898867203711,0.11316486971881881,0.10195794589724633,-0.7334168585715473
3.739999999999963,-0.9199480657265435,-0.05679509819218338,-0.501728074221482,0.3005866296671678,0.008752433887471862,-0.9536812844443846,0.23108139599786498,-0.15966857514331734,1.2146751861515597,0.6609492512920274,0.11010222090177155,0.10498722377505977,-0.7348366002464415
3.7499999999999627,-1.2093334845246146,-0.043770476849502665,-0.4133177447389409,0.29998571219803555,0.019949203863382517,-0.9537085780338653,0.19170591543864882,-0.25283796418067545,1.2791359214027118,0.6598155042770945,0.10625321817309921,0.10882738136672304,-0.7358652072133361
3.7599999999999625,-1.3806690231143603,0.023954607928442256,-0.23488364519827143,0.2996844518497148,0.03356001074810849,-0.9534134634283702,0.18204964501099272,-0.28568375785030975,1.3060133562270697,0.6592860827017896,0.10162512276832956,0.11379485493849678,-0.7362392928413503
3.7699999999999623,-1.460565469660383,0.175784434045618,0.02854607196171824,0.3007568375110502,0.04737855077928762,-0.9524648855286092,0.21161780254195087,-0.2736871756679261,1.2877542902561414,0.6596458429438267,0.09729873507539376,0.11945967243661153,-0.7355941414566107
3.779999999999962,-1.4909336004534381,0.36085584039643537,0.3505534723325575,0.3030459354851247,0.06097946205998982,-0.9509973839748445,0.25776830876491796,-0.23919343422405806,1.2389723574519278,0.6607268161393828,0.0933717183405309,0.12557391061827275,-0.7341216579377379
3.789999999999962,-1.4756359873263984,0.5399111970064374,0.7639067160443882,0.3078642427484571,0.07339669781720169,-0.9485602199254121,0.30532173178783284,-0.18929234965433955,1.1439610203889696,0.6631861215743212,0.09051546958409061,0.13231601323157718,-0.7310667783557876
3.7999999999999616,-1.4340207872555406,0.6210706667253882,1.191921366383255,0.3142554027792906,0.08403586613707044,-0.9455647649457316,0.41184496133779175,-0.06771026163444371,1.0298595256467453,0.6671452287776171,0.0884906906174958,0.1391367600655451,-0.7264100669210288
3.8099999999999614,-1.3245279793688527,0.6818493901206186,1.6150653147289409,0.32161461415846,0.0929588982439553,-0.9422813520828761,0.5290265612353261,0.06136194082650448,0.9216753552163155,0.6721373501205715,0.08714893219619721,0.145792918070127,-0.7206570303236232
3.819999999999961,-0.9847763807980847,0.8297662714187288,1.9929475507056176,0.33017821055508767,0.09799252931286553,-0.9387967101363385,0.5871386988909261,0.09641089558934304,0.8706985500664806,0.678724819314209,0.08714017072146192,0.1516433663871427,-0.7132284281129995
3.829999999999961,-0.4696693381534769,1.2884174031691171,2.2597096886565757,0.3426564629073407,0.09698288815574987,-0.9343697631619106,0.6447828085348174,0.08474175904194595,0.6643736042054567,0.6857313525332737,0.09046512251854608,0.15685855111475128,-0.7049010615378384
3.839999999999961,0.06528716571100053,1.883481161579476,2.46804003701897,0.35855747159971263,0.09167892532664643,-0.928893876408769,0.6907108194054714,0.06945151999854847,0.3945252584617416,0.6928585225150293,0.09643179657301466,0.16191434618142064,-0.6959581168388231
3.8499999999999606,0.35668773346929095,2.4762644321083007,2.636264921560179,0.3816565449160442,0.07945924594682514,-0.9207310351075104,0.6878310503864905,0.12611903218674608,0.14563972126117408,0.6997140524622547,0.10737028011568654,0.1674815116572026,-0.6860845269198728
3.8599999999999604,0.3446215653360093,2.7315117040878705,2.8138568421076684,0.40732141246302966,0.0655357276738707,-0.9106049108186246,0.782087624667801,0.2529567136130977,-0.15244674365663685,0.7065367876548431,0.1197121864390594,0.17391353707747964,-0.6752863085262539
3.86999999999996,0.15727558252972457,2.78866986726956,3.015203591257375,0.4339645152419988,0.05087059384794358,-0.8993537351460518,0.9168910054167974,0.37756613846910286,-0.4338280978261378,0.7135681137049246,0.13250963457013698,0.1808742402759206,-0.6636547661221737
3.87999999999996,-0.1954845946325652,2.647978320948754,3.302886381122743,0.45977557865981766,0.03635056103042576,-0.8870719265122091,1.0357487451155023,0.35109006780287355,-0.5422208100587845,0.7215890887093075,0.14449982796017924,0.18843540488831576,-0.6501940613956365
3.8899999999999597,-0.746936578039743,2.4123682730368765,3.3456440389257973,0.48285751479913247,0.02524616852114641,-0.8751093133271465,1.2071360570161425,0.23530156347363415,-0.6519621197990995,0.7302054687986818,0.15383842225954814,0.19672484419706643,-0.6357562840005512
3.8999999999999595,-1.3988880038125224,2.157208920749245,3.276300879861295,0.5039983707788793,0.017239006794848192,-0.8634718296372493,1.370495563561919,0.0897634591497314,-0.7405356479664232,0.7391592607233533,0.16101456906059428,0.20569449937960058,-0.6207268016176074
3.9099999999999593,-2.0850379825988754,2.0174716385187548,3.219353818252472,0.5220738803625639,0.016160167835374516,-0.8526470301770299,1.382728128552743,0.00026317637346721934,-0.7281878639525627,0.7483833629824554,0.16393235995460487,0.2162332052397644,-0.6050777919557008
3.919999999999959,-2.4939128407402404,1.8956119512964538,3.119292224562378,0.5391482377409788,0.018960637366436675,-0.8418602914380829,1.2938290874410956,-0.04438483751030352,-0.7271567548139098,0.7575232157573477,0.16450984765641566,0.22786727924246533,-0.588976596112685
3.929999999999959,-2.723895915968796,1.7604228873210521,3.000409386364622,0.5553459357837225,0.02388219891542298,-0.831229722165928,1.1597313609110587,-0.058856333868549736,-0.7361908719541259,0.7665125593064253,0.16364843300435714,0.2399420085828422,-0.5727116910438859
3.9399999999999586,-2.7358858672477235,1.5187689877321442,2.8912324743163103,0.5696380845859956,0.030003215993569993,-0.8212670400962979,1.0433076652147573,-0.032060175529824965,-0.767519734431287,0.7749695867185811,0.16129127811670232,0.2515882930436214,-0.5567118781555076
3.9499999999999584,-2.7394861848250716,1.2112399532077394,2.808821954604958,0.5814824665819065,0.03597165046343783,-0.8126912393447773,0.9062058772758693,-0.01865353288831745,-0.7741136588459546,0.7832297716276096,0.15793977367364048,0.26200665028849507,-0.541040859245951
3.959999999999958,-2.714121431276999,0.852458511938427,2.737514242373156,0.5913664418848303,0.041782963359316354,-0.8053074618272755,0.7661436551772469,-0.010709273679875132,-0.7649011595319033,0.791386207146636,0.15384895593218748,0.2714015323002242,-0.525640860649631
3.969999999999958,-2.562691677166163,0.3997448933521145,2.6549336115367805,0.5974754092899256,0.0471813878741672,-0.8004758762355176,0.6633538107928614,0.003340129657486056,-0.7379016844887658,0.7995131686323392,0.14851477934397747,0.278699093911699,-0.5107870448925033
3.979999999999958,-2.21132805915851,-0.20215831124539235,2.574778940136864,0.5991249726073246,0.05038553751722891,-0.7990668958616688,0.45002660290688606,0.0846875866165176,-0.6718848611699395,0.8077239375199196,0.14287732645910275,0.2828960274830806,-0.4969701002837671
3.9899999999999576,-1.7762290291522669,-0.8686003183546139,2.500018130866623,0.5971633578628409,0.05179644271316537,-0.8004280153874151,0.19904150372480053,0.19436567956935227,-0.5957267419883165,0.8160532190014937,0.1370646578655752,0.2845868351411957,-0.48397006380835345
3.9999999999999574,-1.441441641792543,-1.471167856526442,2.447415928659189,0.5881295282889202,0.049640154975565155,-0.8072091267122414,0.04963292067042571,0.27105383174232706,-0.5722487448409906,0.824785841001758,0.13114678873581964,0.2813855796824165,-0.4724929947583416
4.009999999999957,-1.329813592676759,-1.557014902361278,2.3715402371208687,0.5769468311296074,0.046863619934518166,-0.8153544258154455,-0.2516456325650007,0.36826507696645205,-0.5234862315803379,0.8334032778464119,0.12523190418711344,0.27677500751366924,-0.46153223916665054
4.019999999999957,-1.3193034346276657,-1.2910722550903928,2.2412397950705962,0.5655483045202073,0.04411292375248777,-0.8235273830756038,-0.6149808228076308,0.4570577956462979,-0.46493503222241844,0.8416498549691233,0.11950842897526949,0.2719353555991324,-0.4509548277728786
4.029999999999957,-1.2148560025417108,-0.5818909015534786,1.8743088377982957,0.5593105385125503,0.043346800015884666,-0.8278099147742363,-0.8764305883285832,0.43770651094071117,-0.42639601355798484,0.8481552665190882,0.11485106789868181,0.2699887727416203,-0.4409990740736146
4.0399999999999565,-0.9743626658813965,-0.02701835695468202,1.45993777103619,0.5577889352541227,0.04305517542850769,-0.8288647574144539,-1.329590037363928,0.357169286958616,-0.37515886308116153,0.8526835627924971,0.11192805054159669,0.2702523964654726,-0.43281344966770263
4.049999999999956,-0.6754265272841741,0.4107862216029207,1.0654613508248747,0.5594343322944864,0.042892616484904514,-0.827759293170633,-1.8225451668920793,0.2566160060933136,-0.3134212412702919,0.8558579671027838,0.11026714879185164,0.2719551235579079,-0.42588844282115135
4.059999999999956,-0.4683387443801745,0.6521483166214583,0.941438912503712,0.5646506802051303,0.04196706265910902,-0.8242522547646095,-1.934117281847252,0.23447987308415047,-0.230386149602139,0.857380138059545,0.11049646505147184,0.2750643881032651,-0.4207296171319013
4.069999999999956,-0.3810912705474791,0.6353398070885798,0.8253582999903104,0.5702315522905687,0.040499708200711616,-0.8204675053983493,-1.8422617239358408,0.2183727572070183,-0.08016259306746185,0.8585768031302444,0.11120289588205122,0.27819807016911946,-0.4160143818249193
4.079999999999956,-0.35590795979164574,0.43117321167581035,0.6735397177113895,0.5753966478250147,0.039007998428847376,-0.816943432433891,-1.6433741504243977,0.2075773964918429,0.0881317703062657,0.8595800894654742,0.11196073152738997,0.2810565720855084,-0.4118160607247293
4.0899999999999554,-0.2995625239029956,-0.041243606054710835,0.2705539710435308,0.5766879465460865,0.03925887695842893,-0.8160200396583124,-1.4868903780939118,0.20889980009644088,0.13440687624921988,0.8605129819102602,0.11137128638502101,0.28210957173061774,-0.4092975274987417
4.099999999999955,-0.1580810544073656,-0.38796696798772123,-0.19628818213498173,0.5747397002406426,0.041083085800551,-0.8172948166071612,-1.3520390147577932,0.2516711137153013,0.16923034389555863,0.8609630533457652,0.10992906477010914,0.28154020687278275,-0.40913235971417405
4.109999999999955,0.032555108279947974,-0.6399604130097101,-0.6723713135239052,0.5706117344351254,0.0439488891811223,-0.8200355545869534,-1.2473779552130297,0.3139196861784647,0.19115461092027095,0.860991438108614,0.10798200634325121,0.2798568862477891,-0.4107407702475314
4.119999999999955,0.22410279251468135,-0.7440012175066335,-0.9663482032470345,0.5644025913334308,0.04771285928721409,-0.8241019745399772,-1.2600586448100997,0.3471437304940434,0.17135742868071024,0.8600690509130121,0.10594329845936103,0.2769834261621775,-0.41511894164776003
4.129999999999955,0.4719626969499019,-0.8541880440316513,-1.1617411675966731,0.5571729055942196,0.0507179971080512,-0.828815075736898,-1.2672499217537117,0.36652183887960266,0.1605134563421826,0.8587430730132081,0.10432961285100469,0.27330809079855223,-0.4206486292885578
4.139999999999954,0.7538696381500696,-0.9598123469147354,-1.3042036216757018,0.5491782752183072,0.052914760996065076,-0.8340161005531758,-1.2656512011868368,0.3726469969146002,0.15382547829845383,0.8570998258491307,0.10314207139317459,0.268976309501089,-0.42705588562932495
4.149999999999954,1.0406477672353232,-1.007863343656163,-1.4849851990044476,0.5400571976444379,0.052592289046109304,-0.8399534143690879,-1.2251775717047184,0.34331196131315894,0.13908779455030165,0.854907515325627,0.10317866959206526,0.26337057957616083,-0.4348355982780037
4.159999999999954,1.2888430777035786,-1.1074577792553342,-1.7428765890180629,0.5302173266751877,0.051361660975804066,-0.8462556216861121,-1.1371074892635276,0.3348449257620783,0.08041058561315334,0.8520812467573334,0.10373727534595553,0.25707115996145247,-0.44387715047739285
4.169999999999954,1.5277404995370611,-1.2478493948182094,-2.0537897350807395,0.5196120868405458,0.04941143871389729,-0.8529489734827788,-1.0239928568492715,0.3457782229956192,0.001267954597668059,0.8487218879351683,0.10466411965890379,0.2501166144726888,-0.45400107936431655
4.1799999999999535,1.8728759257195504,-1.4583784276287992,-2.4097572733978208,0.5065607235386785,0.04621962714882813,-0.8609035766090473,-0.9404887539386978,0.4066537511244236,-0.0306982308849739,0.84426591712851,0.10596546191250836,0.24142549209483866,-0.466466946733383
4.189999999999953,2.2607443106024396,-1.45525670595268,-2.7731573978481205,0.49285404776691294,0.04106721135465079,-0.8690454397247616,-0.8298049713261545,0.5643374779124161,-0.14290513904532715,0.8386352166342189,0.10824582807018479,0.23172667186686563,-0.480690367458249
4.199999999999953,2.6567964260246213,-1.287131759290817,-3.130815764316328,0.47920090750523886,0.034374476716152555,-0.8770128095338492,-0.7116640889312608,0.7723161713247397,-0.30009201892879844,0.8319800160752067,0.11143051874891048,0.22149083032515296,-0.49624216878789495
4.209999999999953,2.904527216727008,-0.87102046050632,-3.4055372675643905,0.4692500012806148,0.025197616707556915,-0.88265272560419,-0.6699024225183511,0.8975202066728882,-0.4149251032644625,0.8230262585764683,0.11693357153413197,0.2120090318063839,-0.5136028427745791
4.219999999999953,3.3154446718706185,-0.4375760352576552,-3.5988022652752334,0.462971923160168,0.0136666720566322,-0.8862090838180717,-0.6093334210339418,0.980597760635992,-0.6345703696202126,0.8125767614741526,0.12451795368279876,0.20324837421827283,-0.5315722732471232
4.2299999999999525,3.7945113572635387,0.031346420948913656,-3.7534369060118817,0.4599566976624725,0.00018003879635444353,-0.8879144646874362,-0.5374219954195047,1.0230649632341116,-0.9171834559473081,0.8008704199483488,0.1339078851432044,0.1951385894789071,-0.5499838269114615
4.239999999999952,3.9575064487895837,0.7078932193689729,-4.026443173115277,0.46459546469736124,-0.017054011835303622,-0.8852778617153012,-0.4721448888713897,0.9505290207096717,-1.1607496720678427,0.786661434676939,0.1472640595771863,0.188618989614128,-0.5688211491075276
4.249999999999952,3.37409620695128,1.1193182137081024,-4.284974009629865,0.47375923624079447,-0.029275504042294266,-0.880083020422745,-0.34759015633736023,0.9811987192599352,-1.4184396197829603,0.7709537475038399,0.16013304076779009,0.1850107546895531,-0.5876463901920581
4.259999999999952,2.319259078306375,1.3412362252775623,-4.514488052595589,0.4860861339115395,-0.03644635865856994,-0.873124832459439,-0.18500179706698033,1.0916039059183655,-1.6510934073746104,0.7542244737295385,0.17205127979604143,0.18392414759256773,-0.6063218390219373
4.269999999999952,1.4755572125684318,1.4356335399091114,-4.565622974438871,0.49993476553456057,-0.027730601537157173,-0.8655353598269784,-0.03372661579033215,1.3064164122622606,-1.5679804449050587,0.737230418011407,0.17820335418866884,0.1882832897125563,-0.6236954521983322
4.279999999999951,1.0430921999109188,1.1495964071530502,-4.440043358409499,0.5117795121639448,-0.016030812159033563,-0.8588618545215474,0.32910259184751894,1.3737472219173246,-1.3937326879454224,0.7207256413084815,0.18256128176552017,0.19293121131714264,-0.6400862906317208
4.289999999999951,0.9008867171458332,0.5447641872072413,-4.219325411421232,0.5211208357222524,-0.002204547696257157,-0.8534631625143287,0.814110973339812,1.3306734942854723,-1.16453957710506,0.70470520954203,0.18523415327303686,0.19737328684647618,-0.6557923668592512
4.299999999999951,0.8602816210993466,-0.6523505325196779,-4.248220242420013,0.5191735788201006,0.012559978801029064,-0.8545179134532244,1.0824000897628645,1.1886353135861267,-1.0057909569010457,0.690183308321912,0.1833139162558727,0.1978264312221941,-0.6713438529702562
4.309999999999951,0.8211364428896625,-1.658067406429526,-4.37221641640794,0.5077842901650108,0.02750768925782341,-0.8608413501862973,1.3168567714857942,1.0539098325665823,-0.8013458750041476,0.67580566729519,0.1777625074899353,0.19475118355436008,-0.6880640378130928
4.3199999999999505,0.7358135179502383,-2.4581663546636285,-4.523164228192115,0.4892041363874177,0.04280440049243972,-0.8710434567564704,1.499738505523187,0.9293343773542179,-0.5765126380768574,0.6615876501923081,0.1693304258197389,0.18916516317359922,-0.7055266293790734
4.32999999999995,0.1426284314037446,-2.4867173468479553,-4.248161690636298,0.464332679449741,0.06047729229898853,-0.8833158300689954,1.3823749625877464,0.8589209302115082,-0.47631899084787166,0.64800115199619,0.15723884043708827,0.1831260024443851,-0.7221792112239336
4.33999999999995,-0.2905080266728586,-2.1686119580614776,-3.9530691285627415,0.4410761953814481,0.07974441108870697,-0.8936246304513127,1.152662168854674,0.711872150071226,-0.3080268353767046,0.6352167058904272,0.14492922964726265,0.17915514549465383,-0.736976893322159
4.34999999999995,-0.5770111392117613,-1.59912518418658,-3.646636473323879,0.4195697916798443,0.10007315368608274,-0.9021524996808098,0.8567481604715285,0.5176853256616571,-0.1030358137197832,0.6230400725614543,0.1327142448656849,0.1769210356250103,-0.7502454869129844
4.35999999999995,-0.4921064552389097,-1.0044514574987482,-3.376736110104047,0.40499405000872907,0.11940627930269809,-0.9063361872554127,0.7323695819415457,0.41719233256420807,-0.04235690073268414,0.6112299972538741,0.12345755809220407,0.17762500905557216,-0.7612141101095604
4.3699999999999495,-0.2979279106265885,-0.6026176967638501,-2.9903827609349687,0.3937741221866121,0.13556288928778704,-0.9090767937772516,0.6306574510905827,0.35470641127676084,0.08377764201259211,0.6000715786157292,0.1164288640335926,0.178577098661403,-0.7709411190383963
4.379999999999949,-0.02377164879456105,-0.365944480087429,-2.5230502890593,0.38516709996250964,0.14887950613419634,-0.9107530228161308,0.5543380401580865,0.3245055625116086,0.2529024634431702,0.5895495857930869,0.11121841346137834,0.17959122429463417,-0.7796123466885962
4.389999999999949,0.2401619116500255,-0.4220931562762754,-2.121652254396277,0.3782750983384738,0.15582719521382507,-0.9124583396299757,0.5898232208320623,0.3485668056284891,0.3522732288968877,0.5810304974331636,0.1082269861113505,0.1790348499351601,-0.7864967941844275
4.399999999999949,0.460312485438383,-0.553363989022909,-1.828881016016785,0.3706367859451673,0.16001465458380995,-0.9148666605211635,0.6315128542326219,0.3465223849445204,0.5021396647523892,0.5734894659296463,0.10551798451257592,0.17727243657454098,-0.792780230953766
4.409999999999949,0.6473557734566894,-0.7377014350110196,-1.624716234852436,0.36229973104980095,0.1618509377559216,-0.9178950635388644,0.6745880158248826,0.3219792823972838,0.6837688347072063,0.5667519930375566,0.10302523535169844,0.17445794027132908,-0.798582233487191
4.419999999999948,0.8363191898315309,-0.8650904248734798,-1.508594984091173,0.35206636314226986,0.16001955596161593,-0.9221627169975529,0.6699411563674122,0.25899133816641906,0.7710348641301632,0.5608899386054925,0.10055872481704581,0.16968535886858174,-0.8040235221086629
4.429999999999948,0.9245879601212065,-0.9349556402136591,-1.404035467323724,0.34141153308714955,0.1569081551199776,-0.9266787545544268,0.61455586358827,0.14063740335933256,0.93159656822496,0.5553362765123285,0.0981590125472102,0.1643309997759712,-0.8092664594150456
4.439999999999948,0.9178965516877827,-0.953231455771993,-1.3057551271461012,0.3304700180395039,0.15285458376206146,-0.9313505714367228,0.5222485256368803,-0.015844106462780956,1.1428570952118078,0.5500649962682997,0.09579871912628163,0.15857067715973175,-0.814309674717381
4.449999999999948,0.6469622702078939,-0.8633036426706051,-1.1634549551533657,0.3202038682814817,0.14970266350739148,-0.9354124979584193,0.47250749010507986,-0.09111154781574043,1.2502060166665914,0.5454671504303515,0.09323460537973245,0.15357811614887484,-0.8186286859750217
4.459999999999948,0.2837315817581122,-0.7500090241888283,-1.001232102735441,0.31102427458548326,0.14889062694278013,-0.9386453387077881,0.4019593875571198,-0.21426836957869763,1.3873748979861424,0.5414516461819464,0.09033317567154713,0.15002981777485577,-0.8222779080399082
4.469999999999947,-0.15458851476110247,-0.6165544989366122,-0.8201984166801424,0.30283785948930547,0.15023770659666807,-0.9411226719466794,0.31804674270259253,-0.3713023031165949,1.5420638774296396,0.5379740546772076,0.08712132724107043,0.14780830882961202,-0.8253149257397351
4.479999999999947,-0.6139533880953344,-0.45679727707486384,-0.5871336068440338,0.2968917292435017,0.15678000409475457,-0.9419330510285255,0.2944155827589871,-0.44647930586269047,1.5805513131797682,0.5357996467525146,0.08317583055938098,0.14868587383104184,-0.8269713930142112
4.489999999999947,-0.9441007285022998,-0.25334953880949906,-0.34940437519431444,0.29281346860041707,0.16554674744189,-0.9416961651191119,0.2834674218254682,-0.4875731340699776,1.5854425018472826,0.5344755432310052,0.07926019545761939,0.151175950977821,-0.8277582373965272
4.499999999999947,-1.1553214635805438,-0.01581242419440408,-0.11090658331198794,0.2904465491762916,0.17614199957728705,-0.9405353985314959,0.2842144068090398,-0.4973197198962756,1.5603396459971424,0.5338951649100384,0.07543507855149229,0.15504764354856576,-0.8277822766856554
4.5099999999999465,-1.1008502902147317,0.18265608156584104,0.06296873427897759,0.2917566416702014,0.18670416929853617,-0.9380631451184833,0.311507663413028,-0.4374393497937603,1.4856687352683586,0.5342448560005764,0.07299869077837594,0.1600770794722461,-0.8268091518324878
4.519999999999946,-1.036581845914916,0.2971862795990245,0.276176015164511,0.2943362404989855,0.19619707900153624,-0.9353196655312793,0.39035008348167594,-0.34084811122463654,1.3726975168949815,0.5351548278202309,0.07127226607827034,0.1650665757243884,-0.8253885973752598
4.529999999999946,-0.9673536099755115,0.33743327760498626,0.527780553188697,0.2980215179984035,0.2047102622400938,-0.9323479418866943,0.5103725266345694,-0.21699264230690268,1.2293142821827332,0.5366129278951195,0.07016363755950257,0.17000557601515323,-0.8235406991214376
4.539999999999946,-0.9806532791597304,0.29396372927117065,0.9079017096787321,0.3025301462141956,0.2113247103979087,-0.9293988344701483,0.5713723955719372,-0.18646801663154428,1.134365084494108,0.5399306502735726,0.06950184729530258,0.1745278771501989,-0.820465969964908
4.549999999999946,-0.940641488784917,0.3014124386312496,1.2818769740911327,0.30760766965829484,0.2167813216064815,-0.9264732150718479,0.652583287350023,-0.1635224291133686,0.9927887243551712,0.5445017748295995,0.06909373033871385,0.17883135025622454,-0.8165332222686738
4.559999999999945,-0.8537241580531731,0.36433933306944105,1.6512274450393165,0.3133190485389453,0.22112473566798393,-0.9235419039585057,0.7479991707300155,-0.1482675444942123,0.8127247404850433,0.5502189050843511,0.06897881944716172,0.18294787510332067,-0.8118039347696128
4.569999999999945,-0.7477742001251694,0.7678829389259085,2.0420151631640584,0.3232591871417996,0.2222017123791823,-0.9198230969913027,0.7426062384948511,-0.16658947053631817,0.692615213107295,0.5576883482341138,0.07106860252262713,0.18715492987179433,-0.8055115509554871
4.579999999999945,-0.593380063675038,1.2135078463465307,2.457199540115087,0.33735024400033037,0.22082213698663844,-0.9150111823548392,0.704291548035812,-0.14788795847484335,0.48940946161512333,0.5660095190255322,0.07531622619647049,0.19180494540615198,-0.7981608906195318
4.589999999999945,-0.3985517589550839,1.6916207190452204,2.891376482864371,0.3553045407760538,0.21710828946677369,-0.9091727529622384,0.6374977348399534,-0.0956996388561335,0.21387439028889205,0.5751276036735103,0.08158336508719558,0.19685777268022456,-0.7898140254769614
4.599999999999945,-0.3089618757137327,1.9772586684028952,3.2200113178292,0.37952869982273874,0.2078443553311201,-0.9013317763654811,0.6038438453761589,-0.024812698256714658,0.004862910580539309,0.5856938335052826,0.09154024451167465,0.2022173143320328,-0.7794364190964871
4.609999999999944,-0.533955727184485,2.053291674206941,3.525645214990595,0.4042810501021901,0.19855601503207343,-0.8925887888223676,0.6254792980273659,0.07394268750790928,-0.31241028639998214,0.5970064208646277,0.10137706470956494,0.2082246413363121,-0.7679346400781646
4.619999999999944,-1.048624159394848,1.9332179925405713,3.803264945387301,0.42945294600879963,0.18934826122787307,-0.8830066026666126,0.6985658024428222,0.19669177535220694,-0.7228740699596181,0.6090216261187412,0.11103175825465962,0.21486185489063864,-0.7553711112720841
4.629999999999944,-1.655720592860114,1.590046317373104,3.717874288667855,0.45129684112527274,0.18550543029887398,-0.8727105888496215,0.8160235917876214,0.240678729539807,-0.8263897346089245,0.6220566640180355,0.11692033095071701,0.22343006794689682,-0.7410912312174661
4.639999999999944,-2.2177559687739588,1.258698826248422,3.64118506908649,0.4705026902504897,0.1853755906944011,-0.8625917311418052,0.9202904357655225,0.252612303783006,-0.9131876430699125,0.6351219927468781,0.1202140325733062,0.2328089287011278,-0.7264392280802623
4.6499999999999435,-2.7338904308882235,0.941086351526515,3.5718922643401845,0.4871961432716373,0.18878507804198452,-0.8526393021213572,1.0102064064537355,0.23453636142431447,-0.9837389419777143,0.6482133916941686,0.12103077831382564,0.2429601051081043,-0.7114292315768163
4.659999999999943,-2.962994134450958,0.8353066716391797,3.4395400135281635,0.5012034316077624,0.1962324971098136,-0.8426823692016452,0.9422811517465678,0.22558670930735833,-1.011012116206298,0.6611113036330806,0.11874676399046712,0.25395924912253176,-0.6957500474507914
4.669999999999943,-3.058253851729435,0.5748328490897325,3.353178907675347,0.5137431042734569,0.20408962681213083,-0.83323329325678,0.8026204312383767,0.275896654861417,-1.0216757237826344,0.6736900630566062,0.11550870487413842,0.26453729664641484,-0.6801169576128031
4.679999999999943,-3.023922633052065,0.16386981502276116,3.3116060666403944,0.5248307687454508,0.2123329045987114,-0.8242976279394059,0.5947030776951728,0.38304934223761367,-1.0161478065093479,0.6859645938187667,0.11133623226051637,0.2746901282834381,-0.6645281955365461
4.689999999999943,-2.9104628631004656,-0.4643965481641983,3.3430077197833596,0.529556170929205,0.2189512847851789,-0.8195034727359111,0.5567656451318151,0.4307050974061899,-0.9813655983127074,0.6988973435281816,0.10470762490547723,0.28149494465338526,-0.6489132349500546
4.6999999999999424,-2.7456147798988613,-1.0938074614408582,3.329898201749809,0.5304782885861042,0.2245009988391245,-0.8174213499130816,0.46352634027748535,0.47164656075980976,-0.9245449695548329,0.7121340028922366,0.09694850644937716,0.2860904488576855,-0.6335363694064772
4.709999999999942,-2.5298579011435947,-1.7243522447130946,3.2726928578374213,0.527632611151771,0.22899201876176045,-0.8180259527924661,0.3155011992642782,0.5059363850990821,-0.8458915664613,0.7256717360510199,0.08806942598489083,0.28849725656190867,-0.6183953771791356
4.719999999999942,-2.2695104912140307,-2.207247227434327,3.219042330505315,0.5177818968939617,0.23127879149752856,-0.8236168248057487,0.18075288978871687,0.5230779755740631,-0.770203713087653,0.7394450016742317,0.07776459401374097,0.28651134033366993,-0.6040113304461202
4.729999999999942,-2.0827402736375222,-2.590682237312679,3.12535005122621,0.5053009990411463,0.2331004303306305,-0.8307715714561971,-0.02752430379281047,0.5363923055471975,-0.6175582146245987,0.7531290730139136,0.06700570629205145,0.28292765392407243,-0.5899108266667976
4.739999999999942,-1.9708862328738763,-2.8730747849874936,2.990909989351459,0.4901514618774691,0.23445119099187123,-0.8395121594972964,-0.31063425442799075,0.545831027297047,-0.38660235697511697,0.7667221283019481,0.05578636095444511,0.2777229867383908,-0.5760980095556193
4.749999999999941,-1.9598555437085516,-2.7292957185071605,2.6519828554754965,0.47276605767697016,0.23781675081884135,-0.8483727343595917,-0.45607944022445257,0.5167930530264447,-0.2716175860054652,0.7788174779839367,0.04398869362718075,0.27164170436399226,-0.5634488576370178
4.759999999999941,-1.9180808867094754,-2.3410329364042677,2.312160340515719,0.4572087309208017,0.2427589333489608,-0.8555118749865276,-0.7251038136448025,0.4456557218005225,-0.15287844162486353,0.7895503956186406,0.032658802167469365,0.26666838426828293,-0.5516001106843044
4.769999999999941,-1.8433701919227512,-1.7007659797166208,1.973052834522122,0.44357948220148585,0.24933215680643078,-0.8608514401174227,-1.124358662962095,0.3308422649672028,-0.02928054532598537,0.7988718915051373,0.02182232517011874,0.26285977262370486,-0.5405782586646753
4.779999999999941,-1.4597055086593969,-0.9769907750927785,1.6435970473151134,0.4382321336186092,0.2554679025377669,-0.8617744485789489,-1.335282118098052,0.28396938536353783,0.014113539213516543,0.8050972031622522,0.014671299531085164,0.2624342788339446,-0.5316442928666417
4.7899999999999405,-1.0436704208021912,-0.3778438950768028,1.334374937296034,0.4361927575987426,0.2597698820954393,-0.8615397878559491,-1.5509413313845353,0.23698552462753714,0.0836725763441189,0.8100203038770962,0.009750399288391132,0.2629272460247912,-0.5240338770651298
4.79999999999994,-0.5977115841105318,0.0863074940602091,1.0467088791676575,0.4375733439688889,0.2621114530047628,-0.8601318637306811,-1.7746082575966604,0.18882656998586356,0.18254722984650032,0.8135945579316441,0.007164624826583619,0.26435292462155385,-0.517810872327629
4.80999999999994,-0.30969073386489154,0.18236749496317245,0.7992864957985638,0.4415301194362075,0.2614774384394094,-0.8582950542382689,-1.7075741621041964,0.16255518600475016,0.2602532617836944,0.8155634111005726,0.007319038525392571,0.26607768682956395,-0.5138033029851152
4.81999999999994,-0.16122684299557688,0.09250520463210965,0.5057068056244632,0.44422991792940986,0.26082770021476126,-0.8571041970440811,-1.5294271049505537,0.10102994449064676,0.36601161521104403,0.8170642250250773,0.007439480136194191,0.2671936582144133,-0.510838455068428
4.82999999999994,-0.1627884310614518,-0.19352275526815496,0.1603355453473735,0.4454845410389307,0.2602305221354373,-0.8566349871120876,-1.2357061282453259,0.00015536001541668898,0.5031692830703574,0.8180871539363062,0.007458145506330944,0.267631967441997,-0.5089702300614009
4.8399999999999395,-0.29425105288621356,-0.574789231672058,-0.2874201218501785,0.4408121940182907,0.26328371354489144,-0.858107134495322,-1.127919413828185,-0.025250048159056387,0.5295266023360315,0.8183406825180999,0.004867507102988973,0.26630451944390116,-0.5092856950759814
4.849999999999939,-0.3550471021596659,-0.8598335843761654,-0.7713415992104945,0.43327517971439905,0.2683323666271188,-0.8603408654462256,-1.04215798175416,-0.004827414212647763,0.5159928724203332,0.8179374512122352,0.0010366129237472555,0.2642188120145911,-0.5110213432284255
4.859999999999939,-0.33176164042958567,-1.0329974702045828,-1.2929001080820193,0.42268723491434157,0.27552150456620333,-0.8633740184244074,-0.975370095753704,0.06502112066923922,0.4608772847973154,0.8168159279635959,-0.004113798737270035,0.26133183310520675,-0.5142936230654777
4.869999999999939,-0.0669856226097979,-1.0952634230142657,-1.729723410833433,0.40869964697556055,0.28358977750254855,-0.8674073419813996,-0.9714758466978547,0.09976774128165275,0.41636720357054213,0.8139802420359323,-0.009669100877897425,0.25725070054805377,-0.5206855497482707
4.879999999999939,0.283938254892649,-1.1595546361430866,-2.104050357611301,0.39337643049897475,0.29028424506894396,-0.8722539408402494,-0.9474760445269219,0.13287014560018948,0.3555451288451578,0.8104169208410985,-0.014639499116276693,0.25225491075517514,-0.5284888553177851
4.889999999999938,0.7250256214756036,-1.2307470414745625,-2.4092576178571043,0.37664120120501854,0.29534685258914106,-0.8780042097993268,-0.8975421107720527,0.16550240654377749,0.27534017600180766,0.8060786938909775,-0.018913870601667243,0.24624564299962864,-0.5378036491994339
4.899999999999938,1.043665966102846,-1.3530666267868965,-2.7527833827179666,0.3571781890862032,0.29623259578058536,-0.8856851536008435,-0.8357355958510354,0.17546220522747957,0.21879995629437646,0.8005082523701403,-0.021730958096141107,0.23800196120413228,-0.5494907486570995
4.909999999999938,1.2969313218298688,-1.5268139905446596,-3.1166662859882988,0.3357141860758366,0.2960070895809964,-0.8940730232529763,-0.7448658388538983,0.22890436625782268,0.13728711501856308,0.7941704352041823,-0.02452439641291256,0.22870537152834425,-0.5623259451813993
4.919999999999938,1.4783917010675918,-1.7593414120073125,-3.5028989354503466,0.3120006079318043,0.2946673988773322,-0.9032065589563871,-0.619913933466664,0.3353902201770804,0.024770184763281994,0.7869793576515197,-0.02736357932928367,0.21826562958247836,-0.5764108960064265
4.9299999999999375,1.9154185963970105,-2.011842744616716,-4.00968154579589,0.28296172167077205,0.2897248103570309,-0.9140379705716237,-0.5497412100512069,0.4243891022990361,-0.013548220788905628,0.7779257698867647,-0.03022448194054818,0.20485799941196592,-0.5930091250108895
4.939999999999937,2.418308792127119,-2.162121891688721,-4.515714456363863,0.25172977666186347,0.28112824764952316,-0.9256951350805191,-0.4947531355733935,0.5705146809904251,-0.13878158833131266,0.7674750222104442,-0.03234406342987126,0.18964366031819432,-0.6112048585424689
4.949999999999937,2.986346399822721,-2.185886963746326,-5.013478072094514,0.21813445017970473,0.2682726026316893,-0.9382609191117253,-0.45503716468623046,0.7877280708241958,-0.3750728705943144,0.7554253060304151,-0.03355366545000167,0.17239575756028314,-0.6312054481036734
4.959999999999937,3.3790970635154496,-1.7070470638542354,-4.923978180232201,0.18759357831990647,0.24694926655946525,-0.9502695415880197,-0.470688376149192,0.9407625527179316,-0.5625105367847303,0.7413293309537106,-0.03140864431666482,0.1539309541615633,-0.652094927121891
4.969999999999937,3.6346924418599365,-1.027360569919303,-4.657581631744229,0.16307513757577013,0.22214123889549814,-0.9609884000269224,-0.4809501239946624,1.0839302422533863,-0.7550299892304246,0.7270330496729744,-0.026663278510269606,0.136555982919941,-0.6720528776003584
4.9799999999999365,3.730218730938293,-0.1309375621385518,-4.210679353019112,0.14591872263464192,0.19355469119262148,-0.9701236406506534,-0.4804502254968954,1.219286959163654,-0.9574558926002921,0.7126315932147591,-0.01888539311353297,0.12064037358007461,-0.690774310196324
4.989999999999936,3.4523076463316666,0.5195739357403444,-3.772317302976138,0.1428866595509126,0.16414565184248384,-0.9757877465809975,-0.4061223131532167,1.201425668389036,-0.9893933725878442,0.6991148611610797,-0.007132606315202399,0.10914330650355866,-0.7063365607160135
4.999999999999936,2.8207665192369045,1.0728800457752778,-3.5581938715475783,0.14485571707616546,0.13885630512148578,-0.9795538824784474,-0.2627534201178477,1.13096155379763,-1.018129634289682,0.6855685970129147,0.004613024044406715,0.10064621498906888,-0.7208345096415304
5.009999999999936,1.7631253835538292,1.5210089948465175,-3.6333004488922773,0.15211322586245227,0.11896235314790238,-0.9811554370485854,-0.03627159655093981,1.0052606729485682,-1.0569462292703953,0.6719103574703821,0.016017875660303566,0.09565958841672284,-0.7342197988007607
5.019999999999936,0.5021191458203762,1.7326343292463173,-3.6129532240732702,0.16409276631430547,0.11691090046229351,-0.9794500110303457,0.08073904852998498,0.937464351319617,-0.9610337790573685,0.6576368173635894,0.023070754089539923,0.09855050915466299,-0.7463593942283626
5.029999999999935,-0.5375727125707386,1.6326102619603788,-3.389086814835436,0.17592057536098168,0.12258810486269743,-0.9766606382877551,0.3075726005331096,0.7928160967524736,-0.8129758830147542,0.643537972292218,0.02759448772115856,0.1042689072598666,-0.7576623026799335
5.039999999999935,-1.263828762043455,1.1412402012661476,-2.9040121358922275,0.18709505242884383,0.13682443561252394,-0.9727478222554201,0.6907610336392489,0.5405429886960166,-0.6085418318628943,0.629730049212398,0.02917505669796975,0.11298944359516683,-0.7679729961255471
5.049999999999935,-1.4739831723102121,0.07440656889503883,-2.2813621928969297,0.18703795190839712,0.1555838870478439,-0.9698506732590895,0.9148476792170392,0.43538581580661817,-0.507103793947995,0.6204786626491764,0.024573744920877508,0.12012761080731917,-0.7745117561733015
5.059999999999935,-1.5046946066014566,-0.7800165700527557,-1.9932310417732686,0.18067996606805883,0.17415707022733792,-0.967880334564529,1.078833124287733,0.4191372006070757,-0.37107924517707896,0.612356344527201,0.017463390074194885,0.1253276634893962,-0.7803360397958593
5.069999999999935,-1.346634683280175,-1.2820261114394431,-2.1765464762182902,0.1669445284735433,0.19198440064039218,-0.9670643387308575,1.1780975783008003,0.5082236309872677,-0.17666139885421595,0.6052794800509008,0.0076011126445100375,0.12805492524522005,-0.785595344599838
5.079999999999934,-1.122959416874099,-1.1933332066045375,-2.009352707568329,0.15056540706267957,0.2066516028237348,-0.9666260052746449,0.9982096346423062,0.5188244920608855,-0.07943532761765834,0.5976820856440105,-0.0022241776672559804,0.12895725733109786,-0.7912271954263768
5.089999999999934,-0.9246264681263188,-0.9238562719277406,-1.7083687978546955,0.1362597694887659,0.21936523405944583,-0.9660267981210493,0.768707187549671,0.48730214791830284,0.04735500590626751,0.5908976182198451,-0.010751055161333902,0.1298082782718322,-0.796135964151249
5.099999999999934,-0.769898620057982,-0.47336014103488677,-1.2627786937557124,0.12518717082290268,0.2297268776292312,-0.9651555583370832,0.5039011822866216,0.4063366778462606,0.22755065906759808,0.5853173193665918,-0.017461285618778168,0.1308114772870508,-0.7999847594873316
5.109999999999934,-0.6589811196955735,0.03878839063678874,-1.1716518790252337,0.12130711560020571,0.23783928841673926,-0.9636787190071515,0.40333889754388735,0.3460403067741353,0.31843956081298663,0.5805462939173816,-0.020704048878438713,0.1331322305502288,-0.8029873773893561
5.1199999999999335,-0.5686848059641028,0.512957153600248,-1.1081052759905596,0.12096210242767257,0.24518283842441,-0.9618866536426727,0.31369614595028134,0.2529069400380407,0.42368144853982864,0.5757430735973132,-0.022254696374069596,0.13621371389913617,-0.8058836137127655
5.129999999999933,-0.5020867920773306,0.9239005216980827,-1.0355594889676225,0.12472334003329821,0.2517274922700756,-0.9597235062487425,0.21720246327481257,0.10959817738198577,0.5618958894528366,0.570782135580806,-0.02184319416077509,0.1402105204232294,-0.8087428943486763
5.139999999999933,-0.42365797127261207,1.1378727194439746,-0.9188976306842077,0.1327028708618556,0.25729843918498163,-0.9571463977579252,0.228655550853628,0.036017460281906534,0.6316135675342474,0.5660997649946372,-0.019403644489560272,0.1450292737423206,-0.811226995227229
5.149999999999933,-0.3631575159417059,1.2626464712443237,-0.8078681283413153,0.14182468200945259,0.2623304607479699,-0.9544688249741512,0.276132501387271,-0.05045801807275065,0.7182721302255455,0.5616504710160077,-0.016343470698110096,0.14993925666914612,-0.8134947238206438
5.159999999999933,-0.3310276049945138,1.2854517494777256,-0.7119389345782252,0.15199257246126682,0.2667132639226035,-0.9517058283952284,0.36044134520933335,-0.1667147854656329,0.8405172140447239,0.5575037854647058,-0.01267453219898987,0.15485849741782423,-0.8154993861742341
5.169999999999932,-0.39912663757123834,1.2460528502425001,-0.6093408052688319,0.16215369691732312,0.2712519942690639,-0.9487129496396477,0.3927796802686765,-0.21253938374980444,0.9107752398794808,0.5538700810715353,-0.009096857673782054,0.1598139859990675,-0.8170533032151883
5.179999999999932,-0.4825265810644476,1.202221518511686,-0.4893598039484081,0.17221921265439896,0.27627594468147365,-0.9454887708238129,0.4190594055360812,-0.2539514114326152,0.9998233962098049,0.550589977755605,-0.0057440075623968224,0.16494204929485654,-0.8182855076252713
5.189999999999932,-0.5722075019234288,1.1622021376094263,-0.3440433002261246,0.1821403000733002,0.2820122343631274,-0.9419514358003255,0.4449375544965635,-0.30060256695967835,1.1263083101144742,0.5477611862012348,-0.0027179879886636274,0.17032672653453018,-0.819104388392686
5.199999999999932,-0.5697322615453251,1.1189654215615468,-0.15939884942866125,0.1920406569375872,0.287864859701373,-0.9381759851191102,0.4420100443536895,-0.33834187601500515,1.1837258373385706,0.5458893961096821,9.754815550888423e-05,0.1757601657740686,-0.8192014241918111
5.209999999999932,-0.5325183475385628,1.0998055288706132,0.021359306994349105,0.2021339812638133,0.29322656267014324,-0.9343971139650217,0.43329046116394815,-0.3938805697396953,1.2177393191565715,0.5445688748805776,0.0030263743762845995,0.1810441059517448,-0.8189278369766645
5.219999999999931,-0.4581923659802522,1.118939651383808,0.18866377989245434,0.21253327162046642,0.2977979496664383,-0.9306575100140474,0.42090171712720476,-0.4789533777672504,1.228057814132211,0.5439320006582027,0.006171994361319863,0.18608487480983785,-0.8182093278299672
5.229999999999931,-0.38407891330032506,1.2127527627422836,0.33625266464170456,0.22443725870327763,0.3008812302996938,-0.9268256045936883,0.40801610577468733,-0.5073523103129407,1.1818025381898876,0.5440053478711397,0.0102145272849618,0.19094659184598436,-0.8169883859243624
5.239999999999931,-0.30722999281799623,1.2719006267950113,0.5048555230125303,0.2370807584373905,0.3031595327446023,-0.9229306409218282,0.40545296701325684,-0.49887351085421244,1.0738186750903451,0.5445168268345268,0.014690901345200423,0.1957013063911425,-0.8154536234745591
5.249999999999931,-0.22593431462603342,1.2598621338124194,0.7113450717527692,0.2506044775560736,0.3044488247199003,-0.9189532012457616,0.41960708903030014,-0.44271629055589573,0.8781362710595448,0.5455871528368063,0.0196807430870619,0.20032069052820056,-0.8135172821194556
5.2599999999999305,-0.06983839284845253,1.1700684731680535,1.002038086919281,0.2643266737808617,0.3032115188082604,-0.9154685475862316,0.4416283613086033,-0.39233433424275055,0.7668444532266966,0.5480868071142235,0.025116242152886752,0.20398886466212574,-0.8107567263166577
5.26999999999993,0.16933148460035619,1.0817797032679815,1.307262514387932,0.2781117276465592,0.2997697646076349,-0.9125187873735942,0.47148708280109086,-0.3394453872182708,0.6431520396894375,0.5515197722436408,0.0309773118386843,0.20679026564819353,-0.8075082781548955
5.27999999999993,0.5291461803751781,1.0135725791449488,1.617501826756985,0.2919559712565894,0.29324912519328333,-0.9103433047256267,0.5125445054246562,-0.2810985294606848,0.47983422886166555,0.556174909836865,0.03744228774987186,0.20837151800198708,-0.8036383588112115
5.28999999999993,0.9341517483802516,1.0789558485826343,1.8431932030399272,0.306460123453768,0.2802943246029939,-0.9095568673203465,0.5033004874831833,-0.263982659263409,0.36094970556568945,0.5619969159703494,0.04579466903419096,0.20756383830319208,-0.7993168635290129
5.29999999999993,1.2092810469165065,1.2178545847346556,2.087470562808759,0.322144793200961,0.2646421321696995,-0.908797033587051,0.47409863513915,-0.2269221648426655,0.1798916158177365,0.5683380890567462,0.05531427591514905,0.20612905035142362,-0.7945804627339458
5.309999999999929,1.2520174715939387,1.4489263750831731,2.3843180624941134,0.33967697729181046,0.24598704830040038,-0.9077389296408098,0.42334530969452555,-0.14569194080422948,-0.1180557378590274,0.5752749178307877,0.06635513314867357,0.20421703338301173,-0.7892490627249609
5.319999999999929,1.0283422548809884,1.4475577945165894,2.6881750881461657,0.35906619648100613,0.22688543220326182,-0.9050819984859063,0.40847017692161297,0.006408051161192363,-0.30568318756310836,0.5835549906354494,0.07795678261948961,0.20323873077879465,-0.7822632184887132
5.329999999999929,0.8768187098969388,1.3206436282821448,3.0408513484395248,0.37786606533061434,0.2074212748883019,-0.9021647407205123,0.4197916076270206,0.21415651035112793,-0.49619591768540294,0.5928343949944986,0.08918890474151733,0.20228026896911408,-0.7743043867152597
5.339999999999929,0.9236104794175295,1.036415347377257,3.4771925289522088,0.395132127576101,0.18744222294372903,-0.8992225718204946,0.46734381873478614,0.5003107053766246,-0.7215258675390308,0.6035027671201588,0.0996221453232474,0.20110469215551133,-0.7650867069384135
5.349999999999929,0.8363564502351941,0.9486080585063392,3.698459867688337,0.4100529082099307,0.16440532664709684,-0.89688423713299,0.504385015314097,0.5495648723915648,-0.8699214713305554,0.6158718103786981,0.10972946806956806,0.19863897553658127,-0.7543130174935041
5.359999999999928,0.5271951277295098,0.8717133037728068,3.7894236848424265,0.423931188049807,0.142554405478711,-0.8942849867929883,0.519364280670619,0.4725892000315061,-1.051961342143636,0.6286189463133326,0.11896762940221128,0.1966706644988428,-0.7428668954156941
5.369999999999928,-0.14278975296540974,0.7568272502322675,3.7085496049452296,0.4366180474542417,0.12374003805033812,-0.8910379196523817,0.4976438890572579,0.23753030019381405,-1.3172626583651454,0.6415485930335871,0.12673406524490857,0.19597815269645041,-0.7306649858520113
5.379999999999928,-0.8647765713365249,0.4691844181473221,3.566230136670038,0.44586997250572846,0.11350493028419706,-0.8878213173298967,0.5094509445298722,0.1288433650988929,-1.406514599001699,0.6544368817307019,0.13022029890523198,0.19780041384994984,-0.7179413857556559
5.389999999999928,-1.512277756469443,0.0914246074079248,3.444551322269937,0.452459940060415,0.10779281845639242,-0.8852439484420177,0.5450531756732573,0.055275289444372155,-1.3823295812042724,0.6674148885076076,0.13103372997042742,0.200499485071459,-0.7050102904907197
5.3999999999999275,-2.004940730992366,-0.398518285691176,3.380777786439651,0.4552042273878611,0.10774036737571087,-0.8838433762231789,0.6141317891527515,0.006596523394333212,-1.2037260933337952,0.6805726131073653,0.1282508827222602,0.20402415443760633,-0.6918604061087956
5.409999999999927,-2.2658568131806143,-0.8882201025845406,3.3727033298692084,0.4524557041686558,0.1118275229536308,-0.884735378283957,0.6106564032234068,0.02185430227129809,-1.0259931658898251,0.6942125126069938,0.12166781675597226,0.2068713296755127,-0.6784027015295843
5.419999999999927,-2.4268453614667065,-1.3429774431245705,3.362518884257796,0.44674235223211095,0.11741899885159483,-0.886889424391569,0.5366067295962488,0.05384774882728418,-0.8033787890444317,0.7080321558535031,0.11335783069405568,0.20895635510901966,-0.6648172226923982
5.429999999999927,-2.4769811731141544,-1.7310409092204835,3.3290498132830493,0.4372619610298643,0.12445429176166826,-0.8906627410502852,0.35277149525931817,0.09572240549213878,-0.494697222954097,0.7220286156339988,0.10306133985629089,0.20981912684270573,-0.6510939723215959
5.439999999999927,-2.436343663514697,-2.0034101996501645,3.224050189611898,0.424328773341252,0.1323697388581014,-0.8956944570341823,0.2293657282024903,0.11727759040558748,-0.34572541877584617,0.735673518882822,0.09137127663422583,0.20910251101529065,-0.6375158908407316
5.4499999999999265,-2.3545340197104494,-2.2316807149810813,3.08269284659308,0.4097376687398204,0.1406771786416528,-0.9012064482107277,0.07473461856341386,0.1540456415100569,-0.21060823081739993,0.748911082521412,0.0791436821142758,0.20752404546030992,-0.624185755806304
5.459999999999926,-2.225667736214717,-2.416471081150381,2.8965477428070527,0.3931758150235705,0.14942667113048727,-0.9071925820541095,-0.16403237513075197,0.22838588690756256,-0.04291888950345904,0.7614782694748617,0.06637985558853882,0.2048403408232637,-0.6112894698097617
5.469999999999926,-2.037528566032058,-2.5595691935288825,2.644791629807158,0.3744739344946177,0.15815053524830977,-0.9135032758352201,-0.28880743146157645,0.27034928740206243,0.056288437139921675,0.7728760595904267,0.053483955478461874,0.20070796055428275,-0.599389833146863
5.479999999999926,-1.8521936833221477,-2.6110913888498453,2.350437844453116,0.3549363435891203,0.16687581047525887,-0.9197653415294647,-0.4379934709915147,0.3133295790664954,0.15565532983158853,0.7834292289974752,0.04070061683413504,0.1959298838305199,-0.588259451442136
5.489999999999926,-1.6965656324961138,-2.493749412630178,1.9962628883028037,0.3345707197881355,0.17561433316175679,-0.9257972493380566,-0.6828879209115224,0.3714922745946894,0.2830960303124086,0.7927429746312452,0.028199123845458033,0.19042906312724417,-0.5782856170324643
5.499999999999925,-1.4773174236020021,-1.9667988834282824,1.583966242731266,0.3177581060646543,0.18453629998483742,-0.9299349120900199,-0.8438021771127635,0.37772454910358383,0.34139150625084436,0.7998609417027531,0.017431098953018923,0.1861697840887753,-0.5702034943417537
5.509999999999925,-1.1779164530699555,-1.3678005618816995,1.1914970644862255,0.3042138544031765,0.19262185543589358,-0.9329035306044527,-1.0428315586619323,0.34128676348549375,0.3781034501062875,0.8056392127481713,0.00838626810726098,0.18292666613900557,-0.5633661876260835
5.519999999999925,-0.7388148984998061,-0.7973973442608969,0.8658960998978087,0.2959466957678738,0.19887893283769034,-0.9342573166377454,-1.3582651714436091,0.23837927959897057,0.39995053699219957,0.8095778706272831,0.0021848615561768994,0.1812643609186316,-0.5583031962680276
5.529999999999925,-0.4047063068577029,-0.4494674140462438,0.6329081743136677,0.29211920819244014,0.20154110644460496,-0.9349015411012174,-1.4498464523944148,0.15610240568690986,0.40651694096250357,0.8120487040092191,-0.0007924200791123469,0.1804035798174744,-0.5549957026188085
5.5399999999999245,-0.1849703914986343,-0.24322599798167138,0.4346259602373636,0.28977779047644003,0.20294519811081874,-0.9353295768802821,-1.4276148146081251,0.05741694262476868,0.4426191136347847,0.8138915555803518,-0.0026226814597047074,0.17979981320229302,-0.5524887176337104
5.549999999999924,-0.16209190711729124,-0.23725040094236483,0.267408267287968,0.28854281359991757,0.20333536714375616,-0.9356267088078094,-1.2658235856698439,-0.08635529072568837,0.5495646418270264,0.8150741705455862,-0.0035033152138161544,0.1793715071143267,-0.5508779044394695
5.559999999999924,-0.32192677318822843,-0.4414303282359934,0.04916105980350202,0.28523704009049977,0.20558782859064598,-0.9361416761815017,-1.1281622701449645,-0.1603466271299448,0.613464316141044,0.8157459426324577,-0.005574234922007699,0.17859056282166938,-0.5501172715687717
5.569999999999924,-0.5044630127516727,-0.7055909363924888,-0.208310025767569,0.27995696993375885,0.2094536126240255,-0.9368616264425547,-0.9771378170855807,-0.2122666954867362,0.6624479302087218,0.8160524646740605,-0.008752190019548214,0.1774316230044334,-0.5499898251965698
5.579999999999924,-0.6445082947434082,-0.9961252981842876,-0.5269697898081473,0.27134388978832436,0.21595649249532348,-0.937926188049828,-0.7841530865682416,-0.2506417842391915,0.7001858442049894,0.8158073379011442,-0.013784223056820182,0.17561225783413464,-0.5508367053324111
5.5899999999999235,-0.5801118816529685,-1.1818514546610919,-0.8592266953558119,0.2591054550130786,0.22358938750114302,-0.939541793423206,-0.7114267950519766,-0.2320148637057972,0.6853312349004083,0.8146706896711249,-0.020010749822622943,0.17262338490162632,-0.5532423287091833
5.599999999999923,-0.4325529296832077,-1.3193219954023916,-1.1868894242425145,0.24514606030552785,0.23106880291532,-0.9414885692997862,-0.6645965371769614,-0.16319335067780788,0.6201155455458578,0.8129272430698962,-0.026471032302310835,0.16891486429153718,-0.5566706304798669
5.609999999999923,-0.20633641319682705,-1.4035795744434616,-1.4965704711332384,0.22922729776345493,0.23757728334258016,-0.9438927045932947,-0.6112533133477088,-0.010523444123554632,0.46825408172286076,0.810281058506201,-0.03281283327574115,0.16419717878382456,-0.5615895881425916
5.619999999999923,0.08981566120079276,-1.5081944068251516,-1.70808583610917,0.21145970333123715,0.2413303710397096,-0.9470195729007895,-0.5659578486949329,0.07110280952151163,0.3994368689957113,0.8068074514153231,-0.03834897863538012,0.15804986409168656,-0.5679249664851725
5.629999999999923,0.3969625419977581,-1.620936066571977,-1.867573394863715,0.19255099246854693,0.24299515577603897,-0.9506412563021621,-0.5080101597960016,0.14841854698898682,0.32619961894731037,0.8029799845483887,-0.043305827102700596,0.15090094867511003,-0.5749055775201263
5.639999999999922,0.6888720408622095,-1.7408964807010907,-1.9618783266034658,0.17203321807946298,0.24134484246719304,-0.9550072400491171,-0.4153852089611434,0.2574379224172022,0.19352743785463541,0.7988034135520238,-0.04736742749046199,0.1422257740190187,-0.5825771948446198
5.649999999999922,1.0246123754510834,-1.9788487899393938,-2.1225278193986234,0.1490369414079874,0.2359640718220801,-0.9600812121807903,-0.36103648212578016,0.32513837463144635,0.10031973920763308,0.7942537681808532,-0.050748509886793365,0.131558950254404,-0.5908881023613266
5.659999999999922,1.40241661664761,-2.2408330026669154,-2.359140947975074,0.12393119964445219,0.2277030100839097,-0.9656240808834742,-0.32444945465251174,0.40045536116274144,-0.02897124492702606,0.7892661470022582,-0.053673593155382074,0.11927426286145282,-0.5998520982790729
5.669999999999922,1.8551416567656995,-2.4866664671051613,-2.73917911980743,0.09524611347109124,0.2147742938176295,-0.9718629570537757,-0.3069598730531474,0.5205788250465453,-0.27140880113296595,0.7834456061797579,-0.05591674146942235,0.10430194057722866,-0.6100054734458054
5.679999999999922,2.123849507346391,-2.3772448891018128,-2.8870165013040605,0.0655087464875954,0.19708420728301687,-0.9778219706247961,-0.32801024042852867,0.6509863613021787,-0.48279932637583733,0.7763243405081472,-0.05691661939147992,0.08766187065711986,-0.6213876447752148
5.689999999999921,2.3205474788145133,-1.9601366150952715,-2.852409222005725,0.03836471111207575,0.1770609263442898,-0.98328842363265,-0.3861855515047316,0.851535053757484,-0.7236166774140111,0.7688781133739324,-0.05647061196519287,0.07136045050970719,-0.6327819652762923
5.699999999999921,2.4610817611937206,-1.0091826130525705,-2.51594771672762,0.018479089830190396,0.15439906596695602,-0.9877033346278794,-0.51172218508801,1.2219841852789903,-1.0598228807864114,0.761499084693365,-0.053225404290289956,0.05705024198173542,-0.6433691436253955
5.709999999999921,2.451098196585322,-0.20598058124429053,-2.39524412818473,0.010335101545321794,0.13015573295204483,-0.9912564809603783,-0.5080190501756383,1.3745756940451122,-1.186500429403812,0.7543067792009904,-0.04598520374424882,0.04655757017011041,-0.6531229811072475
5.719999999999921,2.2510572750188387,0.45066502318742085,-2.368008500343335,0.007949650975410175,0.10681420827583983,-0.9941765918913287,-0.4206394319556199,1.3595451262169926,-1.2296502979465957,0.7470071992486348,-0.03739332775887867,0.0384327370004867,-0.6625849813097276
5.7299999999999205,1.6659722213352006,0.8336021270496563,-2.4263293089274405,0.011971346491450426,0.0869809890804433,-0.9960781815554227,-0.20985543771286763,1.0672538926194979,-1.2085854375505007,0.7392913151927946,-0.028204899335655065,0.03368249312929964,-0.6718967889274646
5.73999999999992,0.6947368833649438,0.9794512016587764,-2.5686701562688943,0.019289899686202566,0.07687437270977089,-0.9968197431751552,-0.05649343197321541,0.9096365233261481,-1.17325793677518,0.7306951302960868,-0.02154368703258891,0.033253512625262764,-0.6814673426288126
5.74999999999992,-0.3703423112684513,1.018816830729035,-2.7111981911197436,0.027465614489875615,0.07430180845931643,-0.9968298910282819,0.12397187924381306,0.7711846994320983,-1.0967874960271393,0.7215656058086394,-0.017313345727174426,0.035647222397638526,-0.6911536774454163
5.75999999999992,-1.3844862799593538,0.9578246139841813,-2.788144356985906,0.03535715980479549,0.08437362523762909,-0.9957822146811662,0.4226120983128312,0.5784321155444097,-0.9207065417617866,0.7116917996326594,-0.017643378372625147,0.04224565858789857,-0.7009483805311129
5.76999999999992,-1.9682290664671895,0.6660366472857351,-2.769356782826861,0.04042783142052367,0.1029114589008712,-0.9937354492531524,0.6157894201900687,0.4691723788134991,-0.7696915446721637,0.7015288861070086,-0.02173786085637894,0.05094191030103965,-0.7103637309929894
5.779999999999919,-2.3170574535338004,0.26797425948652726,-2.7619540557482063,0.042591798677276714,0.12493792921308997,-0.9911462159815183,0.772939163008997,0.42010446543540686,-0.5944530879611669,0.691181198515757,-0.02794443643889837,0.059982087528716796,-0.7195682299635997
5.789999999999919,-2.3748183049401246,-0.2312935366955175,-2.867119080046264,0.03903907216422405,0.14953524387475714,-0.9878892367607206,0.9187684550185515,0.4682389311725095,-0.3305532442390749,0.6805628270260415,-0.03685685235943682,0.06820895032657691,-0.7285055973620441
5.799999999999919,-2.2859432504171573,-0.5960900478234307,-2.498871435660565,0.0299017821391773,0.1735745981927817,-0.984164888220914,0.9277284954616274,0.48306862978683907,-0.17813434286228094,0.6709211432324049,-0.04757002314762355,0.07459064514484995,-0.7361172966645253
5.809999999999919,-2.109134323091065,-0.74553335699837,-2.1176481276374104,0.019125462506751616,0.1963413318723289,-0.9802657842977162,0.8573547905196726,0.4698296915882917,-0.0421593149373949,0.6618892353499449,-0.058440283352753294,0.08009257324913512,-0.7429690953177802
5.819999999999919,-1.8117176271584075,-0.3957679129548937,-2.128553889673349,0.008688332833221025,0.21594324570708628,-0.9762866441903695,0.6823199266548006,0.4058415820011578,0.14753477086459482,0.653730116621851,-0.06812974747600745,0.08473090825587963,-0.7488316976617712
5.829999999999918,-1.4081744521627977,0.043808438407819394,-2.204066243729871,0.002488311294775119,0.2311854139010382,-0.9728412129606906,0.5366080415439314,0.31942929532542297,0.24931282059566812,0.644981732044164,-0.07460775123691384,0.08935521819359457,-0.7552149369359773
5.839999999999918,-0.9890199454933498,0.5028847057220363,-2.2523537830631644,-0.000736770980590482,0.24346794592101634,-0.969898088124816,0.39900825541146073,0.21799161295379715,0.3418860290333782,0.6359813346914244,-0.07887585043566425,0.09393161510116284,-0.7618628914771906
5.849999999999918,-0.626597596612487,0.9327332784271685,-2.1564051218051232,0.0007969480621425693,0.2511568233632474,-0.9679354395152723,0.25707892730282444,0.09351616282090464,0.4925904097859273,0.6268021372225572,-0.07967121881193798,0.09837856655835986,-0.7687944250585272
5.859999999999918,-0.4003427428990829,1.2767817265561965,-1.9951425541262462,0.006685075942435644,0.25587407958577474,-0.9666668400595647,0.21633411212908404,0.016243992242833682,0.585933797810698,0.618093031021476,-0.07775792307134338,0.10297368647133313,-0.7753897775334232
5.8699999999999175,-0.2841667897221148,1.5621149530057974,-1.8195056683846742,0.015086546451229445,0.25948202587507146,-0.9656066291370091,0.225179626676951,-0.06484484431397028,0.673873673779456,0.6097110874455821,-0.07447380988696435,0.10786008035668944,-0.7816819595366721
5.879999999999917,-0.3662665140801104,1.75545236228817,-1.6676523010480975,0.026713560338796245,0.262763343278898,-0.9644658391958805,0.2817113548476251,-0.2070725487140874,0.8050410446178601,0.6018500958510826,-0.0697791697846343,0.11349281723017747,-0.7873874759352967
5.889999999999917,-0.4582326457689038,1.8423507105172319,-1.5463732388083922,0.03993086639055793,0.2674679617861015,-0.962674220209452,0.3179255563504709,-0.29096940981335545,0.8844224539312989,0.5943417605181538,-0.06483844999285086,0.12007332726664692,-0.7924964389000204
5.899999999999917,-0.5140093490505476,1.8617589229794662,-1.4362711987754215,0.05368546828271312,0.272767018211843,-0.9605458137759834,0.35420844895345943,-0.35297675922592364,0.9608831146592219,0.5870748697167912,-0.059831036756660065,0.12698654452390154,-0.7972428846860908
5.909999999999917,-0.4426452700564371,1.784043103856448,-1.3277363676497653,0.06738024571527713,0.2783767809820925,-0.9580669389282369,0.41349378203937914,-0.4101801070550427,1.0860432582214385,0.5801869772382501,-0.05488563440147474,0.13390417839498658,-0.8014954745434653
5.919999999999916,-0.32268663673945647,1.6380983163140854,-1.1551960559494265,0.07987554750440162,0.2829031121135138,-0.9557672820583178,0.4407930737023465,-0.431444790805619,1.1564685425423074,0.5739922749285735,-0.05011964745524957,0.13990617971082736,-0.8052263840115041
5.929999999999916,-0.20663938976489388,1.4647115949606484,-0.9492682562405529,0.09158861568862615,0.2866142047380657,-0.953639636434693,0.4596132169975472,-0.44905839140569087,1.2082540763857306,0.5684094764533978,-0.04547863904008704,0.1452605466531327,-0.8085314153504944
5.939999999999916,-0.16209441119138235,1.282129695346363,-0.7092780416902157,0.10214243923016553,0.2889165608586503,-0.9518686603638444,0.48871630599597293,-0.49777769887498485,1.2638927633274666,0.564028497481934,-0.041037560139249585,0.14956192533774448,-0.8110472075373016
5.949999999999916,-0.25124842294390226,1.192637118043016,-0.4586540362549497,0.11217339020932582,0.2916771374458077,-0.9498840337161828,0.49166723989739475,-0.5447612685442815,1.263190142594543,0.5608032610440518,-0.037128964909467876,0.15382286462021058,-0.8126722962548227
5.959999999999916,-0.38326418958937236,1.1522030071338027,-0.1973874669615,0.12221017943159218,0.2949306855789075,-0.9476495676466385,0.48416095793003866,-0.5869803290718636,1.2244865784369874,0.5583607035489112,-0.033494138319684515,0.15824904131302017,-0.8136691818479376
5.969999999999915,-0.49059196459368687,1.1609614628519742,0.08690448835513853,0.13294276266618044,0.2992951650923453,-0.9448280743274805,0.47432151190961797,-0.6149827592186242,1.1273060815224039,0.5571286020357981,-0.030117027316058996,0.16329829974184662,-0.8136467949027585
5.979999999999915,-0.5042586090954758,1.1910715494734827,0.4636933159394795,0.14495378931930414,0.30355441119778187,-0.9416680928579875,0.4694466753754754,-0.6036225340742872,1.0314660798333153,0.5573588659934545,-0.026481010305752176,0.16864177879529157,-0.8125166518131318
5.989999999999915,-0.4440852463277454,1.243155862720277,0.8968938733810192,0.15816871175740174,0.30715568473680427,-0.9383842479502602,0.4750372749246636,-0.5540130068028811,0.90936075095733,0.5587548654545806,-0.02240744244726338,0.17404143482761505,-0.810541892621412
5.999999999999915,-0.24880315784225004,1.3445097881037553,1.4042109868592987,0.173931957268519,0.30853946812143085,-0.9351258147540249,0.5113252297635555,-0.42169581798967853,0.6910358936210419,0.5623065098914648,-0.01712178986101147,0.17923403628581416,-0.8070723045829388
6.0099999999999145,0.12126515251043773,1.452426430425965,1.8651162104504921,0.19220538896908343,0.3056834159902574,-0.9324109024310587,0.5321356066541083,-0.32559989007683904,0.5628495771913126,0.5677669621339939,-0.010021201456713393,0.18344315616212967,-0.8023771556173758
6.019999999999914,0.5916350523774248,1.612328657711852,2.3053317713690715,0.2124594732227608,0.2990652139576258,-0.930165797048511,0.5468035822130233,-0.23215579244959805,0.44595014390919835,0.5744497978549652,-0.001291699085062555,0.18674826595505564,-0.7969060788651784
6.029999999999914,1.1757540764334347,1.9566143991856528,2.737545090999589,0.2363648549028757,0.2847232061482982,-0.9288642291562048,0.5616314724891088,-0.09454949265006951,0.23666035027593285,0.5828492763161908,0.010813065868806867,0.18814470594878835,-0.7903661048598588
6.039999999999914,1.4309470431274294,2.2081039964212863,3.077290197585182,0.2640163152693555,0.2647699828332831,-0.9270548368998532,0.5605485025468245,0.01539252044946774,0.048197630814248466,0.5922471981593693,0.0258711952954344,0.18882265790032268,-0.7827385810802318
6.049999999999914,1.4321500566689291,2.3705092655990847,3.346287830460102,0.29329613722622644,0.24259118916368286,-0.9245334859326391,0.5722983719260316,0.13299664309603204,-0.18559216896980232,0.6022361862753446,0.04208894271663855,0.18945493937711178,-0.7742880332068282
6.0599999999999135,0.9735243155002882,2.3354169947643992,3.4885629663737947,0.322896810171584,0.22076211530857118,-0.9200585921564512,0.6594778750061643,0.3247838062363636,-0.6290510494936304,0.6129213994016254,0.058076847781231476,0.19106250795097857,-0.7643822913414443
6.069999999999913,0.5344844875756358,2.1502951466529865,3.617842302211198,0.3505546594319659,0.20198843814181558,-0.9141727612333006,0.7351798383263421,0.40667504045636155,-0.8895644113430793,0.6240964786037803,0.07209007565250744,0.1939393855758622,-0.7532870260743504
6.079999999999913,0.08871040931577943,1.8540422295637176,3.7215522119331954,0.37627707456826986,0.18540849122521597,-0.9076718433650188,0.8285022451742483,0.39868448840728643,-1.0961746409606985,0.6356567231810647,0.08445166903247085,0.19750004804456114,-0.741413476544505
6.089999999999913,-0.4181416059793215,1.366459758999381,3.7441006158105803,0.39751112365094277,0.17244352376936986,-0.9011137285786812,1.0130131630081844,0.21619675590373982,-1.400093658038439,0.6479320572425676,0.09352958363143543,0.20164059988342947,-0.7284395303130696
6.099999999999913,-0.9190818066210712,0.8999829929097336,3.595804543067816,0.4133027303849955,0.16397596545822238,-0.895630527581549,1.078006059930202,0.12617238315790752,-1.4713225142089947,0.6603269837551513,0.09880459720375127,0.2059234815403958,-0.7152604022174759
6.109999999999912,-1.4154135778914376,0.4806259357149935,3.3731311557334474,0.4256960913239584,0.1589486616692785,-0.8907843823826225,1.070379314023591,0.06792872531285857,-1.414857056374122,0.6726497761784521,0.10149578469386948,0.21047263095781907,-0.7020375647867484
6.119999999999912,-1.9032510656094823,0.2211884081344781,3.1534650197629013,0.4338374163201015,0.1601061429430812,-0.8866338648777704,0.9778578519794424,-0.027749170421595803,-1.250957787303568,0.6844456214392786,0.10033137925261408,0.21588262897060642,-0.6890111075237557
6.129999999999912,-2.2430303982027677,-0.11609178571323275,2.923755183041688,0.4389007073672251,0.1656439941459518,-0.8831098822861849,0.8901064240105186,-0.07901432057042107,-1.152219040109152,0.6957353075963496,0.09637868833401157,0.2216334488782156,-0.6762762460995325
6.139999999999912,-2.4610481329501197,-0.5071296952396943,2.703405327268518,0.4415055513701566,0.17367674434823335,-0.8802739022118068,0.7822650714465165,-0.09443819545264884,-1.0643075791899022,0.7066929933494666,0.09058414098902128,0.2272359230460843,-0.6638230930628376
6.1499999999999115,-2.437954169552073,-0.9796669515637163,2.5444426536574136,0.43941948474657566,0.18395642734111894,-0.8792204317277256,0.5762411185940455,-0.04055128306485643,-0.8938408223429025,0.7171981794701846,0.08223971405111813,0.23150217611102897,-0.6520296879332892
6.159999999999911,-2.3257481660409915,-1.4723883576630024,2.453367208759771,0.43295009966041714,0.19396878707004392,-0.8802458006107771,0.43898581859987656,0.01076871140337372,-0.7772643241922822,0.7276359948711912,0.07247658383942629,0.23358666036479014,-0.6407334829821777
6.169999999999911,-2.1720045637817353,-1.9651526484853974,2.3941503057318596,0.4232908867997243,0.20361878519509422,-0.8827732192070796,0.3128937638837391,0.06988884866583436,-0.6675060422826029,0.7380720689733432,0.061776709742902926,0.23401232769262062,-0.6297483969063545
6.179999999999911,-2.0188559327930995,-2.4145549747897133,2.335469803042049,0.40836853204307555,0.21217319316746047,-0.8877470665223457,0.08991520464449249,0.17055085336665915,-0.4729158734082576,0.7486455003617939,0.04981496238227373,0.23149013008524907,-0.6191262834217798
6.189999999999911,-1.9517506477808941,-2.6639696036289164,2.2019423147256143,0.39037257191196795,0.2207652046909099,-0.8936419667366522,-0.06279941379119477,0.21026557495320541,-0.338410212895826,0.7589299804284829,0.03709833397164518,0.22736235661029958,-0.6088776664168122
6.1999999999999105,-1.929914249574303,-2.7447298969280407,2.0166263819945165,0.3709114645533953,0.22976776793668027,-0.8997294405916625,-0.21802156961544306,0.2114460527465132,-0.22287621961636317,0.7688107524643052,0.023976506470431955,0.2225199587770584,-0.5989645803250846
6.20999999999991,-1.9264329608765767,-2.476334520354765,1.755384930385715,0.35152872104319494,0.24066632240214383,-0.9046025786600748,-0.5489737438249834,0.1683712904044775,-0.059091185486242676,0.7774138808328703,0.010654784710539891,0.2179636071937966,-0.5898028746514226
6.21999999999991,-1.783101720156799,-2.0439872381771247,1.503575359540523,0.33538167180821893,0.25188128111131547,-0.9076795327304296,-0.7744535165151155,0.12555018700000795,0.04131399913427651,0.7845521009548365,-0.001320662911337628,0.21466993121822192,-0.5816024895198194
6.22999999999991,-1.5373330308421866,-1.5453759747740918,1.2653548799120033,0.3218396119371218,0.26274391552305787,-0.9095899096818666,-0.9605621214304403,0.08179125040847916,0.11863342249285466,0.7906515570579938,-0.012018048169650922,0.2122439841047243,-0.5741536350473913
6.23999999999991,-1.1244538599208278,-1.1235157721368305,1.0722441418417603,0.31335386761804057,0.27102597802990913,-0.9101092051256618,-1.2125454676251537,0.03264370538135878,0.23844003983539833,0.7951740647711821,-0.01962791591064491,0.21103731520939903,-0.5680934972561458
6.249999999999909,-0.7222913866290015,-0.8471537223821598,0.8631900533079685,0.30718800308456207,0.2761745843443128,-0.9106822376016835,-1.3124193491462282,0.01337732856147472,0.323465907629814,0.7987791833302498,-0.024894100879123904,0.20983124290385352,-0.5632740292457761
6.259999999999909,-0.3432298714986526,-0.6735714553714264,0.6517735016304256,0.3023026428545397,0.27913369541627187,-0.9114235623251515,-1.3113614384363887,0.007504478447764421,0.4051921903128884,0.8017580031057463,-0.02861535647175948,0.20848913544859016,-0.559368897949876
6.269999999999909,-0.05786954650119969,-0.6507999844771925,0.4711617167453829,0.2979166362061436,0.27897244167337704,-0.9129137023347943,-1.1873042990230758,-0.008422371747626795,0.5639803408787581,0.803901573709322,-0.0304957773650001,0.20642196172707136,-0.5569514439522366
6.279999999999909,0.13369075536017416,-0.6979986941918074,0.2875759799367618,0.29267379109912095,0.2773692690919797,-0.9150866849955591,-1.0878396231643324,-0.028624753400061043,0.6507067513819592,0.8056256940931165,-0.031793705894031014,0.20356650766669382,-0.5554356097186729
6.2899999999999086,0.25151939770497983,-0.7894999015420718,0.09313068025085133,0.28657825328843833,0.27507369531204595,-0.9177093061459634,-0.9962429094383647,-0.05475999251600497,0.6979993733095828,0.8070138781225207,-0.03287814710898169,0.20015040055380215,-0.5546017413178084
6.299999999999908,0.2333282150770876,-0.9226370500905854,-0.1532868856621531,0.27823815974778693,0.2731536576610614,-0.9208349405349199,-0.8761996282518076,-0.1014798249421606,0.7370466479746243,0.8077589911888577,-0.0344846498894112,0.19592103540009934,-0.554925691421347
6.309999999999908,0.23550071758739824,-1.0626928947666414,-0.37645236342787214,0.26808253810492627,0.27191610173112835,-0.924184773002331,-0.8068216307091981,-0.12016774241353487,0.7630230778936022,0.807970195900888,-0.0367003355306042,0.1911622194144014,-0.5561248824999704
6.319999999999908,0.2877304387509499,-1.1983266677221145,-0.5807352165418977,0.2565940489351082,0.2708535023530528,-0.9277700414639777,-0.7635502128880706,-0.11841650740219421,0.7757495534436705,0.8078093432007869,-0.03923327755431318,0.18592067068001655,-0.5579671288995973
6.329999999999908,0.5700643814941653,-1.2857507789431835,-0.7480180731319246,0.24305110357820142,0.2686399606863862,-0.9320268310117852,-0.7122078458559976,-0.08577259626740033,0.7521338694454982,0.8071617506318658,-0.041688990525309,0.17952536819182288,-0.5608027393225045
6.3399999999999075,0.9030810999401249,-1.3508061126606543,-0.9734297093612643,0.22840021161170207,0.26358193121793116,-0.9371165904318729,-0.6772518331214143,-0.05674524746796706,0.7090692039563273,0.8059957863660371,-0.0431069825669416,0.17188572588096157,-0.5647268161561559
6.349999999999907,1.2399747496487759,-1.405702113941958,-1.2253397170604188,0.21286705303195705,0.2564257918594826,-0.9427883436931076,-0.6467977519302291,-0.026859742230979613,0.6406421844069832,0.8043986133881937,-0.04378587170312507,0.1633075952806073,-0.5694982580356727
6.359999999999907,1.4247825735168347,-1.475117650103569,-1.4401270866575349,0.19569279727230698,0.24609607537789419,-0.9491876383655448,-0.5873992133102739,0.02094400992527163,0.48192032798159595,0.8019188996968746,-0.0434709004932673,0.15321254494546,-0.5757612145570179
