time,seconds_elapsed,rotationRateX,rotationRateY,rotationRateZ,gravityX,gravityY,gravityZ,accelerationX,accelerationY,accelerationZ,quaternionW,quaternionX,quaternionY,quaternionZ
1681264973111126300,0.067126220703125,0.004983201622962952,0.007441817782819271,0.000776168773882091,0.16503985226154327,-0.4204683005809784,-0.8921705484390259,0.001662418246269226,-0.0010557472705841064,0.001362442970275879,0.9726691776885754,0.21614147727240868,0.08483863688972657,2.1993551687460586e-18
1681264973121169200,0.077169189453125,0.006235419772565365,0.004389183595776558,-0.0017724763602018356,0.16511021554470062,-0.4205096662044525,-0.8921380639076233,-0.0016580671072006226,0.00020632147789001465,0.0030083656311035156,0.9726608529557481,0.2161646842522053,0.08487526880650477,-0.000001180042561126236
1681264973131213300,0.08721337890625,0.008621612563729286,0.00665633287280798,-0.0034028636291623116,0.16519004106521606,-0.42056915163993835,-0.8920952081680298,-0.0014937520027160645,0.002386748790740967,0.005757927894592285,0.9726498079213387,0.21619844890819515,0.08491542614462996,-0.000009459362531196339
1681264973141256200,0.097256103515625,0.008133264258503914,0.006508349906653166,-0.004093687515705824,0.16526871919631958,-0.4206450581550598,-0.8920448422431946,-0.0004585385322570801,0.0035155415534973145,0.00744706392288208,0.9726368830000623,0.21624184592076684,0.08495318871664718,-0.000026617058867512152
1681264973151299800,0.1072998046875,0.00019571278244256973,0.006025785114616156,-0.008742501959204674,0.1653629094362259,-0.4206724762916565,-0.8920144438743591,-0.0006290227174758911,0.0018034577369689941,0.007096230983734131,0.9726290595806907,0.21625993480467992,0.0849965357130216,-0.00005250750667698641
1681264973161342700,0.1173427734375,-0.010344050824642181,0.0057141659781336784,-0.010918304324150085,0.16546255350112915,-0.42061883211135864,-0.8920212984085083,-0.0008812397718429565,-0.0025989413261413574,0.0093003511428833,0.9726308662281155,0.21622736926900746,0.0850592743945651,-5.748098342555997e-18
1681264973171385900,0.1273857421875,-0.009753894992172718,0.007080367766320705,-0.014351651072502136,0.1655634045600891,-0.42049697041511536,-0.8920600414276123,-0.0011804848909378052,-0.0072221457958221436,0.010330915451049805,0.9726408618012962,0.21616670732075752,0.08509958227693687,-0.000047986057048966324
1681264973181429500,0.137429443359375,-0.0062105972319841385,0.01119687408208847,-0.013331661000847816,0.16570602357387543,-0.4204036593437195,-0.8920775055885315,0.0004316866397857666,-0.008993923664093018,0.011416494846343994,0.9726452389180621,0.2161223495387966,0.08516087863984695,-0.00010033952165242074
1681264973191473000,0.147472900390625,-0.0004144933773204684,0.010886617004871368,-0.013140978291630745,0.1658727079629898,-0.42035382986068726,-0.8920699954032898,-0.0013677030801773071,-0.005396902561187744,0.012461841106414795,0.9726432912951011,0.21610228521798533,0.08523376793127707,-0.0001587217365782651
1681264973201516000,0.15751611328125,0.002471193904057145,0.017320990562438965,-0.01380730140954256,0.1660655438899994,-0.42034775018692017,-0.8920369744300842,-0.0004314035177230835,-0.0022291243076324463,0.010674059391021729,0.9726348214855465,0.21610556244590814,0.08532225942591166,-0.00020996668441889996
1681264973211559200,0.16755908203125,0.003014744957908988,0.016344942152500153,-0.011573174968361855,0.16627223789691925,-0.4203479290008545,-0.8919984102249146,-0.00037866830825805664,-0.003358125686645508,0.00787365436553955,0.9726249471589661,0.21611177311430924,0.08541949503934504,-0.00025442693931322256
1681264973221602000,0.17760205078125,0.008084604516625404,0.01784563437104225,-0.008894301950931549,0.16646671295166016,-0.4203892648220062,-0.8919426798820496,-0.00010013580322265625,-0.0037745535373687744,0.0063530802726745605,0.9726106159118513,0.2161392233420252,0.08551314285704725,-0.0002885345991510742
1681264973231646000,0.18764599609375,0.011979477480053902,0.016428831964731216,-0.0019562344532459974,0.16665278375148773,-0.4204590916633606,-0.8918750286102295,0.002017870545387268,-0.0027434229850769043,0.005598783493041992,0.9725932305948569,0.21618066746963438,0.08560614310080636,-0.0003073193498140261
1681264973241689000,0.197689208984375,0.016431255266070366,0.013584842905402184,0.0004643126158043742,0.16678602993488312,-0.42058470845222473,-0.8917908668518066,0.0014878958463668823,-0.0039910972118377686,0.0029206275939941406,0.9725715381506531,0.2162495263379244,0.08567794847169624,-0.00030096544504461394
1681264973251733000,0.20773291015625,0.01999829337000847,0.013581912964582443,0.0029389220289885998,0.16690650582313538,-0.4207482635974884,-0.8916911482810974,0.003473132848739624,-0.0021490752696990967,0.003248155117034912,0.9725459393937713,0.21633815993945824,0.08574505505475166,-0.0002877361453936588
1681264973261776000,0.21777587890625,0.020253082737326622,0.009580187499523163,0.0009969448437914252,0.16700391471385956,-0.4209389090538025,-0.8915829658508301,0.004169166088104248,-0.0017448067665100098,0.0018277168273925781,0.972518160926786,0.21644182291495603,0.08579894506627014,-0.00028149974692751614
1681264973271819000,0.227819091796875,0.02336844801902771,0.004065846558660269,0.0002366123953834176,0.16706116497516632,-0.4211392402648926,-0.891477644443512,0.002845451235771179,0.0005459785461425781,0.0009747147560119629,0.9724911282841003,0.21655072862796465,0.08583102237765473,-0.00028017017623337956
1681264973281863000,0.23786279296875,0.027371255680918694,0.0003047231584787369,-0.001639584661461413,0.16709136962890625,-0.42139893770217896,-0.8913492560386658,0.00557708740234375,0.001278698444366455,0.000998854637145996,0.9724580874306104,0.21669233629929613,0.08584764074921494,-0.00028819970137178557
1681264973291906000,0.247906005859375,0.026097465306520462,-0.0070594497956335545,-0.00358768692240119,0.16707393527030945,-0.42166459560394287,-0.8912268280982971,0.005213052034378052,0.001574873924255371,0.0007238984107971191,0.9724266055739186,0.2168380128108347,0.08583617590101962,-0.00031169319072675485
1681264973301949000,0.257948974609375,0.022388214245438576,-0.01266271062195301,-0.004933116026222706,0.1670038402080536,-0.42190438508987427,-0.8911265134811401,0.005512028932571411,-0.0007945895195007324,0.0008219480514526367,0.9724008133750982,0.21697078475274267,0.08579291563586963,-0.0003540574086068775
1681264973311993000,0.2679931640625,0.02398744225502014,-0.01764628291130066,-0.009527068585157394,0.1669078767299652,-0.42211124300956726,-0.8910465240478516,0.00807991623878479,-0.004036217927932739,0.0032444000244140625,0.9723801763321285,0.21708782775610633,0.08572993900453428,-0.00042309354392955275
1681264973322036000,0.278035888671875,0.03012424148619175,-0.018759693950414658,-0.009630665183067322,0.16679351031780243,-0.42235830426216125,-0.8909508585929871,0.007065117359161377,-0.004857271909713745,0.0047203898429870605,0.9723555623907473,0.2172277476322726,0.08565443235234065,-0.0005072675325968652
1681264973332080000,0.288080078125,0.03878191113471985,-0.02201540768146515,-0.009185917675495148,0.1666850447654724,-0.4226563274860382,-0.8908298015594482,0.005296766757965088,-0.001751631498336792,0.004873991012573242,0.9723243669981285,0.2173957412612045,0.08558145184917752,-0.0005961021392630691
1681264973342123000,0.298123046875,0.033996667712926865,-0.020743153989315033,-0.010027476586401463,0.16655823588371277,-0.42296046018600464,-0.8907091617584229,0.0032568275928497314,0.0024282336235046387,0.0074846744537353516,0.972293265010806,0.21756658451002672,0.08549968619783711,-0.0006818536198040175
1681264973352166000,0.308165771484375,0.022990887984633446,-0.018899716436862946,-0.01058460958302021,0.16645994782447815,-0.42318230867385864,-0.8906221389770508,0.0014019906520843506,0.00023919343948364258,0.006253242492675781,0.9722708148187733,0.2176931709750512,0.08543186604724919,-0.0007674348807992759
1681264973362210000,0.3182099609375,0.013945536687970161,-0.01330897118896246,-0.011689289472997189,0.1664028763771057,-0.4233078956604004,-0.8905731439590454,0.0007724016904830933,-0.004594326019287109,0.00744020938873291,0.9722580912389328,0.21776806360141035,0.08538445570521117,-0.0008527983542256125
1681264973372253000,0.3282529296875,0.014915460720658302,-0.010466844774782658,-0.010182472877204418,0.1663803607225418,-0.42341360449790955,-0.8905271291732788,-0.00031897425651550293,-0.008608490228652954,0.009347319602966309,0.9722463368148672,0.2178319667830989,0.08535616237383446,-0.0009317602514607921
1681264973382297000,0.338297119140625,0.018375592306256294,-0.005284866318106651,-0.009831734001636505,0.16639025509357452,-0.42353880405426025,-0.8904657363891602,0.00015941262245178223,-0.007903426885604858,0.009743690490722656,0.9722304271213467,0.21790575739377377,0.08534766547868866,-0.0009982859826249651
1681264973392340000,0.348340087890625,0.011373608373105526,0.00034558866173028946,-0.004846030380576849,0.16644102334976196,-0.42365825176239014,-0.8903993964195251,0.0003070235252380371,-0.005724072456359863,0.010150372982025146,0.9722133541095186,0.21797574255322855,0.0853631515780998,-0.0010520338590638144
1681264973402383000,0.358383056640625,0.010667718946933746,-0.0012909537181258202,-0.007215444929897785,0.16650019586086273,-0.4237743616104126,-0.8903331160545349,0.00008000433444976807,-0.004875540733337402,0.012784838676452637,0.9721962756506032,0.21804232361822765,0.08538732781432179,-0.0010862781815872877
1681264973412427000,0.368427001953125,0.004127527587115765,0.001565552782267332,-0.004035630729049444,0.16656816005706787,-0.4238405227661133,-0.8902888894081116,0.0001188516616821289,-0.007555931806564331,0.011489450931549072,0.9721847679446585,0.2180819007895711,0.08541575099070212,-0.0011196980286007853
1681264973422470100,0.37847021484375,0.0015975248534232378,0.0043203262612223625,-0.004059066530317068,0.16663141548633575,-0.423871248960495,-0.8902624249458313,-0.0001275092363357544,-0.009402096271514893,0.011676609516143799,0.9721779729214972,0.2181013193991453,0.08544358479010103,-0.0011432182490393613
1681264973432514000,0.38851416015625,0.0007916521281003952,0.006677224300801754,-0.006693997886031866,0.16671110689640045,-0.42387235164642334,-0.8902469873428345,-0.00003933906555175781,-0.00850069522857666,0.013354897499084473,0.9721739565691621,0.21810462454009794,0.08548034468472918,-0.0011635950697460827
1681264973442557200,0.39855712890625,0.007354480214416981,0.007363786920905113,-0.006961379200220108,0.1667965054512024,-0.42392879724502563,-0.8902040719985962,0.0004398077726364136,-0.007360875606536865,0.014090180397033691,0.9721628852912614,0.21813820779074683,0.08552005590995883,-0.0011865459524316977
1681264973452600000,0.40860009765625,0.015765009447932243,0.007153930142521858,-0.002341860206797719,0.16687585413455963,-0.42407265305519104,-0.8901206851005554,0.0010166019201278687,-0.00476035475730896,0.01455610990524292,0.9721414049332494,0.21821865581762212,0.0855585858644701,-0.0012046848597936258
1681264973462644200,0.418644287109375,0.02266073226928711,0.0031432092655450106,-0.0041291075758636,0.16692416369915009,-0.42428889870643616,-0.8900085687637329,0.0036385655403137207,-0.0030945241451263428,0.01410830020904541,0.9721126420153551,0.21833833945291897,0.08558080298615656,-0.0012270065866844108
1681264973472687000,0.42868701171875,0.022766992449760437,0.0021194901783019304,-0.00444442592561245,0.1669817864894867,-0.42450499534606934,-0.8898947238922119,0.0046796053647994995,-0.002634286880493164,0.010759592056274414,0.972083223297461,0.2184587869639773,0.0856060903752746,-0.0012571966404731243
1681264973482731000,0.43873095703125,0.01842413656413555,-0.0020092674531042576,-0.0060074348002672195,0.16701370477676392,-0.42471927404403687,-0.8897864818572998,0.004067838191986084,-0.004708796739578247,0.009903669357299805,0.9720553568755163,0.21857811614827263,0.08561759193012734,-0.001289293494626756
1681264973492774000,0.44877392578125,0.015036330558359623,-0.0028172708116471767,-0.006289197597652674,0.1670154631137848,-0.42491257190704346,-0.8896938562393188,0.00295218825340271,-0.006590694189071655,0.009490609169006348,0.9720315469141572,0.2186858899389778,0.08561279878269783,-0.0013233096554833915
1681264973502817300,0.4588173828125,0.006277497857809067,0.0030196686275303364,-0.003029488492757082,0.16704411804676056,-0.42505452036857605,-0.8896206617355347,0.002877756953239441,-0.00841715931892395,0.008288264274597168,0.9720126961507782,0.2187649173344807,0.08562461191871575,-0.0013432258759319639
1681264973512861000,0.46886083984375,-0.007113941945135593,0.008190196007490158,-0.0029434682801365852,0.16710491478443146,-0.4251081645488739,-0.8895836472511292,0.0009248554706573486,-0.010911703109741211,0.00934988260269165,0.9720031899547914,0.21879528641203194,0.08565517010662774,-0.0013499465027232511
1681264973522904000,0.478904052734375,-0.009375992231070995,0.00730720954015851,-0.005175463389605284,0.16717763245105743,-0.42508694529533386,-0.8895801305770874,-0.0004448443651199341,-0.01171112060546875,0.011452019214630127,0.9720022395251918,0.21878514243299152,0.08569136843145757,-0.00135572996558693
1681264973532948000,0.488947998046875,-0.013724935241043568,0.01354433223605156,0.0019357091514393687,0.16729189455509186,-0.425015389919281,-0.8895928263664246,-0.0033209621906280518,-0.012927085161209106,0.01225823163986206,0.9720054848711842,0.21874657177207515,0.08575275781506611,-0.0013430875387554506
1681264973542991000,0.4989912109375,-0.008897574618458748,0.013317135162651539,0.0029628905467689037,0.16743037104606628,-0.42496758699417114,-0.8895896077156067,-0.003352612257003784,-0.009068667888641357,0.01011878252029419,0.9720047286217108,0.21871994534013459,0.0858299903352136,-0.0013168731395210242
1681264973553034000,0.509033935546875,-0.004219465889036655,0.018564626574516296,0.0053975521586835384,0.1675790250301361,-0.4249449670314789,-0.8895723819732666,-0.0049355775117874146,-0.0025757551193237305,0.0048525333404541016,0.9720003636914416,0.21870614263742988,0.08591519028557468,-0.0012798641050529784
1681264973563078000,0.519077880859375,0.00766717316582799,0.019477618858218193,0.005885177291929722,0.16773885488510132,-0.4250054955482483,-0.889513373374939,-0.0027150511741638184,0.001207888126373291,0.0013755559921264648,0.9719852123903288,0.21873681364930248,0.08600885979311963,-0.001234750042027968
1681264973573121000,0.52912109375,0.02287328988313675,0.015550522133708,0.0067922500893473625,0.16788755357265472,-0.4251982867717743,-0.889393150806427,-0.003062114119529724,0.003094404935836792,-0.00043839216232299805,0.9719542786320606,0.21883970999510388,0.08609649492355587,-0.0011968485022296963
1681264973583165000,0.5391650390625,0.03530416637659073,0.011951170861721039,0.004706994630396366,0.16800422966480255,-0.42551133036613464,-0.8892213702201843,0.0005443394184112549,0.009099006652832031,-0.0006406307220458984,0.9719101164425704,0.2190079216887816,0.08616751162847103,-0.001164526168545472
1681264973593208000,0.5492080078125,0.03652762249112129,0.01003156416118145,0.005462000612169504,0.16808833181858063,-0.42589038610458374,-0.889024019241333,0.0041376203298568726,0.01196521520614624,-0.0010974407196044922,0.9718593913604554,0.2192126221354177,0.08621963018643274,-0.001144125209894824
1681264973603251000,0.5592509765625,0.02953351102769375,0.003755707060918212,0.002395104616880417,0.16811682283878326,-0.42625248432159424,-0.8888450860977173,0.00800013542175293,0.009824872016906738,-0.0018409490585327148,0.9718134006816229,0.2194086624446834,0.08623980983173149,-0.0011367276947423697
1681264973613295000,0.569295166015625,0.01835649274289608,-0.0018819388933479786,0.001344221062026918,0.1681060940027237,-0.42652565240859985,-0.8887160420417786,0.010604843497276306,0.0044370293617248535,0.0009596943855285645,0.9717802007215638,0.2195559573944132,0.08623895517151486,-0.0011283573278450607
1681264973623338000,0.579337890625,0.012029849924147129,-0.0023528453893959522,0.0022049546241760254,0.16806240379810333,-0.4267100393772125,-0.8886358141899109,0.010862156748771667,0.0034464895725250244,-0.00040227174758911133,0.9717595716587467,0.21965510545066827,0.08621910537855852,-0.0011243016525859287
1681264973633382100,0.589382080078125,0.005170345306396484,-0.01026855781674385,-0.0016121540684252977,0.16798271238803864,-0.4268074035644531,-0.8886041045188904,0.008591994643211365,0.0013923943042755127,0.0010461211204528809,0.9717513989218008,0.2197071950420114,0.08617829689236407,-0.0011263741102247734
1681264973643425000,0.599425048828125,0.005112744867801666,-0.012162243016064167,-0.0035812952555716038,0.16787946224212646,-0.4268471896648407,-0.8886045217514038,0.008374795317649841,0.001142263412475586,-0.0005098581314086914,0.9717514758636322,0.21973014853963183,0.0861185956424003,-0.0011553277730069124
1681264973653468200,0.60946826171875,0.007029421627521515,-0.01482460554689169,-0.007077226880937815,0.1677568554878235,-0.42688122391700745,-0.8886113166809082,0.007108867168426514,0.0019239485263824463,0.0007023811340332031,0.9717531977622031,0.219750860537054,0.08604592525514751,-0.0011969080308522567
1681264973663512000,0.619511962890625,0.014084174297749996,-0.019080957397818565,-0.014212900772690773,0.16764365136623383,-0.4269253611564636,-0.8886114954948425,0.0045365095138549805,0.001708686351776123,0.003998458385467529,0.9717531326591227,0.21978029205577307,0.08597024763189456,-0.0012738536912294028
1681264973673555200,0.62955517578125,0.013857272453606129,-0.02055368572473526,-0.020551225170493126,0.1675471067428589,-0.4269775450229645,-0.8886046409606934,0.0027867406606674194,-0.0011077523231506348,0.005166530609130859,0.9717512183115803,0.21981724204097877,0.08589571376701488,-0.0013842825972291716
1681264973683599000,0.63959912109375,0.016762971878051758,-0.02221919782459736,-0.020434312522411346,0.16748778522014618,-0.4270355701446533,-0.8885878920555115,0.0017932355403900146,-0.0031859874725341797,0.006385743618011475,0.971746711897575,0.21985978203221923,0.08583543403742412,-0.0015172838154194545
1681264973693642200,0.649642333984375,0.019685791805386543,-0.02157178334891796,-0.018138134852051735,0.16742873191833496,-0.4271408021450043,-0.8885484337806702,0.002630472183227539,-0.00549161434173584,0.010176301002502441,0.9717363041167504,0.21992861435191113,0.08577399251856854,-0.0016580857538441268
1681264973703685000,0.65968505859375,0.019693665206432343,-0.020378567278385162,-0.017293114215135574,0.16736340522766113,-0.42727476358413696,-0.8884963393211365,0.0016124248504638672,-0.00784483551979065,0.01366424560546875,0.971722660375487,0.22001160823733912,0.08571300899211516,-0.0017836636286118362
1681264973713729000,0.66972900390625,0.017529847100377083,-0.02314053475856781,-0.013023000210523605,0.16727493703365326,-0.42741501331329346,-0.8884456157684326,0.0010905414819717407,-0.00976458191871643,0.015124022960662842,0.9717095361037218,0.22009668672067856,0.08564259263454953,-0.0018979998384374727
1681264973723772200,0.679772216796875,0.018217362463474274,-0.01685076765716076,-0.006643930450081825,0.16717350482940674,-0.42754775285720825,-0.8884007930755615,0.0012682676315307617,-0.012363135814666748,0.014178991317749023,0.9716978089937547,0.2201745642418662,0.08557314728942325,-0.0019780284841213395
1681264973733816000,0.689816162109375,0.024558614939451218,-0.012556420639157295,-0.0034739701077342033,0.1671052873134613,-0.4277103841304779,-0.8883353471755981,0.0021452009677886963,-0.010064274072647095,0.014449238777160645,0.9716808059939945,0.22026670651609165,0.08552724930056489,-0.002031433732733626
1681264973743859000,0.69985888671875,0.023273106664419174,-0.005947757512331009,0.0012342325644567609,0.16706056892871857,-0.4279211759567261,-0.888242244720459,0.0005266964435577393,-0.00959402322769165,0.011334896087646484,0.9716568058361438,0.22038342249258114,0.0854987498701227,-0.0020638545655669352
1681264973753902000,0.709902099609375,0.023699212819337845,-0.003136257641017437,0.005296352319419384,0.16702711582183838,-0.4281395375728607,-0.8881433010101318,-0.001759171485900879,-0.011252552270889282,0.007802724838256836,0.9716313749429426,0.2205019383357446,0.08548242047092348,-0.002068704434260638
1681264973763946000,0.719946044921875,0.022089865058660507,-0.003985302988439798,0.00795045867562294,0.16698206961154938,-0.4283705949783325,-0.8880403637886047,0.0002084672451019287,-0.007359355688095093,0.0035646557807922363,0.9716048990383507,0.22062542686107411,0.08546488940761097,-0.002052934697599433
1681264973773988900,0.72998876953125,0.022419562563300133,-0.0036012758500874043,0.007423418574035168,0.16693247854709625,-0.4286137521266937,-0.8879323601722717,0.0020585954189300537,-0.006780534982681274,0.0028768181800842285,0.9715771719941688,0.22075456575151778,0.08544736605900435,-0.002027285914264978
1681264973784033000,0.740032958984375,0.018587008118629456,-0.010314570739865303,0.007815969176590443,0.16685177385807037,-0.4288489520549774,-0.8878339529037476,0.0031463950872421265,-0.005263596773147583,0.0016034841537475586,0.9715518990551193,0.2208788311540336,0.08541414315345723,-0.001999365333094211
1681264973794076000,0.750075927734375,0.015014911070466042,-0.009057825431227684,0.01071242243051529,0.1667424738407135,-0.4290800988674164,-0.8877427577972412,0.004476398229598999,-0.0013398230075836182,0.003282308578491211,0.9715284881562968,0.22100018662363888,0.08536704706565652,-0.001967064170320531
1681264973804119000,0.760119140625,0.007842104882001877,-0.011111893691122532,0.0067986417561769485,0.16662560403347015,-0.4292536973953247,-0.8876807689666748,0.004822149872779846,0.001580357551574707,0.007157087326049805,0.971512508560054,0.2210914901422659,0.08531216260375227,-0.0019492905048863194
1681264973814163000,0.770162841796875,0.002240145346149802,-0.011111094616353512,0.000675235060043633,0.16653290390968323,-0.4293435215950012,-0.887654721736908,0.0042434632778167725,-0.0022055506706237793,0.009435117244720459,0.9715058472534085,0.2211392611060457,0.08526461981986039,-0.0019506819872598911
1681264973824206000,0.7802060546875,0.0025936991441994905,-0.013889392837882042,-0.004792501218616962,0.16642554104328156,-0.4294189214706421,-0.8876383900642395,0.004442378878593445,-0.00437319278717041,0.012745201587677002,0.9715015373593081,0.2211813957982432,0.08520326408728912,-0.0019787797098731585
1681264973834250000,0.79025,0.001935099484398961,-0.015059318393468857,-0.007025029044598341,0.16631846129894257,-0.4294736981391907,-0.8876320123672485,0.005129292607307434,-0.0024262964725494385,0.01305919885635376,0.9714999196991237,0.22121329630387435,0.08513920699009589,-0.002018397157377139
1681264973844293000,0.800293212890625,0.0039638192392885685,-0.012950360774993896,-0.005239645950496197,0.1662304699420929,-0.4295140504837036,-0.8876289129257202,0.0018145591020584106,-0.002340167760848999,0.01178973913192749,0.9714989889353707,0.2212383956876079,0.08508292174639186,-0.002066834861209049
1681264973854336000,0.8103359375,0.0013770908117294312,-0.010655514895915985,-0.008270589634776115,0.16615653038024902,-0.42954954504966736,-0.8876256346702576,-0.0016820430755615234,-0.0018011927604675293,0.011481225490570068,0.971498084554264,0.22126075220073854,0.08503451648303259,-0.0021124333907793025
1681264973864380200,0.820380126953125,0.0001146004069596529,-0.007164644543081522,-0.008596028201282024,0.16613136231899261,-0.4295673072338104,-0.8876217007637024,-0.0024198293685913086,-0.0019969940185546875,0.009615778923034668,0.9714969633990644,0.22127523757698828,0.08500826443848333,-0.002171092214273542
1681264973874423000,0.830423095703125,-0.0025299186818301678,-0.003137678373605013,-0.00871746800839901,0.16614972054958344,-0.4295561611652374,-0.88762366771698,-0.005947694182395935,-0.0029847323894500732,0.00961768627166748,0.97149723994885,0.22127464860545926,0.08500407822496117,-0.0022308555776152797
1681264973884467200,0.84046728515625,-0.00024245341774076223,-0.0011393018066883087,-0.00968313030898571,0.16619929671287537,-0.42953377962112427,-0.8876252174377441,-0.00486813485622406,-0.00627252459526062,0.00913095474243164,0.9714974627019396,0.22126797134023066,0.08501692249869562,-0.002286489659447992
1681264973894510000,0.850510009765625,-0.006038557272404432,0.0027289397548884153,-0.010261568240821362,0.16627489030361176,-0.4295147955417633,-0.8876202702522278,-0.0039061158895492554,-0.007649481296539307,0.011170685291290283,0.9714960767387872,0.22126259179598376,0.08504553738979798,-0.002332237588943801
1681264973904553000,0.860552978515625,-0.008906781673431396,0.005858568474650383,-0.007835961878299713,0.16639743745326996,-0.42946314811706543,-0.8876222372055054,-0.005768179893493652,-0.007441699504852295,0.010608136653900146,0.9714965150105571,0.2212396096818386,0.08509937320788209,-0.0023728844814806557
1681264973914597000,0.87059716796875,-0.011496438644826412,0.012309810146689415,-0.007917987182736397,0.16653750836849213,-0.4293932020664215,-0.8876298666000366,-0.0031464099884033203,-0.0064435601234436035,0.011607527732849121,0.971498424676919,0.22120574762685133,0.08516511470197338,-0.0024003935534907695
1681264973924640000,0.880639892578125,-0.008846023119986057,0.013101449236273766,-0.005964025389403105,0.1666804552078247,-0.42931225895881653,-0.8876422047615051,-0.0038234293460845947,-0.006951779127120972,0.012550652027130127,0.9715015924447084,0.2211650646209343,0.0852345289510633,-0.0024178685241157214
1681264973934684200,0.89068408203125,-0.005898702889680862,0.015642371028661728,-0.005470808129757643,0.1668299287557602,-0.42925554513931274,-0.8876414895057678,-0.003805026412010193,-0.006520211696624756,0.011146128177642822,0.9715014069168816,0.2211364798197488,0.08531059834478269,-0.002422024100293942
1681264973944727000,0.90072705078125,-0.0029531707987189293,0.01791543886065483,-0.004679050296545029,0.1669970452785492,-0.429228276014328,-0.8876232504844666,-0.0007678121328353882,-0.002107173204421997,0.009052693843841553,0.9714966733774154,0.2211241439812608,0.08539599238267673,-0.002426707160990569
1681264973954770200,0.910770263671875,0.00910509005188942,0.015038425102829933,-0.0032952718902379274,0.16713997721672058,-0.42927417159080505,-0.8875741958618164,0.0011492222547531128,0.0010362863540649414,0.006913185119628906,0.9714840966576535,0.22115097488365504,0.08547018166378188,-0.002428489665649554
1681264973964813800,0.920813720703125,0.010760586708784103,0.015234936028718948,0.0007865551160648465,0.16725291311740875,-0.4293922185897827,-0.8874958157539368,0.0039964765310287476,0.003168463706970215,0.005507290363311768,0.9714639288149185,0.221216153356997,0.08553073118567094,-0.002424956700705603
1681264973974857200,0.930857177734375,0.012552894651889801,0.012225031852722168,0.0007037307368591428,0.16735009849071503,-0.4295407235622406,-0.8874056339263916,0.005150511860847473,0.0037747323513031006,0.0014955997467041016,0.9714407023351919,0.22129706502233554,0.08558505702700873,-0.002414124918312799
1681264973984900900,0.94090087890625,0.00776989571750164,0.012128655798733234,0.0006800285773351789,0.16744078695774078,-0.4296785891056061,-0.8873217701911926,0.00423586368560791,0.004141479730606079,-0.002769172191619873,0.9714191693874371,0.2213718528843515,0.0856365420692884,-0.002400538011839805
1681264973994944000,0.950944091796875,0.0008185121696442366,0.01074487715959549,0.001141820685006678,0.16752026975154877,-0.4297427237033844,-0.8872756958007812,0.004003778100013733,0.0038546621799468994,-0.00223541259765625,0.97140737234245,0.22140556268022332,0.0856838749029561,-0.0023765849786696164
1681264974004987000,0.96098681640625,0.00018467986956238747,0.01177205890417099,0.002586585935205221,0.16759291291236877,-0.429780513048172,-0.8872436881065369,0.0034428536891937256,0.00041347742080688477,-0.0005584359169006348,0.9713992315801118,0.22142429399281302,0.08572888117789022,-0.0023461086556847534
1681264974015031000,0.971031005859375,-0.0004030799027532339,0.005447316914796829,0.0022094822488725185,0.16764216125011444,-0.429823100566864,-0.8872137665748596,0.002371266484260559,-0.0007951855659484863,0.0007085800170898438,0.9713915962603926,0.2214459505613582,0.08576021764347437,-0.002322568683437088
1681264974025074000,0.981073974609375,-0.002546316012740135,0.002496475586667657,-0.0010534229222685099,0.1676778495311737,-0.42983028292655945,-0.8872035145759583,0.003434225916862488,0.0012719333171844482,0.001583397388458252,0.971388997433415,0.22144969091955283,0.08578034193507132,-0.002315839119808028
1681264974035118000,0.9911181640625,0.003743537934496999,0.0013153636828064919,-0.002927489345893264,0.1677148938179016,-0.42983758449554443,-0.887192964553833,0.004358470439910889,0.0021947622299194336,0.002122163772583008,0.9713861764320537,0.2214548834948115,0.08579771642876692,-0.002324316437708639
1681264974045161000,1.001160888671875,0.006215674802660942,0.000710618682205677,-0.00706071499735117,0.16776035726070404,-0.42986851930618286,-0.887169361114502,0.0032449066638946533,-0.00036829710006713867,0.0009999275207519531,0.97137996522753,0.22147575733063068,0.08581256599807277,-0.0023639959804625547
1681264974055204000,1.0112041015625,0.007023677229881287,-0.003739789593964815,-0.007847946137189865,0.16780290007591248,-0.4298871159553528,-0.8871523141860962,0.0010508596897125244,-0.0000445246696472168,0.0014406442642211914,0.9713754902255456,0.22148987457074834,0.08582583130300503,-0.002403448597652729
1681264974065248000,1.021248046875,0.007604665122926235,-0.0015789009630680084,-0.00820347759872675,0.16781507432460785,-0.42993584275245667,-0.8871264457702637,0.0007639974355697632,0.001041799783706665,0.004786968231201172,0.9713687071665887,0.2215213079572112,0.08582016807953073,-0.0024580672647433422
1681264974075291100,1.031291015625,0.002254374325275421,-0.002277981024235487,-0.004519526846706867,0.16782668232917786,-0.4299520254135132,-0.8871163725852966,0.0006151050329208374,-0.0012003183364868164,0.007492959499359131,0.9713661064026484,0.22153346625614587,0.08581798095941615,-0.002494705009678864
1681264974085335000,1.0413349609375,0.002890717936679721,-0.002636974211782217,-0.003763721790164709,0.167827770113945,-0.429957777261734,-0.8871133923530579,0.0013464093208312988,-0.004368394613265991,0.008207142353057861,0.9713652857075388,0.22153882757390633,0.08581287653278982,-0.0025198262125843136
1681264974095378200,1.051378173828125,0.0024534265976399183,-0.001951743382960558,-0.0004467547405511141,0.16782598197460175,-0.42998114228248596,-0.8871024250984192,0.0011345893144607544,-0.007335752248764038,0.00851660966873169,0.9713624285237343,0.22155269579827128,0.0858090648159925,-0.0025334345123141423
1681264974105421000,1.061421142578125,-0.0007950591389089823,-0.0014009424485266209,0.0012123944470658898,0.16782936453819275,-0.4299697279930115,-0.8871073126792908,0.00020042061805725098,-0.006782591342926025,0.0074686408042907715,0.9713636640506151,0.22154623954188365,0.08581148915831958,-0.002530050557840844
1681264974115465000,1.07146484375,0.00014077569358050823,-0.0005191699601709843,0.004394872114062309,0.16782303154468536,-0.42996326088905334,-0.8871116638183594,0.00023727118968963623,-0.005461513996124268,0.0044059157371521,0.9713648340616174,0.2215415020209569,0.08581110345090245,-0.002517019143392266
1681264974125508000,1.081508056640625,0.0018362579867243767,-0.00048286234959959984,0.0012957515427842736,0.16781605780124664,-0.42996013164520264,-0.8871144652366638,-0.001113802194595337,-0.004579663276672363,0.004500329494476318,0.9713655768368211,0.22153876756701496,0.08580991165929822,-0.002506279934799429
1681264974135552000,1.091552001953125,0.0055686780251562595,0.00421175779774785,0.005734708625823259,0.16781479120254517,-0.42999374866485596,-0.8870984315872192,-0.0014787465333938599,-0.007445186376571655,0.006147503852844238,0.9713614365837682,0.2215553609439373,0.08581387389812982,-0.0024874431014102545
1681264974145595100,1.10159521484375,0.007239660248160362,0.003784172935411334,0.0021072165109217167,0.16783729195594788,-0.43006300926208496,-0.8870605826377869,-0.000997692346572876,-0.003393411636352539,0.007437169551849365,0.9713517786395378,0.22159133625262464,0.08583117301947644,-0.0024657109423536112
1681264974155639000,1.11163916015625,0.011667964048683643,0.00632669311016798,-0.0009844470769166946,0.16789036989212036,-0.43016931414604187,-0.8869990110397339,-0.002851322293281555,-0.0015475749969482422,0.010045886039733887,0.9713359291854546,0.22164935958523646,0.08586074432403458,-0.0024613565568295825
1681264974165682200,1.12168212890625,0.01396920159459114,0.0049680666998028755,-0.0005048117600381374,0.16794224083423615,-0.4303056597709656,-0.8869230151176453,-0.0005990862846374512,0.0011064410209655762,0.010671794414520264,0.9713163789732255,0.22172405644689427,0.08588905018520823,-0.0024610568398605575
1681264974175725000,1.13172509765625,0.008327560499310493,0.004260997287929058,-0.0009639406925998628,0.1679869443178177,-0.43045875430107117,-0.886840283870697,0.0005768835544586182,0.0012900829315185547,0.011840283870697021,0.9712950720982597,0.22180801783534576,0.08591314711385686,-0.0024636277347045194
1681264974185769000,1.14176904296875,0.002122547710314393,0.0052471947856247425,-0.0038902219384908676,0.16801874339580536,-0.43054434657096863,-0.8867926597595215,0.0009112954139709473,-0.000043392181396484375,0.011197566986083984,0.9712828115399875,0.22185503300004364,0.08593021613113377,-0.0024648160424213814
1681264974195813400,1.1518134765625,-0.008093338459730148,0.005208578892052174,-0.005438850261271,0.1680917590856552,-0.43051695823669434,-0.8867921233177185,0.0002432018518447876,-0.0009863078594207764,0.011349618434906006,0.9712826473926125,0.2218427571233797,0.08596346017320639,-0.002484012572367171
1681264974205857500,1.161857421875,-0.013877800665795803,0.0060343374498188496,-0.009225599467754364,0.16817070543766022,-0.4304216802120209,-0.8868234157562256,0.0019647926092147827,-0.0023175477981567383,0.013211965560913086,0.9712905806697598,0.2217942401876095,0.0859976978055528,-0.0025095275652816658
1681264974215900400,1.171900390625,-0.011439676396548748,0.006677757017314434,-0.010366762988269329,0.16826318204402924,-0.4303167462348938,-0.8868567943572998,0.0010178089141845703,-0.003902614116668701,0.012390851974487305,0.9712991114556346,0.22174115178131706,0.0860375228069168,-0.002540908322691197
1681264974225943600,1.181943603515625,-0.013191578909754753,0.011563917621970177,-0.008862609975039959,0.16839005053043365,-0.4302143454551697,-0.8868824243545532,0.0008299201726913452,-0.0024333596229553223,0.008113503456115723,0.9713055761567576,0.22168983228164935,0.08609538507436879,-0.0025715947606303777
1681264974235987500,1.191987548828125,-0.014117561280727386,0.009157218970358372,-0.007798144593834877,0.1685049831867218,-0.43009138107299805,-0.8869202136993408,0.00024196505546569824,-0.002342730760574341,0.00677800178527832,0.9713152808326388,0.22162660209720697,0.08614835311438182,-0.0025957210708618074
1681264974246030600,1.202030517578125,-0.01599041000008583,0.008876137435436249,-0.009261817671358585,0.16861805319786072,-0.4299663305282593,-0.8869593739509583,0.0017615854740142822,-0.0013538599014282227,0.005794823169708252,0.971325307224997,0.22156180936196782,0.08620141321697566,-0.0026151331556791397
1681264974256074500,1.212074462890625,-0.014128593727946281,0.008976005017757416,-0.009840522892773151,0.16874441504478455,-0.4298234283924103,-0.8870046138763428,0.002688080072402954,-0.0032972991466522217,0.0032308101654052734,0.9713368946575689,0.22148832936533647,0.08625903746317952,-0.0026440367504667406
1681264974266117600,1.22211767578125,-0.010020744055509567,0.010789411142468452,-0.006449786014854908,0.1688695251941681,-0.42972245812416077,-0.8870297074317932,0.003020733594894409,-0.0031693577766418457,0.005514204502105713,0.971343308409593,0.22143705431572067,0.086317874858058,-0.002666563242685702
1681264974276160500,1.232160400390625,-0.0001987394643947482,0.00950896367430687,-0.0020132260397076607,0.1689789891242981,-0.429706871509552,-0.8870164155960083,0.0012328028678894043,-0.000636756420135498,0.0089646577835083,0.971339872639827,0.2214302514846885,0.08637381450677138,-0.002669744505170003
1681264974286204700,1.24220458984375,-0.000344490515999496,0.007593144662678242,0.0012281072558835149,0.16906628012657166,-0.4297330677509308,-0.8869870901107788,0.0032512247562408447,0.0005491077899932861,0.004067778587341309,0.9713323987811042,0.22144475459503324,0.08642146832916157,-0.0026605583734755083
1681264974296247600,1.25224755859375,-0.005840988829731941,0.004882845561951399,0.002875006292015314,0.16912895441055298,-0.42974671721458435,-0.8869685530662537,0.0027460455894470215,-0.0019549131393432617,0.0018824338912963867,0.9713276631224159,0.22145163167071105,0.08645753859847906,-0.0026456280332301757
1681264974306291500,1.26229150390625,-0.00994214229285717,0.0018441490828990936,0.0030417200177907944,0.1691405177116394,-0.4297110438346863,-0.8869836330413818,0.0023682713508605957,-0.006064713001251221,0.001943349838256836,0.9713315828963003,0.22143069152990655,0.08646756503310205,-0.002626470743586615
1681264974316334600,1.27233447265625,-0.007174851838499308,-0.0014296751469373703,-0.0005615370464511216,0.16913744807243347,-0.4296560287475586,-0.8870108723640442,0.0035767704248428345,-0.010163277387619019,0.0041831135749816895,0.9713386374254166,0.22139983973932292,0.08646782139438329,-0.0026160364274339467
1681264974326377500,1.28237744140625,-0.0050850315019488335,0.0001773349940776825,0.006305157672613859,0.16912925243377686,-0.4296206831932068,-0.8870295286178589,0.0008383989334106445,-0.008123427629470825,0.004308581352233887,0.9713434804292038,0.22137892472538667,0.08646735929076727,-0.002597898489332152
1681264974336421400,1.29242138671875,-0.007293590810149908,-0.0012107044458389282,0.002286447212100029,0.16910405457019806,-0.4295918047428131,-0.8870483040809631,-0.00018925964832305908,-0.004917442798614502,0.0019317269325256348,0.9713483065246171,0.2213608523263268,0.08645935706912046,-0.002574413657826583
1681264974346464500,1.302464599609375,-0.004279615357518196,-0.00351001787930727,0.0034949900582432747,0.16908739507198334,-0.42957136034965515,-0.887061357498169,0.0028791576623916626,-0.0028627216815948486,0.004172563552856445,0.9713516830538517,0.22134855552794871,0.08645303591747454,-0.0025633461340403957
1681264974356508400,1.31250830078125,0.0015766758006066084,-0.00041063129901885986,0.0032457183115184307,0.1690635085105896,-0.42958328127861023,-0.8870601654052734,0.0026589184999465942,-0.0008060932159423828,0.0062160491943359375,0.9713513918487655,0.2213536632232489,0.08644349659168485,-0.0025513065567329364
1681264974366551300,1.32255126953125,0.0014369362033903599,0.003221861319616437,-0.000029171118512749672,0.1690843105316162,-0.4296015799045563,-0.8870473504066467,0.0010511726140975952,0.0013789236545562744,0.008919298648834229,0.9713482427395027,0.22136344712686654,0.08645544710287825,-0.0025469940524917275
1681264974376594400,1.332594482421875,0.0019448010716587305,0.0026431563310325146,-0.0028619756922125816,0.16913193464279175,-0.429631769657135,-0.8870236873626709,0.001079842448234558,0.0031333565711975098,0.009948492050170898,0.9713421102976867,0.2213812833639441,0.08647828993805012,-0.002556517100544061
1681264974386638300,1.342638427734375,0.0006142095662653446,0.006035431753844023,-0.006753120105713606,0.16920679807662964,-0.4296489953994751,-0.8870010375976562,-0.00029200315475463867,0.0026775598526000977,0.01227569580078125,0.9713362022639138,0.2213935409167594,0.08651234860976213,-0.0025783162302584167
1681264974396681500,1.352681396484375,-0.0043962616473436356,0.00554993748664856,-0.008317194879055023,0.16931279003620148,-0.42965632677078247,-0.8869772553443909,-0.001099914312362671,0.002730637788772583,0.01010042428970337,0.971330003297454,0.2214016421736893,0.08656028582762725,-0.0026097184783536328
1681264974406725400,1.362725341796875,-0.01036802027374506,0.009578205645084381,-0.00998779572546482,0.16941645741462708,-0.4296054542064667,-0.8869820833206177,0.00026129186153411865,0.0005130469799041748,0.010013699531555176,0.9713311468936873,0.22137879237245583,0.08660471069015117,-0.0026487356781240887
1681264974416768500,1.3727685546875,-0.011410381644964218,0.011234957724809647,-0.006574422121047974,0.16954007744789124,-0.42950403690338135,-0.8870075941085815,0.0008700788021087646,-0.0016177594661712646,0.008437037467956543,0.9713376803224726,0.22132745053306083,0.08666232765254839,-0.002673216880313795
1681264974426812400,1.3828125,-0.004991782829165459,0.009632770903408527,-0.006643397733569145,0.16966688632965088,-0.4294472336769104,-0.8870108723640442,0.002223372459411621,-0.0019950270652770996,0.00898963212966919,0.9713384527872772,0.2213001329940386,0.08672265307690695,-0.002694959374459461
1681264974436855600,1.39285546875,-0.0036697895266115665,0.006505420431494713,-0.003861726261675358,0.16977980732917786,-0.42940554022789,-0.8870094418525696,0.0012254267930984497,-0.0032726824283599854,0.00744706392288208,0.971337924040093,0.2212803226875096,0.08677735436943812,-0.0027104439484733345
1681264974446898400,1.4028984375,-0.006457282230257988,0.006236500572413206,-0.000833712110761553,0.16984939575195312,-0.4293733537197113,-0.8870116472244263,-0.00004960596561431885,-0.005318999290466309,0.003161609172821045,0.9713385207284958,0.22126320116140885,0.08681451693774438,-0.0027045267795071833
1681264974456942600,1.412942626953125,-0.004835150670260191,0.007473538629710674,0.002115206327289343,0.1699160635471344,-0.4293273091316223,-0.8870211839675903,0.0010891854763031006,-0.005532890558242798,0.003720402717590332,0.9713410859063004,0.2212379604250823,0.08685137388696261,-0.002692683685853034
1681264974466985500,1.4229853515625,-0.0020503210835158825,0.003763430053368211,0.006997846066951752,0.1699463576078415,-0.4293157458305359,-0.887021005153656,0.0024016499519348145,-0.007161915302276611,0.002530038356781006,0.9713411165143536,0.22122967225033324,0.0868730477770523,-0.0026660850172467066
1681264974477029600,1.433029541015625,0.0005252219270914793,0.002636646619066596,0.009451949037611485,0.16994081437587738,-0.4293299615383148,-0.887015163898468,0.0036431699991226196,-0.005469232797622681,0.0022495388984680176,0.9713397337901977,0.22123349326945502,0.08688008785697177,-0.002623150951517428
1681264974487072500,1.443072509765625,0.0024688728153705597,0.00196280749514699,0.009636505506932735,0.16990891098976135,-0.42938533425331116,-0.886994481086731,0.0030647218227386475,-0.0027588307857513428,0.002991795539855957,0.9713345098292457,0.22125835079649017,0.08687634572944519,-0.0025692251276917258
1681264974497115400,1.453115478515625,0.002006015507504344,-0.001559223048388958,0.008983498439192772,0.16988500952720642,-0.4294354319572449,-0.8869748115539551,0.003912597894668579,-0.005211174488067627,0.003460407257080078,0.9713296015673059,0.22128160153385967,0.08687369584028583,-0.0025284987199204107
1681264974507159600,1.46315966796875,0.004705661907792091,-0.0004400145262479782,0.010137446224689484,0.16984349489212036,-0.42950335144996643,-0.886949896812439,0.0038167834281921387,-0.003937840461730957,0.004839301109313965,0.9713233040045879,0.22131420597098078,0.08686239918756447,-0.0024863903657575746
1681264974517202400,1.473202392578125,0.01035635732114315,-0.005077643319964409,0.007952588610351086,0.16980506479740143,-0.4296078085899353,-0.886906623840332,0.001032322645187378,0.0007290542125701904,0.006856024265289307,0.9713122639341626,0.22136715514712224,0.08685193225353913,-0.002449261095087853
1681264974527246600,1.48324658203125,0.008991220965981483,-0.0021997131407260895,0.005295020528137684,0.16974560916423798,-0.42972061038017273,-0.8868633508682251,0.0005119591951370239,0.0012538433074951172,0.007239937782287598,0.9713011721991557,0.2214252260359765,0.0868284520049584,-0.002421710511465814
1681264974537289500,1.49328955078125,-0.0012851188657805324,-0.00478910468518734,0.005501149222254753,0.16969652473926544,-0.4297768771648407,-0.8868455290794373,0.001766487956047058,0.001188039779663086,0.0052384138107299805,0.9712965957984614,0.2214537280626846,0.08680722419187466,-0.0024054600463398403
1681264974547332600,1.50333251953125,-0.0054595861583948135,-0.0042822458781301975,0.0048872907646000385,0.1696360856294632,-0.4297838509082794,-0.8868536949157715,0.0016590803861618042,0.0013476014137268066,0.004895687103271484,0.9712987808073185,0.22145471195721925,0.08678114265713774,-0.002382545562313728
1681264974557376500,1.51337646484375,-0.007370670326054096,-0.004949634429067373,0.006982399150729179,0.16958023607730865,-0.4297514855861664,-0.8868800401687622,0.0017454475164413452,0.0008269250392913818,0.004754185676574707,0.9713056218836773,0.22143383863073904,0.08675843655694705,-0.002353568546235116
1681264974567419600,1.523419677734375,-0.014211722649633884,-0.00037973886355757713,0.007145651616156101,0.1695403903722763,-0.42967841029167175,-0.88692307472229,-0.0006103515625,0.00031134486198425293,0.004446268081665039,0.9713167894418652,0.22139060930716878,0.08674478604147691,-0.002319566300108143
1681264974577463300,1.53346337890625,-0.016229066997766495,0.002203793963417411,0.0092468848451972,0.16953633725643158,-0.4295719265937805,-0.8869754076004028,-0.0006673038005828857,0.0009678006172180176,0.003262639045715332,0.9713303065994989,0.22132856491042133,0.08675225621711494,-0.002272963438443228
1681264974587506400,1.54350634765625,-0.014007420279085636,0.005938019137829542,0.008868716657161713,0.1695522516965866,-0.4294704496860504,-0.887021541595459,0.0015903264284133911,-0.000003427267074584961,0.004773616790771484,0.9713423791222455,0.2212688100883969,0.08677182195557158,-0.0022189317610709996
1681264974597549300,1.55354931640625,-0.00961054116487503,0.006697818636894226,0.011864772997796535,0.16958484053611755,-0.42938998341560364,-0.8870542645454407,0.00009289383888244629,-0.00040435791015625,0.005767643451690674,0.9713509433507235,0.22121993504023743,0.08680211236531762,-0.002156696891059228
1681264974607593500,1.563593505859375,-0.004711808171123266,0.012820515781641006,0.01068312767893076,0.16964305937290192,-0.4293596148490906,-0.8870578408241272,-0.0016743093729019165,0.002067744731903076,0.004046976566314697,0.971352033494869,0.22119777961665874,0.08684829769927363,-0.002085283335775651
1681264974617636400,1.57363623046875,-0.00345559511333704,0.011051643639802933,0.011012827046215534,0.1697148084640503,-0.42935633659362793,-0.887045681476593,-0.002051234245300293,0.0033309459686279297,0.004813015460968018,0.9713490571256091,0.2211908723245585,0.08690078931245425,-0.0020181873028913833
1681264974627680500,1.583680419921875,-0.0015693543246015906,0.009512661956250668,0.00888309720903635,0.16976386308670044,-0.42934662103652954,-0.8870409727096558,-0.0028021931648254395,-0.000600278377532959,0.004289507865905762,0.9713478530172792,0.22118098423787344,0.0869395291539125,-0.001959515802734521
1681264974637723400,1.593723388671875,0.004925563000142574,0.009580040350556374,0.007312631234526634,0.16983364522457123,-0.42935818433761597,-0.8870220184326172,-0.002627834677696228,-0.004464447498321533,0.0056591033935546875,0.9713431396026913,0.22118352584864853,0.0869875006345395,-0.0019084211956956023
1681264974647767600,1.603767578125,0.008131589740514755,0.00895058736205101,0.0013311716029420495,0.16988293826580048,-0.4294317066669464,-0.8869770169258118,0.00013048946857452393,-0.0021936893463134766,0.008192837238311768,0.9713316311375556,0.22122193537053728,0.08701920913045351,-0.0018847843823556621
1681264974657810400,1.613810546875,0.004950178321450949,0.006654942408204079,0.003693928010761738,0.1699419617652893,-0.42949286103248596,-0.8869360685348511,-0.0015001893043518066,-0.0011559128761291504,0.009708285331726074,0.9713211143205637,0.2212536604614236,0.0870561441310788,-0.0018599085684257368
1681264974667853300,1.623853271484375,0.0019274142105132341,0.0052242036908864975,0.0029671513475477695,0.1699824184179306,-0.42953234910964966,-0.8869092464447021,-0.000670894980430603,0.0006077885627746582,0.010123908519744873,0.9713142496993707,0.22127385336462696,0.08708197916380916,-0.0018404543744956292
1681264974677897500,1.6338974609375,-0.0005179003346711397,0.0024750223383307457,0.0021551535464823246,0.17001299560070038,-0.4295399487018585,-0.8868996500968933,0.00018353760242462158,-0.0010477900505065918,0.01119774580001831,0.9713118433781739,0.2212764789006384,0.08710270373389946,-0.0018194972313654216
1681264974687940400,1.6439404296875,-0.0014590234495699406,0.006348353810608387,0.0008376877522096038,0.17004315555095673,-0.42952924966812134,-0.8868990540504456,-0.0003044009208679199,-0.0031031668186187744,0.010052740573883057,0.9713117258850291,0.22126996543261088,0.08712095465012766,-0.0018076287689146179
1681264974697984500,1.653984619140625,-0.00186195969581604,0.0061819059774279594,0.0026616868562996387,0.1700841337442398,-0.4295206367969513,-0.8868954181671143,0.001439899206161499,-0.0020741820335388184,0.007088899612426758,0.9713107889166244,0.2212639788520284,0.08714675541339519,-0.0017873795468916456
1681264974708027400,1.66402734375,-0.0012546449434012175,0.007095221895724535,0.0016049445839598775,0.17011728882789612,-0.4295235276222229,-0.8868876099586487,0.0011626183986663818,-0.0010032057762145996,0.004639685153961182,0.9713087509871607,0.22126387194295605,0.08716930700055997,-0.0017641041897154424
1681264974718070500,1.674070556640625,-0.004899447318166494,0.00665633287280798,-0.0004933601012453437,0.17017270624637604,-0.42950889468193054,-0.8868840336799622,0.0017327964305877686,-0.0014450550079345703,0.004834532737731934,0.9713078369623708,0.2212552575962384,0.08720137419300361,-0.001749002649429784
1681264974728114400,1.684114501953125,-0.005849016364663839,0.0070348866283893585,0.0003724335692822933,0.1702386438846588,-0.42947080731391907,-0.8868898749351501,0.0031469762325286865,-0.0016815364360809326,0.0039095282554626465,0.9713094590141149,0.22123442355414888,0.08723753858858364,-0.0017387652724483074
1681264974738157600,1.694157470703125,-0.005265251267701387,0.002940542995929718,-0.00023689772933721542,0.17028218507766724,-0.4294287860393524,-0.88690185546875,0.00292031466960907,-0.000991135835647583,0.0057830810546875,0.9713125167582377,0.2212108497122725,0.08726298514330544,-0.0017244418749107842
1681264974748201500,1.704201416015625,-0.008096951991319656,0.0035308769438415766,0.0019700638949871063,0.17031028866767883,-0.4293762743473053,-0.8869218826293945,0.002342909574508667,-0.00031119585037231445,0.005925178527832031,0.9713176560144612,0.22118176842214354,0.08727936304455564,-0.0017142402406023927
1681264974758244600,1.71424462890625,-0.00974518246948719,0.005463000386953354,0.001335166278295219,0.17034125328063965,-0.42932045459747314,-0.8869429230690002,0.0035784095525741577,-0.0024422407150268555,0.0073958635330200195,0.9713230879518957,0.2211500397516191,0.08729939161576075,-0.0016943777728012717
1681264974768287500,1.72428759765625,-0.006735088303685188,0.00023607304319739342,0.004508588928729296,0.17035439610481262,-0.4292853772640228,-0.8869574069976807,0.003977268934249878,-0.005178123712539673,0.007532358169555664,0.9713269651261348,0.22112935100220144,0.08731033473023961,-0.0016746582791449384
1681264974778331400,1.734331298828125,-0.001962969545274973,0.002957557560876012,0.009416262619197369,0.17033475637435913,-0.42925748229026794,-0.8869746923446655,0.003539159893989563,-0.006518274545669556,0.009914755821228027,0.9713314563306169,0.22111055618278158,0.0873085039444831,-0.0016366391844493608
1681264974788374500,1.74437451171875,-0.0025310597848147154,0.001158533152192831,0.010104956105351448,0.17030559480190277,-0.42926889657974243,-0.8869747519493103,0.004483833909034729,-0.007605463266372681,0.009930074214935303,0.9713315574116025,0.2211120316523793,0.0873045533495333,-0.0015880309904179218
1681264974798418400,1.75441845703125,0.0023411933798342943,0.003984679467976093,0.012809928506612778,0.17029969394207,-0.4293002188205719,-0.8869607448577881,-0.0004541128873825073,-0.004842877388000488,0.006879568099975586,0.9713280114714627,0.22112391950586935,0.08731459898342624,-0.001531862035433316
1681264974808461300,1.76446142578125,-0.0003834487870335579,0.0022788653150200844,0.013804086484014988,0.17028164863586426,-0.4293363094329834,-0.8869467377662659,-0.002434968948364258,-0.003860682249069214,0.003417074680328369,0.9713244880349559,0.22113749609143532,0.08732035213067031,-0.0014670769389516834
1681264974818505500,1.77450537109375,-0.0005498963873833418,0.00135048758238554,0.012634159997105598,0.17025819420814514,-0.42935746908187866,-0.8869409561157227,-0.0026251524686813354,-0.00548747181892395,0.0032129883766174316,0.9713230785139207,0.22114280476728282,0.08732335179791072,-0.0014014073635194662
1681264974828548400,1.78454833984375,0.00015131395775824785,0.0033290390856564045,0.009325448423624039,0.1702512502670288,-0.42938345670700073,-0.8869297504425049,0.000052094459533691406,-0.0035541653633117676,0.006100893020629883,0.9713202635621466,0.2211515609763469,0.08733336558906478,-0.0013427616010720305
1681264974838591500,1.794591552734375,-0.000270530697889626,0.002362844068557024,0.01119685173034668,0.17024576663970947,-0.42941585183143616,-0.8869150876998901,0.0002559274435043335,-0.002911388874053955,0.002881944179534912,0.9713166327756402,0.22116410621083313,0.08734345839315022,-0.0012874249235255754
1681264974848635400,1.804635498046875,0.00702645443379879,-0.0015965662896633148,0.00990761537104845,0.17021994292736053,-0.429480642080307,-0.8868886828422546,0.0007395297288894653,0.0010596513748168945,0.004137217998504639,0.9713099289159433,0.2211948106515205,0.08734129081926112,-0.001241012620450395
1681264974858678500,1.814678466796875,0.0035987000446766615,-0.0005523408763110638,0.00963437557220459,0.17018727958202362,-0.42957553267478943,-0.886849045753479,-0.0005248039960861206,0.0030466318130493164,0.008843064308166504,0.9712998074341335,0.22124184177946699,0.08733575882805814,-0.0011952142255177857
1681264974868722400,1.824722412109375,0.004290399141609669,0.0006387135945260525,0.00609902897849679,0.17017187178134918,-0.42967092990875244,-0.8868057727813721,-0.0015775412321090698,0.0016771554946899414,0.00721287727355957,0.9712885769287187,0.22129054644355914,0.08733625859914233,-0.0011624025053303714
1681264974878765300,1.834765380859375,0.00031137000769376755,-0.003283856436610222,-0.002431076020002365,0.17015686631202698,-0.42970892786979675,-0.8867902159690857,-0.0011657774448394775,0.002050846815109253,0.006327569484710693,0.9712847117765674,0.2213100711354592,0.08733117977857764,-0.0011522001467531096
1681264974888808400,1.844808349609375,0.0015501962043344975,-0.0012766914442181587,-0.004914740100502968,0.1701389104127884,-0.429717093706131,-0.8867896795272827,0.0015377253293991089,0.0017843842506408691,0.00837177038192749,0.9712844588055162,0.22131577688565762,0.08731825312608416,-0.00116842356593793
1681264974898852400,1.854852294921875,-0.004199568182229996,-0.0044937897473573685,-0.006481743883341551,0.17011970281600952,-0.4297180771827698,-0.8867928981781006,0.0026708096265792847,-0.00010672211647033691,0.008130788803100586,0.9712852460627522,0.22131817724126185,0.08730300406275655,-0.0011916461253154123
1681264974908895500,1.8648955078125,-0.008558021858334541,-0.004600789397954941,-0.008888709358870983,0.17010807991027832,-0.42967596650123596,-0.8868155479431152,0.0028045177459716797,0.000049501657485961914,0.007710933685302734,0.9712910314433881,0.22129868677726472,0.08728756098576465,-0.0012309772552108564
1681264974918939400,1.874939453125,-0.012486983090639114,-0.004539269953966141,-0.005387717392295599,0.17008225619792938,-0.4295777678489685,-0.8868680596351624,0.00019057095050811768,0.0011109709739685059,0.0076566338539123535,0.9713045089088205,0.2212480469125418,0.08726550324492163,-0.0012644179615396937
1681264974928982500,1.884982421875,-0.01789327710866928,-0.004844912327826023,-0.004661207087337971,0.1700703203678131,-0.4294225871562958,-0.8869454860687256,-0.0005604475736618042,-0.0022332966327667236,0.005231618881225586,0.971324423683832,0.22116626769832043,0.08725094095631028,-0.0012940192136512436
1681264974939025400,1.895025390625,-0.015397361479699612,0.0013211043551564217,-0.000601484440267086,0.17006754875183105,-0.4292668402194977,-0.8870214223861694,0.0002205371856689453,-0.004128545522689819,0.0030034780502319336,0.9713440097852454,0.22108243412583015,0.0872458254913219,-0.0013029759751046063
1681264974949069600,1.905069580078125,-0.0031502828933298588,0.0034654224291443825,0.0028366567566990852,0.170078307390213,-0.42919087409973145,-0.8870561122894287,-0.0020790398120880127,-0.0011985301971435547,0.003816366195678711,0.9713529196715002,0.2210403587331376,0.08725304103027212,-0.0012923183434635113
1681264974959112400,1.915112548828125,0.006571853067725897,0.002699497388675809,0.007005035877227783,0.17009274661540985,-0.4292231500148773,-0.8870377540588379,-0.003298923373222351,0.0024195611476898193,0.0020585060119628906,0.9713482541634598,0.22105561628587966,0.087267039551961,-0.0012652307916504043
1681264974969156600,1.925156494140625,0.013183568604290485,0.006388301029801369,0.007621824741363525,0.17011724412441254,-0.42932555079460144,-0.8869835138320923,-0.005780085921287537,0.00517699122428894,0.0010429620742797852,0.9713343656357226,0.22110848894975704,0.08728849296076138,-0.0012315801009103477
1681264974979199500,1.935199462890625,0.02407616376876831,0.004683878272771835,0.004965054802596569,0.1701597422361374,-0.4295026659965515,-0.8868895769119263,-0.00809614360332489,0.004835307598114014,0.0023986101150512695,0.9713101040862444,0.22120254999541603,0.08731921613372672,-0.0012017688936714942
1681264974989243400,1.945243408203125,0.028227727860212326,-0.0019528972916305065,0.0011343640508130193,0.17017458379268646,-0.4297463595867157,-0.886768639087677,-0.00658513605594635,0.003156423568725586,-0.00020945072174072266,0.9712790121482109,0.22133463865151182,0.08733065910882774,-0.0011966452487353683
1681264974999286500,1.95528662109375,0.026609059423208237,-0.006545784417539835,-0.0059504434466362,0.1701558232307434,-0.43000054359436035,-0.8866490721702576,-0.004887893795967102,0.0026781857013702393,-0.0010309815406799316,0.9712481871663794,0.22147531249554026,0.08731645366781723,-0.0012279816107636334
1681264975009329700,1.96532958984375,0.020885583013296127,-0.012540500611066818,-0.009119072929024696,0.17010657489299774,-0.43022313714027405,-0.8865504860877991,-0.0027939677238464355,0.0018784403800964355,-0.00041234493255615234,0.9712227531259637,0.22160106058843504,0.08727951847378468,-0.001288048746743751
1681264975019373300,1.975373291015625,0.013100630603730679,-0.01303797960281372,-0.009586190804839134,0.17004647850990295,-0.4303714334964752,-0.8864900469779968,-0.002840682864189148,-0.0009029805660247803,0.003402888774871826,0.9712070962101482,0.22168720338153747,0.08723389914475395,-0.0013580407907842818
1681264975029416400,1.98541650390625,0.003400941379368305,-0.012689165771007538,-0.009243708103895187,0.1699698269367218,-0.43042346835136414,-0.8864794969558716,-0.0021536797285079956,-0.0036738216876983643,0.007985234260559082,0.9712042892665131,0.22172092950723463,0.08717843337774571,-0.0014290408152632676
1681264975039460400,1.99546044921875,0.0001375037245452404,-0.014431672170758247,-0.006919035222381353,0.16986362636089325,-0.43041014671325684,-0.8865063190460205,-0.0005826205015182495,-0.004648447036743164,0.008637666702270508,0.9712111361414506,0.2217171998795257,0.08711093114070871,-0.0014825424757581392
1681264975049503500,2.00550341796875,0.00662287138402462,-0.00865243375301361,-0.003136014798656106,0.1697550266981125,-0.4304172396659851,-0.8865236639976501,-0.0010233372449874878,-0.0031307339668273926,0.009952008724212646,0.9712155460822413,0.22172294076286617,0.08704651119643349,-0.0015180658014801967
1681264975059547400,2.01554736328125,0.01686032861471176,-0.0033759125508368015,0.000934094307012856,0.16968144476413727,-0.43050453066825867,-0.8864954113960266,-0.0005530416965484619,0.00008463859558105469,0.007421314716339111,0.971208251779038,0.22177111856807058,0.08700501618808738,-0.001536414590272476
1681264975069590500,2.025590576171875,0.028584059327840805,-0.0026627774350345135,-0.0029109776951372623,0.16964289546012878,-0.4306986927986145,-0.8864084482192993,-0.0018572509288787842,0.003300011157989502,0.004358887672424316,0.9711858543681888,0.2218780195935303,0.08698224061966095,-0.0015572669216993734
1681264975079633400,2.03563330078125,0.03529149666428566,0.002228383906185627,-0.0034177773632109165,0.16965532302856445,-0.430976927280426,-0.8862708210945129,-0.0005726665258407593,0.007057249546051025,0.0025427937507629395,0.971150309480559,0.22203170643385964,0.08698569452785286,-0.001582994646394156
1681264975089677600,2.045677490234375,0.03677453100681305,0.005746626760810614,-0.0030127104837447405,0.16971129179000854,-0.43129339814186096,-0.8861061334609985,0.001141369342803955,0.006458163261413574,0.0018745660781860352,0.9711078327992697,0.2222072746841163,0.08701068353425974,-0.0016151054305017132
1681264975099720400,2.055720458984375,0.03346981480717659,0.004962059669196606,0.0011966818710789084,0.1697629988193512,-0.4316132962703705,-0.885940432548523,0.0034852921962738037,0.004214644432067871,0.0029753446578979492,0.9710652195312209,0.2223833141270781,0.08703695526175782,-0.0016320413246277662
1681264975109764600,2.0657646484375,0.026429295539855957,0.0036928860936313868,0.0005671106046065688,0.16979730129241943,-0.43190997838974,-0.8857892751693726,0.005388855934143066,0.002649754285812378,0.0027478933334350586,0.9710262783534885,0.22254609316721544,0.08705511625468772,-0.0016439004835706458
1681264975119807500,2.075807373046875,0.013337194919586182,0.003580500604584813,0.0013330356450751424,0.16984038054943085,-0.432120680809021,-0.8856782913208008,0.006596997380256653,0.001441359519958496,0.007733345031738281,0.9709977295843759,0.2226609449265885,0.08708023028742785,-0.0016414385602567967
1681264975129850400,2.085850341796875,0.00042421184480190277,0.004472925793379545,0.0063565568998456,0.16986817121505737,-0.43220558762550354,-0.8856315016746521,0.006233513355255127,-0.00118979811668396,0.0108298659324646,0.9709857364221057,0.22270588141357392,0.08709954630175935,-0.0016239589737954106
1681264975139894500,2.09589453125,-0.003324187360703945,0.00019668787717819214,0.0038955295458436012,0.16987363994121552,-0.4322027564048767,-0.8856318593025208,0.003985002636909485,-0.002916872501373291,0.010296165943145752,0.9709858707590534,0.22270242338945423,0.08710744049453455,-0.0016018097579714014
1681264975149937400,2.1059375,0.0016905830707401037,0.0011143246665596962,0.003099776804447174,0.16986599564552307,-0.4321801960468292,-0.8856443166732788,0.004389375448226929,-0.0029089152812957764,0.010735869407653809,0.9709890913420156,0.2226883001819148,0.08710775655667494,-0.00158211136918268
1681264975159981600,2.115981689453125,0.00986542273312807,0.0008706450462341309,-0.0016742057632654905,0.16986018419265747,-0.4322136640548706,-0.8856291174888611,0.0032812952995300293,-0.0012274980545043945,0.007760465145111084,0.9709851792632174,0.22270635279904916,0.08710526414713485,-0.0015813313075763568
1681264975170024400,2.1260244140625,0.019167235121130943,0.0005340809002518654,0.0019588787108659744,0.16987091302871704,-0.4323195815086365,-0.8855753540992737,0.003255322575569153,0.0012740492820739746,0.0037394165992736816,0.9709713612778609,0.22276473445379905,0.08711024876023783,-0.0015886555240854213
1681264975180068600,2.136068603515625,0.021228255704045296,-0.0005309171974658966,-0.002755715511739254,0.16989237070083618,-0.4324803352355957,-0.885492742061615,0.0030049532651901245,0.002411365509033203,0.00507587194442749,0.9709499394254357,0.2228540719048088,0.08711890211875252,-0.0016068316097325288
1681264975190111500,2.146111572265625,0.01523724664002657,0.00008255662396550179,-0.0011745967203751206,0.1699116826057434,-0.432645708322525,-0.8854082226753235,0.004053756594657898,0.0020121634006500244,0.007234394550323486,0.9709281576564129,0.22294624109764502,0.08712556146391517,-0.0016290144970163404
1681264975200153000,2.156153076171875,-0.0021675764583051205,0.003120424458757043,0.0010994764743372798,0.16993968188762665,-0.4327135384082794,-0.8853697180747986,-0.0001398921012878418,-0.0029706358909606934,0.008401334285736084,0.9709182314153317,0.22298390941814497,0.08713969352213803,-0.0016338533075591249
1681264975210197200,2.166197265625,-0.00884103961288929,0.0018866113387048244,0.00313466414809227,0.16997060179710388,-0.43267253041267395,-0.8853838443756104,0.00024119019508361816,-0.00961872935295105,0.009697139263153076,0.9709218983728723,0.22296153327952067,0.0871564496983107,-0.0016289459959355614
1681264975220240100,2.176240234375,-0.016086434945464134,-0.0006572399288415909,0.004180754069238901,0.16997119784355164,-0.432575523853302,-0.8854311108589172,-0.0001866668462753296,-0.011867165565490723,0.011255085468292236,0.9709340964433087,0.2229062240631535,0.08716233683706162,-0.0016002952623218462
1681264975230284300,2.1862841796875,-0.01021812204271555,-0.002709678839892149,0.005807412788271904,0.16994838416576385,-0.43247511982917786,-0.885484516620636,0.00012607872486114502,-0.013585060834884644,0.012178242206573486,0.9709479139306473,0.22284872840421424,0.08715608801869665,-0.001571335797804583
1681264975240327200,2.1963271484375,-0.008316891267895699,-0.001145870890468359,0.006859094835817814,0.16992229223251343,-0.43239864706993103,-0.8855268955230713,0.0010676980018615723,-0.01277652382850647,0.012861490249633789,0.9709588575352818,0.2228040802368635,0.08714874930134174,-0.0015407891496600488
1681264975250370300,2.206370361328125,-0.00277302716858685,0.002357873134315014,0.007111296057701111,0.16989925503730774,-0.4323691129684448,-0.8855457305908203,0.0016705691814422607,-0.010028958320617676,0.011796951293945312,0.9709637793888333,0.2227844624084247,0.08714484887534882,-0.0015043018540748757
1681264975260414200,2.216414306640625,-0.0027653039433062077,0.003781066508963704,0.009611206129193306,0.16991961002349854,-0.43234822154045105,-0.8855519890785217,0.0007194280624389648,-0.00827983021736145,0.011818468570709229,0.9709654528762809,0.22277015988341464,0.08716335812858554,-0.0014687466629334754
1681264975270457300,2.226457275390625,-0.0034492798149585724,0.007597819902002811,0.00906366016715765,0.16994653642177582,-0.4323403239250183,-0.8855506777763367,-0.00010095536708831787,-0.00905066728591919,0.01218336820602417,0.9709651791628229,0.22276170084774818,0.08718874183313118,-0.001418731353570716
1681264975280501200,2.236501220703125,0.0036011729389429092,0.009114223532378674,0.010910562239587307,0.1699739694595337,-0.4323697090148926,-0.8855310678482056,-0.0011812448501586914,-0.009967327117919922,0.013781189918518066,0.970960165787616,0.22277291358796303,0.08721636208833364,-0.0013617911771174383
1681264975290544400,2.24654443359375,0.003917289897799492,0.009039655327796936,0.0150208855047822,0.1700066477060318,-0.4324638247489929,-0.8854788541793823,-0.00028312206268310547,-0.006806164979934692,0.010784029960632324,0.970946869003943,0.22281705716025307,0.08725330101814019,-0.0012790831463247087
1681264975300588000,2.256588134765625,0.0010626476723700762,0.008997843600809574,0.02419147826731205,0.1699906438589096,-0.43257784843444824,-0.8854262232780457,-0.0008622258901596069,-0.005303621292114258,0.005329787731170654,0.9709334523258751,0.22286860650260557,0.08727240923968084,-0.001164902561404952
1681264975310631200,2.266631103515625,-0.001620601280592382,0.011655944399535656,0.02605649083852768,0.16997821629047394,-0.43268659710884094,-0.885375440120697,0.0011185705661773682,-0.004569202661514282,0.002517223358154297,0.9709205372629206,0.22291532800112795,0.08729848413367368,-0.00102825963861635
1681264975320674300,2.27667431640625,-0.0012437640689313412,0.008510751649737358,0.029161736369132996,0.16996216773986816,-0.4327615201473236,-0.8853419423103333,0.00209595263004303,-0.0026632845401763916,0.001964867115020752,0.9709120655931224,0.22294261736845317,0.08732481976093473,-0.0008807641365518262
1681264975330718200,2.28671826171875,0.0035027118865400553,0.011774278245866299,0.03099159523844719,0.16993217170238495,-0.4328629672527313,-0.8852981328964233,0.0006000548601150513,0.00021526217460632324,0.0016158223152160645,0.9709009160305843,0.2229832579524461,0.08734651703304055,-0.0007232438707521091
1681264975340761000,2.296760986328125,0.010401897132396698,0.007494844496250153,0.026144107803702354,0.169894278049469,-0.4330129027366638,-0.8852320313453674,0.001202508807182312,0.006316125392913818,0.0017176270484924316,0.9708840219354531,0.2230514939347471,0.08736134799895068,-0.0005801575453086484
1681264975350805200,2.30680517578125,0.016930216923356056,0.00524935545399785,0.022981071844697,0.16983915865421295,-0.4332199990749359,-0.8851413130760193,0.004095777869224548,0.011482328176498413,-0.0017758011817932129,0.9708607467963413,0.2231518669900082,0.0873647101201316,-0.00045086346762538175
1681264975360848100,2.31684814453125,0.019937725737690926,0.0006591309793293476,0.01782253012061119,0.16978512704372406,-0.43345391750335693,-0.8850371241569519,0.003875136375427246,0.014539122581481934,-0.0007355213165283203,0.9708339732418577,0.22326962898977243,0.08736188039188825,-0.00035240681738337896
1681264975370891000,2.32689111328125,0.02250775136053562,0.00007504131644964218,0.012025360949337482,0.16972637176513672,-0.43369320034980774,-0.884931206703186,0.0016450732946395874,0.014824211597442627,-0.0015434026718139648,0.9708066921804723,0.22339338512877785,0.08734875398959414,-0.000288416992265757
1681264975380935200,2.33693505859375,0.025973590090870857,-0.0021468340419232845,0.006297434214502573,0.16968528926372528,-0.4339436888694763,-0.8848162889480591,0.0024643689393997192,0.014708459377288818,-0.000941157341003418,0.9707771645459178,0.22352603270894972,0.08733829509045561,-0.00025331043890651093
1681264975390978000,2.34697802734375,0.020847689360380173,-0.005170291755348444,0.002340243197977543,0.16963888704776764,-0.4341694116592407,-0.8847144246101379,0.0019461959600448608,0.014979958534240723,0.0009558796882629395,0.9707508796435643,0.22364795351618835,0.0873177330202511,-0.00024895110762061405
1681264975401022200,2.357022216796875,0.014569021761417389,-0.005762845743447542,-0.002824158640578389,0.16959670186042786,-0.4343453645706177,-0.8846361041069031,-0.0027265846729278564,0.012836605310440063,0.001991450786590576,0.9707306913455248,0.22374527051264506,0.08729255691242367,-0.0002716816874107118
1681264975411065000,2.367065185546875,0.007882203906774521,-0.0033483048900961876,-0.008185634389519691,0.1695699691772461,-0.4344313144683838,-0.8845990300178528,-0.005385398864746094,0.008405953645706177,0.002930939197540283,0.9707211606476399,0.22379488862878846,0.08727153912859797,-0.00030676776493201454
1681264975421109200,2.377109130859375,0.010156277567148209,-0.0009149746038019657,-0.01142323948442936,0.16959325969219208,-0.43448078632354736,-0.884570300579071,-0.005637571215629578,0.005540966987609863,0.004565417766571045,0.970713729796461,0.2238269594948279,0.0872716632577091,-0.00036111709787181557
1681264975431152000,2.387152099609375,0.010287989862263203,0.002789630088955164,-0.011794484220445156,0.16966842114925385,-0.434502512216568,-0.8845452070236206,-0.008840769529342651,0.002861887216567993,0.0040673017501831055,0.9707072265618214,0.22384516513935684,0.08729685781817302,-0.0004222459940190687
1681264975441195300,2.3971953125,0.00967466365545988,0.007232848089188337,-0.01594661921262741,0.16979184746742249,-0.434518039226532,-0.8845139145851135,-0.009071022272109985,-0.0005710721015930176,0.004386961460113525,0.9706991753614823,0.2238608812228601,0.08734616694909536,-0.0004872301626647342
1681264975451239200,2.4072392578125,0.009656060487031937,0.010092432610690594,-0.01392181683331728,0.16994313895702362,-0.4345375895500183,-0.8844752311706543,-0.010732948780059814,0.0005776286125183105,0.004409313201904297,0.9706892154456471,0.22387931925340776,0.08740954130745593,-0.0005541989015949037
1681264975461282300,2.4172822265625,0.013668645173311234,0.01280539482831955,-0.015290415845811367,0.17012067139148712,-0.4345850348472595,-0.8844177722930908,-0.008987858891487122,0.0014948546886444092,0.00744938850402832,0.9706742954695909,0.22391366906655208,0.08748587316865544,-0.0006254543654715087
1681264975471326200,2.427326171875,0.011253994889557362,0.013581765815615654,-0.01199342217296362,0.17030073702335358,-0.43462759256362915,-0.8843622207641602,-0.0038731247186660767,0.00011831521987915039,0.009469032287597656,0.9706599212199747,0.2239446405527723,0.08756534861032994,-0.0006885381443763387
1681264975481369300,2.437369384765625,0.011322437785565853,0.011800110340118408,-0.011803272180259228,0.17047511041164398,-0.43467503786087036,-0.8843052983283997,-0.002079099416732788,-0.0016042590141296387,0.010968506336212158,0.9706452290023092,0.22397757200586219,0.08764357948779732,-0.0007444024093949684
1681264975491413000,2.4474130859375,0.008779993280768394,0.0101544838398695,-0.008638105355203152,0.17061178386211395,-0.43471410870552063,-0.8842597603797913,-0.004001066088676453,-0.00443384051322937,0.011014461517333984,0.9706334658563797,0.22400441609226512,0.08770491767388411,-0.0007882221649409944
1681264975501456400,2.457456298828125,0.009705175645649433,0.010842910967767239,-0.004354144912213087,0.1707078367471695,-0.43477919697761536,-0.8842092156410217,-0.0037309229373931885,-0.0051469504833221436,0.010216236114501953,0.970620397350315,0.22404333711659397,0.08774957317724692,-0.0008141109115633114
1681264975511499300,2.467499267578125,0.014892175793647766,0.010207570157945156,-0.0039413548074662685,0.1707952618598938,-0.4348730146884918,-0.8841461539268494,0.00005739927291870117,-0.0022607743740081787,0.008123815059661865,0.9706042204990534,0.22409638766908574,0.08779362917571891,-0.0008244999357216358
1681264975521543200,2.477543212890625,0.017779575660824776,0.007107384502887726,-0.0012193378061056137,0.1708468645811081,-0.435031920671463,-0.8840580582618713,0.0023403912782669067,-0.0003928840160369873,0.0060977935791015625,0.9705814842924656,0.22418463184113469,0.08781934059029692,-0.0008368518990724636
1681264975531586000,2.4875859375,0.020720427855849266,0.006618072744458914,-0.0050239297561347485,0.17087148129940033,-0.43518882989883423,-0.8839760422706604,0.00587107241153717,-0.0013041198253631592,0.0043068528175354,0.9705604150933906,0.2242711057165593,0.08783188969651688,-0.0008453559236298118
1681264975541630200,2.497630126953125,0.022106869146227837,0.0058273798786103725,-0.0011775261955335736,0.1709098070859909,-0.435377299785614,-0.883875846862793,0.007648542523384094,-0.0020464062690734863,0.004389762878417969,0.9705346051625138,0.22437504764793845,0.08785168411788012,-0.0008548437420257466
1681264975551673000,2.507673095703125,0.021565524861216545,-0.0006904997862875462,0.0012749788584187627,0.1709194779396057,-0.4355866611003876,-0.883770763874054,0.008005067706108093,-0.003698587417602539,0.0037201642990112305,0.9705074064658711,0.22448958541058098,0.08785806830904051,-0.0008589952835184374
1681264975561717200,2.51771728515625,0.02532990276813507,-0.0026833433657884598,0.0018033500527963042,0.1708976775407791,-0.4358212351799011,-0.8836593627929688,0.006623074412345886,-0.0034029781818389893,0.00325775146484375,0.9704787875444796,0.2246172178818964,0.08784888689902423,-0.0008608172836797684
1681264975571760000,2.527760009765625,0.023770852014422417,0.0029770280234515667,0.0038326787762343884,0.1708669364452362,-0.43608447909355164,-0.8835354447364807,0.0075235515832901,-0.00046944618225097656,0.004919111728668213,0.9704468714367301,0.22475954362061046,0.08783753847329745,-0.0008533728376658737
1681264975581803000,2.537802978515625,0.02204139530658722,0.0014358568005263805,0.0064111510291695595,0.17085812985897064,-0.43631887435913086,-0.8834214210510254,0.006098046898841858,-0.0022187232971191406,0.004042148590087891,0.9704175054033466,0.2248848838502127,0.08784126974952204,-0.000828678826949643
1681264975591847200,2.54784716796875,0.01651533506810665,0.0028300215490162373,0.010215210728347301,0.17083972692489624,-0.43650883436203003,-0.8833311200141907,0.0026527047157287598,-0.0033562779426574707,0.004363834857940674,0.9703942724451006,0.22498451017007812,0.08784311151388889,-0.0007885358584343277
1681264975601890000,2.55789013671875,0.018653055652976036,0.0024590431712567806,0.007235133089125156,0.17083443701267242,-0.4366872310638428,-0.883243978023529,0.0029936879873275757,-0.0017893314361572266,0.005985617637634277,0.9703718420408587,0.22507882031028834,0.08784957928075326,-0.0007573321870813328
1681264975611934200,2.567934326171875,0.018478313460946083,0.0020346539095044136,0.010013875551521778,0.17084072530269623,-0.4368644058704376,-0.883155107498169,0.003506198525428772,-0.003778904676437378,0.006293535232543945,0.9703489582276509,0.22517218302872252,0.08786315704978409,-0.000721411306019317
1681264975621977000,2.57797705078125,0.017691083252429962,0.0026599639095366,0.009471123106777668,0.1708458662033081,-0.43703919649124146,-0.8830676078796387,0.0022040605545043945,-0.002276599407196045,0.006679058074951172,0.9703264013636311,0.22526432712690536,0.08787587725777217,-0.0006865084834899244
1681264975632021200,2.588021240234375,0.01464925892651081,0.0024112544488161802,0.007058831863105297,0.17085333168506622,-0.43720218539237976,-0.882985532283783,-0.000839918851852417,0.00031256675720214844,0.007070004940032959,0.9703052923060251,0.22535018807113547,0.08788935432190009,-0.0006530247861303551
1681264975642064100,2.598064208984375,0.008470458909869194,0.0030613320413976908,0.004705662839114666,0.17085914313793182,-0.4373273551464081,-0.882922351360321,-0.0010440945625305176,-0.00043198466300964355,0.00604557991027832,0.9702889982532515,0.22541639327280222,0.08789915572770228,-0.000629884033566348
1681264975652107300,2.608107177734375,0.005541590042412281,0.0036896602250635624,0.004772774875164032,0.1708945631980896,-0.43739455938339233,-0.8828822374343872,-0.0008963942527770996,-0.003630220890045166,0.008370518684387207,0.9702788063420235,0.22545179036660504,0.08792246538178657,-0.0006119987328810716
1681264975662151200,2.618151123046875,0.0067394794896245,0.00405131746083498,0.0035820752382278442,0.1709289699792862,-0.43746766448020935,-0.8828393816947937,-0.002624526619911194,-0.004091173410415649,0.011715114116668701,0.9702677474777275,0.22548998104393989,0.08794645816447068,-0.0005892681567499678
1681264975672194300,2.6281943359375,-0.000031721312552690506,0.007943378761410713,0.00044780096504837275,0.17097660899162292,-0.43752047419548035,-0.8828039765357971,-0.003007858991622925,-0.0008187592029571533,0.01134401559829712,0.9702586289442723,0.22551734981842636,0.08797689108310934,-0.00056744612033998
1681264975682238200,2.63823828125,-0.00579080730676651,0.010358067229390144,0.004154655151069164,0.17105768620967865,-0.43751466274261475,-0.8827911615371704,-0.00426386296749115,-0.001312851905822754,0.01012575626373291,0.9702553650621185,0.22551313053975663,0.0880241207307765,-0.0005452703575505168
1681264975692281300,2.64828125,-0.0041074613109230995,0.013541048392653465,0.004855598788708448,0.17114973068237305,-0.43749213218688965,-0.8827844858169556,-0.004600062966346741,-0.0037157535552978516,0.009951233863830566,0.9702536670096352,0.22549863930205136,0.08808019640356589,-0.0005088079922521305
1681264975702325000,2.658324951171875,0.00024307891726493835,0.014675289392471313,0.005340294446796179,0.1712598204612732,-0.43750524520874023,-0.8827565908432007,-0.003703072667121887,-0.003580540418624878,0.007512450218200684,0.9702464314261945,0.22550378209701755,0.08814612030359646,-0.00047207350789858055
1681264975712368000,2.6683681640625,0.002420022850856185,0.015807902440428734,0.010043436661362648,0.1713688224554062,-0.43753743171691895,-0.8827195167541504,-0.005643114447593689,-0.0007407963275909424,0.004271030426025391,0.9702369360612177,0.22551762721160656,0.08821585044517669,-0.0004174182337416364
1681264975722411300,2.678411376953125,0.00941375084221363,0.012537806294858456,0.009438899345695972,0.1714555323123932,-0.43762341141700745,-0.8826600313186646,-0.0048600733280181885,0.0026716291904449463,0.0004884004592895508,0.9702216038541415,0.22556036039768407,0.08827512701486928,-0.00036056050390540764
1681264975732455200,2.688455078125,0.018751515075564384,0.009023528546094894,0.007960578426718712,0.17151647806167603,-0.4377627372741699,-0.8825790882110596,-0.0022507309913635254,0.0034365952014923096,-0.0022017955780029297,0.9702007664663628,0.2256328067456942,0.08831919918022556,-0.0003141728474486519
1681264975742498000,2.698498046875,0.02559530735015869,0.004627182148396969,0.005833245348185301,0.17152227461338043,-0.43799883127212524,-0.8824608325958252,0.0006884187459945679,0.004283010959625244,-0.0021674633026123047,0.9701703330162458,0.22575803247873613,0.08833391366641669,-0.0002755037932320841
1681264975752542200,2.708542236328125,0.03290598839521408,-0.00015458278357982635,0.004138409625738859,0.17150014638900757,-0.43829476833343506,-0.8823181986808777,0.0022364258766174316,0.007996916770935059,-0.0035002827644348145,0.9701335452174503,0.22591766830538673,0.08832951718179803,-0.00025958750247951316
1681264975762585000,2.718585205078125,0.03505409508943558,-0.00434400187805295,0.002340775914490223,0.1714470386505127,-0.4386080503463745,-0.8821728229522705,0.0021216869354248047,0.009546160697937012,-0.002058744430541992,0.9700960653379243,0.22608777837056046,0.08830572858887659,-0.0002586421002496196
1681264975772629200,2.728629150390625,0.0336853452026844,-0.006194809917360544,0.00035459036007523537,0.17136937379837036,-0.43893420696258545,-0.8820256590843201,0.003435298800468445,0.008712679147720337,0.0012426376342773438,0.9700580958992657,0.22626647311065995,0.08826464007490678,-0.0002777927561239374
1681264975782672100,2.738672119140625,0.030674908310174942,-0.009736815467476845,-0.0034052603878080845,0.17129209637641907,-0.43923816084861755,-0.8818893432617188,0.0007049739360809326,0.006498932838439941,0.00153350830078125,0.9700229985126323,0.22643429208363824,0.0882203403994263,-0.0003104010339018694
1681264975792715000,2.748715087890625,0.023970741778612137,-0.012041306123137474,-0.006215694360435009,0.17120261490345,-0.43947634100914,-0.8817880749702454,0.00010780990123748779,0.004021018743515015,0.0022104382514953613,0.9699968685494202,0.22656711172136498,0.08816635238432416,-0.00035407251314456035
1681264975802759200,2.75875927734375,0.01487364899367094,-0.01003354787826538,-0.004285168834030628,0.17111551761627197,-0.43963488936424255,-0.8817259669303894,-0.0004154592752456665,-0.0001386404037475586,0.0037657618522644043,0.9699808521633055,0.22665713726493705,0.08811111157616944,-0.0004044366039877473
1681264975812802000,2.768802001953125,0.010591857135295868,-0.007121767848730087,-0.006796529516577721,0.17106127738952637,-0.4397212266921997,-0.881693422794342,-0.00043748319149017334,-0.0017002522945404053,0.006159365177154541,0.9699724231597199,0.2267070581180402,0.08807499027213474,-0.0004425246129573273
1681264975822846200,2.77884619140625,0.0052263857796788216,-0.002646857872605324,-0.00426892377436161,0.1710594743490219,-0.4397597312927246,-0.8816745281219482,-0.0018395185470581055,-0.0005325973033905029,0.009222805500030518,0.969967515703738,0.22673149165036557,0.08806561831049753,-0.0004805050077729645
1681264975832889000,2.78888916015625,0.0006156172603368759,0.0028259085956960917,-0.00546601414680481,0.17108795046806335,-0.43976229429244995,-0.8816677927970886,-0.0054232776165008545,-0.00005704164505004883,0.008575141429901123,0.9699658740556272,0.22673597320604774,0.0880733017834865,-0.0005110725751043742
1681264975842932200,2.79893212890625,0.0019410725217312574,0.0059101153165102005,-0.005946714896708727,0.17116723954677582,-0.4397245943546295,-0.8816711902618408,-0.005349978804588318,-0.0003236234188079834,0.00998234748840332,0.9699667603892173,0.22671924392534545,0.08810668074406887,-0.0005428348298699441
1681264975852976000,2.80897607421875,0.0010647403541952372,0.01360410638153553,-0.0032148445025086403,0.17129065096378326,-0.4397248327732086,-0.8816471099853516,-0.004039064049720764,-0.00035390257835388184,0.010705947875976562,0.9699605563576186,0.22672246359097123,0.08816669970602717,-0.0005606259221264685
1681264975863019300,2.819019287109375,0.010330943390727043,0.020484115928411484,-0.004432974383234978,0.17147359251976013,-0.43974176049232483,-0.8816030621528625,-0.0066024065017700195,0.0016466975212097168,0.009975314140319824,0.9699491083513433,0.22673498858446378,0.08825928653198277,-0.0005723918479124952
1681264975873063200,2.829063232421875,0.0014255603309720755,0.02382061257958412,-0.006764571648091078,0.17170773446559906,-0.4397768974304199,-0.8815400004386902,-0.006683945655822754,0.0021854043006896973,0.009210288524627686,0.9699328179455748,0.22675880780618685,0.08837677043335669,-0.0005924340896430611
1681264975883106300,2.839106201171875,0.0015424732118844986,0.024370554834604263,-0.008395492099225521,0.1719619333744049,-0.4397955536842346,-0.8814811110496521,-0.008357197046279907,0.002448141574859619,0.0086173415184021,0.9699176185849695,0.22677293343690896,0.08850693655536676,-0.0006020514246534213
1681264975893150200,2.849150146484375,0.0011310148984193802,0.02687644213438034,-0.00940642785280943,0.17223471403121948,-0.4398023188114166,-0.8814244866371155,-0.004845798015594482,0.003049999475479126,0.009140551090240479,0.9699031054133183,0.22678051113108535,0.08864732668044878,-0.0006087023582564325
1681264975903193300,2.859193359375,0.004687133710831404,0.024747511371970177,-0.010621894150972366,0.17251676321029663,-0.4398191273212433,-0.8813609480857849,-0.003159463405609131,0.002776890993118286,0.008344590663909912,0.9698867178795663,0.2267952173316884,0.08878878293034739,-0.000631950604677127
1681264975913237000,2.869237060546875,0.0069903116673231125,0.024393517524003983,-0.01554687786847353,0.1727754920721054,-0.4398532807826996,-0.8812932372093201,-0.0005037784576416016,0.0029484033584594727,0.005942285060882568,0.9698691640139578,0.22681978435238212,0.08891667977545059,-0.0006622038182732867
1681264975923280100,2.879280029296875,0.003270674729719758,0.023582052439451218,-0.014967108145356178,0.17303495109081268,-0.43988192081451416,-0.8812280297279358,-0.0000613182783126831,0.00592195987701416,0.006289064884185791,0.9698523763925926,0.22684245620174892,0.08904205495200303,-0.0007045631785221971
1681264975933323300,2.8893232421875,-0.003238737815991044,0.0183793306350708,-0.015682432800531387,0.1732671856880188,-0.43989282846450806,-0.8811769485473633,0.0009424090385437012,0.0030947327613830566,0.005398750305175781,0.9698391398343575,0.2268559548476231,0.0891510334401438,-0.0007556823499383813
1681264975943367200,2.8993671875,-0.007442004978656769,0.015461305156350136,-0.01737993210554123,0.17346122860908508,-0.4398382604122162,-0.8811659812927246,0.002396315336227417,0.0021093785762786865,0.004197597503662109,0.9698362888212374,0.22683359059980004,0.08923855007001827,-0.0008104220067388607
1681264975953410000,2.90941015625,-0.00888243317604065,0.014825282618403435,-0.014341264963150024,0.1736311912536621,-0.43974387645721436,-0.8811796307563782,0.005781650543212891,0.0005959272384643555,0.003051578998565674,0.9698397686411634,0.22678936902869837,0.08931270790900171,-0.0008668051265132208
1681264975963454200,2.9194541015625,-0.009952491149306297,0.01080124732106924,-0.013535658828914165,0.17377540469169617,-0.4396395981311798,-0.8812032341957092,0.003043457865715027,-0.0026974081993103027,0.0042501091957092285,0.969845800778757,0.2267384087580568,0.08937603052855796,-0.0009117696398707958
1681264975973497000,2.9294970703125,-0.013853679411113262,0.014550800435245037,-0.010412037372589111,0.17392675578594208,-0.43951940536499023,-0.8812333345413208,0.00005395710468292236,-0.004328280687332153,0.005653500556945801,0.9698535336535444,0.2266783778088619,0.08944405562587461,-0.0009517728638270025
1681264975983541200,2.939541259765625,-0.01131195854395628,0.013768097385764122,-0.009323869831860065,0.17408335208892822,-0.43939653038978577,-0.8812636733055115,-0.0018879324197769165,-0.006205856800079346,0.00476837158203125,0.9698612866049421,0.22661547378637292,0.08951861547451684,-0.0009753667167749524
1681264975993584000,2.949584228515625,-0.006443433463573456,0.01492870319634676,-0.007806666661053896,0.1742364466190338,-0.4392998218536377,-0.8812816739082336,-0.002178370952606201,-0.005020827054977417,0.006190121173858643,0.9698659240639496,0.22656629240368667,0.08959292357497971,-0.0009935384377564474
1681264976003627000,2.959626953125,-0.002324056113138795,0.016634192317724228,-0.0047200629487633705,0.17440831661224365,-0.43925005197525024,-0.8812724351882935,-0.0014804601669311523,-0.0015458166599273682,0.004990696907043457,0.9698635504072544,0.22654215731703153,0.08967956210456914,-0.0010029964662997533
1681264976013671200,2.969671142578125,0.000374258728697896,0.019384704530239105,-0.0023309411481022835,0.1745890974998474,-0.43925192952156067,-0.8812357187271118,-0.003187119960784912,-0.0021696090698242188,0.004511475563049316,0.9698540950023375,0.22654552116326027,0.08977337313154599,-0.0010041039083867982
1681264976023714000,2.979714111328125,-0.00016822724137455225,0.01976606994867325,-0.0033900802955031395,0.1747790277004242,-0.4392545223236084,-0.8811967968940735,-0.0022631585597991943,-0.0025942623615264893,0.004091084003448486,0.969844103767465,0.2265490278175731,0.0898728821415867,-0.001001246361156155
1681264976033758200,2.98975830078125,0.0038898976054042578,0.017081867903470993,-0.0025783488526940346,0.174968883395195,-0.43928590416908264,-0.8811435103416443,0.0005987584590911865,-0.0027459561824798584,0.004205584526062012,0.969830393767,0.22656850547846133,0.08997204892555795,-0.0010010695375917195
1681264976043801000,2.999801025390625,0.004231618717312813,0.017695993185043335,-0.0007295825053006411,0.1751556396484375,-0.43933331966400146,-0.8810827136039734,0.0014190673828125,-0.0015693902969360352,0.0036107897758483887,0.9698146925574949,0.22659604096723046,0.09007146355650421,-0.0009937902231803878
1681264976053845200,3.00984521484375,0.008570251055061817,0.014733226969838142,0.001445687492378056,0.1752871870994568,-0.43942221999168396,-0.8810122013092041,0.002615019679069519,0.00147971510887146,0.005096733570098877,0.9697964885628053,0.2266444212513657,0.09014540250150259,-0.0009746428577293876
1681264976063888100,3.01988818359375,0.00795293040573597,0.012724138796329498,0.001157000777311623,0.17539477348327637,-0.439506471157074,-0.8809487819671631,0.001820787787437439,0.002769380807876587,0.004468679428100586,0.9697801228057945,0.2266896302586816,0.09020766765760144,-0.0009519005865315447
1681264976073931300,3.02993115234375,0.0070078507997095585,0.015012385323643684,0.0025117509067058563,0.17549556493759155,-0.4395882785320282,-0.8808878660202026,0.0020556896924972534,0.00034877657890319824,0.006559252738952637,0.9697644125538689,0.22673325439730024,0.0902668277866702,-0.0009272047279297188
1681264976083975200,3.03997509765625,0.009320540353655815,0.012444565072655678,-0.0008560826536267996,0.17560537159442902,-0.4396625757217407,-0.8808289170265198,0.0016864985227584839,0.00019419193267822266,0.006576597690582275,0.9697492769943717,0.22677310776010726,0.09032995587140966,-0.0009051910848597907
1681264976094018300,3.050018310546875,0.005590364336967468,0.013825621455907822,0.00003341317642480135,0.17571675777435303,-0.4397490918636322,-0.8807635307312012,0.0038791894912719727,0.0017760694026947021,0.0054430365562438965,0.9697323912328534,0.22682101332867433,0.09039068580327107,-0.0008976448087487212
1681264976104062200,3.060062255859375,0.007917966693639755,0.011624785140156746,-0.002963708247989416,0.17582565546035767,-0.43981656432151794,-0.8807080984115601,0.001771390438079834,0.0018588006496429443,0.0030683279037475586,0.9697181298058792,0.22685848204877357,0.090449898242403,-0.0008900811366245383
1681264976114105300,3.070105224609375,0.00552956759929657,0.009297538548707962,-0.003335219342261553,0.1759248673915863,-0.43988171219825745,-0.8806557059288025,0.0005430132150650024,0.003190457820892334,0.004847049713134766,0.9697046484566721,0.22689584995457818,0.09050086215829399,-0.00089613532847079
1681264976124149000,3.08014892578125,0.004517832770943642,0.007226929999887943,-0.002711240667849779,0.1760161817073822,-0.4399338960647583,-0.8806114196777344,0.0014587938785552979,0.002235502004623413,0.001903533935546875,0.9696932371405033,0.22692607809501295,0.0905474358064421,-0.0009027535147357039
1681264976134192000,3.090192138671875,0.003731096861883998,0.0073098428547382355,-0.0045243208296597,0.17610310018062592,-0.4399816393852234,-0.8805702328681946,0.0015702396631240845,0.0025121569633483887,0.0025031566619873047,0.9696826280673049,0.22695430635979022,0.0905904921223656,-0.0009143845944316637
1681264976144235000,3.100235107421875,0.005593445152044296,0.004849614575505257,-0.003210316877812147,0.17617227137088776,-0.4400123655796051,-0.8805410265922546,0.0010585635900497437,0.00016254186630249023,0.004930615425109863,0.9696750798018507,0.22697335550785458,0.0906233536565312,-0.0009293061688468575
1681264976154279200,3.110279052734375,0.005138806067407131,0.00504571245983243,-0.0037413514219224453,0.17623871564865112,-0.4400670528411865,-0.8805003762245178,-0.001083076000213623,-0.002025812864303589,0.005683481693267822,0.9696646225284072,0.22700556741383365,0.09065470577048565,-0.0009457683116748626
1681264976164322000,3.120322021484375,0.008968165144324303,0.006170099135488272,-0.000779916241299361,0.17630425095558167,-0.4401337802410126,-0.880453884601593,-0.002079412341117859,-0.0006773769855499268,0.007056057453155518,0.9696525796515391,0.22704391555012976,0.09068684845736492,-0.0009574863980396367
1681264976174366200,3.1303662109375,0.007025693543255329,0.009400542825460434,-0.0006773845525458455,0.17639558017253876,-0.44021105766296387,-0.8803969621658325,-0.0024759024381637573,-0.0008747279644012451,0.0074263811111450195,0.9696378812324808,0.22708753661373293,0.09073458915214258,-0.0009604103081485524
1681264976184409000,3.1404091796875,0.00955356564372778,0.010412810370326042,-0.00017990602646023035,0.1764857918024063,-0.4402830898761749,-0.8803429007530212,-0.003725782036781311,-0.0015198886394500732,0.00696033239364624,0.9696239001229603,0.22712770692747128,0.09078308288768293,-0.0009573722517443458
1681264976194453200,3.150453369140625,0.0031431091483682394,0.015061534941196442,-0.00042891164775937796,0.17660246789455414,-0.44033798575401306,-0.8802920579910278,-0.005017369985580444,-0.0025178492069244385,0.007565557956695557,0.96961088420641,0.22715807530706694,0.09084707973786721,-0.0009460950881899309
1681264976204497000,3.160496826171875,0.003032588167116046,0.016635730862617493,0.0005093199433758855,0.1767463982105255,-0.44037100672721863,-0.880246639251709,-0.004093199968338013,-0.0026068687438964844,0.008130490779876709,0.9695991587253661,0.22717602079836047,0.0909271659781723,-0.0009256848735411726
1681264976214540800,3.170540771484375,0.0020802034996449947,0.024615447968244553,0.003139191772788763,0.17692770063877106,-0.44039568305015564,-0.8801978230476379,-0.003206387162208557,-0.0018803179264068604,0.00972968339920044,0.9695866171952013,0.2271888724953836,0.09102906040639158,-0.0008948124741546531
1681264976224584000,3.180583984375,-0.001137693994678557,0.02651854418218136,0.0010339628206565976,0.1771392822265625,-0.440402090549469,-0.8801521062850952,-0.004653960466384888,0.000033468008041381836,0.009302496910095215,0.9695748162985023,0.2271918841145821,0.09114716723466532,-0.0008611449014241043
1681264976234626800,3.190626708984375,-0.0009838013211265206,0.03006238304078579,0.004571706056594849,0.1773715764284134,-0.4404072165489197,-0.8801026940345764,-0.004443719983100891,0.0019459128379821777,0.008505403995513916,0.969562123614768,0.22719315863615358,0.09127928803036556,-0.0008136100985736939
1681264976244671000,3.2006708984375,0.0023446176201105118,0.03161420673131943,0.00005045742727816105,0.17763274908065796,-0.44042304158210754,-0.8800421357154846,-0.003652036190032959,0.001107245683670044,0.006735861301422119,0.9695465547373798,0.22720119823987525,0.09142508322004206,-0.0007724377326561812
1681264976254713900,3.2107138671875,0.005801781080663204,0.03403845429420471,-0.0009935017442330718,0.17792914807796478,-0.44045767188072205,-0.8799649477005005,-0.0038721412420272827,0.002377837896347046,0.0029507875442504883,0.969526686212012,0.22722016111804863,0.09158894395220969,-0.0007334365286562337
1681264976264757800,3.2207578125,0.013421084731817245,0.027744069695472717,-0.0017754058353602886,0.17819105088710785,-0.44055506587028503,-0.8798631429672241,-0.004973277449607849,0.005404949188232422,0.0031542181968688965,0.9695004871807921,0.22727410166078962,0.09173274476894144,-0.0007065594074682047
1681264976274801000,3.23080078125,0.01754011958837509,0.02676485665142536,-0.004253210965543985,0.17842844128608704,-0.440704882144928,-0.8797399997711182,-0.0024640709161758423,0.008072435855865479,0.002039194107055664,0.9694686976986377,0.2273570659287483,0.09186269633420335,-0.0006870619571770256
1681264976284844800,3.2408447265625,0.019246675074100494,0.019563935697078705,-0.007582162041217089,0.1786535084247589,-0.4408773183822632,-0.8796079158782959,-0.00018671154975891113,0.007832914590835571,0.00042700767517089844,0.9694346096241652,0.22745495147143066,0.0919797998483938,-0.0006961964933518419
1681264976294887700,3.2508876953125,0.017803240567445755,0.013732973486185074,-0.005671610590070486,0.17882797122001648,-0.4410485327243805,-0.8794866800308228,0.0034535080194473267,0.006829202175140381,-0.0012049078941345215,0.9694034187579974,0.22755270859763543,0.09206756831163083,-0.000717958292021504
1681264976304931800,3.260931884765625,0.01999235898256302,0.0010627182200551033,-0.011857334524393082,0.17892694473266602,-0.4411992132663727,-0.8793909549713135,0.0056738704442977905,0.004813104867935181,-0.00015616416931152344,0.9693786918307402,0.22764086283309792,0.09210950235259886,-0.0007664950169840618
1681264976314974700,3.270974609375,0.013759724795818329,-0.0071698520332574844,-0.009284721687436104,0.17892274260520935,-0.44132301211357117,-0.8793296813964844,0.00784483551979065,-0.0007851719856262207,0.001445770263671875,0.9693628094915504,0.22771392659817102,0.09209522081245712,-0.0008242444926117142
1681264976325017600,3.281017578125,0.013059313409030437,-0.013803519308567047,-0.005101427901536226,0.17885029315948486,-0.4414464831352234,-0.8792824149131775,0.010251879692077637,-0.0027521252632141113,0.0005134940147399902,0.9693505987640973,0.22778581667980377,0.0920456428732607,-0.0008808697010231549
1681264976335061800,3.291061767578125,0.018848035484552383,-0.022510873153805733,-0.0033733025193214417,0.17869845032691956,-0.4415803551673889,-0.8792460560798645,0.012234777212142944,-0.0034421980381011963,0.000812828540802002,0.9693411462327979,0.22786215527372933,0.09195541767747348,-0.0009350273386732965
1681264976345104600,3.301104736328125,0.023078734055161476,-0.02743079699575901,0.0022496958263218403,0.17848138511180878,-0.441754549741745,-0.879202663898468,0.009842589497566223,-0.003557950258255005,0.0011966824531555176,0.9693298864248309,0.2279576799994771,0.09183663636651443,-0.0009681378975164594
1681264976355148800,3.311148681640625,0.024894097819924355,-0.027957836166024208,0.00632619671523571,0.1782197803258896,-0.4419439435005188,-0.8791605830192566,0.009173408150672913,-0.005672633647918701,0.0007578134536743164,0.9693190597154445,0.22805918177521403,0.0916991209731141,-0.0009830160502169423
1681264976365191700,3.321191650390625,0.025670409202575684,-0.027769019827246666,0.008867118507623672,0.1779419481754303,-0.44216468930244446,-0.879105806350708,0.008154243230819702,-0.005650222301483154,0.002595186233520508,0.9693049142169032,0.22817683874769806,0.09155553310226555,-0.0009893408226108653
1681264976375235800,3.33123583984375,0.031079744920134544,-0.027498649433255196,0.012563319876790047,0.17766393721103668,-0.44242721796035767,-0.8790299892425537,0.007455691695213318,-0.006532132625579834,0.003190755844116211,0.969285369250295,0.2283166647796378,0.09141394213726252,-0.000988867955112895
1681264976385278700,3.34127880859375,0.03455809876322746,-0.029305605217814445,0.015583877451717854,0.17738017439842224,-0.44272124767303467,-0.8789392709732056,0.004123106598854065,-0.007168889045715332,0.0022913217544555664,0.9692620064546029,0.2284725509547696,0.09127249075598323,-0.0009766306865073
1681264976395321900,3.35132177734375,0.042091839015483856,-0.02810182422399521,0.014168939553201199,0.1770927459001541,-0.4430909752845764,-0.8788108825683594,0.004318982362747192,-0.005792081356048584,0.003459930419921875,0.9692289436822992,0.2286691667857259,0.0911315645873297,-0.0009578270100881946
1681264976405365800,3.36136572265625,0.04113389924168587,-0.028735656291246414,0.015249649994075298,0.1768135130405426,-0.44346725940704346,-0.8786773085594177,0.0038810670375823975,-0.006575465202331543,0.0029448866844177246,0.9691944468516765,0.22886916223556875,0.09099590291048912,-0.0009351820753887228
1681264976415409000,3.371408935546875,0.04104262962937355,-0.03221829980611801,0.021517399698495865,0.17649994790554047,-0.4438706636428833,-0.8785366415977478,0.004713431000709534,-0.004524111747741699,0.0023311972618103027,0.96915819224148,0.22908256787868989,0.09084524748677891,-0.000901666270756789
1681264976425452800,3.381452880859375,0.037458013743162155,-0.03220897912979126,0.022776275873184204,0.17615683376789093,-0.44425472617149353,-0.8784114122390747,0.00508706271648407,-0.00482669472694397,0.004372656345367432,0.9691259763922205,0.22928398323419666,0.09068165738212339,-0.0008568756579650573
1681264976435496000,3.391495849609375,0.03146666660904884,-0.03392677754163742,0.024107856675982475,0.17578251659870148,-0.4446134865283966,-0.8783048391342163,0.003904983401298523,-0.0032167136669158936,0.004357695579528809,0.9690985390913052,0.22946992664276306,0.09050486537574251,-0.000798042990149902
1681264976445539800,3.401539794921875,0.028106819838285446,-0.03222315385937691,0.02744239941239357,0.17539547383785248,-0.44492074847221375,-0.8782265782356262,0.002598285675048828,-0.005732297897338867,0.005393385887145996,0.9690783416362172,0.22962643302892743,0.09032385173979611,-0.0007265957350837695
1681264976455583000,3.4115830078125,0.02519526146352291,-0.03106352686882019,0.029659481719136238,0.17502325773239136,-0.445208877325058,-0.8781548738479614,0.000010311603546142578,-0.003948837518692017,0.005352139472961426,0.9690599282401543,0.22977141293373407,0.09015357818134513,-0.0006415318948927476
1681264976465626600,3.421626708984375,0.023585647344589233,-0.026861056685447693,0.02799340710043907,0.17465965449810028,-0.4454745948314667,-0.8780924677848816,-0.0036849379539489746,0.0006503760814666748,0.005152404308319092,0.9690438976108302,0.2299037725646656,0.08998894203188453,-0.0005506459924632359
1681264976475669800,3.431669677734375,0.03198107331991196,-0.02446507103741169,0.028604868799448013,0.17433081567287445,-0.4457717835903168,-0.8780069947242737,-0.006316289305686951,0.0016342103481292725,0.005280554294586182,0.9690218736161947,0.23005338013017781,0.08984396877520488,-0.00045485081834944883
1681264976485712600,3.441712646484375,0.04048561304807663,-0.019014911726117134,0.026434127241373062,0.17403049767017365,-0.4461453855037689,-0.8778768181800842,-0.008014872670173645,0.006722778081893921,0.0053182244300842285,0.9689883433626736,0.23024591258599345,0.08971293105550411,-0.00036683936777183874
1681264976495756800,3.4517568359375,0.046715885400772095,-0.01612464338541031,0.019759979099035263,0.17379318177700043,-0.44659027457237244,-0.8776975870132446,-0.008616790175437927,0.011363834142684937,0.002651810646057129,0.968942108874029,0.23047903432505482,0.08961370723578484,-0.0002867877866203632
1681264976505799700,3.461799560546875,0.04558617249131203,-0.009745307266712189,0.013867469504475594,0.17363539338111877,-0.4470389485359192,-0.8775004148483276,-0.009847551584243774,0.01303321123123169,0.0037668943405151367,0.9688912536043667,0.23071824759438203,0.08954824438126296,-0.00023919069185103018
1681264976515843800,3.47184375,0.0423298142850399,-0.007296263240277767,0.005892367567867041,0.17355366051197052,-0.44745969772338867,-0.8773021101951599,-0.00981159508228302,0.012874126434326172,0.004133164882659912,0.9688401125106655,0.2309458588490111,0.08951514048961237,-0.00022071144076134496
1681264976525886700,3.48188671875,0.04235990718007088,-0.0006695198826491833,-0.004546424839645624,0.17352455854415894,-0.4478519558906555,-0.8771076798439026,-0.01016397774219513,0.013113796710968018,0.007707655429840088,0.9687899709134521,0.23116204557241185,0.0895000785050661,-0.00024010083433172806
1681264976535931000,3.491930908203125,0.030579794198274612,0.0017125294543802738,-0.007464716676622629,0.17355571687221527,-0.44817301630973816,-0.8769375085830688,-0.009172782301902771,0.01352640986442566,0.010223031044006348,0.9687460227246095,0.23134241555294935,0.08950936554319677,-0.00028535316251695347
1681264976545973800,3.501973876953125,0.02057776041328907,0.0044545200653374195,-0.016091495752334595,0.17363609373569489,-0.44836118817329407,-0.8768253922462463,-0.007071137428283691,0.011151105165481567,0.012384474277496338,0.968717063288094,0.2314525936306896,0.08953767730648128,-0.0003515599471642954
1681264976556018000,3.512017822265625,0.0048696743324398994,0.009482065215706825,-0.019392216578125954,0.1737736314535141,-0.4484216272830963,-0.8767672777175903,-0.005820140242576599,0.0069848597049713135,0.013943791389465332,0.9687020419988894,0.23149556044720562,0.08958891883803848,-0.00043993790444374635
1681264976566060800,3.522060791015625,-0.010694637894630432,0.014611047692596912,-0.024571798741817474,0.1739625781774521,-0.44834646582603455,-0.876768171787262,-0.005017280578613281,0.005246520042419434,0.013990521430969238,0.9687021404856113,0.2314650416401727,0.08966512136199607,-0.000529198804237525
1681264976576103700,3.532103759765625,-0.012952731922268867,0.01614372618496418,-0.027451209723949432,0.17419768869876862,-0.4481704533100128,-0.8768115043640137,-0.005877986550331116,0.0018966495990753174,0.015956401824951172,0.9687132518784966,0.23138082954469263,0.08976167500492063,-0.000628928923550546
1681264976586147800,3.54214794921875,-0.011156429536640644,0.01709607243537903,-0.029637664556503296,0.17444975674152374,-0.4479801654815674,-0.876858651638031,-0.0043905675411224365,0.0025761425495147705,0.013226449489593506,0.9687253476740477,0.23129004878142254,0.08986432376310641,-0.0007394692126072225
1681264976596190700,3.552190673828125,-0.01760702393949032,0.020316071808338165,-0.02912287414073944,0.17471842467784882,-0.44777852296829224,-0.8769081234931946,-0.003987818956375122,0.003900378942489624,0.00788956880569458,0.9687379884934247,0.23119365618630247,0.08997463380457839,-0.0008536710193601894
1681264976606235000,3.56223486328125,-0.012288158759474754,0.021448180079460144,-0.025103099644184113,0.17499180138111115,-0.44757190346717834,-0.8769590854644775,-0.000889018177986145,0.0013591647148132324,0.006506204605102539,0.9687510961153074,0.2310939028587385,0.09008916026937214,-0.0009603379305485519
1681264976616277800,3.57227783203125,-0.01332606840878725,0.02127593383193016,-0.022771501913666725,0.1752696931362152,-0.4473930597305298,-0.8769948482513428,-0.00040397047996520996,-0.002695441246032715,0.0067708492279052734,0.9687602461643293,0.2310076960919441,0.09021090922796628,-0.0010480430978666352
1681264976626322000,3.582322021484375,-0.01636979542672634,0.022940676659345627,-0.017420146614313126,0.17553751170635223,-0.44722050428390503,-0.877029299736023,-0.00096169114112854,-0.005812942981719971,0.006149172782897949,0.968769002758745,0.23092276233699516,0.09033285069427209,-0.0011133053979049796
1681264976636364800,3.59236474609375,-0.016876671463251114,0.020904215052723885,-0.014237934723496437,0.1757819801568985,-0.44705602526664734,-0.8770641684532166,0.0023185908794403076,-0.0066945552825927734,0.008503437042236328,0.9687779465279404,0.23084029161888478,0.09044702501438734,-0.001160579414104843
1681264976646408700,3.60240869140625,-0.014040404930710793,0.02208505943417549,-0.008500686846673489,0.17599701881408691,-0.44691240787506104,-0.8770942687988281,0.001432180404663086,-0.008135199546813965,0.008304595947265625,0.9687856817974586,0.23076707306199903,0.09055067723965697,-0.0011886935825994492
1681264976656451600,3.61245166015625,-0.01598588190972805,0.0200189221650362,-0.004015390761196613,0.17619186639785767,-0.4467862844467163,-0.8771194219589233,0.000474393367767334,-0.010214447975158691,0.00706326961517334,0.968792236316519,0.2307005565267433,0.09065066776773349,-0.0011888586155871456
1681264976666494700,3.62249462890625,-0.010712024755775928,0.016924327239394188,-0.0022241484839469194,0.1763584166765213,-0.4466806948184967,-0.8771397471427917,0.00027732551097869873,-0.011174499988555908,0.005771279335021973,0.9687975266956405,0.23064441895070867,0.0907374708018682,-0.001183510387816012
1681264976676538600,3.63253857421875,-0.011239444836974144,0.017572836950421333,0.0027927146293222904,0.17649628221988678,-0.44658714532852173,-0.877159595489502,0.00229094922542572,-0.009147077798843384,0.0048146843910217285,0.9688026122228078,0.23059238031667764,0.090814899243253,-0.0011553988939206432
1681264976686581800,3.642581787109375,-0.005900871474295855,0.017637018114328384,0.00316475797444582,0.17663191258907318,-0.4465279281139374,-0.8771624565124512,-0.000316619873046875,-0.008748531341552734,0.004146099090576172,0.9688033683463622,0.23055828549808044,0.09089362520310867,-0.0011186307261374354
1681264976696625700,3.652625732421875,0.00046705082058906555,0.019097911193966866,0.004752534907311201,0.17676587402820587,-0.44651713967323303,-0.8771409392356873,-0.0013508498668670654,-0.00737076997756958,0.004109382629394531,0.9687978830084502,0.23054985449125465,0.09097406329707475,-0.0010733324438567298
1681264976706668800,3.662668701171875,0.008328435942530632,0.016587883234024048,0.005318989045917988,0.17688332498073578,-0.4465976655483246,-0.877076268196106,-0.0021091699600219727,-0.003765493631362915,0.004609227180480957,0.9687812129444151,0.23059130847223266,0.09104672127957059,-0.0010291413883136203
1681264976716712700,3.672712646484375,0.010362710803747177,0.014013019390404224,0.007682544179260731,0.17699415981769562,-0.4467155635356903,-0.8769938945770264,-0.0030592232942581177,0.0006859004497528076,0.003123044967651367,0.9687600239297539,0.23065252971572955,0.09111787846624439,-0.0009786135641340467
1681264976726755800,3.682755859375,0.009951252490282059,0.011958656832575798,0.00590195506811142,0.17709045112133026,-0.446845680475235,-0.8769081234931946,-0.001980602741241455,0.004981696605682373,-0.00016701221466064453,0.9687379322324472,0.23072102600324,0.09117968410146254,-0.0009362298390500624
1681264976736799700,3.6927998046875,0.003690426703542471,0.008283228613436222,0.005986110772937536,0.17715920507907867,-0.44695502519607544,-0.8768385648727417,0.0009718984365463257,0.0070593953132629395,0.00009906291961669922,0.9687200107355602,0.23077797343278839,0.09122639493027555,-0.0008959477624980309
1681264976746843000,3.7028427734375,-0.006688710767775774,0.005972137209028006,0.005862007383257151,0.1772005558013916,-0.44700193405151367,-0.8768062591552734,0.0036771148443222046,0.005122661590576172,0.0001583099365234375,0.9687117027041817,0.2308007339900892,0.09125726561811691,-0.0008591826502838553
1681264976756885800,3.7128857421875,-0.011553583666682243,0.007142005022615194,0.002106151543557644,0.17725032567977905,-0.4469504654407501,-0.8768224716186523,0.005321085453033447,0.003835231065750122,0.0006322860717773438,0.9687160303801243,0.230770654893036,0.09128893208542703,-0.0008324663190497377
1681264976766930000,3.722929931640625,-0.007211299147456884,0.004165922291576862,-0.0026049804873764515,0.17729802429676056,-0.44688358902931213,-0.8768469095230103,0.005212351679801941,0.004592329263687134,0.001373887062072754,0.9687223238284454,0.23073362605075765,0.09131559129996318,-0.0008215654330863537
1681264976776972800,3.732972900390625,-0.0012067839270457625,0.001806243322789669,-0.005406626034528017,0.1773243099451065,-0.44687163829803467,-0.8768476843833923,0.0034160465002059937,0.006472468376159668,0.000367581844329834,0.9687225246321665,0.23072902408580367,0.0913250929422261,-0.0008385573176369355
1681264976787017000,3.743016845703125,0.004612223245203495,-0.00196372764185071,-0.010785412043333054,0.1773584932088852,-0.44689151644706726,-0.8768306374549866,0.0033818483352661133,0.008582770824432373,-0.0029148459434509277,0.9687180875756624,0.23074375540661818,0.09133451574162227,-0.0008747890931421044
1681264976797059800,3.753059814453125,0.009703615680336952,0.0007501225918531418,-0.012126846238970757,0.1773839145898819,-0.44693058729171753,-0.8768056035041809,0.002807125449180603,0.01083439588546753,-0.002177000045776367,0.9687115651200677,0.23077075114223966,0.09133492034306011,-0.0009306474289198528
1681264976807104000,3.76310400390625,0.00836377963423729,-0.004926138557493687,-0.011282624676823616,0.17740370333194733,-0.4469669461250305,-0.8767830729484558,0.002497434616088867,0.008658230304718018,0.00034868717193603516,0.9687056512429238,0.2307968873298637,0.0913305729713744,-0.000993974474161389
1681264976817147000,3.77314697265625,0.0038408953696489334,-0.006956325378268957,-0.011324969120323658,0.17741303145885468,-0.44697728753089905,-0.876775860786438,0.0002297908067703247,0.0035416483879089355,0.0017301440238952637,0.9687036750246987,0.23080903147683213,0.09131955329024342,-0.001061173901955369
1681264976827190800,3.783190673828125,0.0012504386249929667,-0.009608302265405655,-0.00802691001445055,0.1773848682641983,-0.44695353507995605,-0.8767936825752258,-0.0016646534204483032,0.0004050731658935547,0.00536423921585083,0.968708225009058,0.23080134419096998,0.09129020125720043,-0.0011215996922758014
1681264976837233700,3.793233642578125,0.002316768281161785,-0.011593806557357311,-0.005475868005305529,0.17734001576900482,-0.4469303488731384,-0.8768145442008972,0.0009284019470214844,-0.0018458664417266846,0.008391141891479492,0.9687135518222295,0.23079245005307436,0.09125545927532729,-0.0011681938958843362
1681264976847277800,3.80327783203125,0.0033468790352344513,-0.01576937735080719,-0.005868151783943176,0.1772589534521103,-0.4469298720359802,-0.8768312335014343,-0.0010046660900115967,-0.004348814487457275,0.010315120220184326,0.9687178660741915,0.23079512600206975,0.09120305112992545,-0.0012108123937257134
1681264976857320700,3.81332080078125,0.0041401581838727,-0.017639536410570145,-0.0019684850703924894,0.17714989185333252,-0.4469431936740875,-0.8768464922904968,0.0008591562509536743,-0.007066816091537476,0.00901806354522705,0.9687217478012413,0.23080468006995036,0.0911370472248183,-0.001249992674946901
1681264976867363600,3.823363525390625,0.0032836857717484236,-0.016263214871287346,-0.0021383946295827627,0.17702382802963257,-0.4469660222530365,-0.8768603205680847,0.0033655762672424316,-0.007227063179016113,0.007902741432189941,0.9687252961345219,0.23081895344170592,0.09106295438216523,-0.0012863992853546786
1681264976877407700,3.83340771484375,0.0008618074934929609,-0.018116895109415054,0.0016768499044701457,0.17689299583435059,-0.4469705820083618,-0.8768843412399292,0.005617380142211914,-0.008382201194763184,0.0083540678024292,0.9687313742528143,0.23082253495280522,0.09098778410463695,-0.0013160677184766612
1681264976887450600,3.84345068359375,0.0019422518089413643,-0.017026595771312714,0.007699321955442429,0.17673049867153168,-0.44697707891464233,-0.876913845539093,0.007427826523780823,-0.009779512882232666,0.006689846515655518,0.9687390360647835,0.2308244088849322,0.09090201379485001,-0.0013210182178469284
1681264976897494800,3.853494873046875,-0.0017705750651657581,-0.013886699452996254,0.01077633909881115,0.17656449973583221,-0.4469876289367676,-0.8769419193267822,0.006128981709480286,-0.009829998016357422,0.005359828472137451,0.9687463118658654,0.23082561478833424,0.090821749867512,-0.0012954068068657214
1681264976907537700,3.86353759765625,-0.004723221994936466,-0.010769203305244446,0.014326333068311214,0.17639806866645813,-0.4469805955886841,-0.8769789338111877,0.004449084401130676,-0.01169857382774353,0.0060225725173950195,0.9687559315808366,0.23081474270516977,0.09074730817860933,-0.0012436041035616145
1681264976917581800,3.873581787109375,-0.0036073955707252026,-0.014224329963326454,0.019517632201313972,0.1762150675058365,-0.4469824731349945,-0.8770148158073425,0.0006190240383148193,-0.012123972177505493,0.005875289440155029,0.9687653280834954,0.2308060813177785,0.09067054840798847,-0.0011657075038773728
1681264976927624700,3.883624755859375,0.0020851113367825747,-0.01329035870730877,0.02576487511396408,0.17599591612815857,-0.44703295826911926,-0.8770330548286438,-0.0010386407375335693,-0.009952515363693237,0.005206882953643799,0.9687701431364438,0.2308217286962397,0.09058029839518195,-0.0010677904261627215
1681264976937668900,3.8936689453125,0.009221317246556282,-0.009616261348128319,0.02743467688560486,0.17579159140586853,-0.44715768098831177,-0.8770104646682739,-0.0019787251949310303,-0.005295932292938232,0.007854580879211426,0.9687644032721684,0.23087639053223052,0.09050334208107923,-0.0009501918172024109
1681264976947711700,3.903711669921875,0.01014649961143732,-0.010505491867661476,0.031276553869247437,0.17558199167251587,-0.4473099708557129,-0.8769747614860535,-0.00035005807876586914,0.00024271011352539062,0.006918609142303467,0.9687552738024914,0.23094517083395893,0.09042640527906308,-0.0008224406633069388
1681264976957755000,3.9137548828125,0.013702277094125748,-0.006812663748860359,0.028903143480420113,0.17539358139038086,-0.4474849998950958,-0.8769232034683228,-0.0015501976013183594,0.003042250871658325,0.004791855812072754,0.9687421062599738,0.2310264473863743,0.09036138899388786,-0.0006921632587404531
1681264976967798800,3.923798828125,0.015899650752544403,-0.003638175316154957,0.028684232383966446,0.17523875832557678,-0.4476867914199829,-0.8768511414527893,-0.0022193491458892822,0.00721132755279541,0.004674017429351807,0.9687235490653245,0.23112291376322747,0.09031404064936069,-0.0005626375497989301
1681264976977842000,3.933842041015625,0.018382325768470764,-0.004923890344798565,0.023210370913147926,0.17512695491313934,-0.44790515303611755,-0.8767619729042053,-0.0021838396787643433,0.009459108114242554,0.004157602787017822,0.9687006576211958,0.23123040699082423,0.09028571627505859,-0.00044823514175381047
1681264976987885800,3.9438857421875,0.013621924445033073,-0.0010314136743545532,0.01806194707751274,0.17502814531326294,-0.44812479615211487,-0.8766694664955139,0.0003105849027633667,0.010777413845062256,0.003149569034576416,0.9686767363336651,0.23134106277250352,0.09025844400453263,-0.0003579841710670162
1681264976997929000,3.953928955078125,0.008642004802823067,0.0014182208105921745,0.013432575389742851,0.17495951056480408,-0.44827955961227417,-0.8766040205955505,-0.00013956427574157715,0.011710375547409058,0.003007829189300537,0.9686598778296923,0.23141795416417715,0.09024256316079238,-0.00028261477957819804
1681264977007972600,3.96397265625,0.000838942127302289,0.0032094628550112247,0.009859411977231503,0.1749221384525299,-0.44835707545280457,-0.8765718340873718,-0.0020553171634674072,0.011147022247314453,0.005447566509246826,0.9686515588655273,0.23145454662050927,0.09023791392011274,-0.00022455884989607664
