,seconds_elapsed,rotationRateX,rotationRateY,rotationRateZ,gravityX,gravityY,gravityZ,accelerationX,accelerationY,accelerationZ,quaternionW,quaternionX,quaternionY,quaternionZ
0,6.0,0.0036527173510980454,0.0037031903994271973,0.0027771769631726746,0.1747965745654863,-0.44460539937509036,-0.8785056392039814,0.007790837439359244,0.0018630592052735445,0.00209790065887123,0.9691444415655538,0.22969565851201873,0.0893704884715726,-0.0034191910093093456
1,6.01,0.0006030801831866,-0.0020064301227559218,0.0018213914524042472,0.17479638195731023,-0.4446553165482111,-0.8784804168041,0.007017221644474328,0.002001037430677417,0.0014029454334103316,0.969138030919181,0.22972165997623178,0.08937419888495647,-0.0034052331534597763
2,6.02,-0.0026407642766681084,-0.004131438350822201,0.0018984244531583345,0.17477011667491482,-0.4446639145954312,-0.8784812761064155,0.006767924141299667,0.0009523114764357528,0.00048730222766414936,0.9691382785899566,0.22972504442123473,0.08936307395878325,-0.0033948427994638037
3,6.029999999999999,-0.006844330359709249,-0.002194155589451212,7.50591927172646e-05,0.17474555132723163,-0.4446396989133037,-0.8784984139400486,0.007647168505203245,0.000836417292673414,0.0007079100371217155,0.969142718120246,0.22971099527232355,0.08935123496766274,-0.0033898054625495105
4,6.039999999999999,-0.009550710240160833,-0.0018126069680414105,0.00016583770179882202,0.17473480891101623,-0.4445821306802613,-0.8785296989751901,0.006370149598464682,0.0030047206917375225,0.00043346455233054637,0.969150764417872,0.22967934664746079,0.08934511366954831,-0.003389597338005291
5,6.049999999999999,-0.011818049846050971,-0.002401630404540402,0.0007885446985237999,0.17472956614448074,-0.44449069443884115,-0.8785770335062763,0.0034722763882096518,0.0038828448219243947,0.0003408824320408261,0.9691629804610838,0.2296290815762978,0.08934192204788058,-0.003387646757498503
6,6.059999999999999,-0.009191062017385036,-0.00019434964712063867,0.0018332070139992166,0.1747292575039965,-0.4444029142694202,-0.8786214979240815,0.0020102455316967694,0.0030372605384473925,0.001535327648633452,0.969174531746791,0.22957987681624392,0.08934391436598499,-0.0033747954617264608
7,6.0699999999999985,-0.0051737520576397526,-0.0017561021895110582,0.002560899432603131,0.17473684502099981,-0.44433931324542236,-0.8786521652803064,0.0004962808326230402,0.004511696875355615,0.002642591478004988,0.969182526772311,0.22954399069842998,0.08935032774434257,-0.0033616580165206624
8,6.079999999999998,-0.0042993711339091,-0.002835033521187377,0.0030949821098597355,0.17473294100612227,-0.44430354716584447,-0.8786710478113301,-0.0009280017434748487,0.005034779655978624,0.0038593316509395632,0.969187448578261,0.22952330858603143,0.08935065553958181,-0.0033501436768917396
9,6.089999999999998,-0.007231533151177149,-0.0003862805538226333,0.0003596820779903963,0.1747272129908138,-0.44425723347188084,-0.8786955737711216,-0.00218895941277269,0.003391607246268271,0.004494021384531649,0.9691937596979514,0.2294980378187057,0.08934686061127256,-0.003351601778349851
10,6.099999999999998,-0.00878535822498614,0.0014746537775105642,-0.00438114766179082,0.1747568183968109,-0.4441814617300183,-0.8787279733304691,-0.003733609564196019,-0.0003528952856470947,0.005703389137496755,0.9692020675698779,0.22945779640427633,0.08935953096310036,-0.003359951798204752
11,6.109999999999998,-0.012955051653473104,0.0038510386161515987,-0.006142304107767619,0.1748267861248859,-0.44407403541526924,-0.8787683633617481,-0.005387888582921739,-0.0022354782004347087,0.009629626730777031,0.9692123797430889,0.22940206203612343,0.08938968476369677,-0.0033818460500828662
12,6.119999999999997,-0.015323838770377752,0.006786158881451881,-0.004730517260016443,0.1749156864699757,-0.4439312400276769,-0.8788228209544507,-0.0075235448658854025,-0.003499390769681315,0.013124579390584808,0.9692263851920198,0.22932694932297676,0.08943008868590693,-0.00340056259678904
13,6.129999999999997,-0.016884771534356625,0.009819347252022562,-0.0036822374808699273,0.1750169017547302,-0.4437661109790097,-0.8788860634628523,-0.008243258456089694,-0.003412048464326917,0.014537321338968576,0.9692426644433781,0.22923849176114308,0.08948006802453953,-0.003404966800150145
14,6.139999999999997,-0.018447897088517577,0.013675656812750207,-0.0016352011539619926,0.17513175988470006,-0.4435937104711246,-0.8789501981431881,-0.00808976819455707,-0.003897303117799912,0.013230699587509963,0.9692592379377064,0.2291448363693043,0.08954071172372345,-0.0033939888200849263
15,6.149999999999997,-0.015199127347687233,0.016799557057883448,-0.00032783266859461805,0.1752609866619196,-0.4434419129201378,-0.879001053378138,-0.008126280134417825,-0.0034230473221771953,0.009775180228718724,0.9692724547162591,0.22906164724431088,0.08961158945275112,-0.003372219860863432
16,6.159999999999997,-0.010798659439117498,0.020424140612042382,0.0018995929101567953,0.17542033105051819,-0.4433262041638532,-0.8790276141583787,-0.007821351062245135,-0.0018604025072640712,0.0058197410006454,0.9692794302806659,0.22899722717793133,0.08970205249697766,-0.0033354609444330463
17,6.169999999999996,-0.009221517784891449,0.023163637015596632,0.003802918747074232,0.17560161219517692,-0.4432451235853936,-0.879032307222855,-0.00694125857336432,0.0008336429768056846,0.003804633034394391,0.9692808185135511,0.2289512912526561,0.08980613917498871,-0.0032908225182285956
18,6.179999999999996,-0.006798996057778421,0.027583941308344614,0.00627938377962572,0.17579057385401184,-0.44318894780012225,-0.8790228581887549,-0.006584251831755856,0.0035223103812463017,0.0017180506867275915,0.9692785902854426,0.22891798615899947,0.08991724920574483,-0.0032344339140804442
19,6.189999999999996,-0.005039649154808607,0.028206677071944998,0.0031877490561724297,0.17599896260552877,-0.4431547900892874,-0.8789984100993158,-0.005293968443119164,0.004729905363976441,-0.00034832671444336367,0.9692724975985727,0.22889642368525348,0.09004010773031954,-0.003172085660455115
20,6.199999999999996,-0.004555225492315373,0.026703071291919404,0.0034174953532090206,0.17620519682916044,-0.44314327780252866,-0.8789628912433107,-0.004968730535789024,0.006628020145670781,-0.00015016688027155202,0.9692635188488499,0.22888801730617137,0.09016000986921009,-0.0031185133665909658
21,6.2099999999999955,-0.0032188595580061557,0.02386610123522072,0.0042061981318537575,0.17639111630311946,-0.4431464519820698,-0.8789239875549747,-0.004179511963343824,0.008710389753583226,-0.0005672390704543861,0.969253655207172,0.2288877720512607,0.09026840376846917,-0.0030695288059440864
22,6.219999999999995,-0.0021589012328895475,0.020514003168004218,0.0026737229992622293,0.17655353956773914,-0.4431550707607393,-0.8788870454611142,-0.0019312765971081266,0.010168799457021278,-0.0024551434703281097,0.9692441976459104,0.22889075379225954,0.09036317545032733,-0.003026702933889313
23,6.229999999999995,0.002636658582606465,0.01638582687385273,-0.0010857012466641263,0.17668749253228466,-0.4431849848537893,-0.8788450367078986,0.0002482321307671439,0.01146539784937043,-0.003800988263975326,0.9692333896045845,0.2289063743343955,0.09043983030390396,-0.0029987909810586153
24,6.239999999999995,0.00942325937363801,0.010676224067388055,-0.003897841126847053,0.17679032888903248,-0.44325293519093123,-0.8787900920953071,0.0016041402257537768,0.012595681864144245,-0.004888221871090968,0.9692192755988391,0.22894436782633945,0.09049552287213858,-0.002992684379053747
25,6.249999999999995,0.014401248056669312,0.006511562615412642,-0.00617680013243917,0.176860884879478,-0.4433629059572791,-0.8787204080058002,0.0027647616304576897,0.014267610429296482,-0.006240458652470489,0.969201244810767,0.22900681869483755,0.09052999494607544,-0.003007153847204474
26,6.2599999999999945,0.015991321047643194,0.0023094868957783624,-0.011019132880494819,0.1769068323947484,-0.4434917117173905,-0.8786461311080174,0.0034936760267034813,0.016816814035834116,-0.005390751604399111,0.9691819412330602,0.2290815563652766,0.09054595495961942,-0.003046554326187154
27,6.269999999999994,0.014216729011726497,-0.002714908597456223,-0.01634203698799579,0.17693734534336353,-0.443598366199659,-0.8785861455697874,0.004403921875286667,0.01572500529717502,-0.0037812824923167346,0.9691662288339864,0.22914691685452426,0.09054620620492894,-0.0031174162373548324
28,6.279999999999994,0.006613548519683303,-0.007229468095940595,-0.02010612538943645,0.17695400088545174,-0.4436417967562839,-0.878560878212365,0.005114873791742219,0.010194512239120532,-0.002419591193433281,0.9691593795983642,0.2291806872097105,0.09053054515926381,-0.0032222396919045194
29,6.289999999999994,-0.0015144292973249605,-0.01047981643571908,-0.02367368120669088,0.1769614996988911,-0.44360298652294256,-0.8785789613881386,0.005003296934868897,0.003821176832376202,0.0013607369966709922,0.9691636500718704,0.2291711212639211,0.09050478832603116,-0.0033459648124396692
30,6.299999999999994,-0.008526160461986634,-0.012655858369505502,-0.024652747464978773,0.1769640284584559,-0.4434895587011806,-0.8786357066690259,0.0036055360894183845,-0.002287498125255265,0.006118316137698192,0.9691778293503621,0.22912147708693012,0.09047370468791632,-0.0034780969750134805
31,6.309999999999993,-0.01106904846238993,-0.011566664847308734,-0.023531993204528395,0.1769655605116166,-0.4433266217550957,-0.8787176389585841,0.000284351950344772,-0.0067925007505827886,0.009930030619800244,0.9691985100033369,0.22904464353382498,0.09044188526248512,-0.0036090838813972806
32,6.319999999999993,-0.014323073400947427,-0.008711538548747396,-0.019846604364544208,0.17698067978901016,-0.4431384557310274,-0.8788095121874528,-0.002432309967628903,-0.00983519825865053,0.012375467489746193,0.969221785430402,0.22895278706282265,0.09042052490819875,-0.003724785998754914
33,6.329999999999993,-0.012732186727267013,-0.004090922812176432,-0.015852273895515297,0.17701638527127583,-0.4429533545678401,-0.8788956229320322,-0.003521221756894065,-0.012777870414448172,0.013148817937576166,0.9692436616293904,0.22886061756137066,0.09041572054505666,-0.0038159966259879007
34,6.339999999999993,-0.006169318325846418,0.0029210232002928327,-0.008902969757305125,0.17707108995312607,-0.4428150666472862,-0.8789542930156325,-0.004374810423760988,-0.013042343569776746,0.014388962506550853,0.9692585701780813,0.22879133026651058,0.09042885264215188,-0.0038751759592336376
35,6.3499999999999925,0.0007701295237854179,0.006267455184733135,-0.00010331203350882629,0.17713258299920884,-0.44274526989675894,-0.8789770847495944,-0.0036339266709993026,-0.011260839641436027,0.01183422344401093,0.969264370532908,0.22875578133246788,0.0904558350011225,-0.0038935679535558863
36,6.359999999999992,0.005761067685016266,0.0077165338496516375,0.006753832051698339,0.17718618656757293,-0.442750030911162,-0.8789638524685299,-0.004275557793661589,-0.009426427072668818,0.007908655964249986,0.969261007620958,0.22875720713363945,0.09048875225907363,-0.0038725518731057454
37,6.369999999999992,0.009745273580807625,0.009353044597214373,0.011948343189040995,0.1772329046368129,-0.44282879839491524,-0.8789147465699543,-0.004030328105958811,-0.008075007916697262,0.0066810174689759865,0.9692485379675837,0.22879601029784122,0.0905262950074968,-0.0038198706287086146
38,6.379999999999992,0.014974746644528032,0.010212444898172988,0.014750215118072254,0.1772781708242334,-0.44297417009877316,-0.8788323727281322,-0.0011677216198905749,-0.007454374667774974,0.0070780630748109976,0.9692275814747087,0.22886935925177077,0.09056839878605859,-0.0037475411179582873
39,6.389999999999992,0.01608078766333485,0.009474458920449267,0.014023279545172086,0.17731151932604874,-0.44314885395497516,-0.878737562500123,0.0007918560258000677,-0.005911782449124218,0.005851675029259598,0.9692034007082769,0.22895842653378007,0.0906049664722871,-0.0036736785348058546
40,6.3999999999999915,0.01174465321470302,0.005282518914174423,0.013915312762235298,0.1773084013292264,-0.443326649663804,-0.8786484899686621,0.0016280390506927113,-0.003609549910860492,0.004867374946262618,0.9691806799707403,0.22904901917353396,0.09062171814187105,-0.003603522919152032
41,6.409999999999991,0.006735332874983093,-1.911808516515557e-05,0.014765846340068136,0.1772594496220907,-0.4434835290002339,-0.8785791878064335,0.0033193541077048212,-0.0008523881751296874,0.005128661898706983,0.9691630306249837,0.22912751742142837,0.09061445125907837,-0.0035331844215799528
42,6.419999999999991,-0.0008825108761794966,-0.0038116560842168315,0.013414452824739265,0.1771706862903089,-0.443585881203799,-0.8785454184189974,0.005185578855373195,0.0012066140066428455,0.004729660081341252,0.9691545445585893,0.22917603257380892,0.09058492798754114,-0.0034669730512717476
43,6.429999999999991,-0.009174419485546577,-0.005249412887911059,0.011331523647141207,0.17706872040289232,-0.4436088610521634,-0.8785543890285241,0.004705063730642396,0.0014623645548170882,0.004703075090695825,0.9691570771448038,0.22918145913030313,0.09054647141720665,-0.003406057358114275
44,6.439999999999991,-0.012751918776307587,-0.0035300970006687444,0.010757569345479036,0.17697404200445696,-0.4435567167027517,-0.878599806145145,0.0029250302108894044,0.0011790347942521172,0.004825598005826755,0.9691689993386305,0.22914604593548363,0.0905107330098653,-0.0033464491836970264
45,6.44999999999999,-0.010380500401349031,-0.0026002668324661728,0.008428057971491753,0.17689535097454145,-0.4434800816671608,-0.8786543399785243,0.0014768633332212762,0.0037143712125030687,0.00386594662182859,0.969183272604088,0.2290981887975944,0.09048124143281064,-0.0032945351673247577
46,6.45999999999999,-0.007974790852310244,-0.0018618946711506336,0.002865386775135876,0.17685128150827492,-0.4434226550192082,-0.8786921812663877,-0.0003723131718133465,0.006238411742646419,0.0019747906675716877,0.9691931786307219,0.22906320013432444,0.0904652172504657,-0.0032627230060085434
47,6.46999999999999,-0.006770732272846243,0.000523726320250804,-0.0021445087906832245,0.1768576305755169,-0.44337512383209227,-0.8787148943303486,-0.0009961411565585472,0.007735757144887789,-0.0004919658359569101,0.9691990578040564,0.2290368433879957,0.09046920465814848,-0.003257758173607082
48,6.47999999999999,-0.00026862945090565075,0.001060201926976363,-0.006354887253280603,0.17689293499201725,-0.4433501257852436,-0.8787204055298273,-0.0007429886640552682,0.00974294158159189,-0.0010705681830552424,0.9692004268677499,0.2290256448359866,0.09048232023779956,-0.0032789535875692266
49,6.4899999999999896,0.003937493081021454,0.00042520576376158285,-0.008480371834543038,0.1769454876321013,-0.4433649208451733,-0.8787023683887473,-0.0012395186172243745,0.01176069588199111,0.0005108810706210113,0.9691956670566764,0.22903801297060974,0.09050085236027701,-0.0033169668780444373
50,6.499999999999989,0.0012033013684219687,0.0002776773097451523,-0.008893582748849249,0.17701240189485581,-0.44337761884287236,-0.8786824661163992,-0.003161403056084771,0.011997575174984459,0.0038328920249560265,0.9691903369170157,0.22904993114443709,0.0905256577675727,-0.0033599992324566284
51,6.509999999999989,-0.003623390176871369,0.002736929482139253,-0.0075869384161185455,0.17708020561234528,-0.44335735625489964,-0.8786790218452033,-0.006351521462546312,0.008527953060329625,0.0074321539519754355,0.9691892724712199,0.22904371595368378,0.09055088873005111,-0.0034017544705723488
52,6.519999999999989,-0.008295069188128978,0.0062918702177553005,-0.006471868289255465,0.17716067780640482,-0.44329483508194434,-0.8786943809813414,-0.008313741165859423,0.0047985735453065885,0.009361018743916665,0.9691931371707079,0.2290138441977305,0.09058409805883579,-0.003435830349525514
53,6.529999999999989,-0.011150943022626415,0.007993405483621725,-0.008398602122830017,0.17725743613285969,-0.4431858345004154,-0.8787298304743713,-0.006717800502939249,0.002802251503199226,0.008901504660095955,0.969202209686647,0.22895813358356443,0.09062701655626777,-0.003462707611905734
54,6.5399999999999885,-0.010160526239660971,0.009942286946038489,-0.010571782376678322,0.1773726771763973,-0.4430586384216275,-0.8787706996878336,-0.004855300466563097,0.0016364305570329162,0.006600349888689375,0.9692126574979879,0.22889310378904307,0.09067847190048667,-0.003493401570001645
55,6.549999999999988,-0.005112603172534652,0.012477165835240684,-0.012680087117728918,0.17752206749094857,-0.4429529540273364,-0.8787938229859193,-0.004919490183753109,0.0006692485100573963,0.004287535682374128,0.9692184458154992,0.22884129690946273,0.09074551221841674,-0.0035343700970176415
56,6.559999999999988,-0.0002785788735034844,0.01568906290622069,-0.01508977427534184,0.1777060409875251,-0.4428821842492972,-0.8787923190961525,-0.004504841802702657,0.0011952844644331905,0.0029180477775753795,0.969217828345008,0.22881001401558232,0.09082855757325119,-0.003585360871310708
57,6.569999999999988,0.0021095640938438177,0.01774020799379994,-0.014777764994166113,0.177914084468397,-0.44284102163473615,-0.8787709686019552,-0.003678854749397456,0.0035381025012133924,0.0032171818589365585,0.9692121079131263,0.22879538035160268,0.09092414444728743,-0.003637581384855606
58,6.579999999999988,0.0002644583966229159,0.018702356382815206,-0.012603212510954608,0.17812844166734032,-0.4428047789765381,-0.8787457862242741,-0.0030031048949023358,0.0037539006460446146,0.003530764510514359,0.9692054455655148,0.2287828793459343,0.09102472977431517,-0.003682780604106238
59,6.589999999999987,-0.0071953299383003665,0.019046976287816413,-0.01115052872054668,0.17832917622138852,-0.4427394556735521,-0.8787379745116903,-0.0024996990181322155,0.0014249411510768209,0.004338373367680705,0.9692033235196458,0.22875330997659618,0.09112040252842918,-0.0037175065538403535
60,6.599999999999987,-0.01524162226016845,0.018620629654959316,-0.007139847344400805,0.17851196622588836,-0.44262362765904234,-0.8787592243208767,-0.002268568271026767,-0.0019904047893290417,0.0070436093758316515,0.9692087405654235,0.22869413620451348,0.09121063173033768,-0.003733556836077854
61,6.609999999999987,-0.01922819880370215,0.018906567467086514,-0.0032179611083283485,0.1786805689624646,-0.44246827737579997,-0.8788031834761804,-0.001829299676781601,-0.004490880793419976,0.009528729410995973,0.9692200636372945,0.22861111820080604,0.09129821854834323,-0.0037278175860567444
62,6.619999999999987,-0.020363898167359385,0.01754921235811489,-0.002174497822626928,0.17883890320914095,-0.4422954455172719,-0.8788579649607278,-0.001189169713087278,-0.005180432192446496,0.009744206883678752,0.9692342496902265,0.22851709506289797,0.09138355080723853,-0.0037081966637209605
63,6.629999999999987,-0.01976938921701236,0.014968020307817635,-0.0018171924124834988,0.17898205542917886,-0.44211371217210976,-0.8789202662944561,-0.0010625092038328262,-0.006435387355930761,0.00860798438312986,0.969250415695235,0.22841774786460955,0.0914614630284828,-0.0036860880847166327
64,6.639999999999986,-0.01521573326425134,0.0115810762636289,-0.0021817556048011957,0.1791026447068294,-0.4419572884408894,-0.878974375639941,-0.0007216193402084843,-0.006072543613624454,0.008316516748710529,0.9692644618822247,0.2283323844089032,0.09152666813362553,-0.003669099064922516
65,6.649999999999986,-0.008942517602624859,0.010436728482000411,-0.0030612048684715816,0.17920704479204763,-0.44184790313475686,-0.8790081151086958,0.0005932220568825512,-0.0038506239391874397,0.00902387194107199,0.9692732022865871,0.22827332801361766,0.09158184993288918,-0.003660903980307844
66,6.659999999999986,-0.008400313576927181,0.009742139674800055,-0.004000069319675565,0.17929968525706877,-0.44176058269910223,-0.8790331108527152,0.0027546430447212677,-0.0036817096684659723,0.00957998576369202,0.9692796676180729,0.228226744782655,0.09162970626314472,-0.003658778917568999
67,6.669999999999986,-0.0092916669493406,0.004869625766397211,-0.003651883739897491,0.17937059050836077,-0.4416785650031337,-0.8790598430764518,0.0038515567286931812,-0.005986513618302279,0.010035759396035697,0.9692865632445898,0.22818338073374564,0.0916647214375128,-0.003663345284895945
68,6.6799999999999855,-0.009959047855241628,0.0010331645071646359,-0.0002865618824160654,0.17940546434451354,-0.44160935454477906,-0.8790874731576324,0.003965539244893636,-0.007491899889402759,0.009219294688363766,0.9692936436350583,0.22814609798226362,0.09168212613255709,-0.0036635694314395974
69,6.689999999999985,-0.015453219797061626,-0.0006997436091438821,0.004830252869318794,0.1793996453837233,-0.44153020100356083,-0.879128433669986,0.003137039411715631,-0.007754102296035615,0.007359866422055684,0.9693043085988219,0.22810058833546737,0.0916837002044389,-0.0036405585476171616
70,6.699999999999985,-0.018526111094066728,-0.0008197525797880207,0.008761257729890266,0.17935698555718282,-0.44143617559810017,-0.8791843819757901,0.0030227450093198056,-0.008917079225972088,0.005877933226439167,0.9693189601008848,0.2280445786293315,0.09167050184228266,-0.0035981372969977714
71,6.709999999999985,-0.014957592627663325,-0.001385145677645811,0.012095809405360704,0.1792912184148955,-0.4413483554405905,-0.879241871752667,0.0036846790982503074,-0.009966321387336838,0.004138282600632022,0.9693340016780578,0.2279904123512253,0.09164841675931966,-0.0035426158090441293
72,6.719999999999985,-0.00886224490864276,-0.0037298427342338197,0.014862151100217061,0.1792040225714229,-0.4412914285192689,-0.8792882113765035,0.003052110906997905,-0.007674316514975467,0.0012122768769355066,0.9693462002445957,0.22795179543329508,0.0916180229606565,-0.0034762939081315054
73,6.729999999999984,-0.002121368357913906,-0.005907988470969334,0.017740892080459092,0.17908958707603226,-0.4412818118112645,-0.879316367698708,0.0027319800350637997,-0.0030426351952766704,-0.0024930761278625954,0.9693537297477727,0.22793736373923096,0.09157712360991702,-0.0033964044234995267
74,6.739999999999984,0.004779876367958536,-0.009624109574212416,0.017770350191834223,0.17895188656720265,-0.4413410330114284,-0.8793146882175414,0.0032385443606647297,0.002379325845017346,-0.004501007805184719,0.9693535581891033,0.22796038548138536,0.09152442652284001,-0.003318178099843304
75,6.749999999999984,0.010137129861809186,-0.012347822432564179,0.01911023781677487,0.17878852461514352,-0.441463837273294,-0.8792862593432152,0.003152032552678514,0.005297420676094482,-0.004716976671449568,0.9693464916844412,0.2280181947243577,0.09145802384806699,-0.0032442511664465845
76,6.759999999999984,0.015075911068530807,-0.014581146049695008,0.02143311103571771,0.17859779200765796,-0.4416364333370619,-0.8792383538851147,0.0031844646586849748,0.00633798189212215,-0.005268879780075399,0.9693343536532157,0.22810268483517598,0.09137828284171653,-0.0031687020718809107
77,6.769999999999984,0.01957047989646816,-0.0174499187171021,0.02175409015156409,0.17837665569011424,-0.44185909821585156,-0.8791713495728052,0.0032537962905829798,0.009171455685585028,-0.006255935989407611,0.969317273150065,0.22821413036386923,0.09128325671368698,-0.003093106083388396
78,6.779999999999983,0.022129153279316062,-0.02189552787356697,0.020680562567441926,0.17812753920575036,-0.4421098445494863,-0.879095777414667,0.0021435045382640363,0.012453782568143727,-0.005420864619360834,0.9692980524281055,0.2283407994913606,0.09117333035497992,-0.0030202234045886398
79,6.789999999999983,0.01940457252899932,-0.02483791675346857,0.01905599041965113,0.17785178963094997,-0.44234621724985335,-0.8790327304954638,0.0023959002412980443,0.013704330824499523,-0.005243082525361221,0.9692820022388523,0.2284602982037186,0.09104682184799001,-0.002958286773808055
80,6.799999999999983,0.01594595882002035,-0.027710121069382285,0.01561546891966447,0.17755365874180537,-0.44254454532897813,-0.8789931849499634,0.0032566456473570268,0.012117879319759455,-0.004743364361394872,0.9692719307011687,0.22856068740560323,0.09090334766423881,-0.0029172468056275678
81,6.809999999999983,0.011544510961518577,-0.029138671546463223,0.00990095181495711,0.1772535157552164,-0.4426927031166021,-0.8789791413322607,0.002809097408395634,0.011187291837218831,-0.002216020875996452,0.969268375048836,0.2286357110429879,0.09075313440883895,-0.0028981327653563164
82,6.8199999999999825,0.011017001490272089,-0.03023059901575664,0.004492980546337377,0.17696655038041145,-0.4428003192699857,-0.8789827600612276,0.0018574451083119368,0.012148897106185942,-0.00021372005347074685,0.969269304839015,0.22869047142448035,0.09060507802898854,-0.0028971642187534835
83,6.829999999999982,0.011252945784153354,-0.030894862176296417,0.0010559152813207921,0.17669445632995723,-0.442885299956912,-0.8789947116070107,0.0012124076750813406,0.010132377762216545,0.002540688722658206,0.9692722927307053,0.22873549049400327,0.09045841769422557,-0.0029221082427525495
84,6.839999999999982,0.00896928791761789,-0.030487699146755184,-0.003128690308692139,0.17645029444498794,-0.44294307537945343,-0.8790146034772416,-0.00019478964740332367,0.007661746658513749,0.005580124228639768,0.9692772116993464,0.22876819629867104,0.09032056999008249,-0.002970156751205365
85,6.849999999999982,0.003228821078099261,-0.03115210708215156,-0.007838674701377276,0.17622039507429,-0.4429575246996576,-0.8790534398691889,-0.0010206575475734435,0.008126583484527262,0.006877694882132797,0.969287057248322,0.22877902767541786,0.09018552287611528,-0.003035847032835716
86,6.859999999999982,-0.001337456351351741,-0.02974168245771031,-0.010382788032939516,0.1760042242123341,-0.4429232338765795,-0.8791140528190742,-0.0006789886401683068,0.007112918007956794,0.007958703841365489,0.9693024683050929,0.22876478034425787,0.09005359641751204,-0.003116476161590908
87,6.8699999999999815,-0.007125378246462568,-0.02722108881824846,-0.010949591405085807,0.17581135143730114,-0.44283538820184914,-0.8791968732478261,-0.0013084149014401382,0.001968767726144964,0.009705612937046873,0.9693235050037835,0.22872217879314335,0.08993178321634564,-0.0032033865002374685
88,6.879999999999981,-0.008538953953399177,-0.024422861058975474,-0.010350296063167888,0.1756519720367268,-0.4427254077590551,-0.8792841429595863,-0.0006516147505888432,-0.001481372627870826,0.010618624789314789,0.9693458135372607,0.2286674278066182,0.08982837237330396,-0.003285240786182196
89,6.889999999999981,-0.009398285726462128,-0.02058390147783153,-0.008433766687973084,0.17550681913919008,-0.44259323453911914,-0.8793796456375917,-0.0012289325288717123,-0.0033305143384171655,0.010797507389402066,0.9693701756365325,0.22859949697096563,0.08973540496725,-0.003353395057067367
90,6.899999999999981,-0.011446970867254092,-0.018493930312032385,-0.005497962221054695,0.17537513939183455,-0.44244733025062344,-0.8794793458905421,-0.002400724621559756,-0.00451857220194415,0.01116337912328633,0.9693956550616633,0.22852303084812503,0.08965242972900234,-0.0034083944789086145
91,6.909999999999981,-0.011260226646561533,-0.01296364897243188,-0.003989308651794421,0.1752653631662854,-0.44231633676752996,-0.8795670986870971,-0.0011703366412821718,-0.004855527645852017,0.01219982797217362,0.9694181212244135,0.22845348037771973,0.08958493396819789,-0.00344675437737962
92,6.91999999999998,-0.011146074209103018,-0.00678016798169013,-0.0005284274823085173,0.1751866530280447,-0.4422024597988227,-0.8796400355893398,-0.0006158256279662727,-0.0036880274587176697,0.012257319381770469,0.9694368811906525,0.22839215716183173,0.08953772125370008,-0.0034684000135818635
93,6.92999999999998,-0.014796967371588712,-0.002914327922645619,0.0022976021668933127,0.17513765861933592,-0.44208814583476125,-0.8797072507422932,-0.0005428451832837042,-0.00239465261293715,0.011247850188831024,0.9694542680719522,0.22832862155006448,0.08951206944406767,-0.0034641731300958153
94,6.93999999999998,-0.018267455045307652,0.0018298919278110046,0.006338459323110276,0.175122623752407,-0.4419471562743329,-0.8797810867063639,-0.0014553095975799086,-0.003518002580822097,0.010353350885088522,0.9694733972551988,0.22824887912159322,0.0895092595843304,-0.0034368750589600433
95,6.94999999999998,-0.021500014358339863,0.008370340766900556,0.009316407056407112,0.17513440641808625,-0.44179702981270597,-0.8798541482757118,-0.004783598337573974,-0.005193828420842234,0.00986963045150972,0.9694924100421941,0.22816196977537062,0.08952680818795804,-0.003381982345673384
96,6.9599999999999795,-0.022449109934048833,0.012372376723603138,0.013080599852858135,0.17517438952959088,-0.441655540168119,-0.8799171966586858,-0.008294473723609447,-0.004981645816332466,0.009207089270640676,0.9695089136716571,0.2280783497419495,0.08956374448609608,-0.0033073752671787023
97,6.969999999999979,-0.01965788189634129,0.012904970991693968,0.014881242090527042,0.17522995040168374,-0.4415220634141594,-0.8799731202072232,-0.010957201118235354,-0.0038364379583895537,0.008639564650930088,0.9695236833846631,0.2279973859900315,0.0896137422855431,-0.003211990229365234
98,6.979999999999979,-0.014449623938203766,0.016847972289650143,0.014352375861831945,0.1752928468067117,-0.44142133431084135,-0.8800111475723156,-0.012467318776745197,-0.002692753995716784,0.007611512026546867,0.9695338297360679,0.22793407239633784,0.08966874807380364,-0.0031129094029392467
99,6.989999999999979,-0.007173437055604838,0.01933488489618665,0.012576287197464347,0.175392843004807,-0.4413708730958307,-0.8800165467703218,-0.013731402022239601,0.0014840406794814584,0.005066238248090021,0.9695355175460437,0.22789927460461018,0.08974215161147028,-0.003019845474847773
100,6.999999999999979,-0.0010591730410348759,0.01865426092433883,0.009843858012057128,0.17552124979071998,-0.44136855244109163,-0.8799920989309722,-0.015228469837771017,0.00743516455624881,0.002392062730055049,0.9695294699030441,0.22789221273182192,0.08982811090518855,-0.0029383408396615
101,7.0099999999999785,-0.0002518370533949113,0.018340444400110574,0.004516889022260283,0.17566171265777714,-0.44139554676281384,-0.8799505570431784,-0.014133040992115535,0.011432087203199586,9.462818538729626e-05,0.9695189459116517,0.22790338223521883,0.08991541252952003,-0.002879115655554678
102,7.019999999999978,-0.005361435781844584,0.023205956103726357,0.0009806243801991862,0.1758486585575799,-0.44141139873892477,-0.8799052618597719,-0.011307816301697781,0.013051261584653586,-0.002555239116846266,0.9695073879218491,0.22791088306712423,0.09002227010948818,-0.002839159390099973
103,7.029999999999978,-0.002812142266703406,0.02177475242331164,-0.005850546015182969,0.1760463652227368,-0.44140640837795264,-0.8798682004753087,-0.008039760873968205,0.014760235864477701,-0.0037984263321739096,0.9694977927096853,0.22790947785193136,0.09012865907629326,-0.002824146106418145
104,7.039999999999978,-0.0024690377611648927,0.01915835695580296,-0.011435380535232522,0.17624048198045367,-0.4413966661327875,-0.8798341883735303,-0.006665453128254649,0.01572059635775286,-0.0012231010250388097,0.9694889829539424,0.2279083157337335,0.09022580085009807,-0.0028402779412606983
105,7.049999999999978,-0.008537547516781624,0.014833294821574524,-0.018753950631417746,0.17641766112078935,-0.44135338238841476,-0.8798203874902473,-0.003979387801425777,0.015931778155966046,0.0005756552461242279,0.9694852567028504,0.22789177230386992,0.09030579713565039,-0.0028903845823443687
106,7.059999999999977,-0.017263985506731225,0.009085836938026351,-0.027276668209384035,0.17659061632530468,-0.44122486857035537,-0.8798501807281304,-0.0011711468778540265,0.017178434623514337,-0.0012855274146241383,0.9694926699342534,0.22783225543549293,0.09037354810649875,-0.002979463680572559
107,7.069999999999977,-0.02283004345988745,0.007017581214890831,-0.0323954199763269,0.17675498891741784,-0.44100348462133493,-0.8799281549421855,-0.0007934063198495589,0.014672280444670732,-0.0014766396954029714,0.9695124220488999,0.22772482356767304,0.0904285647318825,-0.003099709635896286
108,7.079999999999977,-0.02507719255400028,0.008336478617776989,-0.033333203781871275,0.1769186496037022,-0.44071585345907527,-0.8800393754094767,-3.451693229228377e-05,0.011064837437370087,0.0005399367857428256,0.969540678643408,0.22758241097131243,0.09047961139842173,-0.003232514630640864
109,7.089999999999977,-0.02559897761563938,0.009322505019389148,-0.034466268678103575,0.17711077374813627,-0.44040581871234225,-0.8801559450786568,-0.00034262819518996536,0.009904851759516138,0.0017172581157914714,0.9695702512513427,0.2274288260048242,0.09054370991243622,-0.0033720635880521662
110,7.0999999999999766,-0.020239230921544966,0.01371664342553435,-0.03662644518837097,0.1773325669577843,-0.4401175751550492,-0.8802554615171544,-0.0017612544212041227,0.008827663106891709,0.003652028350435139,0.9695954189138859,0.22728859952004438,0.0906209899762064,-0.003522351124625482
111,7.109999999999976,-0.011422247609671043,0.014676891408292968,-0.036335282013601505,0.17758413036233955,-0.4398922589300224,-0.880317378142361,-0.0041880935097997965,0.007437075020267165,0.00601988997369485,0.9696108197444178,0.22718355849035113,0.09071355535587462,-0.003676417737961368
112,7.119999999999976,-0.006330698883778708,0.013729044905540676,-0.03373171221751954,0.1778380658663092,-0.4397263612685935,-0.880348998677514,-0.004436595026040767,0.006172349585438955,0.005395807446646228,0.9696183775489475,0.2271108161390804,0.09080851612613314,-0.003828221193922132
113,7.129999999999976,-0.004605439612177348,0.011622156846256075,-0.03260858474144058,0.17809619046186198,-0.4395839066747679,-0.8803679515565548,-0.003089681029412505,0.0033452932412839087,0.004930369834847806,0.9696226412660697,0.22705063612620532,0.09090676026722634,-0.003976386005098731
114,7.139999999999976,-0.0010989998831688152,0.011872490011050778,-0.03305794349484515,0.17834983320750167,-0.4394552457934499,-0.8803808059296419,-0.0017323680760801682,-0.001041756560658834,0.005093912634705302,0.9696253397827601,0.2269977698439333,0.09100329687672132,-0.00412257151987937
115,7.1499999999999755,-0.005840864039838612,0.01585008104446359,-0.029273752176455215,0.17860653260789236,-0.4393311243600079,-0.8803907405395462,-0.003378182186056612,-0.0046641785068830535,0.004823381039844492,0.9696273404466673,0.22694581872406272,0.09110558572463742,-0.004251225258900222
116,7.159999999999975,-0.0072221235036618705,0.014406813011942757,-0.024420917282849664,0.17885846936921462,-0.4391992023928108,-0.8804054158563035,-0.002982118943853917,-0.008225948599450745,0.006179790953546509,0.9696306569184383,0.22688743997127125,0.09121065756041902,-0.004357157848075211
117,7.169999999999975,-0.010625685174254574,0.019733863878552475,-0.017975353311622026,0.1790963869532822,-0.43906075224374563,-0.8804261087081823,-0.0017493506543125666,-0.010493095190883369,0.007635265468507833,0.9696356573714262,0.2268226477117827,0.09131504411613046,-0.004434629418314252
118,7.179999999999975,-0.012886458780515694,0.020071557693854044,-0.01168000324907518,0.17932472059957155,-0.438919225782044,-0.8804502101549824,0.00027730348505760114,-0.00989032008664964,0.006811115740696283,0.969641726628334,0.22675248651214897,0.09142323387304635,-0.00447438970984675
119,7.189999999999975,-0.011721382110836714,0.017978352044591965,-0.00693757471701534,0.17952015585165046,-0.4387740106955283,-0.8804827334438067,0.002828473928456761,-0.007445521314403041,0.003908364672535863,0.9696500777525383,0.22667725882634512,0.09152070947768834,-0.004486612867497343
120,7.199999999999974,-0.009098225140580422,0.01620595176101527,-0.002496189526939421,0.1796843157466477,-0.4386498070565931,-0.8805111475264416,0.004018639855989675,-0.0055398828481699304,0.0043101316178254245,0.969657414899417,0.22661093433317858,0.09160737347818129,-0.004476346130224715
121,7.209999999999974,-0.003934789341128488,0.015559897666040429,0.0025885619804690433,0.1798183425244257,-0.4385910254765118,-0.880513095575517,0.0055366461785873585,-0.003528408449220085,0.002560896290317288,0.9696580238149136,0.2265787124064542,0.09168177789070461,-0.004454065047834224
122,7.219999999999974,-0.0035960361181164874,0.017118490357668735,0.006528699074988466,0.17994572897819708,-0.43858707127608193,-0.8804890348775676,0.004644319799758098,0.00032148509709952237,-0.000489445227004867,0.9696520164195649,0.22657465851043448,0.09175734748762486,-0.004414283978920965
123,7.229999999999974,0.004040448292761441,0.015807771293459425,0.009650658397152505,0.180053794743627,-0.4386176918189431,-0.8804516766202131,0.00323181898529146,0.0027204903084505137,-0.0001420414575049246,0.969642671040877,0.2265870262904089,0.09182855405314903,-0.004351592008847872
124,7.239999999999974,0.011813908755555425,0.011328972865750096,0.010079019864381568,0.1801129570452692,-0.43873647207273764,-0.8803803523043494,0.0004319037269624686,0.0050896974851790365,0.0011824031419786353,0.969624498513723,0.2266465179165779,0.09187585959794556,-0.004285954528874837
125,7.249999999999973,0.017686085277731113,0.0068592160188332765,0.008553998470019867,0.1801343797595583,-0.4389189208967469,-0.8802850213842212,-0.0004030654485164645,0.007057654131270127,0.0002579259552510787,0.9696001335733376,0.22674140888311733,0.09190113234987846,-0.0042331919964277735
126,7.259999999999973,0.016687747123050236,0.0031676074035878604,0.004058341930887584,0.1801443827100819,-0.4391149557340935,-0.8801851936057755,0.0023381712526375936,0.006275468023014226,0.0005790674358920368,0.9695745341704879,0.22684565443624397,0.09191540326403361,-0.004202664676520909
127,7.269999999999973,0.012614751335421857,-0.0028560816960564294,-0.0023401223271148908,0.18013153670566545,-0.439260026721343,-0.880115459640619,0.0016772679374768605,0.0035905150437423685,0.003566418992728966,0.9695565422813851,0.22692478613378073,0.09190981513806737,-0.004204059910949597
128,7.279999999999973,0.003490541204736503,-0.009001976264637643,-0.006216722937895683,0.18010419905765232,-0.4393355741249338,-0.8800833236724935,0.0011914906828612917,-0.00021619552769787246,0.007088856715620035,0.9695481057038915,0.2269690535792811,0.09188785235533804,-0.004240255502565582
129,7.2899999999999725,-0.00446151496405835,-0.010295956236903367,-0.006872763997974699,0.18006458107087933,-0.43932505310138187,-0.8800967001395668,0.0015104961958628056,-0.003940796687502825,0.009384419866129177,0.9695513644226159,0.22696662350801786,0.09185749804440925,-0.004281381311514034
130,7.299999999999972,-0.01114002271819972,-0.01071745422722744,-0.006972919195836047,0.18001128013581888,-0.43922642732461153,-0.880156858365697,0.000853541175471272,-0.006468234216576244,0.009344210355556088,0.9695667034669478,0.22691604595794793,0.09181877934819432,-0.004324108659843571
131,7.309999999999972,-0.010307959583503074,-0.010114660471240058,-0.004858473033366736,0.1799637134964751,-0.4391062516678082,-0.8802265435363772,-0.0020199533087545325,-0.009075024236371555,0.008486142769847924,0.9695845402760032,0.22685389646399565,0.09178256856704642,-0.004368005211977262
132,7.319999999999972,-0.0028618857776517397,-0.006215368191812194,-0.002984172597330402,0.17991497511995844,-0.4390311541346363,-0.880273937593691,-0.004876791158809786,-0.007709940715976323,0.005500430839426292,0.9695965949218193,0.22681531091496737,0.09174878089436603,-0.004400849164287496
133,7.329999999999972,0.01027204805903444,-0.0020402163058096693,-0.00026716070257047446,0.17988441983182624,-0.43905145966664727,-0.8802700509419997,-0.004878835763290331,-0.003581102863945365,0.0004737632681504167,0.9695954690151933,0.22682736825298336,0.09172956989279617,-0.004415842487686304
134,7.339999999999971,0.019805629876755472,0.0017135537674908602,0.007397079313321132,0.1798706540800935,-0.43917538100170317,-0.880211055377308,-0.004845354278611299,0.0010506554029509245,-0.001053913488824971,0.9695803063574989,0.2268939556616821,0.09172570191474522,-0.004406862054974311
135,7.349999999999971,0.02545720762086105,0.0003819915642449961,0.01094788234715101,0.17985324909269162,-0.43937442663727616,-0.8801152521671889,-0.002454825870101535,0.005259714222552497,-0.0019951825696352308,0.9695557825328909,0.22699888045630884,0.09172714923550716,-0.004370237301903328
136,7.359999999999971,0.02310585592707453,0.0019832341592962814,0.01316272428526689,0.17981256303699492,-0.439615847908745,-0.8800030179852091,-0.0008287789613097325,0.006086182036154369,-0.002883459469984131,0.9695271121388805,0.22712543690259457,0.09171979159498103,-0.004321223206158903
137,7.369999999999971,0.023720901197877446,-0.0008585283194008325,0.012952532458082413,0.179764810075923,-0.4398719435482558,-0.8798847754762543,0.0006203277033753241,0.007302809254917189,-0.0015918137961192826,0.9694968201035584,0.2272595195147579,0.09170993263843046,-0.004267878107801268
138,7.379999999999971,0.015169721487637233,-0.006463223288020917,0.011323707817264,0.17967579061529895,-0.44009961636656525,-0.8797891434457391,0.0031831493653301525,0.008258965574226092,0.000946888483494776,0.9694723766791538,0.2273781329597397,0.09167670373556158,-0.004221434562727825
139,7.38999999999997,0.006584900665774521,-0.008593866487805841,0.007576971667696051,0.17956815602265627,-0.4402374885060859,-0.8797420979108272,0.005328534170118474,0.006045574654075389,0.00469642205485182,0.9694604253129302,0.22744824259106444,0.09163096536589767,-0.004183288366116125
140,7.39999999999997,-0.0020835346443478287,-0.010183476984076909,0.007140073300330036,0.1794319383362446,-0.4402941329885043,-0.8797415648161414,0.006981724742785187,0.004369411811682931,0.0052347201542437835,0.9694604612241019,0.22747420381299677,0.09156798079621067,-0.004151835107955332
141,7.40999999999997,6.8434803065529415e-06,-0.010960823468078562,0.0045672789054008334,0.1792915086392669,-0.4403077834680723,-0.8797633719202604,0.004761190739295629,0.0030626870150105233,0.006090731900009829,0.9694661464422376,0.22747826478943092,0.09149832609563921,-0.004137646186433159
142,7.41999999999997,-0.0002035904771731515,-0.0140115356963388,0.00220319642390922,0.17914714353696978,-0.4403009116258417,-0.879796239333284,0.0035818247232576365,0.002556806731458415,0.0070010284533980685,0.9694745855920252,0.2274724759979124,0.09142297346030842,-0.00413819607318352
143,7.4299999999999695,0.0016377617626883736,-0.011003813382436488,0.0014135451716411095,0.17902354751838112,-0.44028513552091275,-0.8798292794242667,0.0025090523132983893,0.0037877278459461003,0.007427977307302766,0.9694830760769043,0.22746332490353924,0.09135530554660685,-0.00415166773254277
144,7.439999999999969,0.0013324501790106212,-0.010499109834948344,-0.005309679934157172,0.17892832723560637,-0.44027900443349227,-0.8798517287480159,0.0014373481897424767,0.004441753039613329,0.008123284927337349,0.9694887225506028,0.2274618137731283,0.09129762088155384,-0.00418596362856328
145,7.449999999999969,0.00045763158566818974,-0.008356170343567055,-0.0054187069582041884,0.17886359473798846,-0.44026506077450656,-0.8798718555680424,-0.0008402160737724861,0.000989759369010512,0.008076327274816393,0.9694936599860946,0.22745761454338143,0.09125296902641634,-0.004232082150903232
146,7.459999999999969,-0.0033899997767190796,-0.006108282839024919,-0.008515576857284404,0.1788465893275684,-0.4402277475234582,-0.8798940054702322,-0.002799154047262832,-0.0017683184518277472,0.009704878988786938,0.9694991978837829,0.22744159293458355,0.09123227706090849,-0.0042809920517408164
147,7.469999999999969,-0.004632925893139712,-0.0012984272812847006,-0.007554820231460382,0.17885961652074445,-0.44017578158578335,-0.8799173414420288,-0.003950475852017249,-0.0040686668669405405,0.011369568767050081,0.9695049985943897,0.22741722538845877,0.09122905110996574,-0.004321525786649418
148,7.4799999999999685,-0.0055978374880944195,0.005472292693210863,-0.0036945536371090918,0.17892839093273763,-0.44012857724595095,-0.8799269572892813,-0.0072990403256553964,-0.005904624557169641,0.012209897477125283,0.9695073499401803,0.22739490589387024,0.09125831822570515,-0.00434743153402427
149,7.489999999999968,-0.007759154001306447,0.009415704608259795,-0.001664254096318302,0.17902103172940725,-0.44007508495067454,-0.8799348963171407,-0.00949773737855937,-0.006128891413233491,0.012862370383490515,0.9695094085233029,0.22736737677500557,0.09130517790836748,-0.00435103616388885
150,7.499999999999968,-0.009347709309229872,0.015180150237596269,0.0023616320609023125,0.17914805688749383,-0.44000136111679716,-0.8799459000690761,-0.008260101395064962,-0.00562027066974767,0.013682230990824211,0.969512295388036,0.2273273846732231,0.09137458408884523,-0.004334034792303036
151,7.509999999999968,-0.007932099253543571,0.017596253110317803,0.005562646669011845,0.17927248803524867,-0.4399362415771515,-0.8799531283850257,-0.008823490688428871,-0.004138835174220475,0.011043569719542127,0.9695143712246951,0.22728988578006812,0.0914480982675819,-0.004294074945828189
152,7.519999999999968,-0.005833807895493432,0.01473931473364741,0.006435745245304131,0.17939995254888388,-0.4398802860651309,-0.8799551289117504,-0.005093214961888897,-0.0030998947844214585,0.007470777942309364,0.9695151154788404,0.22725642428006845,0.09152574717451355,-0.004243569599401344
153,7.529999999999967,-0.007149691407446299,0.01861995222661955,0.009218257928599061,0.17951185999417293,-0.4398418082504754,-0.879951533508579,-0.0013182659794223244,0.0007472951434122174,0.005488615529780553,0.9695144212270428,0.2272314891858726,0.09159744532504781,-0.004184648323018713
154,7.539999999999967,-0.0028804344058766702,0.018038441264886514,0.00833611910290742,0.17962823109738602,-0.4398364317247611,-0.879930471224905,-0.00014732963762247435,0.003830234295420916,0.002355600116294859,0.9695092087490949,0.22722397760526378,0.0916735660350498,-0.004118177067907429
155,7.549999999999967,0.00046459554235535,0.015437079568993943,0.009732440376692474,0.17972321086804796,-0.4398555651541447,-0.8799015054371625,0.0011020507830587511,0.00617457242480638,0.0007856089463095358,0.9695020098167346,0.22722974298522294,0.09173824035744964,-0.004054025404840322
156,7.559999999999967,-0.004083396942982378,0.01736209414267039,0.006719421951965724,0.17980880820880984,-0.43988002920744246,-0.8798717566150398,6.469049049420354e-05,0.00717792748384365,-0.0006105375632995679,0.9694946163536992,0.22723846838576603,0.09179757755943205,-0.003992051390810177
157,7.5699999999999665,-0.005804188589448384,0.018830004469169867,0.005394597546812616,0.17991026763824294,-0.4398839721344206,-0.8798490392385513,-9.575842765515258e-05,0.008547218757464965,-0.0016246951738182048,0.9694889806235438,0.22723682496834866,0.09186348648460167,-0.0039363982813194025
158,7.579999999999966,-0.006450150236177664,0.015875616371897838,0.002407572025502289,0.18001799968651858,-0.439871455047434,-0.8798332352590138,-0.0027770996676977537,0.00876810135913877,-0.001404780490698312,0.9694850983200481,0.22722649738440742,0.09193196733251825,-0.0038830460078042956
159,7.589999999999966,-0.005508251122268403,0.012131367413996955,-0.0006169464006005223,0.18011849941522548,-0.43985708647211713,-0.879819883405112,-0.0026235132619911034,0.006925120157621925,-0.0016641723394296955,0.9694818591858688,0.22721773940244858,0.09198990971736005,-0.0038584155338279675
160,7.599999999999966,-0.0011617099815908378,0.008656316897491538,-0.0028946528980788523,0.1802032825822107,-0.4398495935016641,-0.8798063160124943,-0.0025479806375578035,0.006291530154803162,3.071423027528582e-05,0.9694783710690276,0.22721404944362641,0.0920360120998119,-0.0038497631431028924
161,7.609999999999966,0.0014730291970032644,0.006648681655687954,-0.0037480377502033197,0.18029346024632792,-0.4398567658629908,-0.8797842116485823,-0.0017690542093885399,0.008448697677112668,-0.0005152591458519839,0.9694726958974653,0.22721919356153747,0.0920832232671556,-0.003848962068222188
162,7.6199999999999655,0.0023382153745868427,0.0018980840680926337,-0.004873123470798555,0.18034059183575124,-0.4398657472417135,-0.8797700739124759,-0.0025021504009638557,0.009699190889484248,-0.0024237489611060167,0.969468908530081,0.22722602338763795,0.09210486547867985,-0.0038617657471207868
163,7.629999999999965,0.005966472039621609,0.0006078241094269277,-0.005682742666957833,0.18037257934270112,-0.4398718752735828,-0.8797604709881776,-0.0019700034194014603,0.008027164455291393,-0.0027203488657155587,0.9694663410700056,0.22723202833942058,0.09211614320728904,-0.0038849832505204606
164,7.639999999999965,0.0031829210428648883,0.002568336989283653,-0.005354799013478724,0.18041965090857576,-0.43989080519686624,-0.8797413398585509,-0.0021956380400545853,0.006836924708813428,-0.001220488568563441,0.9694612755281328,0.2272459596105424,0.0921336699815857,-0.0039155799718947545
165,7.649999999999965,0.008119808008223504,-0.00013795927257653616,-0.007204584967803936,0.18045259126469634,-0.43991860300041674,-0.8797206312435373,-0.002115668435535004,0.0061313317982192375,-0.0009098033417479828,0.9694558064550702,0.22726484231148655,0.09214316130517068,-0.003949444220908161
166,7.659999999999965,0.006803435820332179,0.0005677776862789016,-0.007081453883367299,0.1804860093691766,-0.4399594191645344,-0.8796934207253434,-0.0012878618153042384,0.0049641646732905146,-0.0009257105961547243,0.9694486426996309,0.22729099707687148,0.09215261292938381,-0.003985119699213031
167,7.669999999999964,0.00614724085226153,-3.9756038786228735e-05,-0.005418997947928465,0.18051020623844177,-0.43998968379562015,-0.8796733036470334,-0.0015551252118779428,0.005510916003699992,0.0016823884944725804,0.9694433526746931,0.22731074512439944,0.09215840331039012,-0.0040154284353254585
168,7.679999999999964,0.0062803047081223294,0.0005146568843001194,-0.005553314595011642,0.18054127601997885,-0.44001808341905435,-0.8796527088608562,-0.0012367792931984169,0.002713529583585076,0.003621852373278763,0.9694378994638384,0.22732935746986638,0.09216835462599068,-0.0040432041701788345
169,7.689999999999964,0.002910117969007808,0.0018214517201676458,-0.006913722386931283,0.18057729012267942,-0.44003433691131383,-0.8796371982997093,-0.0005452588245143286,0.0034283774999436284,0.004582900361883109,0.9694337785451355,0.22734167972910888,0.09218007203064037,-0.004073920727467957
170,7.699999999999964,-0.0038167731643920936,0.007372550259877037,-0.005476849863217424,0.18063621480055544,-0.43999247467677827,-0.8796460046257225,-0.0006881544869263814,0.002519302801147273,0.005293062670376102,0.9694359332453618,0.22732231541342884,0.09220385159262526,-0.004101594954957713
171,7.7099999999999635,-0.005872118234760564,0.00895137550538143,-0.0061425782334836344,0.1807211336749997,-0.4399149051717411,-0.8796673823896944,-0.000564358818615811,-0.0007783573149052802,0.009551602713111345,0.9694413793347599,0.22728321259040427,0.09224231439284224,-0.004122838112117181
172,7.719999999999963,-0.006557743727774227,0.015279299057291203,-0.00684509157041491,0.18084665957614846,-0.4398240967366164,-0.8796870005536738,-0.0032983469425154604,-0.0017320441514072711,0.01170600902796107,0.9694464048327524,0.22723672029606073,0.0923036850350575,-0.004136010356502105
173,7.729999999999963,-0.005743786019872283,0.018133296248603457,-0.00753250531627844,0.1810091503307895,-0.43974385237540803,-0.8796936981771206,-0.005198282334194474,-0.00025486462079592946,0.011342395023121595,0.9694481071271366,0.22719634899033045,0.09238486613225906,-0.0041472427500255
174,7.739999999999963,-0.005665867271405018,0.023057379954442625,-0.008470220416243747,0.1812111802064299,-0.43967218041674994,-0.8796879133277362,-0.004868220944378318,0.0011358407110098213,0.012656985690558968,0.9694465485117725,0.22716091009586092,0.09248760571962071,-0.00415475477826208
175,7.749999999999963,-0.008556350981675034,0.026405133602013357,-0.008630709294739972,0.1814657250156262,-0.4395735957328334,-0.8796847346505039,-0.0039263428248665876,0.0007283070332266598,0.012916535312958857,0.9694456742181861,0.22711218616141468,0.09261579911982552,-0.004169214058571795
176,7.7599999999999625,-0.010829632466608893,0.030437122877289967,-0.011621802448359956,0.18174995546764922,-0.43946612016428194,-0.8796797588049985,-0.003918943703080297,-0.00015430765941982832,0.008623531013320066,0.9694443916592083,0.22705826369340462,0.09276132675249531,-0.004175277236159111
177,7.769999999999962,-0.013970969023626578,0.02921631571331176,-0.011806533087718868,0.18204929492547958,-0.4393287745624209,-0.8796864600362415,-0.003609660194294276,-0.0004831951444360763,0.007667141604342539,0.9694460219516651,0.2269889326904962,0.09291285760562298,-0.004188086691867845
178,7.779999999999962,-0.0154341994861235,0.024556438499553808,-0.011282158167070426,0.18232881350892696,-0.4391803311241102,-0.879702665386237,-0.0028158617239905422,0.00037818023980787385,0.0071971710352991,0.9694501516853198,0.22691328854726286,0.09305384371446242,-0.004201352986541948
179,7.789999999999962,-0.017327638945529713,0.025750121616368422,-0.008910137973468056,0.182593484411484,-0.43904019786780135,-0.8797177558627225,-0.0009309162015103724,-0.00028949242372606153,0.003993305899261781,0.9694539654303626,0.22684224251496954,0.09318651276988936,-0.004217503756260439
180,7.799999999999962,-0.015480090168829752,0.020347694101014523,-0.009325675816550595,0.18282052510322475,-0.4389086417465323,-0.8797362586323743,0.002297781260203542,-0.00029449073036988795,0.00372080448926636,0.9694587281957966,0.22677439348705988,0.09330196460515117,-0.004223842868315213
181,7.809999999999961,-0.007575893708649713,0.0164087230435729,-0.00788898109289313,0.1830013948448895,-0.4388259210474646,-0.8797398926983374,0.004595242192043464,0.0019539083249250125,0.004964367618258045,0.9694595989144599,0.22673293050158805,0.09339290808247132,-0.00423424847344819
182,7.819999999999961,-0.0019228138297485231,0.01318142592361388,-0.008352107897811727,0.18314725862006667,-0.43879850647288726,-0.8797231744692304,0.0036981080483813713,0.004815797078423155,0.0023463806742496764,0.9694551704167825,0.22672149305515157,0.09346532510084135,-0.004248333294972166
183,7.829999999999961,-0.0014783102097895011,0.008872892564625985,-0.002983876772669477,0.1832529674828018,-0.43878681528481633,-0.8797070238871364,0.0042965878954296915,0.00461139343140339,-0.000767203640187784,0.9694510598434802,0.22671755891056333,0.09351807358060696,-0.0042576629121861215
184,7.839999999999961,0.0021006951641949524,0.004094352575165112,-0.004660660504160041,0.18331054924762274,-0.43879743256558695,-0.8796897298286557,0.0018794408031215363,0.001964555855507981,-0.0033055380890819664,0.9694465214386665,0.2267253601273513,0.09354539643022222,-0.004269552001413312
185,7.849999999999961,0.006043105618956169,0.001116738456455477,-0.0014186365419905003,0.18334057977985382,-0.4388410603400276,-0.879661736965875,0.0015725361225849563,0.0006454103017397767,-0.003221572865314262,0.9694392576686772,0.2267505934323974,0.09355910600135284,-0.004279687101026714
186,7.85999999999996,0.00903431083226134,-0.001318178378696736,0.0004763826235884951,0.1833343072821546,-0.4389179962857807,-0.8796246346768728,0.00173969704618588,0.000722580744754831,-0.0034436614729688028,0.9694296718170409,0.22679319214728494,0.09355492144985057,-0.004286879154385619
187,7.86999999999996,0.0069663101980376695,-0.005227033743003212,0.0006072642348403173,0.1832948046462984,-0.43900317920218873,-0.8795903711951107,0.0013623272232324542,0.0005379039009604737,-0.0032877718995790333,0.9694208360492987,0.22683976364484718,0.09353358845564523,-0.004293743321461151
188,7.87999999999996,0.0039312064810012905,-0.0046238617182133655,0.0014475666097185519,0.18325484100850672,-0.4390548267128394,-0.8795729481112485,0.0015415154445833105,-0.0016142197856747647,-0.00015124072917272737,0.9694163458847302,0.22686790832014953,0.09351195862491117,-0.00429941994911143
189,7.88999999999996,0.004988961036600162,-0.004041112012171156,0.000289898474363017,0.18322481022142847,-0.43909352112928035,-0.8795598515829934,0.000540624706289959,-0.0019871082485804145,0.00400095268392545,0.9694129365242893,0.22688886899720087,0.0934960421361074,-0.004302256701084226
190,7.8999999999999595,0.0069844803382957754,-0.0028445216542814285,0.000976588470069963,0.18319602941185986,-0.4391440582307262,-0.8795406481538169,0.00047246181941673637,-0.0013113701479756513,0.00635229072409963,0.969407952299639,0.2269165579454776,0.09348026876009696,-0.0043077372203758875
191,7.909999999999959,0.0032657454518503406,-0.003522653532895132,0.002857620309357659,0.18318063849566743,-0.4391901106613824,-0.8795208200563487,-0.001875540441042686,2.2872433715940286e-05,0.006017104619665236,0.9694027746777588,0.22694141011675842,0.09347290364692049,-0.004306944342804305
192,7.919999999999959,0.0016562693555677167,-0.0010266213323319,0.005806050957217817,0.1831597759425061,-0.43920277571672356,-0.8795188536067929,-0.0020615000743196056,8.154999207014456e-08,0.004688057406300903,0.9694023583726066,0.2269462044323903,0.09346655721081747,-0.004288175181403449
193,7.929999999999959,0.0029426285728307295,0.0022498526703651823,0.004509864700340789,0.18315568228314896,-0.4392223010619921,-0.8795099293299452,-0.0037819964663330253,0.0022453991562103614,0.003848287078056307,0.9694001447709645,0.22695471131677172,0.09346970341743548,-0.004266471222303435
194,7.939999999999959,0.004241501129707916,0.0032265237986983265,0.0052523795120788435,0.18317313023712015,-0.4392520242312258,-0.8794914278435836,-0.0029015875291573856,0.001968079719896063,0.005441199514715401,0.9693954735187401,0.2269688030606995,0.09348494078091613,-0.004241489473121445
195,7.949999999999958,0.005345918782537366,0.006643914125738412,0.002277070731780598,0.18321364906555337,-0.43929097553661706,-0.8794635693161705,-0.0016408717797234012,0.0037247500749421876,0.0066975490318971695,0.9693883620355429,0.2269887846875977,0.09351101972379101,-0.004221915198194213
196,7.959999999999958,0.004435803658185792,0.00777603746986889,-0.002740089760077214,0.1832887736523559,-0.43933118569311935,-0.8794278355379621,-0.0012364763264882932,0.00470688467936429,0.006754850570473206,0.969379234323174,0.22701124000404818,0.09355200715093223,-0.004215721701935616
197,7.969999999999958,-0.002891998989335803,0.006690284079828507,-0.002663623590527616,0.18336495257632782,-0.4393444872854899,-0.8794053150835541,-0.0001650085436315351,0.005682686263694028,0.008755256443744662,0.9693734027569454,0.22702002580857908,0.09359087987094032,-0.004219737778196255
198,7.979999999999958,-0.007491360981893545,0.006936030060182489,-0.005553052977339518,0.1834459283737473,-0.4393130359425644,-0.8794041335560998,-0.0002923827241153081,0.0032578960700569326,0.00888637678438096,0.9693731064172081,0.22700532930694725,0.09362961256632193,-0.004233087701803015
199,7.989999999999958,-0.013573677109696484,0.005687979825832635,-0.005626981412177921,0.18353345238965366,-0.43921836319048585,-0.8794331615621392,-0.00039959953836132535,0.0016412208888215744,0.008166016231887036,0.9693804627926537,0.22695614238794237,0.0936713864289454,-0.004245387590698514
200,7.999999999999957,-0.015563616201394268,0.006867679575048657,-0.0063386904524078405,0.18361931392204783,-0.4390820604402079,-0.8794833092799978,3.977204917812705e-07,0.0008259187782270302,0.006556862502436301,0.9693933399602914,0.22688416318580504,0.09371192833419911,-0.0042573965278710005
201,8.009999999999957,-0.012770711532077808,0.002180395390447637,-0.005624976244659281,0.18366645579495686,-0.4389311913739558,-0.8795487865189873,-0.0006553376016500662,-0.0003315574004576268,0.007730350858901817,0.9694101882806138,0.22680349451552845,0.09373255163013484,-0.004267747926524652
202,8.019999999999957,-0.009825982855762963,0.004595421531751184,-0.0024286288918935073,0.1837089141149543,-0.4388250611859223,-0.8795928771257892,0.0015125848676102612,-0.0002998110429920771,0.0055129124093354735,0.969421562812282,0.22674699709865273,0.09375161875126045,-0.004276197479882813
203,8.029999999999957,-0.0038639858768013263,0.005197768676371247,-0.00024043759258035678,0.18375781998199445,-0.4387616245815172,-0.8796143155143047,0.0013140441859773122,0.0014153888268295472,0.0018554567951857533,0.969427121348509,0.22671252983743923,0.09377782963369685,-0.0042703334732064665
204,8.039999999999957,-0.0015321126179252485,0.004404522238679511,0.0032749353338720334,0.1837787864169247,-0.4387371152979863,-0.8796221581140535,0.00018913526673487355,0.0018254533504240332,-0.0010147871368881025,0.9694292228447474,0.2266979792149735,0.09379207412222147,-0.0042550578055673615
205,8.049999999999956,0.0017100916134345351,0.004071236497096092,0.007470609730743456,0.18379332984619903,-0.4387419840073404,-0.8796166439227603,-0.002870958890045991,0.0017504200288971363,-0.003227654463353825,0.9694278457895221,0.22669815495014348,0.09380627824087466,-0.004226957098801373
206,8.059999999999956,0.003914537102549192,-0.0016938453203861397,0.007420717511237552,0.1837831151984865,-0.438780373937755,-0.87959966889422,-0.004096131336326475,-0.00022158794155284207,-0.004469056289578853,0.9694236452998459,0.2267157551231889,0.09380907118166122,-0.004193910509995232
207,8.069999999999956,0.017963973349501613,-0.005558524094912847,0.009085730980216906,0.1837196259550384,-0.4388948996467178,-0.8795557812254365,-0.0039046390612089174,0.0013540263096109815,-0.0042496661519539364,0.9694124362354454,0.22677443198522756,0.09378417089549745,-0.004163911433733029
208,8.079999999999956,0.02211075968836873,-0.010080791690184936,0.007665098290519787,0.1836219264434335,-0.4390889496654335,-0.8794793213752505,-0.003914415018472274,0.004724846091368165,-0.004471842620808074,0.9693928026551514,0.22687601771473703,0.09374230352667065,-0.004133743791536906
209,8.089999999999955,0.020796775697890183,-0.01284132805515197,0.0067817766335001445,0.18349498785802418,-0.43930686919403983,-0.8793969683739079,-0.0014143729186419508,0.0071550841045886476,-0.006901808384240781,0.969371628085672,0.2269917687805352,0.09368166104940509,-0.004119749523898236
210,8.099999999999955,0.019979193889505406,-0.015985690861360292,0.004441424715990166,0.18335007307856369,-0.4394959966331987,-0.8793326828757364,0.0014888723034374163,0.006660223717131079,-0.005578562675265129,0.969355085943018,0.2270930257493618,0.09360771642157295,-0.004121307997915161
211,8.109999999999955,0.020142161672920978,-0.019467115166404036,0.002329137375538982,0.18317540629656187,-0.4396653820538526,-0.879284407546047,0.001432336885875087,0.004639873567326214,-0.0022530294061169844,0.9693426084545217,0.22718340057085187,0.09351733300575753,-0.004126037130951808
212,8.119999999999955,0.018658257132670657,-0.023316907651942824,0.0021981150330198504,0.1829791637836667,-0.43983489579985796,-0.8792405179801364,0.002092347162666405,0.004950868349064593,-0.00021593792865382488,0.9693312223140724,0.22727504907249654,0.09341196244723737,-0.004146738810004521
213,8.129999999999955,0.016646666388641592,-0.0226065013585826,8.68739369944034e-05,0.18276913183185411,-0.4399931248486497,-0.8792050340049238,0.0023962087687113046,0.006903817792816639,0.002442349196017735,0.9693219616440902,0.2273606258814038,0.09329862141102623,-0.0041703123496244455
214,8.139999999999954,0.012305519378881,-0.019156587328581685,-0.002177126905441162,0.18257263296681242,-0.4401118771402353,-0.879186402264445,0.0009982873229676021,0.006461887547583892,0.0034973857390370893,0.9693169772183432,0.22742580644807667,0.09318958949627046,-0.004203847057287072
215,8.149999999999954,0.011041265045754497,-0.013658069902364919,-0.0031173980436856427,0.18242197478453626,-0.440198333396254,-0.8791743854063486,0.0003699940304690828,0.005634972318380036,0.004322606701839872,0.9693136935789686,0.22747442062977882,0.09310311819896357,-0.00424162339512945
216,8.159999999999954,0.01040782939946934,-0.009711605948898274,-0.003947692992199173,0.1823260854146557,-0.44027070012270036,-0.8791580390617757,-0.000341597045979662,0.0053162957888004125,0.007521910390977221,0.9693093238834711,0.22751592572257856,0.0930455737536685,-0.004277056363342292
217,8.169999999999954,0.008385343155622884,-0.005518452021739338,-0.005106349083948279,0.182271557178806,-0.44031492769479097,-0.8791472162477375,-0.0023664716077898074,0.006055024868282774,0.009415581603259525,0.9693063908172617,0.2275432041168095,0.09300798003762825,-0.004318069784918521
218,8.179999999999954,0.004569325399815089,-0.003267428050695566,-0.0064152605869478765,0.18226446601035634,-0.44033688102741514,-0.879137698346165,-0.0027039081477612894,0.005715031616164836,0.010004237262321183,0.9693037720958699,0.2275586727483997,0.09299573070791867,-0.004355458901126303
219,8.189999999999953,0.002357242184554375,0.003910691440923457,-0.005676193719083301,0.18231283922837987,-0.44034060924297663,-0.8791258087615729,-0.002429854274753704,0.0033704960325487477,0.011589392305327169,0.9693005435065243,0.22756475609782634,0.09301283002744054,-0.004390105314300811
220,8.199999999999953,0.0010627857254007422,0.009402994427756222,-0.00896782476525693,0.1824131788728471,-0.44033116156766877,-0.8791097064895079,-0.004683766284410107,0.001678537081536789,0.014916304698469007,0.9692962553596546,0.22756387333573783,0.09305820153770984,-0.004419072386784764
221,8.209999999999953,-0.0008560764507518169,0.010887539493632312,-0.009487971798342109,0.18254463486109831,-0.44029930614734275,-0.8790983521506833,-0.006030881359158906,0.0011826062976482681,0.015140365956725261,0.9692931677359945,0.22755136230618214,0.09311922875760965,-0.004449481886229675
222,8.219999999999953,-0.007555358876142633,0.01615536204161608,-0.01254357692258801,0.18271895188206103,-0.4402357312621109,-0.8790940030431307,-0.0058154661423929,-0.00019386473591357918,0.014966253855880783,0.969291877520525,0.22752286287709866,0.09320058186291705,-0.00448707376829062
223,8.229999999999952,-0.01567949619112617,0.01743556655152461,-0.011514175420285414,0.18292700291297087,-0.44011105410102713,-0.8791131608214232,-0.00441618778612146,-0.002506062618793722,0.014322594912289863,0.9692966682561017,0.22746161887876035,0.09329860607463973,-0.004525934169397227
224,8.239999999999952,-0.01909829213823711,0.019083536212879147,-0.011465650386469618,0.18313898160822098,-0.4399448628419985,-0.8791522265158656,-0.004582214909726408,-0.004016243875964088,0.012848699593309226,0.9693066194998041,0.22737684743650166,0.09340053448664291,-0.004555156641244727
225,8.249999999999952,-0.02028604644997879,0.018222423475583872,-0.009522850442728359,0.1833369984778391,-0.4397586238381069,-0.8792041419345811,-0.005601204968493664,-0.00461508712287709,0.009939148587119143,0.9693199739837517,0.22727977438905583,0.09349777715745337,-0.004572491869691503
226,8.259999999999952,-0.015700002495479728,0.0164261872730638,-0.007975593809641695,0.18352596411566174,-0.4395795613657713,-0.8792542629103304,-0.004317337029831043,-0.004677584183988342,0.006684496752478082,0.9693328417857279,0.2271861206226775,0.09359134307708168,-0.0045857398602566725
227,8.269999999999952,-0.012446266667421373,0.01312892574616833,-0.006623675747802626,0.1836812465202181,-0.4394454903085665,-0.8792888297493385,-0.0037176307488198737,-0.0036242939600688627,0.004205112696052198,0.9693417017894713,0.22711624039800707,0.0936685197131572,-0.004595975006597234
228,8.279999999999951,-0.007039066361391723,0.012304557179688614,-0.003099645345375029,0.18380033996829853,-0.4393705555474376,-0.8793013790518752,-0.001106260639267687,-0.002404340418609684,0.0006448678304473705,0.969344919085566,0.22707764591585006,0.09372853931009015,-0.004601459403497228
229,8.289999999999951,-0.0013993137159756313,0.008302455387912563,0.0012997601193774,0.18388165104556053,-0.43934885316019556,-0.8792952103444546,0.0009779274689587741,-0.00026245610544973867,-0.0026661406712732653,0.969343295675993,0.22706648475591412,0.09377203546652114,-0.004595702497484481
230,8.299999999999951,0.00015464663146828314,0.005231535378542889,0.004373035332016548,0.18392602216419016,-0.43936106676937803,-0.8792798332044097,0.0018313811068223725,0.0020458883117124944,-0.004444786357947462,0.9693393824043796,0.2270717184585224,0.09380040357876629,-0.004573812534248
231,8.30999999999995,0.0025848532726857882,0.0034780010299950643,0.007484036967049992,0.18393698291882177,-0.4394105179566973,-0.8792528383411545,0.002344090083243899,0.002836305011253696,-0.004638746338429951,0.9693325919726541,0.2270955195611284,0.09381475458464815,-0.004539022611132976
232,8.31999999999995,0.0035195482370402446,0.0018433112778680082,0.00873184942408611,0.1839112280095459,-0.43948232552541483,-0.8792223546889155,0.0016945820566151618,0.0038135858423410792,-0.003315300170276852,0.9693249673242428,0.22713047704309797,0.09381137894804926,-0.004499183981590005
233,8.32999999999995,0.00618963643057131,-0.00045280759989808775,0.007733514512373326,0.18386367908342663,-0.43955594981424034,-0.8791954998264462,0.002186120089989968,0.004135639895369932,-0.002305197100546975,0.9693181938977375,0.22716644497119332,0.09379587779605467,-0.004462767034888918
234,8.33999999999995,0.008559912258354327,-0.005290189385127214,0.007058017730020584,0.1837924847700298,-0.43964909698520976,-0.8791638246591337,0.002833701381663265,0.002862389533384028,-0.0020470839616710305,0.9693101973625927,0.22721294243249301,0.09376769029794267,-0.004428725089448919
235,8.34999999999995,0.011929107300631445,-0.008070125910860603,0.006320974996156399,0.18369566995629386,-0.43977191067413,-0.8791226229700005,0.0006852748165220128,0.005118662585870909,-0.0016698999266765535,0.9692996966348775,0.2272764917179254,0.09372347557687133,-0.004407393498323523
236,8.35999999999995,0.012255939841942095,-0.010583356206309043,0.004694938457783104,0.18358958029265737,-0.43989571037835,-0.8790828303727675,-0.00016213216695737,0.0067265768152306145,-0.001975359920276954,0.9692894609059013,0.2273415069241422,0.09367188856451426,-0.004396974099575266
237,8.36999999999995,0.014124350768327703,-0.012385067258181968,0.004190888244446306,0.18346717602135304,-0.4400164235377742,-0.8790479610927037,5.85117673712409e-06,0.007278851325268667,-0.0023522835832407284,0.9692804641627116,0.22740533897904308,0.09360997825338196,-0.004394193949781189
238,8.37999999999995,0.01376324500165152,-0.014398286726692345,0.0036824939145909375,0.1833321234020269,-0.4401313423849618,-0.8790185974127586,-0.00014089683797757869,0.006574332572102279,-0.0019864786233410037,0.969272851767938,0.2274666776157599,0.09353932540028641,-0.00440035454021964
239,8.389999999999949,0.012067676075324342,-0.012586539508510556,0.0011969640884257502,0.18321390756564657,-0.4402324678865052,-0.8789926199134042,0.00108396549785845,0.005701137178421351,0.0008280788761592165,0.9692661250222849,0.22752121432121025,0.09347610823227195,-0.0044115770162587754
240,8.399999999999949,0.00865627589704604,-0.010329463573116749,0.0008825433529006963,0.18311430328278075,-0.44031320589200446,-0.8789729586490322,9.832824691913202e-05,0.004955801854265483,0.003798124122768729,0.9692609807802259,0.2275652442440104,0.09342156004145541,-0.004426324277751727
241,8.409999999999949,0.0062178491504212615,-0.006787530666292649,-0.00015611903292668604,0.1830433342248253,-0.4403752157813371,-0.8789566767087946,-0.001018826475402044,0.0038299609342168466,0.006477777548937922,0.9692567274830943,0.22759942137490682,0.09338188370286588,-0.004440469209371494
242,8.419999999999948,0.005479795900783742,-0.005764939462208093,-0.001233455353073875,0.1829991848803899,-0.4404196285163436,-0.8789435867546181,-0.0020196944245449646,0.003654668258319345,0.009127365192656469,0.9692532375546163,0.22762457017944668,0.09335557216852718,-0.004456476483832685
243,8.429999999999948,0.006528524624757663,-0.005105969291956997,-0.0035558150036691574,0.18296136166216312,-0.44045878139189704,-0.8789318364901078,-0.003769756699962209,0.0030820301533237703,0.008654804634943825,0.9692500779831814,0.22764737780938776,0.09333143292811559,-0.0044770191367426194
244,8.439999999999948,0.0057362446230327935,-0.0026596795118141434,-0.0028248194043873198,0.18294243097442958,-0.44048963330909763,-0.8789203237441066,-0.004541667050081026,0.0025067229056210815,0.007364306438882591,0.969247023075129,0.22766641115164618,0.09331583921731663,-0.004502698019945016
245,8.449999999999948,0.00497905823040256,0.00010621898392915467,-0.0025896074730584603,0.1829491758600964,-0.4405071389527073,-0.8789101520954863,-0.0051799784262866405,0.003184373059694893,0.007199751706640287,0.9692443004129524,0.22767816654591252,0.09331441297147801,-0.004524473903284761
246,8.459999999999948,0.002798820622046992,0.0028127736713719296,-0.003825281223267703,0.1829801193591047,-0.4405090172138965,-0.8789027526648693,-0.005735855100073948,0.002585895648564627,0.007956975087061615,0.969242313178054,0.22768134364225118,0.09332644680476983,-0.004541961770001988
247,8.469999999999947,-0.0008430973577363192,0.007125759266906156,-0.0052916867118584735,0.18305019392276542,-0.44049831029014663,-0.8788935037345008,-0.004381761183080898,0.0005875977414889018,0.008911101462677595,0.9692398183619509,0.2276782800828809,0.09335865487123944,-0.004559826005358246
248,8.479999999999947,-0.0030865204268642824,0.009678744524670314,-0.0036819096488353684,0.18314933601769212,-0.4404653238850609,-0.8788893915518514,-0.002888204493803309,8.310200301978236e-05,0.010289008019448046,0.96923868088937,0.22766301772612937,0.09340690407156779,-0.004572911451672586
249,8.489999999999947,-0.004926475459659903,0.011145567562310582,-0.004395018872632523,0.183257997276876,-0.4404216646184549,-0.8788886269851315,-0.0035323828252218645,0.0009430398428904353,0.009426439744507397,0.9692384806414639,0.22764146814634148,0.09346146089990844,-0.004579797027865807
250,8.499999999999947,-0.003334531991301708,0.010007803286469247,-0.005235424335557604,0.18337333973498898,-0.4403789456558856,-0.8788859820012392,-0.0031194323633175927,0.002205801136172334,0.007195896715821345,0.9692377686821332,0.22762050980774282,0.0935195893027181,-0.004586374632473151
251,8.509999999999946,-0.0012257575996883442,0.010506883548398585,-0.003849471346841573,0.18348132830618105,-0.44035491841857194,-0.8788755047446206,-0.0014509245945708044,0.002522252155427837,0.004360562904728828,0.9692350151023316,0.22760978645785782,0.09357372240539184,-0.004594427742502165
252,8.519999999999946,-6.361745888468283e-05,0.009944207412789424,-0.002730084190683601,0.18357751669252736,-0.44034862416230924,-0.8788585840571906,-0.0006183381596301145,0.002989754966085467,0.002753698670220968,0.9692306922361186,0.2276078812126982,0.09362353370372792,-0.004595418839684719
253,8.529999999999946,0.0024286380301331953,0.0076792697299065725,-0.001872237299398389,0.1836528399465697,-0.4403467514718338,-0.878843774274535,-0.0008630745732237772,0.0029849727161340347,0.002016978621428892,0.9692269185716607,0.22760809875333818,0.09366248916135132,-0.004596545204980006
254,8.539999999999946,-0.000614655167963963,0.004686458477214774,0.0003517526658423577,0.18370112666055302,-0.44034691576750673,-0.8788335975571071,-0.0001681325073387977,0.0020543702608975052,0.0011008343446034905,0.9692243207776192,0.2276087031192347,0.09368817413720915,-0.004594303521658335
255,8.549999999999946,-0.002518781650053094,0.004341637803125622,0.0010586540902367296,0.18373573335562512,-0.4403403757682839,-0.8788296134782919,1.2462316928314677e-05,0.0017742914193636804,0.001235745575029274,0.9692232491767674,0.22760490703556235,0.09370800610152476,-0.004586393359394404
256,8.559999999999945,-0.002226164348638537,0.0042256344994066304,0.0006530080964162015,0.18375882329596738,-0.4403364213465346,-0.8788267659195107,-0.0006102492858177303,0.002905712783536109,0.001431440956998842,0.9692224974877556,0.2276021204448988,0.0937224193092255,-0.004576114278654358
257,8.569999999999945,9.811752352606364e-05,0.000644844770059049,-0.0008056396363764973,0.18376744738433923,-0.4403409077594727,-0.8788227036694229,-0.0019115469537426292,0.004423281182896208,0.0007275570137050841,0.9692214800760416,0.2276041152324991,0.09372838337848882,-0.004570039682360917
258,8.579999999999945,0.005055562216032384,0.0005026590490107116,-0.0029195212603536796,0.18377454614987557,-0.4403673926778678,-0.8788079431876354,-0.0017235834422416854,0.00449574014256099,8.967473244888018e-06,0.9692176672822503,0.22761908517672186,0.09373137527626482,-0.004574170953371228
259,8.589999999999945,0.009071062393948434,0.00082723186987896,-0.00225525586041258,0.1837869807643121,-0.440431270639704,-0.8787733388753869,-0.0014632535683204585,0.004943531758580739,0.0006008164885369559,0.9692086625940279,0.2276554806455743,0.09373531224435075,-0.004587698178508476
260,8.599999999999945,0.011165154358634334,0.0006870295986868885,-0.0037979623510451975,0.18380081176472388,-0.4405184927320432,-0.8787267456074161,-0.001981441610947329,0.004877607217003325,0.0015664933295176963,0.9691965504110965,0.2277048982999677,0.093739598588213,-0.004603806802912601
261,8.609999999999944,0.010195758022175408,-0.001388800851840193,-0.003821039448563556,0.18380026352047646,-0.4405905591002698,-0.8786907284477438,-0.0017292741029118,0.002988601635086527,0.0025222134601677777,0.9691871679924602,0.22774637623176835,0.09373488080322258,-0.004625704408436251
262,8.619999999999944,0.005301533131068565,-0.002154304387230384,-0.003474832137454425,0.18379961210081722,-0.44064138220673227,-0.8786653809921098,-0.001492069903528029,0.001936918395525521,0.004291197929437994,0.9691805445724847,0.22777627500147868,0.09372983208665182,-0.004647884903207091
263,8.629999999999944,-0.0032786585600720185,-0.00044501132185168716,-0.004124128788397581,0.18381410395238967,-0.44064238098986497,-0.8786618341526972,-0.001011035980343728,0.0011851703940164286,0.005574432260000915,0.9691795376675465,0.22777888358660744,0.09373292786667552,-0.004666879819451953
264,8.639999999999944,-0.007812321252208908,0.0009712098431232173,-0.0042836945802413075,0.1838302267619578,-0.44058334431976065,-0.8786880487742691,-0.0002620041805787782,-0.00035191894153218403,0.006818247648107077,0.9691862337764693,0.22774852836078155,0.09373671702185006,-0.0046840158610085185
265,8.649999999999944,-0.005347437730189862,0.0012521446423552477,-0.003635871551569332,0.18384340114612618,-0.44051267844151715,-0.878720734049292,-0.0008563928425546558,-0.0002539936393421002,0.007261247239650962,0.9691945812200734,0.22771204299991302,0.09373820539198709,-0.004703922906433769
266,8.659999999999943,-0.004429033168981457,0.001500708739348614,-0.003911037240138579,0.1838667290419257,-0.44045302578154294,-0.8787457579706994,-0.0010562687445776747,0.00022409068806808054,0.007420441929069143,0.9692009239353592,0.22768166376128374,0.09374527391744786,-0.004723073044617188
267,8.669999999999943,-0.0067889951841583205,0.0033269293300893024,-0.0038627430155749013,0.18390356706319358,-0.44037787296598246,-0.8787757058177691,-0.0002425936864137992,0.0003640731288726743,0.007142263626703617,0.9692085667184355,0.2276426316497851,0.09376017832626171,-0.0047381909256843
268,8.679999999999943,-0.006906834843959952,0.0036747662054800365,-0.004849190937153917,0.18394972843033283,-0.4402921715074418,-0.8788090012743907,-0.0011929140597034455,0.0010950325989286013,0.007870451226957427,0.969217085429919,0.22759768163074426,0.093780573238948,-0.0047501861267820605
269,8.689999999999943,-0.0019362655187438382,0.0037551289999792478,-0.0023898909442621576,0.1839981219514397,-0.4402476889245651,-0.8788211887967662,-0.0018763837445785571,0.0015543382189254515,0.007539896780749063,0.9692202215632325,0.22757496505113467,0.09380326633495524,-0.004759053856758519
270,8.699999999999942,0.004687385980226908,0.003280019686709508,0.0019999820410852268,0.18403397064574234,-0.44026455196237585,-0.8788052308249668,-0.0017502286714150353,0.0021788958410318636,0.0057836810128747305,0.9692161621117115,0.22758465118140725,0.09382224468068444,-0.004758459860618131
271,8.709999999999942,0.00732729191185178,0.0019352890762718315,0.004163636039365256,0.18404511315094912,-0.44032755774354426,-0.8787713153301129,-0.0017197056338740732,0.0032247716164463015,0.003680505967900333,0.9692074805878448,0.22761818832746553,0.09383121465495715,-0.004747612749692819
272,8.719999999999942,0.009827434949745795,0.00018464698498864849,0.005450896687301409,0.18403679361080522,-0.4404254174779249,-0.8787240346747026,-0.002177383952143236,0.00354171847092458,-0.00010019205823923964,0.969195342904,0.2276699842559378,0.09383157862491255,-0.004731706555872846
273,8.729999999999942,0.014027729207848243,-0.0005020788214892694,0.005767591647145311,0.1840115217665862,-0.44055653719694343,-0.878663603933648,-0.0015987659747040619,0.0019082596619170087,-0.0024357493119152797,0.9691797985351611,0.2277394707648067,0.09382400376026552,-0.004713420556127466
274,8.739999999999942,0.015033946891017017,-0.0025203825148734146,0.00544309627859389,0.1839679814233134,-0.440708658105186,-0.8785964249883648,-0.0008113441966582189,0.001123236371432613,-0.0024166374827106923,0.9691625444684154,0.22781995368016775,0.09380761286941217,-0.004693040465921947
275,8.749999999999941,0.014324820949659783,-0.00559380176744659,0.0051242503923061905,0.18391108891429891,-0.4408574952474402,-0.8785336326144371,-0.0004683174048959448,0.0024524404165842265,-0.002035690692821979,0.9691464338604262,0.2278988409275127,0.09378325710991747,-0.004676789673425959
276,8.759999999999941,0.010030277091789046,-0.008013625306171774,0.004812595466702024,0.18383043811968688,-0.4409813175917749,-0.8784883669004477,5.7339620100184676e-05,0.003016723499404624,-0.0012569076926726027,0.9691348098866789,0.22796429425413242,0.09374483389297601,-0.004666685036497452
277,8.769999999999941,0.004128651980972117,-0.010043111923917944,0.003008667210424732,0.18372763917145354,-0.4410544866400113,-0.8784731668426136,0.0002721723120811803,0.0022789587327315492,0.0007854108330508362,0.9691309318462618,0.2280020738491457,0.09369354445640707,-0.004660087410410824
278,8.77999999999994,0.0020032779232122926,-0.010910137693776275,0.0018191535651014736,0.18361731174744966,-0.4410845300155396,-0.878481140401757,0.0008619564296924859,0.002028744332066711,0.002476839534178713,0.9691330130531104,0.2280166438802566,0.09363677256160456,-0.0046582978591957255
279,8.78999999999994,0.001256770393931402,-0.010521176086871085,0.0015229213386679578,0.18350620257670228,-0.44109950434869205,-0.8784968337130281,0.0005058167966149441,0.003433623115454332,0.0028977844626953005,0.9691370456361664,0.22802330194481396,0.09357863861396237,-0.004659955465103179
280,8.79999999999994,-0.00040063616783900854,-0.00870656011048221,0.0002355407218608929,0.18341376863502096,-0.4410964245703415,-0.8785176880277871,-0.0013133767971036758,0.0056549875955244,0.0034569755772833853,0.9691424251298569,0.2280205495733647,0.09352960099757822,-0.00466352754741055
281,8.80999999999994,-0.0006793877926982546,-0.006829670070251978,-0.002078713089621818,0.18334780131866502,-0.4410746408975062,-0.8785423832665267,-0.003204898113862377,0.005962268620607851,0.005520992002017923,0.9691488060144177,0.2280083278584261,0.09349332010366265,-0.004670697564745022
282,8.81999999999994,0.001876753953167453,-0.0025290557592836465,-0.005825182920209636,0.1833210464857881,-0.4410651857921434,-0.8785527301056031,-0.0029520720423962055,0.005281977294811404,0.00834665620004782,0.969151369609146,0.22800486956841787,0.09347413147826476,-0.004692619067917791
283,8.82999999999994,0.002932856846510618,0.0008793343966266742,-0.00763887208477656,0.1833360639658995,-0.4410735965209785,-0.8785453776665819,-0.001757093725727527,0.005169330035061352,0.00963304470126366,0.969149285859854,0.22801301233875326,0.09347395830010687,-0.004726980691432324
284,8.83999999999994,0.0005424235046749355,0.0017380280771863686,-0.007342122695513843,0.18337729572996242,-0.4410696306888939,-0.878538748453374,-0.002660497903495971,0.004793402290448713,0.01031969667642212,0.9691473617680643,0.22801510851139276,0.09348656926745776,-0.004764541014974077
285,8.84999999999994,-0.004793463408934447,0.0036327590359379863,-0.007485225350021089,0.18344356929676828,-0.44103031958450134,-0.8785446302980496,-0.002712304663694324,0.0034802348169448664,0.010528083682030525,0.9691486548272955,0.22799841720700442,0.09351152413253266,-0.004803629022875196
286,8.859999999999939,-0.010563116867263569,0.00418570523178792,-0.006687760395963064,0.18352117440492202,-0.44094572320639586,-0.8785708855897072,-0.0010567552448110357,0.000543524294745327,0.010951083136904946,0.9691552499812403,0.22795639207234586,0.09354378676058772,-0.004834858549703369
287,8.869999999999939,-0.015334629851804595,0.003409467095444537,-0.003937784051064286,0.18359141677676663,-0.4408168427981399,-0.8786209086216328,-0.00010182371261915533,-0.0027672351275782213,0.011518076174131201,0.9691680571299057,0.22788867959460402,0.09357514569230944,-0.004851778514375973
288,8.879999999999939,-0.017709179511271288,0.00317647385676182,-0.0012848711197524232,0.18364065274855912,-0.44065764164239085,-0.8786904568931476,0.0007828641479482468,-0.004517871735347385,0.009674697003808944,0.9691859899445242,0.22780285932620686,0.09359824884327259,-0.0048560179833784045
289,8.889999999999938,-0.016008786285839745,0.003853111311408777,0.0019390454031128304,0.18366479985690304,-0.440495424396218,-0.8787667379418909,0.0011665932213891408,-0.005083694048903461,0.007481602691232747,0.9692057643573381,0.22771358897341118,0.0936116696792324,-0.0048456896093933485
290,8.899999999999938,-0.011885971264547067,0.003969052695878628,0.007389399237098759,0.18367092144682864,-0.44036705755473465,-0.8788298165661695,0.0006044992327789203,-0.004370249360672774,0.0054998592592533525,0.9692222340384571,0.22764027217338675,0.0936215620574071,-0.004811801583220823
291,8.909999999999938,-0.004661726961573199,0.003043146639291619,0.01115055869327505,0.18365970967128326,-0.4403072071628891,-0.8788621587462371,-0.0011710796394542372,-0.001740569403657122,0.0023613621670680396,0.9692308316671848,0.22760235892797762,0.09362742146342264,-0.004759500122249315
292,8.919999999999938,0.0023498069627713755,0.0035030687085994515,0.011788196110367351,0.18363430288713406,-0.44032248893614284,-0.8788598124553657,-0.003794996911167564,0.0004180036021454526,-0.0004832868281952324,0.9692305455093027,0.2276046338339719,0.09362813777477304,-0.00470069994055554
293,8.929999999999938,0.008274393739279861,0.0037508185266210666,0.011387887457863207,0.1836085759425663,-0.4404005594504469,-0.8788260619415496,-0.005272499554117759,0.0016812571012371125,-0.001528727083921663,0.969222115576971,0.22764103457829715,0.09362974371581516,-0.004640060529928891
294,8.939999999999937,0.014527413303351491,0.0011164265370792515,0.012321262546802285,0.18357810249856807,-0.44053846451633427,-0.8787632803715728,-0.006055231731142938,0.003972298484776257,-0.00153433708510277,0.9692061480000846,0.22771037300525448,0.09362872901830846,-0.004582634377517836
295,8.949999999999937,0.01705125109897325,-0.0014044191759702836,0.011268118950913867,0.1835306873896428,-0.4407202457536024,-0.8786820158136355,-0.005465222513573181,0.006614891711491442,-0.002367595141836358,0.9691854074873967,0.22780414294346643,0.09361759091238736,-0.004532591453109637
296,8.959999999999937,0.014674062408722105,-0.0036941370153327274,0.0066538874859190895,0.18347462811844953,-0.4408974426212137,-0.8786048284449952,-0.003914395779299397,0.006524005900054727,-0.0032360085130515733,0.9691656781115053,0.22789654264405793,0.09359883845144117,-0.0044956000390920245
297,8.969999999999937,0.011399228109479666,-0.0067805505047740956,0.004183547814355595,0.18340877582927825,-0.4410366207154731,-0.8785487390005013,-0.002651793549308465,0.005518448146326368,-0.002479405959275587,0.9691513294395113,0.22796950631454171,0.09357099898192997,-0.004473977437456974
298,8.979999999999936,0.008757126145092248,-0.010739691538356246,0.0038455921373686222,0.18331081977260894,-0.4411458946891775,-0.8785143373139517,-0.0014268204097909847,0.007126752937185559,-0.0004941025481275732,0.9691424939316992,0.22802710864477266,0.09352257704688355,-0.004467486019763034
299,8.989999999999936,0.0069727105176366575,-0.014130896363337652,0.00023408029408226744,0.1831843858375726,-0.4412328022831871,-0.8784970550640384,0.00021170635742336942,0.009257172217708708,0.0013589707965056235,0.9691379867931048,0.2280736838045803,0.09345514918033906,-0.004477752364296411
300,8.999999999999936,0.003530955575913217,-0.014812999161596055,-0.006438872827595278,0.18306272739439663,-0.44126863252364035,-0.8785044370605295,0.0012107453879108031,0.009293076308121609,0.003190871671587692,0.9691397243075468,0.22809471994204242,0.09338408320236471,-0.0045118868234268975
301,9.009999999999936,0.0005297546487500585,-0.013383161792321012,-0.00943795294316644,0.18296513301543751,-0.4412567892212286,-0.878530714977187,5.793571764646537e-06,0.008284785077488734,0.004525018012466535,0.9691462422269158,0.22809225099737976,0.093319739094475,-0.004568722345865118
302,9.019999999999936,0.0031338813065624844,-0.011770701291346861,-0.010835560160059914,0.18289363873949074,-0.44124613542806207,-0.8785509303787028,-0.00033555727294399553,0.008633206416726952,0.005558049985669536,0.9691511462909053,0.22809140898791944,0.09326757787132789,-0.00463163522072655
303,9.029999999999935,0.0023301910472535506,-0.00794545041392024,-0.011890180781824026,0.18285194579901262,-0.44124351160643344,-0.8785609109400543,-0.0003760664713414356,0.008531298533664494,0.006711839754492385,0.9691533987745656,0.2280957386301152,0.09323018949693436,-0.004698096108767341
304,9.039999999999935,-0.0008044753539146886,-0.0010775884054681328,-0.01293699620008074,0.18285811580140734,-0.44121817498004756,-0.8785723774487204,-0.0005966318376254627,0.006278931326012155,0.006842609179531965,0.9691560289819516,0.22808838070977477,0.09321750702080943,-0.004764597691182551
305,9.049999999999935,-0.0029764306031301296,0.0024697320405651403,-0.011263007524704228,0.18290661904289307,-0.4411614495065913,-0.8785907784948026,-0.001211317386546825,0.002511300219240305,0.007842348968616478,0.9691604720260223,0.2280638017161339,0.09322833422680281,-0.0048236341557514485
306,9.059999999999935,-0.005044253398641845,0.005745005139849064,-0.008627566137664421,0.1829750109255208,-0.4410869133128795,-0.8786139423082642,-0.0019011265082671388,-0.0012456061914298943,0.008678390439590249,0.9691662445780436,0.22802838990215316,0.09325277535803388,-0.004868105457041408
307,9.069999999999935,-0.004466968097738064,0.008804085279471024,-0.005000070075252268,0.18306749661857613,-0.4410063510152828,-0.8786350987700926,-0.0023236228069862803,-0.003383165514445453,0.010098536126814326,0.969171595857423,0.22798821043035158,0.09329422539056374,-0.004893391616071482
308,9.079999999999934,-0.004134740598775536,0.010269690086079721,-0.0030950923079478016,0.18317761226681825,-0.4409428103696665,-0.8786440520217482,-0.0020163560935844136,-0.0039471717520755956,0.011291442732559345,0.9691738833245428,0.22795578106512548,0.09334950210284045,-0.004899659911504992
309,9.089999999999934,-0.006281800905439142,0.0103200247614678,-0.000960610933576498,0.1832793536699675,-0.4408896484926137,-0.8786495373239781,-0.002889397754122103,-0.004010910675187374,0.010807975670310251,0.9691753519105167,0.2279276143373132,0.09340362176963166,-0.004892724228585011
310,9.099999999999934,-0.0053374759687523235,0.008902309187022091,-0.00023184315886246444,0.18336753220152094,-0.4408269716009014,-0.8786625794801007,-0.0032810846028730875,-0.004865250170008202,0.008541918829701364,0.9691787559802154,0.22789346715095793,0.0934520145327575,-0.0048797255810253525
311,9.109999999999934,-0.005764555488195585,0.008901442273151055,0.0030680058386179116,0.18344247168967343,-0.44076535323530786,-0.878677842659977,-0.002274352697406832,-0.004441967506075041,0.007444579757589845,0.9691827320288616,0.22785880091319038,0.09349574618594846,-0.004857285961356786
312,9.119999999999933,-0.007387323929664704,0.007846588622880372,0.006888758481393923,0.1834954014819551,-0.4407119878166757,-0.8786935377844295,-0.0010704646775946394,-0.004332372412306477,0.006929146497570266,0.9691869504514707,0.22782686208602784,0.09353157023937105,-0.00482000142030634
313,9.129999999999933,-0.009897958368780376,0.006795950686151872,0.007457221859891942,0.18353776997747778,-0.4406616299542566,-0.8787099262258734,-0.0005591078335627738,-0.0048059282113992515,0.006809088165371893,0.9691914031422312,0.22779567051362967,0.09356368076259669,-0.004775198468830582
314,9.139999999999933,-0.011624846711285846,0.006500279371926367,0.0066490920383611325,0.1835719365968855,-0.4405937083967407,-0.8787368788742936,0.00036901602893928804,-0.004963701915610416,0.005909276456299357,0.9691985741785356,0.22775450692667687,0.09359194582332156,-0.0047278341399358305
315,9.149999999999933,-0.00626742248514825,0.008313068430925313,0.006123487585076479,0.18361384399526454,-0.4405471473180253,-0.8787514632969852,-0.0009105026345751159,-0.0032823014756989013,0.005141951608861768,0.9692025591850525,0.22772540208024045,0.09362378518892708,-0.0046833083161056084
316,9.159999999999933,0.00034970531840254236,0.0085861073156551,0.0040579105885909655,0.18366309066751604,-0.4405565491135705,-0.8787364511993738,-0.002820406409559062,0.0016507626766214287,0.0035949793924634306,0.9691989039358933,0.2277275258609161,0.09365866384128405,-0.004644459687248085
317,9.169999999999932,0.003108149705256652,0.007863438632258107,0.004692282257771319,0.1837094960725552,-0.44059870907626003,-0.878705640600575,-0.003358689869245339,0.005037961355987117,0.0004166216875460617,0.9691911634363575,0.22774803702925642,0.09369106872017095,-0.004611203868375729
318,9.179999999999932,0.006319203251388203,0.006576905908734441,0.004421456027011237,0.18373994260381632,-0.4406729051498277,-0.878662045603536,-0.003716021287232838,0.007637292910193145,-0.0006492306668091622,0.9691800674004621,0.2277858873917287,0.09371532825436442,-0.004578599620759603
319,9.189999999999932,0.00787069341334843,0.005076038850834359,0.003322440174550244,0.18376861817704415,-0.4407697832403833,-0.8786074709392094,-0.0019108000146700987,0.009595712217948853,-0.0005230697321677446,0.9691661022130146,0.22783674332100676,0.09373732651142688,-0.004552682934616077
320,9.199999999999932,0.006266605265380537,0.004441545298544636,0.001111489735850328,0.18380294039693318,-0.4408585349904657,-0.8785557727980049,-0.0005332969987544229,0.009158545995467265,-0.0008787531179438048,0.9691528408696944,0.2278843412908076,0.09375953446997884,-0.004538057138161837
321,9.209999999999932,0.001076112091899873,0.004091985104101397,-0.0011930888014685804,0.1838361730144389,-0.4409077288053193,-0.878524123854468,0.0002690794803806621,0.00818989253125735,0.00020361626154418084,0.9691446996026344,0.22791193360036022,0.09377680347180954,-0.004540330664600238
322,9.219999999999931,-0.004573078575628165,0.003657547363047179,-0.005376150853727866,0.18387633117969251,-0.44090218920094515,-0.8785185021952462,0.0011885629939024408,0.007815193724946101,0.0005153816062332828,0.9691431746340432,0.22791091610245792,0.09379426771238025,-0.004554813840126365
323,9.229999999999931,-0.007614589970183721,0.0010677797779855363,-0.009559266026394519,0.1839277755231569,-0.44085033732876844,-0.8785337600889163,0.0012845068580282007,0.007066628073464061,0.0017208156847454597,0.9691469481878837,0.22788617955154547,0.09381373362568962,-0.00458385218152495
324,9.239999999999931,-0.004999437262590681,-0.000828458945516961,-0.0093698034555129,0.18396761060704303,-0.44078371015919654,-0.8785588457493616,0.0008173712204535633,0.005969313300405421,0.0018610762282106818,0.9691532037473506,0.22785453345681944,0.09382375393037956,-0.004626701779273672
325,9.24999999999993,-0.0011572664051867788,-0.002420564097016778,-0.00859617936460592,0.18398377092856277,-0.4407353289214395,-0.8785797437097741,-0.0017244222615905654,0.008040369844946056,0.0027561214459927027,0.9691583657362605,0.22783290675590576,0.09382061902356992,-0.004673803396153471
326,9.25999999999993,0.0006306681197785481,-0.0011556557869886082,-0.010146085335125687,0.1839979651609363,-0.44070371482126064,-0.8785926069284585,-0.0018598814599501742,0.0077038982422862855,0.001516416146968166,0.969161452090289,0.22782039641386873,0.09381666712770169,-0.00472076650581147
327,9.26999999999993,0.001545564186134274,-0.0011815223053476438,-0.010292709087151039,0.18402257348245823,-0.4406770531304106,-0.8786008124741572,-0.0011184845650751597,0.005187064900487232,0.0019556531266085274,0.9691633414911555,0.2278110022146808,0.09381755998218722,-0.004770381080879841
328,9.27999999999993,0.002506737010683193,-0.002222240644777435,-0.008864477958797572,0.18404477207810346,-0.4406610109655039,-0.8786042323420442,-0.0020738265209059473,0.0028355996833560517,0.0047455816784876355,0.9691639712427538,0.22780708491338086,0.0938180194314824,-0.004816970493344718
329,9.28999999999993,0.0013512688110636128,0.0006182986519042502,-0.007638449381055363,0.1840640402276304,-0.4406482346779698,-0.8786065790858382,-0.0016522945244905624,0.0005310447683178473,0.007338871843446437,0.9691643900437358,0.2278042034088242,0.09381869915192878,-0.004856270539227088
330,9.29999999999993,-0.0023087788634610067,-0.00023263807346869702,-0.005220760309502976,0.18409387676285838,-0.4406136090294648,-0.8786177043290363,-0.0017544757024579843,-0.0030926810732068272,0.006559132012642814,0.9691670860266263,0.22778884547844533,0.09382639017710116,-0.004888262119600836
331,9.30999999999993,-0.0016071748849854463,0.0009001837595817349,-0.0053183100031117,0.18413029042057116,-0.44057867525443256,-0.8786275866945147,-0.002834795718140416,-0.0031975581137379436,0.005869193979220001,0.96916950715355,0.22777279498234684,0.09383902149840415,-0.004913797524795195
332,9.31999999999993,0.0025220962143912293,0.005431418230772003,-0.002795405907186845,0.18417894753123504,-0.4405716207376221,-0.8786209255705417,-0.00297563281174885,-0.0018038997215551334,0.006273430344043139,0.969167660617992,0.22777154173249983,0.09385980548922668,-0.004932946704237775
333,9.329999999999929,0.0034021575245115118,0.006458859812821063,-0.0009620805353547714,0.18423049678110492,-0.4405811656655821,-0.8786053357610556,-0.0013527400914803273,-0.0015412583925597735,0.005875590620355962,0.969163606546897,0.22777806367534761,0.09388551736496283,-0.004938231432496013
334,9.339999999999929,0.0048278518121922425,0.005877951475743219,0.0001856938226219029,0.1842793839961837,-0.44060505305851067,-0.8785830940415981,-0.001802005328159561,0.00021247665540757236,0.00680146817175035,0.969157878107951,0.22779152049044213,0.09391207278793769,-0.00493463706467928
335,9.349999999999929,0.0012533747523207099,0.0065784028015861,0.002544804578729727,0.18432221124777198,-0.44062699893463214,-0.8785631184040139,-0.0025619050659187416,0.0003362938102631594,0.006195383397592648,0.9691528128499641,0.22780303832528856,0.0939373272601321,-0.004923019667820715
336,9.359999999999928,-0.003033969545012151,0.007637611379738092,0.0017553818508545059,0.18437339767676,-0.4406266354998747,-0.87855256015836,-0.0011327877198752938,-0.0008710484163983286,0.00631737155594763,0.9691502695138048,0.22780170662058685,0.09396858433607638,-0.004903469304018944
337,9.369999999999928,-0.007004514015829662,0.008457585495207823,0.0029723209288952486,0.1844359589794965,-0.4405965906423339,-0.8785545168011998,-0.0019441165351671236,-0.00020140824164038373,0.006102278133113257,0.9691508661060081,0.22778404841825875,0.09400625359520307,-0.004880677692599613
338,9.379999999999928,-0.005429127704343583,0.008130585139161033,0.0026577013178555476,0.18449850333805842,-0.4405618633837055,-0.8785587744535381,-0.0022249887955050544,0.0006777231006037431,0.006160047312127656,0.9691520838202115,0.2277637035655551,0.09404417691861136,-0.004856541406920883
339,9.389999999999928,-0.0035374553677284515,0.009832658539561489,0.002219247608260508,0.1845562001411337,-0.4405338672261059,-0.8785607039070649,-0.002739983753176682,0.002314598579558052,0.004614175362898858,0.9691526660049112,0.2277468193194356,0.09407998075651353,-0.0048309646856054805
340,9.399999999999928,-0.003023454764191237,0.011825941909467489,0.00018091631322631732,0.18463211422537026,-0.4405176737490185,-0.8785528632408797,-0.0016914185794051721,0.0047635027431365716,0.003137232594313962,0.9691507427645413,0.227737013742378,0.09412451007884753,-0.004809126429689555
341,9.409999999999927,0.001116381623537225,0.008882255781140916,-0.0020244818324673492,0.184722253175156,-0.44052196769530727,-0.87853175467321,-0.0010128818500634664,0.006657643092762743,0.0030476752138016865,0.969145325281481,0.22774025248777385,0.09417269835426914,-0.004804129167214702
342,9.419999999999927,0.004999982529181158,0.006582424027568457,-0.0025934746518394493,0.18480188966755115,-0.4405558679118743,-0.8784979841220386,-0.001706326750351531,0.007031736927352257,0.00340788059758745,0.9691366175387857,0.22776022968112433,0.09421397530163196,-0.004806498228689517
343,9.429999999999927,0.00335763117102264,0.0030769427692808275,-0.004802986702471013,0.18485817374515742,-0.4405949995414282,-0.8784665407097683,-0.0013005160019837925,0.008202021551266784,0.0020385784261642663,0.969128410810566,0.22778395697728568,0.09424010503750163,-0.0048217647894428835
344,9.439999999999927,-0.0006549967842429377,0.000759228767735145,-0.006866472646022275,0.18488983155602223,-0.44060542808259767,-0.8784546646485135,-0.0016682193826606671,0.007712944100099951,-0.0010935209546769134,0.9691252205482485,0.22779281990423597,0.09425023017921526,-0.0048493093194621525
345,9.449999999999926,-0.0055906446514109665,-0.003101238971525629,-0.008006471745988626,0.1848997894872418,-0.4405628980169675,-0.8784738768997435,-0.002383845014301417,0.006053422344882164,-0.0016419026445079535,0.9691299829374757,0.22777334263873472,0.09424627656304216,-0.004886443979918029
346,9.459999999999926,-0.006759561110332914,-0.003542871156093165,-0.00809717440015124,0.18490258384343766,-0.4405032904486658,-0.8785031957337278,-0.002397752813841001,0.003531702508091544,-0.0008371365699036314,0.9691374458112911,0.2277439591325634,0.09423951634641353,-0.004918890333064913
347,9.469999999999926,-0.0013644376706147155,-0.0038289784182153363,-0.007060412719694706,0.18489677386915496,-0.44046227867816135,-0.8785249953607741,-0.002766570448002876,0.0008584924030637739,0.0017730628166584366,0.9691428716744173,0.22772477260348215,0.0942280969794826,-0.0049529021596559555
348,9.479999999999926,0.005211295512978973,-0.001995441417981008,-0.006752029641516207,0.18491080652266165,-0.4404608359005889,-0.87852272699839,-0.0028893926488905643,0.0009535697406087605,0.0028758653866409723,0.969142084325428,0.2277277540313302,0.09422682477487924,-0.004989396148454126
349,9.489999999999926,0.00982310564789062,-0.002597633706269901,-0.0062735389023483665,0.18492852610935998,-0.4405019884897498,-0.8784983880527577,-0.0016436215164551513,0.0018364734138557604,0.0018841658800767618,0.9691356191698844,0.22775423656107055,0.09422744132268523,-0.0050277681956365575
350,9.499999999999925,0.010640870194274196,0.00017775422460487693,-0.005446213049936272,0.18494203693379227,-0.44056407556216276,-0.8784644176570116,-0.00023060014407180946,0.0031422585198931847,0.002516036271289633,0.969126658922771,0.22779169151446435,0.09422707802867397,-0.005061853895218656
351,9.509999999999925,0.007884403940739113,0.000754739705554601,-0.0031756828785698124,0.1849701191897019,-0.44062060825127336,-0.8784301225527478,-0.0018685276719277205,0.002841004618672366,0.004930997059139893,0.9691176533384109,0.22782556261246184,0.09423612840666334,-0.005087955030568685
352,9.519999999999925,0.007587054167352433,0.0007834282667756548,-0.00270312128937466,0.184977710156844,-0.44066406895002863,-0.8784067541962887,-0.001759907663123735,-8.81756153066121e-06,0.004609390250339666,0.9691115436242493,0.22785107417398956,0.09423650321025269,-0.005104958404225401
353,9.529999999999925,0.007174714089725289,-0.0011160458019060051,0.00014677226930362206,0.1849598104947421,-0.44070974994451584,-0.8783876018808264,7.809572531613666e-05,-0.0019047660604464204,0.004472583056384761,0.9691065830097289,0.22787618889180672,0.0942265871853748,-0.005109357335191126
354,9.539999999999925,0.0062810324756120495,-0.0019827542434979525,0.000743228092846023,0.18494052536507996,-0.44075621025716577,-0.878368320517766,-0.000624463714075027,-0.001177415512876125,0.004121816140045878,0.9691016271400456,0.22790095842064295,0.09421775682182808,-0.005106083045716074
355,9.549999999999924,0.0032002901471746394,0.0005931989873220056,0.003114220145497388,0.18491713331127713,-0.44079945450311747,-0.8783515349439104,-0.0003191450949814941,-0.0010419563502302262,0.00361140715685866,0.9690973739768519,0.22792325088035575,0.09420833891632634,-0.005096067859400478
356,9.559999999999924,0.0032417616921539324,0.0002717520734942583,0.0041911539292998744,0.18489449079066111,-0.44084000789931665,-0.8783359671916292,-0.0004435222354017675,-0.00021188454813685933,0.004419989449797196,0.9690934410757367,0.22794376930526378,0.09420003934689322,-0.0050828402228220385
357,9.569999999999924,0.0024731338886419155,-0.0022252228004347426,0.0031848717890839663,0.18486947900356065,-0.44087635194877073,-0.8783229844660289,-0.0008842223529183359,0.000834372597271597,0.0055383541031299305,0.9690901430391997,0.22796233906070326,0.0941895430873336,-0.00507355551073273
358,9.579999999999924,0.0032116423222581184,0.001061823937703082,0.004077924985555063,0.18485559231717855,-0.4409006296072913,-0.8783137176445452,-0.00028568866916491736,0.0011998081503588577,0.006177666794854299,0.969087839963739,0.22797375412444143,0.09418650218823463,-0.00505673119454545
359,9.589999999999923,0.0009919579613318142,0.0010758847871594342,0.004292499447674479,0.1848492841041273,-0.4409205217262757,-0.8783050856587722,-0.0009480893484346928,0.0024772278048296827,0.005685307654711355,0.9690856911784242,0.2279825219323676,0.09418827042638471,-0.005036070387241022
360,9.599999999999923,-0.00048417276575334533,0.00026969388442682935,0.004485608944801598,0.18484088953241018,-0.4409383023929288,-0.8782979147497874,-0.0018881096949006303,0.0028611359533181817,0.005032008468174571,0.9690839680574712,0.22798980556344514,0.09418963054558704,-0.00501244838568517
361,9.609999999999923,0.003613624943693221,0.0027646824298192966,0.003678672948720809,0.18484707366336459,-0.4409620319269901,-0.8782847089215746,-0.0027909854226920027,0.0024761861882852754,0.004037988678483571,0.9690806865965874,0.2280007953767874,0.09419810079338359,-0.004991121411298627
362,9.619999999999923,0.007249761081907276,0.0010097341063325705,0.0035168447032300327,0.1848605872276444,-0.44102369862627455,-0.8782509035700162,-0.002282219466620232,0.0034346144167668744,0.003980989238535701,0.9690720722137843,0.22803269156028272,0.0942106166079365,-0.0049704210589026805
363,9.629999999999923,0.00868254490259544,0.0011602556317131369,0.002133613837285198,0.18486457296245143,-0.4411057970432901,-0.878208813385711,-0.003136864148287857,0.00476841458354542,0.0036166344820776717,0.969061324636098,0.22807589866990877,0.09421765323226783,-0.004952763077025946
364,9.639999999999922,0.009754086655511158,0.004540140363370516,0.001046484542907583,0.18488465836312357,-0.44119546770339513,-0.8781595317828873,-0.002919407698181505,0.005318885785917844,0.0010792829701087182,0.9690485836240145,0.2281247312156582,0.09423020131647179,-0.0049476720228439535
365,9.649999999999922,0.006593184860194252,0.0038408899653870746,0.000853771623664648,0.18492149619546455,-0.44127472718803956,-0.8781119584631534,-0.00015976496750491295,0.005613053269122525,0.0026112600893170123,0.9690362932027348,0.22816846886959857,0.09425055685412329,-0.004946066037749765
366,9.659999999999922,0.006557158300266414,3.6651293467194487e-05,-0.0037290676676180047,0.18493907737120513,-0.441334202763926,-0.8780783708053826,-0.0016758839084219557,0.0033749355772076882,0.004285356597982578,0.9690275964686768,0.22820192823670812,0.09425865823389952,-0.0049530737486916925
367,9.669999999999922,0.008337580453523724,-0.0014131706160347155,-0.004112302907991995,0.1849494391877692,-0.44138607266712193,-0.8780501263816736,-0.00018990240000683753,0.002880935929924522,0.004772776008265054,0.9690201930841683,0.22823235146419352,0.09425997132531039,-0.004972591007053173
368,9.679999999999922,0.0003485820356546284,-0.004010449099235703,-0.0038584009732466327,0.1849437418787238,-0.44141004016721624,-0.8780392851479492,0.0003680148574522652,0.003693662267267548,0.003503253756078849,0.9690172849550203,0.22824782282123737,0.09425126341105625,-0.004997941977244472
369,9.689999999999921,-0.007274245620545655,-0.003556205239266334,-0.0023338609603351726,0.18492587818065231,-0.4413710615980084,-0.8780626583141666,-0.001038737192128303,0.0025202503341530645,0.0025681305869267863,0.9690233078281506,0.228227911224701,0.09423744894634412,-0.005015407868864013
370,9.699999999999921,-0.008641421469993853,-0.002193928541509957,-0.0013454437402715225,0.18490989105714387,-0.44128871121408003,-0.8781073970342713,-0.0019377559019210157,0.00041365769240225337,0.002868315540414855,0.9690348077013676,0.22818409071427484,0.09422481938468599,-0.005030225232931159
371,9.709999999999921,-0.004776634321923425,-0.002498916185596471,-0.00015489111606599584,0.18488608467268555,-0.4412185389086447,-0.8781477093331479,-0.0018671128733276714,0.00022309393283901594,0.0027291731849007246,0.9690451573666966,0.2281462671666671,0.09420954061950561,-0.005039487792374021
372,9.71999999999992,-0.0025528780872921754,-0.00025698889089936924,-0.00021324024781749616,0.1848642424427085,-0.44117939625354147,-0.8781719382856662,-0.003342906547082692,0.000555033202527607,0.0029069793851384564,0.9690513692256879,0.2281248355825959,0.09419707507553503,-0.00504248995964081
373,9.72999999999992,0.0026413718510482883,5.742661271459815e-05,-0.000340681926564823,0.18486713414793018,-0.4411771602026582,-0.8781724744442764,-0.002434411964540486,0.0030753105122980893,0.0035672514710042105,0.9690514611669485,0.2281242311820371,0.09419717185255305,-0.005048396445619359
374,9.73999999999992,0.008208696029055242,0.0040806981608082025,-0.0034581435262330327,0.18489025953974167,-0.44122671663659657,-0.8781426871755953,-0.002117289691866319,0.006326198119343522,0.003465178246672786,0.9690436958243551,0.22815276201432072,0.09420710316397522,-0.005059462224524025
375,9.74999999999992,0.011680872172975205,0.0022965194937131328,-0.0036702364720088434,0.18493156758173593,-0.44130397875344396,-0.8780951593585609,-0.0011991475817914087,0.004376631688003999,0.005343190047664305,0.9690312923557578,0.22819775121629088,0.09422427581301598,-0.005081171282505857
376,9.75999999999992,0.006528570562473967,0.0015896487529666764,-0.004750256163042663,0.18497949273488,-0.4413734367426065,-0.8780501669668492,-3.863667972886006e-05,0.00234353495461371,0.006871785209710315,0.9690195845408961,0.2282385840904478,0.0942447737537095,-0.005103064328957223
377,9.76999999999992,0.000378535663609679,0.003599390345908282,-0.003992735229195035,0.18502290949476397,-0.44138133133950885,-0.8780370077064354,0.00040136883415915097,-0.0009597097731200225,0.008068566046641367,0.9690160956835857,0.2282449014007285,0.09426429489343324,-0.005116577391847913
378,9.77999999999992,-0.008789271191583256,0.0034087687366204616,-0.0025095781768630088,0.18505951798133716,-0.44133660066271574,-0.8780517736467947,-0.0011484285578247755,-0.0011955471133256433,0.009118136405390193,0.9690198900934139,0.22822159306048595,0.09428154397513834,-0.0051225056517008325
379,9.78999999999992,-0.010988039665038524,0.005476562898484971,0.0017448079021479893,0.18509080464999694,-0.44125619839487323,-0.8780855964636093,-0.0003896607374396313,-0.0028929066705536315,0.008723751104214708,0.9690287006934719,0.22817708814263454,0.09429957245049925,-0.005111875777686108
380,9.799999999999919,-0.010894040918407262,0.007020460701190295,0.003807023705998251,0.18510637704658361,-0.4411684724986669,-0.8781263986001313,0.0014972492492754516,-0.002809108553395345,0.006364581027666578,0.9690393388861475,0.2281271564778824,0.09431223136493559,-0.0050889470630663325
381,9.809999999999919,-0.011736707988066242,0.00459447082773548,0.004707330831939244,0.18512621747241986,-0.4410747802251747,-0.8781693033877654,0.0020336902396620904,-0.0012534452139622903,0.0037970170270070092,0.96905056145836,0.22807290696731086,0.09432977120247274,-0.005054481712350735
382,9.819999999999919,-0.0015727660444537054,0.0032140295271087813,0.007094093528699656,0.1851289973467024,-0.44102226212932233,-0.878195108113268,0.0012727025851161796,-0.0002733000314786936,0.003083141092331354,0.9690574439096468,0.22804065143035382,0.09433936184897952,-0.0050176868052111325
383,9.829999999999918,0.0015519341629716822,0.003968017941707291,0.007285448111898487,0.18512146543551766,-0.4410232217033313,-0.8781961935852628,-0.00027965978074920083,0.0016365329000278704,0.0004890094751367509,0.9690578782582261,0.2280373433208631,0.09434448129559588,-0.004979322660284166
384,9.839999999999918,0.00677996772899777,0.0030148897387070883,0.00821182448614453,0.1851202194075491,-0.4410706824415016,-0.878172593535597,-0.001627666074976503,0.00411771369876454,-0.002290583574867898,0.9690519858951014,0.22805963498233278,0.09435306183347562,-0.004942060047326576
385,9.849999999999918,0.006561153966900184,0.0006250454401221148,0.0059330383436881915,0.1851015551908685,-0.4411608706185797,-0.8781312104185705,-0.004246186915367428,0.005421055670326824,-0.0011321249923171037,0.9690414974877511,0.22810508109068417,0.09435281105686324,-0.0049055803745928495
386,9.859999999999918,0.00869677966698424,0.0020410007952871255,0.0054161750513849255,0.1850777649356432,-0.4412540171713744,-0.8780894561739996,-0.004599948066950349,0.005930472279431191,-0.0015370680136086996,0.9690308470585154,0.22815318073968036,0.09434724781755391,-0.004880453950528276
387,9.869999999999918,0.007490955502230455,-0.0019894774569006804,0.0027530508987997702,0.1850499124930728,-0.44134938100500903,-0.8780473822453936,-0.0043303942019585215,0.007042756783384019,-0.0012633623377746998,0.969020054754148,0.22820360399847048,0.09433673777646928,-0.004867437764796563
388,9.879999999999917,0.007750446219333791,-0.004238455442616432,-0.0034584964319376572,0.1850225666022775,-0.4414307180587785,-0.8780122599200442,-0.004067225579522356,0.006241358047224367,0.0004634191928696208,0.9690109685450919,0.22824850006153105,0.09432117464509952,-0.004876395020087343
389,9.889999999999917,0.003233629553942209,-0.006245411185211532,-0.004876572984061962,0.18500238834840918,-0.44147486550082354,-0.8779942994275369,-0.003184839869446807,0.006098559840705278,0.0005512926754427672,0.969006170821724,0.22827499900816856,0.09430463165126575,-0.004903853917240252
390,9.899999999999917,0.003432612674127265,-0.003941685818843313,-0.008258892211466768,0.18498294502062065,-0.44149818058059126,-0.8779866930548288,-0.00012371750293999919,0.006612459453896164,0.0037295075226644356,0.9690040954497026,0.22829114548220708,0.09428572125108409,-0.004942048650204105
391,9.909999999999917,-0.0021199659234725668,-0.0037064745775518596,-0.008397546857114031,0.18498567679700587,-0.44148377031783426,-0.8779933990751986,-0.0001922535979072047,0.0071919168777097656,0.0045249213890851785,0.9690056182597682,0.22828767935219285,0.09427640952451201,-0.0049869965329586464
392,9.919999999999916,-0.006102954638053725,-0.000716174496153897,-0.011615104127264774,0.18501520984791134,-0.44142458958856523,-0.8780169136876551,-0.001463016644525014,0.006738768983766667,0.005300141113955545,0.9690113671934294,0.228260487324804,0.09427990446198839,-0.0050350783462842705
393,9.929999999999916,-0.008090653319501095,0.00011578446226921,-0.014936595040830952,0.1850674661323392,-0.44132585047180295,-0.8780555362566486,-0.000728757454284778,0.006886684747646787,0.006392021269719363,0.9690210279509299,0.228213420676093,0.09429140329377318,-0.00509776350594231
394,9.939999999999916,-0.008304512659819902,0.004676377361950766,-0.01381967371496257,0.18514649884310666,-0.44121722617106546,-0.8780934909245429,-0.0017116710138003254,0.00565675903886709,0.007714553144759144,0.9690304725257409,0.2281615705899501,0.0943162951404901,-0.005162493623873935
395,9.949999999999916,-0.005332061889645262,0.00516303892525553,-0.013835443776478055,0.18524558058350774,-0.44111919825398366,-0.8781218150700449,-0.0012262240481404172,0.0036578861147832636,0.007599463159389466,0.9690374772475456,0.22811522696031203,0.09435324952038864,-0.005220865363479854
396,9.959999999999916,-0.0095016839033006,0.009369621382763448,-0.012928045411123542,0.18535510519680887,-0.44101344996672903,-0.8781518067111186,-0.0014856780691923136,0.0028645136708725133,0.008247008898583161,0.9690449376295027,0.22806474117532102,0.09439577246339155,-0.005278367537424688
397,9.969999999999915,-0.01583503846167221,0.010580177541689117,-0.011581613201661907,0.18549174957488138,-0.4408700731400382,-0.878194967492292,-0.001455329340648619,-0.0009932200597359538,0.0056691745197818685,0.9690557906400333,0.2279928864808783,0.09445509624342495,-0.005323037627578187
398,9.979999999999915,-0.015279826201156914,0.008590945649955769,-0.0065563306926062935,0.18561679887655888,-0.44071771149236616,-0.8782449931472044,-0.0014892286945853402,-0.0008113949035657251,0.006873766179409559,0.9690685982977463,0.2279139778893578,0.09451301461111164,-0.0053476537182623445
399,9.989999999999915,-0.017372270061722737,0.010107697860924737,-0.0028283937454272436,0.1857240749195877,-0.4405681399683549,-0.8782973943278868,-0.0027785257991938565,-0.003021472541774515,0.007444257418580163,0.9690820316731855,0.2278346663499468,0.0945657183540976,-0.0053551922888996385
400,9.999999999999915,-0.016366842641811416,0.008211884216269583,0.0018976668337318345,0.18579530662083577,-0.4404127320112142,-0.878360285762101,-0.0013034643090206258,-0.0062992244271147255,0.006152547096006525,0.9690983643274247,0.22774942038812787,0.09460482289530775,-0.005340420537692755
401,10.009999999999915,-0.009752456360545498,0.004073209696614618,0.0040474243593770515,0.18584028536478245,-0.44029879918015086,-0.8784078745802568,-0.001856824325362768,-0.005366348588596626,0.004171905038903294,0.9691107721520507,0.22768606230865449,0.09463151195477688,-0.005321911864153866
402,10.019999999999914,0.00551484697119187,-0.0005361042889750174,0.00493218912484183,0.1858206754590186,-0.44028301462270286,-0.8784198874411346,-0.0005591179188912014,-0.0039890214673444935,0.0035240905484777,0.9691138648715262,0.22767509123962,0.09462614795169931,-0.005300633478318172
403,10.029999999999914,-0.00552237992376332,0.005796712265448349,0.007926953119852715,0.1858151187885718,-0.440293667721528,-0.8784157519614053,-0.00042343664557684514,-0.0016276837235787503,0.0006929326938568039,0.9691130046153172,0.22767670420416702,0.09463325934146956,-0.005258488429672304
404,10.039999999999914,0.0033117644502489363,0.006526607176665069,0.004644548706377866,0.18584653622587127,-0.44029466175430304,-0.8784085795609303,0.002512554620766329,-0.0015841164082417041,-0.0027043761879880336,0.9691114300372022,0.2276743414356655,0.0946577971376936,-0.005223756764394444
405,10.049999999999914,0.008468983504842873,0.007301936795216134,0.009010050293312252,0.1858605477821902,-0.4403707233794844,-0.8783674985253681,-7.104591729251153e-05,0.0008085808437424972,0.004182174387008497,0.9691010592402614,0.22771239906285048,0.09467475798215635,-0.005185779769781705
406,10.059999999999913,0.008495650540311393,0.00986092714316645,0.006009504708170658,0.18589763460471637,-0.44047404858358313,-0.878307862476232,-0.0012412967568634842,0.005677112913025425,0.008547791567679076,0.9690858923252105,0.22776477470353576,0.09470630117846217,-0.005138085703802086
407,10.069999999999913,0.0027706631006555365,0.009565848712795524,0.003104358202536934,0.1859415558243297,-0.4405455255265286,-0.878262707284536,4.93611123238587e-05,0.004817921096244657,0.006251027947663541,0.9690744484724559,0.22780117019537524,0.09473793718714982,-0.005103855906352686
408,10.079999999999913,-0.003387694800347223,0.006141190256635521,0.004173942737237957,0.18599175163014134,-0.4405577770159284,-0.878245950037848,-0.0003635806827833867,0.0012732096149478274,0.004921355234526902,0.9690702531078059,0.2278063360601166,0.09476976386285021,-0.005080274582256405
