,seconds_elapsed,rotationRateX,rotationRateY,rotationRateZ,gravityX,gravityY,gravityZ,accelerationX,accelerationY,accelerationZ,quaternionW,quaternionX,quaternionY,quaternionZ
0,12.0,-0.4562530308289933,-3.0191703875459774,0.01639809185940709,0.35291176300240756,0.9336759820075193,-0.06075489382805433,0.3342894856999016,1.2993315120307396,-0.028339512730957812,0.7282218150972406,-0.6387992080707037,0.24804699342046624,-0.0065362326435772925
1,12.01,-0.14800411468268954,-3.0903285706168457,0.17874442973675214,0.3518497595136531,0.9335068273081892,-0.0688701421676144,0.18832999631984126,0.9144402869478448,-0.04813243737891833,0.7310183393435775,-0.6397391451143848,0.2372121558890898,0.003949619421212748
2,12.02,-0.10207285168651295,-3.065553061862041,0.31983661247399664,0.3519322207182018,0.9326995688614101,-0.07867752679715774,0.04519326249874531,0.5774029054536928,-0.05506539000555183,0.7342232151437957,-0.6397160737697122,0.22671134825287448,0.014878824480006679
3,12.03,-0.179235648750302,-2.937998371954155,0.4296019938062213,0.3529399511170259,0.9314900408425143,-0.08797663326185476,-0.11495042479061315,0.3583068953536362,-0.031772782705728,0.7370736291342411,-0.6395062424644883,0.2168427612586204,0.026031754997939603
4,12.04,-0.25296268688515355,-2.78041857091714,0.5387736745264651,0.35481404451710075,0.9299808215154417,-0.09605576083785165,-0.26822498905803055,0.24150251163344627,-0.0034164675022895063,0.7393324068219951,-0.6393537224220247,0.20779866739523314,0.03719281304026277
5,12.049999999999999,-0.2872447520577757,-2.6321739230528443,0.6480349901800853,0.35764629568232104,0.9281328546021793,-0.10316785588896317,-0.388453429600367,0.1839354455258095,0.008839529228341674,0.7410920486810465,-0.6391797025185318,0.19962542355942778,0.048321245480143174
6,12.059999999999999,-0.3147932284047983,-2.4682274966468216,0.720518813527747,0.3613121580633391,0.925978183510197,-0.10956150465313055,-0.47561643648742585,0.13501073914098166,0.01741453664755982,0.7424500918739038,-0.6389330750071238,0.1922800690313837,0.059318440166419475
7,12.069999999999999,-0.39864891919838397,-2.267215042010471,0.7442175732591724,0.36545571266209514,0.9237026651389337,-0.11491037996670914,-0.5549210663718479,0.05137125868894443,0.02004244914482596,0.743327133600898,-0.6387844397147928,0.18571397863384964,0.06994931638064646
8,12.079999999999998,-0.5612460664944566,-2.0427045370353554,0.7269845116929863,0.3697552981824836,0.9215439860840652,-0.11845174972488995,-0.6408479252570949,-0.07244986132853239,-0.0011410752782087686,0.7435056892711017,-0.6390684801431976,0.179883290211237,0.08000951200163006
9,12.089999999999998,-0.7918258047910545,-1.8037126961109242,0.6739675822342907,0.373939552461696,0.9197330633884241,-0.11939738584594789,-0.7243961867085553,-0.2124253237978514,-0.0340883468162985,0.7427594066343481,-0.640137704319464,0.17469519985427598,0.08936844846843454
10,12.099999999999998,-1.0225304451244552,-1.5363549163225878,0.5880024560325523,0.3777795218280599,0.9184306115842883,-0.11730757124445215,-0.8002103847145207,-0.3518141942898181,-0.0566440276351153,0.7409854677102874,-0.6421906103642089,0.17009154193955792,0.09786304572194926
11,12.109999999999998,-1.1692390805803634,-1.2257559346523177,0.48400456348667753,0.3811248377640601,0.9176550550774196,-0.11243340779467649,-0.8765370746009112,-0.49025643207947406,-0.07120712473336162,0.7383291346473454,-0.6451153058514414,0.16614336677301697,0.10523027515737088
12,12.119999999999997,-1.2117709070744773,-0.875143110660928,0.3778472003704716,0.38393214793088826,0.9173062828343338,-0.1054918319780125,-0.9670647508288034,-0.625629004121868,-0.09241882616589546,0.735097957399529,-0.6485954913744599,0.16301182288331306,0.11120860085093076
13,12.129999999999997,-1.1708068586578209,-0.4815325224696059,0.2781236362297382,0.3862442321890637,0.9172534617510709,-0.09716271738375705,-1.0755375638480755,-0.7339733085356286,-0.1184217921219526,0.7315821505565425,-0.652323623774834,0.16089868084778838,0.11559735600847064
14,12.139999999999997,-1.0540502043636018,-0.039439249517639274,0.18637721587516068,0.38812994152872515,0.9173874700886565,-0.08793128190284348,-1.193022580258612,-0.7870612140703231,-0.13962009574494977,0.7280037534610647,-0.6560613792731124,0.16004518755503816,0.11820535939281025
15,12.149999999999997,-0.8303279461414296,0.4278163267010517,0.0900360115790183,0.3895526767582562,0.9176433040917764,-0.07847047175590524,-1.3031087010096745,-0.7842462508686222,-0.15377028526774697,0.72464586812127,-0.6595125641568862,0.16063909225894982,0.11883233788267213
16,12.159999999999997,-0.5080592073624562,0.8799342956148364,-0.0025738184331870126,0.39042018711474186,0.9179839224098442,-0.06972356300874473,-1.383955751982667,-0.758138504119074,-0.16919400709137772,0.7218616080620506,-0.6623046884484436,0.16274891777200026,0.11736463399131868
17,12.169999999999996,-0.12899778081380162,1.2804707717882613,-0.06622047707125464,0.3908066415473796,0.9183391682952133,-0.0625646770802766,-1.4140156454465098,-0.7478041121202795,-0.1928409932884726,0.7199325524323703,-0.6641081027661387,0.16635176790073483,0.1139032507682485
18,12.179999999999996,0.25629058838832997,1.6033713199237072,-0.10889028871360566,0.39088296531674693,0.9186376019276398,-0.0575518217435827,-1.3827336318990378,-0.760897811243233,-0.2157615710069724,0.7189880965263705,-0.6647349122584554,0.1713000766847162,0.1087338480710662
19,12.189999999999996,0.6110119992846854,1.8601920349422032,-0.16770987416214836,0.390621258011998,0.9189177879037702,-0.05481433490989441,-1.2976742557489882,-0.7768593844448264,-0.2259085876274061,0.7190050328153047,-0.6641843796553507,0.1773164001171467,0.10210447797571998
20,12.199999999999996,0.9166410769929695,2.0748557403314507,-0.26062478821270085,0.38974717229344713,0.9193259586926514,-0.054188155617285495,-1.1871588343255015,-0.7720160920588016,-0.21776585819664626,0.7198727142697161,-0.6625790160382733,0.18406931794362158,0.09411730891518894
21,12.209999999999996,1.1818697036684755,2.2626113682642504,-0.37850023583716025,0.38800319343162204,0.9199883876657774,-0.055426294565700904,-1.0757978767556975,-0.73545060904662,-0.19183594489664865,0.7214531019481958,-0.6600581759988527,0.19129620694076882,0.0848097299777849
22,12.219999999999995,1.4186410868868014,2.441159494999867,-0.5059591663559683,0.385268943981026,0.9209563719252672,-0.058314075078641135,-0.9701287620816873,-0.6764058083600408,-0.15751962985448545,0.723615140838352,-0.6567207413636765,0.1988535538971774,0.07419563464723075
23,12.229999999999995,1.5939522136969895,2.5970716467225463,-0.6340917180207524,0.381526652733966,0.9222319800497145,-0.06256887104781884,-0.8733313414987253,-0.6092853836639683,-0.12019474947453287,0.7261946199866518,-0.6526839744396363,0.2066382814749503,0.062334979512138566
24,12.239999999999995,1.698344561108682,2.6844999239352854,-0.7427517438110622,0.3768688304120145,0.9237760627422746,-0.06777212794294611,-0.7874694128808453,-0.526013250019017,-0.06916882769754537,0.7289675912523053,-0.6481451471145713,0.21447974192701666,0.049471754641937704
25,12.249999999999995,1.764712893473757,2.6734488395177207,-0.8345250417442471,0.371462484063657,0.925503724596737,-0.07375313560803037,-0.7087224990784744,-0.3968572898665894,0.00820771884656089,0.7318002112521909,-0.6432536424912909,0.2221008280033845,0.03602926301649267
26,12.259999999999994,1.8399489203064237,2.653320147704877,-0.9726402786556821,0.3651795704126054,0.9274256395030251,-0.08061992699116008,-0.6382374518232132,-0.1694899523961444,0.12685584038863115,0.734688879154718,-0.6380622387947297,0.22923486102180696,0.022177016388704087
27,12.269999999999994,2.0674770782683316,2.747301781194777,-1.1753595171010494,0.3574991079894035,0.9296499432031526,-0.08890512187574776,-0.5887705945250203,0.23041702780691797,0.2735270477870307,0.7377914537591856,-0.632371089994863,0.23587093842254633,0.00742853309867064
28,12.279999999999994,2.6086886394280167,2.950947163782395,-1.2798337822266086,0.3486458701947621,0.9318190123484272,-0.10043804407910606,-0.5582115089611601,0.8098751358222568,0.36462425126686865,0.7416618413406595,-0.6252638617036915,0.24248138715211748,-0.008891644236464435
29,12.289999999999994,3.2508514188251922,3.0258494975191623,-1.1109060338671715,0.3405995153671475,0.9327751566038381,-0.11750876403784685,-0.4829850710735353,1.420394849370057,0.33658966032850585,0.7469780628897962,-0.6155357616708793,0.24963090049279515,-0.026365711807255526
30,12.299999999999994,3.3693120603358713,2.763762893988806,-0.8273303690608523,0.3353186580923025,0.9317332647683814,-0.13896973087489511,-0.26241751065874774,1.8605675131308892,0.2850815973937676,0.7533646166096754,-0.6036571187932136,0.2570315088465046,-0.04312912137076867
31,12.309999999999993,2.756625570920885,2.344463749489133,-0.8576767274578271,0.3315148456129246,0.9298589063132335,-0.15933138965293017,0.11880377178445749,2.066503117913798,0.353816015048729,0.759121833963164,-0.5923553247522779,0.26347865369485296,-0.057890189682484626
32,12.319999999999993,1.7169876283920482,2.0078136263264734,-1.2868935735746239,0.32527025318632613,0.9296309612541978,-0.17305971304317158,0.5361032731903365,2.1169899533279963,0.46868379012924655,0.762499444263046,-0.5845300924443373,0.2679313953148565,-0.0713019152658115
33,12.329999999999993,0.8851658787377543,1.5991392147532715,-1.68858213711936,0.3144436327151207,0.9322121855565908,-0.17904822668496262,0.8847129449801543,2.1466681219404897,0.497238509666487,0.7631689800376715,-0.5810175460205032,0.269989000542239,-0.08404050466599472
34,12.339999999999993,0.7581867859294394,0.9922457273433559,-1.8042746580742506,0.3003187753589853,0.9362191973262206,-0.1823173248143375,1.1962591037390953,2.215250287545054,0.44162114604511904,0.7628832334392833,-0.5798356198551213,0.2695007497178912,-0.0956142857225562
35,12.349999999999993,0.978083864608002,0.2606787864580256,-1.8067996877401284,0.28452279947472486,0.9398915150240115,-0.1885850371068165,1.4907809597189428,2.187618997260969,0.33231103768247244,0.763640711605759,-0.578641032213284,0.26622380899999304,-0.10548659978739784
36,12.359999999999992,1.0368732567624126,-0.35214622111864047,-1.8255482609063949,0.2672853600862805,0.9429246191643356,-0.19836052678208901,1.652177466190293,1.9571539105119067,0.30517520387546926,0.7656792822826153,-0.5771649088366597,0.260167065099157,-0.11358920986551797
37,12.369999999999992,0.9167865940266275,-0.5590190392023873,-1.7439394507747328,0.2493622675319073,0.9455587536814429,-0.20891041060734666,1.5495175765436364,1.5806317060486044,0.3934234900127,0.7680905955530364,-0.5759678794577012,0.2525709293659072,-0.1203427707967269
38,12.379999999999992,0.6664776104667034,-0.37599932405482117,-1.5164737214729338,0.23283050645236422,0.9478114410619088,-0.21767736992929013,1.2386599096880617,1.1133824094518519,0.4162289652327407,0.7699972587181501,-0.5752261820769233,0.24549585597934254,-0.12623673721466627
39,12.389999999999992,0.28942109523714843,0.008423553916400955,-1.2309033804634597,0.21937317954156466,0.9498645278593322,-0.2227181573213108,0.9074600256313737,0.639038784597717,0.3528195751017871,0.7707411297083236,-0.5751516113838269,0.24049762013855,-0.1315729665798872
40,12.399999999999991,-0.0957082103782355,0.4133993849175793,-0.9574486937085485,0.20945559771619465,0.9520077117855096,-0.22314620126367116,0.6643384165357764,0.2547574448560059,0.2863777139447912,0.7700211540273718,-0.5759582356861083,0.23811444557283337,-0.1365101784764785
41,12.409999999999991,-0.31419560459550644,0.6977438104458519,-0.7039817762133485,0.20279248434041894,0.9542070687251799,-0.21989403695346588,0.5272204072022755,0.005068465900829773,0.21322718576784952,0.7681403584288762,-0.5773950920662518,0.23804839957149046,-0.1410753933541981
42,12.419999999999991,-0.3138436075360934,0.8010141667376122,-0.45756098437620885,0.19888682084721954,0.9560903387590559,-0.21524292393522806,0.4928117185140532,-0.12655852339553186,0.12859629604689193,0.7658709343015236,-0.578799074248107,0.23951812601119318,-0.14511897065817286
43,12.42999999999999,-0.1343976122377592,0.771680879015711,-0.2154836770991367,0.19736276903705482,0.9572567136186609,-0.21143881498070852,0.5215282062443777,-0.19712882372361035,0.07142906013012766,0.7639960984675993,-0.5795161132419809,0.2417443448055965,-0.1484163099263353
44,12.43999999999999,0.1394167196023588,0.7153761524984859,-0.008923757845681439,0.19786615808303842,0.9574759592100925,-0.2099721284882879,0.5474038229976524,-0.26431804271832954,0.0599973269982366,0.7630116810218267,-0.579094678593967,0.244256878966981,-0.1509912609042395
45,12.44999999999999,0.40258610677273027,0.6980816144861233,0.14143837495318828,0.2000094351056164,0.9567578233683421,-0.21120307342961528,0.5256607198168215,-0.3594876999276763,0.07009843579833823,0.7629952561197444,-0.5774262896365498,0.24692981277891862,-0.15309821271373283
46,12.45999999999999,0.5769748437386475,0.7424743048168775,0.2319848010474509,0.2033570605346887,0.9553158471305582,-0.21449914927701308,0.45408357375163905,-0.4855926014043504,0.08527045563535939,0.7636798206879151,-0.5747428557617691,0.24983351774412943,-0.15505420733945618
47,12.46999999999999,0.6331637729616952,0.8218456368235064,0.26969956019345087,0.20748454941545777,0.9534657660652629,-0.21873378341688404,0.3626076717587958,-0.6308314269078377,0.10310802446565887,0.7646497049430088,-0.5714738073300744,0.2530724455348459,-0.15708821385632293
48,12.47999999999999,0.5818908619502239,0.9125928771874582,0.26792415409818027,0.21198682014041703,0.9515427163911221,-0.2227568952306007,0.2755552902564975,-0.7928164478724662,0.13574364272657052,0.7655058761099023,-0.5680938290574413,0.2566818751437341,-0.15930496822785714
49,12.48999999999999,0.44344560239545966,0.9900591431249669,0.25684241045344836,0.21662614900059704,0.9498227171721035,-0.225620248811044,0.20103467007387654,-0.9770767102424195,0.18094788524789046,0.7659474161188263,-0.5650143594658942,0.2606594375082834,-0.16165915145643955
50,12.49999999999999,0.23715476921728593,1.042423606110078,0.25257505365216654,0.22135477152496955,0.9484857344717789,-0.22665414412748816,0.14843804486593604,-1.1630190679145702,0.23089330950242212,0.7657874235161984,-0.5625334576066342,0.26499795445416074,-0.16399909453687264
51,12.50999999999999,-0.011958366164930595,1.0562057615196057,0.24546561605312703,0.22609919593005656,0.9476691950596131,-0.22537987466845744,0.12165066831296716,-1.3233016418377688,0.26879064170517925,0.764906801098714,-0.5608947950958266,0.269633495413142,-0.16615214212625587
52,12.519999999999989,-0.2473453924615548,1.0107636102526574,0.24204200258098582,0.23072510728440893,0.947410226462243,-0.22174423796405585,0.11802039819256133,-1.4401659245042684,0.2991896781054093,0.7633244027018585,-0.5602071549505196,0.27439258287480905,-0.1679487757923749
53,12.529999999999989,-0.40945781291973615,0.8979657731582745,0.25181545537422645,0.23515687233479907,0.9475671570686603,-0.2163476572362557,0.1328241495851635,-1.513703232870131,0.32296582631301224,0.7612701200960508,-0.560331185194153,0.2790182415014382,-0.16923518192757858
54,12.539999999999988,-0.48605381420110644,0.7347939052929296,0.2790464076547663,0.23942617417646106,0.9479028559190609,-0.2101041737281982,0.1524288240243526,-1.5490889791220352,0.3345186375312336,0.7590731748911204,-0.5609887018062019,0.2832604123870057,-0.16987976186117726
55,12.549999999999988,-0.4983876206053306,0.5537005795180091,0.3295610481152058,0.24364913319392542,0.9481912635536435,-0.2038571812408668,0.15941096412361905,-1.5427043529376845,0.34086367948694807,0.7570245071837113,-0.5618829940943288,0.28697827359846473,-0.16982880224716004
56,12.559999999999988,-0.4606567159778165,0.38759384691837967,0.41922389318511916,0.24820398720058676,0.9482295621508039,-0.19810416397267627,0.14567941135447668,-1.4925050331726009,0.3379194097231524,0.7553043526842458,-0.562766839976641,0.29024039175951805,-0.1690170739160977
57,12.569999999999988,-0.37623229934929314,0.2266243405834081,0.5348364459579897,0.25349539522412345,0.9478272276476404,-0.19327291629676502,0.12504795077477693,-1.4069857840986613,0.3241335004872554,0.754061206593866,-0.5633949069896539,0.2931695507001175,-0.1674133416640736
58,12.579999999999988,-0.29261397556830393,0.056333367797679716,0.6794310472226535,0.25953060713680487,0.9469042561270989,-0.18975140316920164,0.11959398984907949,-1.307279296354934,0.309042564305404,0.7534169700357141,-0.563635327976809,0.295700004222541,-0.16503575328585834
59,12.589999999999987,-0.2696549631422037,-0.13450983140791173,0.8190151794202474,0.2665863344903638,0.9454462121636592,-0.18721840624995523,0.1323934369358406,-1.205120373386579,0.2988925877978139,0.7533017475783284,-0.5635935889606658,0.2979133583335001,-0.1616865283908874
60,12.599999999999987,-0.3179879964498123,-0.3704362597604347,0.929230368266182,0.27440591864232466,0.9436119506138325,-0.18516008322121524,0.1571164671923482,-1.0894101447877114,0.28461811476882337,0.7535579039604883,-0.5635742059897884,0.29967275218260114,-0.15724301733460264
61,12.609999999999987,-0.3946015627736337,-0.6689669156169802,1.0347998352702201,0.2827018774773565,0.9415333932402177,-0.18324639554150174,0.18528674072492204,-0.9447748131760312,0.2615212878019822,0.7540857976590456,-0.5638405595389172,0.300766577216289,-0.15155630543401635
62,12.619999999999987,-0.45986886587776593,-0.9758249209001675,1.1827917141070585,0.2916025222332889,0.9391350968926093,-0.181589234447562,0.21038989123637183,-0.7580763247911929,0.24647757012721203,0.7549349224511002,-0.5643999320088836,0.3010946915191446,-0.14441287499577407
63,12.629999999999987,-0.44990027439667923,-1.1997519772028087,1.3798655708250276,0.301614457659464,0.9361727893597398,-0.18051089547573285,0.22988554809021997,-0.5120963800279045,0.24975944339636233,0.7561734134850265,-0.5649840505699892,0.30089456484887644,-0.13579437838631958
64,12.639999999999986,-0.38098231292923407,-1.3042173407002675,1.6164631412580743,0.3133263594970375,0.9323180671879143,-0.18048257379637347,0.248023443996019,-0.20286912924246203,0.26450410499462557,0.7578645943630746,-0.5651360323545345,0.3006325977726312,-0.1259430523806132
65,12.649999999999986,-0.37621511844860817,-1.2992556653645513,1.8115859538909824,0.3269665664957275,0.9274739601351948,-0.1812229854834843,0.28107606081930075,0.1690789923262037,0.28007906454826903,0.7598199859174913,-0.5647421011214935,0.3007569915007425,-0.11516229002178563
66,12.659999999999986,-0.4044646619121738,-1.2816897375327705,1.8743547131353606,0.34174322569893484,0.922002665692198,-0.18187418181855342,0.3504446721917885,0.6097364862984197,0.2778831866941118,0.7616554666097624,-0.564162106487406,0.30130362804672955,-0.10390050505448209
67,12.669999999999986,-0.3557574921952369,-1.329646985908453,1.9073070427370171,0.35674045058377046,0.9160939428142258,-0.18292589758893363,0.463395549931155,1.031564315493908,0.23538772089797183,0.7634727183318717,-0.5633981310779527,0.30185993477731865,-0.09245651009796141
68,12.679999999999986,-0.5354152140223237,-1.5340677420778057,1.9301778482148702,0.37172218012528235,0.9098504996129456,-0.18426686802136052,0.6352542982225508,1.2461442192278531,0.14647640413791477,0.765266141895943,-0.5627113204573837,0.30203057171006603,-0.08045541087374673
69,12.689999999999985,-1.0940017749034916,-1.8789441044190354,1.73878794810076,0.38541051466324017,0.9043013636901497,-0.18350004264985897,0.832197866691887,1.2512093827102455,0.05892207226086264,0.766276412716026,-0.5635882384178874,0.3010240882212511,-0.06737128534333264
70,12.699999999999985,-1.6003916555061224,-2.242745575175015,1.3583863093092865,0.39571153560279143,0.900714467649415,-0.17919800952253495,0.9476578752289744,1.2669841143566187,0.028153924043814324,0.7659652311309469,-0.5671283035325291,0.29792326576385747,-0.053524605841275205
71,12.709999999999985,-1.5278959989509706,-2.456785734792543,1.0580982338581706,0.40241356491636104,0.8987352619071841,-0.174162838503627,0.9132515359253376,1.3837835335774937,-0.012637558658561442,0.7651602200486117,-0.5720443975179882,0.2927024566936929,-0.0397986766712879
72,12.719999999999985,-0.964499388286195,-2.4673664983872006,0.9117504443773538,0.4072201650917447,0.8968454103752114,-0.17272956200345604,0.7535557602616365,1.520866856736604,-0.09732337148905959,0.7652540159759702,-0.5758510511273616,0.28639683781806136,-0.0270179145839947
73,12.729999999999984,-0.37854832680885675,-2.402868556838413,0.8358091309496178,0.4108158367353274,0.8944154024535615,-0.17674660352992871,0.5457309501397967,1.5564505748746256,-0.15841056354889202,0.7668823915826477,-0.5774057582920299,0.27968227626190467,-0.015712593061524577
74,12.739999999999984,-0.05078526294653338,-2.412777635399158,0.8120413260768978,0.41382583949930635,0.8913715551807136,-0.184898118310478,0.3704374578531135,1.4359512749775516,-0.14580772215641302,0.7696774141798038,-0.5771450584362964,0.27284953907173315,-0.005350677547670955
75,12.749999999999984,-0.010084521090204645,-2.4955625448113956,0.8334093911510236,0.4164758618031897,0.8879923632674603,-0.19493438028850932,0.25589419216216724,1.1987462625658476,-0.09482175982502013,0.7729327108476755,-0.5761033094427522,0.2657622943421993,0.004906586033919582
76,12.759999999999984,-0.15805524497688483,-2.573795843426882,0.8774754059177634,0.4189850531721075,0.8845709438511107,-0.20487113503338,0.16218634163084214,0.9234693120441333,-0.04238008015629831,0.77599766742176,-0.5751432654322488,0.2583920704616503,0.01562127579723264
77,12.769999999999984,-0.4104473030432524,-2.577128728412483,0.9492961554984299,0.4216423403993313,0.8813256281692153,-0.21324808468157783,0.04203687627571603,0.6675418021500482,-0.003917424094740315,0.7783818136850313,-0.5747967482339444,0.25095245553441875,0.02694058625379996
78,12.779999999999983,-0.7075644740338921,-2.5027515309669797,1.0265180468413089,0.4248349581782202,0.8783501394813079,-0.2191161009523363,-0.10925928165776846,0.4581438280686758,0.03336833132742842,0.7797646281854897,-0.5753269436691811,0.24379131926057485,0.03878786787055637
79,12.789999999999983,-1.004836250673538,-2.3788562127681168,1.0997851369747307,0.42878283668106615,0.8756984703672226,-0.2220225315383005,-0.2664772324896557,0.3115972721478821,0.06900893393787466,0.7799926937470383,-0.5768445630874809,0.23713533213553564,0.05100681584201008
80,12.799999999999983,-1.2747188341179057,-2.2229226024560367,1.1529315163033471,0.43353757950911076,0.8733660304906559,-0.22197260683947606,-0.41444357331222553,0.23075412694119174,0.09339652045328428,0.7790674228262697,-0.5793149934588838,0.23108956494980737,0.06339854897258164
81,12.809999999999983,-1.4777904879946504,-2.0481702081923445,1.1701889191777464,0.4389755731032807,0.8713412890256959,-0.21921970041946648,-0.5333362542891792,0.1881838208881011,0.10033668583830399,0.7770832989237078,-0.5826268374326963,0.22567914511048082,0.07570641341727535
82,12.819999999999983,-1.5904375712113887,-1.8743114224158874,1.149870050286489,0.4448376176013289,0.8695331264769616,-0.21452770089529516,-0.6236560304114337,0.1379295388419373,0.08625292077529878,0.7743133729870324,-0.5864819775756168,0.22083990708253498,0.08766076252636815
83,12.829999999999982,-1.6881150010433412,-1.7028340229308876,1.0844562684786643,0.45078848080425016,0.8679813849550516,-0.20829503950158051,-0.6924768803376106,0.053976773931915224,0.058190598449429,0.7709223089043775,-0.5907560479782852,0.2164601479472105,0.09904605288035338
84,12.839999999999982,-1.7798575194818507,-1.5133171330628383,0.9832708210870881,0.45648175381488937,0.8668297991250764,-0.20054247988825044,-0.7563403066002068,-0.040804393214805404,0.02618934739610583,0.766961909199164,-0.5954794817951012,0.21243370875919343,0.10966663077662651
85,12.849999999999982,-1.8377789352114142,-1.307444783340702,0.8430336262148751,0.4616553784568458,0.8661740857682497,-0.19131740299068306,-0.8246010214922757,-0.1425809564993101,-0.013031126402932195,0.7625053524134693,-0.6006376021059363,0.20873627955085633,0.11930269722499735
86,12.859999999999982,-1.8226314920156867,-1.0730872540716074,0.6418166516781604,0.46589756468559346,0.866129847181671,-0.18095179410543963,-0.9068244073796731,-0.26210361421083134,-0.0504847113181878,0.7577433517469331,-0.6061061128133612,0.20531627968460217,0.12764363842829704
87,12.869999999999981,-1.7300618828133663,-0.7466470149728733,0.41542030800876706,0.4688609883619422,0.8667858920103353,-0.16981042018254947,-1.0236206344594938,-0.385873749954812,-0.08307815675679597,0.7529139300658058,-0.6116917285971327,0.20229660376000233,0.13424131925450744
88,12.879999999999981,-1.5968770884522754,-0.321908819948725,0.2085687760016963,0.47066656942832824,0.8680563154715105,-0.15790383012081002,-1.1832097359699794,-0.4932115894334755,-0.11964736017884908,0.7481291818518792,-0.6172622348308874,0.20007993562786847,0.1387506871793495
89,12.889999999999981,-1.4239391037345728,0.163790109678444,0.0301636528118225,0.47155515985312196,0.8698001822461704,-0.14513690146773942,-1.358232998822158,-0.5626297054908184,-0.15648763316661715,0.7434362582807374,-0.6227346312692754,0.19907345362006856,0.14095768098795175
90,12.89999999999998,-1.1722032009257972,0.6590816140614623,-0.13329324606297446,0.4716726296914117,0.8718499002768986,-0.1318520365581074,-1.5059221354975416,-0.5905540048395074,-0.18475934785645495,0.7389892367412558,-0.6279043711546088,0.1995183334632814,0.1407797624237779
91,12.90999999999998,-0.837378078466021,1.1155107228385046,-0.29100488995705087,0.4709284307492186,0.8741226245374002,-0.11883188940883752,-1.5941637031581037,-0.592993345603928,-0.21020847826128472,0.7350589433433902,-0.6324646561616228,0.20142040449767407,0.138207011549388
92,12.91999999999998,-0.43900106945050504,1.5165654092284546,-0.43416505555964235,0.4692394794563459,0.8765571634001703,-0.10700973750087016,-1.6015655360704213,-0.5930186013592906,-0.22816286213011136,0.7319285998769159,-0.6360838286098773,0.20467070454105962,0.13334396324332098
93,12.92999999999998,0.0006348060039705616,1.846937668748592,-0.5530668006291383,0.46663401259991516,0.8790893341150378,-0.09720119305701,-1.537896953817668,-0.606590316221463,-0.239954820849239,0.7298051831931688,-0.638489816428155,0.2091109912632092,0.12640480254538378
94,12.93999999999998,0.4503066394939404,2.133224087463376,-0.6714319482348592,0.46311096396111545,0.8817213011167502,-0.08995272318951684,-1.4236041130492525,-0.6255120075250186,-0.23970805688662122,0.7287967682739922,-0.6395197677910721,0.21455715258472732,0.11756757453501179
95,12.94999999999998,0.8486877790652597,2.383140309637748,-0.8278948789434262,0.45849153013139543,0.8845939105091299,-0.0852920460540577,-1.287447270546985,-0.625905428517577,-0.20937769930813374,0.7288368500627471,-0.6392276949566028,0.22076699944246653,0.10691135021118309
96,12.95999999999998,1.2183152058932216,2.5971998694857725,-1.020124209852413,0.4524005399431041,0.8879289058234286,-0.08312919760626068,-1.150246539117914,-0.5759834929101809,-0.1637279085421893,0.7298166343091838,-0.6377377832540135,0.22742388771522237,0.09442555967433071
97,12.96999999999998,1.5295937160293702,2.7841994957844585,-1.2223944881853137,0.4446739814757356,0.8918040433961052,-0.0833214882313309,-1.0242177035189661,-0.49834510915415725,-0.126543644219715,0.7315828421806432,-0.6351693648366313,0.2342960405943494,0.08017511581317176
98,12.979999999999979,1.7463581994416197,2.9281024057964173,-1.4215652366354794,0.4352548133989301,0.8962380677814304,-0.0854393613299716,-0.9150858445445588,-0.4318612561977399,-0.08997463496195125,0.7338671602384002,-0.6317540705629835,0.24116929602652132,0.06432090118606794
99,12.989999999999979,1.867866132992555,3.029337426684828,-1.5722202153646956,0.424366687892986,0.9011056004226228,-0.08893422061412068,-0.8144417206110458,-0.369807276185584,-0.026068613747915973,0.7363541040120352,-0.6277494383306105,0.24790984391685142,0.04719652573911553
100,12.999999999999979,1.8442046484035692,3.0523957568811637,-1.6541775436439246,0.4125238253340913,0.9061774274186604,-0.09302651221361855,-0.7139804554845237,-0.2920951067911916,0.05445935474924766,0.7386678749952621,-0.6234902819495012,0.25444648487610066,0.02935855200490359
101,13.009999999999978,1.7623610181635145,2.9679706626636766,-1.7308050219981788,0.4000218073328346,0.91133008873545,-0.09719280138916551,-0.6228825453305874,-0.1281101640314234,0.12556852166759785,0.7405714291541654,-0.6192995455714905,0.2605165153365853,0.011423880447066206
102,13.019999999999978,1.785146075823397,2.9225485216314553,-1.8519229157101906,0.3865788946349711,0.9166257938860821,-0.10167637935776543,-0.5586821994970925,0.21282549901479733,0.19854892851259573,0.7421418530896439,-0.615187261690126,0.265901553347606,-0.006588237354887191
103,13.029999999999978,2.214244754873771,3.0044134579876376,-1.912848977513893,0.3722625742940644,0.9217427022794903,-0.10859157102588156,-0.5241090349256063,0.7422521093140239,0.26938344584426005,0.7440651487863696,-0.6101676537246368,0.270915400259594,-0.025331075248830798
104,13.039999999999978,2.9363614132431124,3.054920970471149,-1.7260355157268397,0.35877802766501016,0.9255002097346782,-0.1212612016270112,-0.4891943416233492,1.3127195276827004,0.2827554992102645,0.747390677547325,-0.6025473909333725,0.2762227598665308,-0.04492384398134808
105,13.049999999999978,3.3627505364447243,2.8468707598639362,-1.439978231401589,0.34802526019552116,0.9269231003962471,-0.14024056187645162,-0.3553599222962956,1.755890204373885,0.2743527184535559,0.752322321391441,-0.5920122550272805,0.2817696520837224,-0.06415323220879669
106,13.059999999999977,3.082128098449945,2.465470341040212,-1.4142707907813723,0.33904276778024467,0.9267969413456781,-0.16149652010104942,-0.039322863254358534,2.055149855555624,0.3966022246351032,0.7576477281961801,-0.580659733950545,0.28650018605158806,-0.08189199010580706
107,13.069999999999977,2.0634061221793933,2.2109409584261286,-1.7957048845677872,0.3282499033760658,0.9276956643418346,-0.1778270316184627,0.4169477802013902,2.210928455300723,0.5847050935882409,0.7610676383671064,-0.5720301886873861,0.289598292006314,-0.09838900319996967
108,13.079999999999977,1.0811840749578698,1.9236678686101616,-2.096726627678954,0.31375335870177945,0.9312020808907344,-0.18550251233067178,0.900115249297218,2.2640545722172583,0.6792737877654738,0.76140159697746,-0.5678901647758315,0.2911176285981551,-0.11407333460330664
109,13.089999999999977,0.44738074886949153,1.0761065790635844,-2.124855062320733,0.29677972229701005,0.9362911938461779,-0.18780241213959706,1.3790857227775992,2.210502888221417,0.6017113984183476,0.7600050401135553,-0.5671913521841351,0.2905033453762698,-0.1276356132138464
110,13.099999999999977,0.05197390956982786,-0.0015492685923593034,-2.076090718428384,0.2780564866229863,0.9418903260695032,-0.18845851886589582,1.8043680583301531,2.024506708327301,0.5286347746631573,0.7585109037516757,-0.5689902751639524,0.286390061277304,-0.13743886296112895
111,13.109999999999976,-0.15248295992943153,-0.5810687530184464,-2.0121149661246496,0.2580775828379643,0.947486265163764,-0.1888312042407857,1.9442581603414693,1.739814177436056,0.5348205954388754,0.7573855387630445,-0.5723352020009699,0.27931213735019855,-0.14416016293935754
112,13.119999999999976,-0.3212483666082504,-0.49952959100098515,-1.8650861998008574,0.23852430241975187,0.9527558775726316,-0.18803442818342994,1.6399717932699072,1.3360711534273253,0.4589035373033051,0.7560784580397282,-0.5763223994358082,0.271724911444927,-0.14953964986945903
113,13.129999999999976,-0.5336704624565025,-0.015077436324051662,-1.629823829850749,0.22126541026392624,0.9575741730474545,-0.18463484492656212,1.1435415154017212,0.881819956739421,0.3627503203329651,0.7538907699204433,-0.5804774233733488,0.26594775460740955,-0.15480823602968077
114,13.139999999999976,-0.8041038167788206,0.5270925174456711,-1.361729382388478,0.20736491467393015,0.9619939181940805,-0.17766760192385214,0.7847042500082893,0.4678929670611264,0.31920211044266955,0.7504218566452892,-0.58476465787588,0.26308998651577004,-0.1603137656943553
115,13.149999999999975,-0.9730436155944662,0.9066868120247209,-1.0864035791261346,0.19682850544915872,0.9660241529678627,-0.16749671809037547,0.6130748917893598,0.15288847551047546,0.2912633380618536,0.7458153196468803,-0.589150253015199,0.26297063075384297,-0.16585440923538264
116,13.159999999999975,-0.8771600909424841,1.0183158760665587,-0.7749698252107785,0.1893716512402752,0.9693587161028279,-0.15646756270111029,0.5823275565916405,-0.03353767126213508,0.260061117089477,0.7409467481266243,-0.5930695385635048,0.26464075427201406,-0.17097296886979477
117,13.169999999999975,-0.4917815184086733,0.9049632984207551,-0.43488610462870564,0.184970201975391,0.9715580464687262,-0.1478538113798356,0.6369272040552659,-0.11770802651067784,0.22327214784585744,0.7370502236452554,-0.5956213101018349,0.2670361076367995,-0.17516804163841296
118,13.179999999999975,0.046395753978699605,0.7141656611051687,-0.10428665793429981,0.18355311025261734,0.9723791273771248,-0.14417788776649684,0.6864372671021587,-0.16810124188193404,0.18071588535255534,0.7350603458272709,-0.5960940937410424,0.26941200945186494,-0.17825620756268695
119,13.189999999999975,0.5325205788396352,0.5811523314567858,0.16194253174953366,0.18481860165014302,0.9718838713970639,-0.14589014428160574,0.6655484856208564,-0.2459719557584643,0.15029248572608248,0.7351103662538022,-0.5943794027853522,0.2716025540556221,-0.18043796221375677
120,13.199999999999974,0.8605371195973806,0.5485577846777809,0.34498451254705065,0.18814186582450176,0.9703480237044869,-0.15174603725341326,0.5675662742770862,-0.35568581901156243,0.14961727885774612,0.7366876183068388,-0.5909120212000567,0.273769344303076,-0.18211124001406728
121,13.209999999999974,0.9846965409612037,0.6254315209176297,0.45817511029393854,0.19297940383960827,0.9681211351502294,-0.15968243085011172,0.43533620586120914,-0.4901386710620371,0.1747208197794764,0.739005923860055,-0.5863807095585986,0.27625322701005117,-0.18360657232511615
122,13.219999999999974,0.9460185989986699,0.7652968417736594,0.5267397308263275,0.19890340911894613,0.9655555182998397,-0.1677412737672047,0.302194309017351,-0.6514860403825979,0.1983384348005805,0.7413421658913671,-0.5814470844740003,0.2793702456182277,-0.18515466471686462
123,13.229999999999974,0.7681233174433464,0.8873231343172124,0.557381875838286,0.2055695460992298,0.962973130143385,-0.17441671775216705,0.19563264929701596,-0.8401348520433108,0.2157816051291815,0.7431915206807531,-0.5766983561695481,0.28321280255816594,-0.18674759960499188
124,13.239999999999974,0.47242982993518,0.9623510596758394,0.5739792583344155,0.2126612310769831,0.9606835909358089,-0.17849398732879776,0.1227749612910443,-1.0335044216977218,0.2296106725872862,0.7441955535600421,-0.5726910855331936,0.2877093338113462,-0.18820224898531743
125,13.249999999999973,0.1254307998700271,0.9772547080077943,0.5614229428333661,0.21986369696338715,0.9589248855608432,-0.17922371792768202,0.08518563285607747,-1.1948811115503355,0.24307712513093882,0.7441634412739612,-0.5698471254817208,0.29267919470286996,-0.18929535859486996
126,13.259999999999973,-0.1750611698151103,0.938067493723617,0.5444484427305516,0.2268855453389282,0.9577392152281942,-0.17679410986507887,0.07181899961526642,-1.312391024453414,0.25060006283932934,0.7431855666890601,-0.5682267731984751,0.2978590416567482,-0.1899269511782147
127,13.269999999999973,-0.3798183505890331,0.8470447474914689,0.5327318702036463,0.23359734301549087,0.9570024214268444,-0.1719751180391969,0.06969525583838591,-1.3889229592964387,0.2565677168824648,0.7415334084014378,-0.5676366289253131,0.3029848927741804,-0.19004119805379485
128,13.279999999999973,-0.4511878003377837,0.7048585925544972,0.5429285291446867,0.24005137822013883,0.9564463815898073,-0.16607836955680202,0.07274745492588536,-1.4339888080845142,0.26563235451569445,0.7396543069985895,-0.5676499749925373,0.3077875005501752,-0.18960663314327408
129,13.289999999999973,-0.4245705936535317,0.5400017964387694,0.572291538011663,0.24639361475537797,0.9558152003472332,-0.16032387450850782,0.07552464419064076,-1.452233120901514,0.2757578689726131,0.7379569675973805,-0.5678357682973063,0.3120890722566804,-0.18863043678846994
130,13.299999999999972,-0.33478120997453226,0.3758549729686895,0.6426432898534643,0.2529177627320982,0.9549068854453276,-0.15550520701807288,0.06838663842945149,-1.445577150956931,0.27616022994488715,0.7367157966139544,-0.567870402699361,0.3158635317215025,-0.1870893451081381
131,13.309999999999972,-0.18665367276546974,0.2207613986545764,0.7631331623567857,0.260091343917581,0.9535175966344337,-0.1521602187137352,0.05249439919309481,-1.4207000364710904,0.27668940339293435,0.7361279458132207,-0.5674693763166385,0.3192141758991571,-0.18492033325738136
132,13.319999999999972,-0.03557807562403004,0.0799091490076653,0.9249063266926794,0.26836883985899096,0.9514503680009009,-0.15071649009588206,0.03639841129265109,-1.3841474847399882,0.28437380800009326,0.73635107171976,-0.5663813235877533,0.32226270422257136,-0.18205738024449825
133,13.329999999999972,0.0562313913126346,-0.06516612291431295,1.101706217293057,0.2780147525004961,0.9486606122280299,-0.1508093512290638,0.03350531839901327,-1.324735606389994,0.2935253106676184,0.7372849980896541,-0.5646872484852798,0.32515049054875067,-0.17836589859254787
134,13.339999999999971,0.11175974281117435,-0.24939699441859275,1.2946021618216332,0.2891174225364077,0.9451307008831729,-0.15208174790326018,0.04663717483063577,-1.2302579568231042,0.3051405371175318,0.7388393892879384,-0.5625444724610454,0.32787489367892536,-0.17365334061910634
135,13.349999999999971,0.1286175780446857,-0.4784548430096211,1.5461734047581528,0.301913894730817,0.9407551639052532,-0.1543140932799815,0.07129652269324209,-1.127743547472598,0.2937011439090564,0.7409884088417096,-0.5600673047423471,0.3304036708466523,-0.16760052621588636
136,13.359999999999971,0.14236102526563055,-0.7117775353055874,1.8888595122056373,0.31704955495760345,0.9352388300260938,-0.15743318439704,0.09546277127572192,-1.0178416595896618,0.2518989501170459,0.7437590798596698,-0.5572158951599809,0.33285535602727334,-0.15979103209320553
137,13.36999999999997,0.1260337861538543,-0.8768030136994337,2.26098088010463,0.33514419164996007,0.928230803436178,-0.16134272244829226,0.11947308754356394,-0.8701754274193747,0.2215442531251058,0.7470907101198707,-0.5538383001052459,0.3355445545640426,-0.15005826256567767
138,13.37999999999997,-0.06663140018691495,-0.9314144432956311,2.5042078111358945,0.3557920243502192,0.9198798743686997,-0.164884178633233,0.1540770865380932,-0.6235861498605048,0.2570758903770697,0.7504713251065747,-0.5502996269927802,0.3387125480599705,-0.13864329460664432
139,13.38999999999997,-0.3778570687695241,-0.8473966582348049,2.5466082454239944,0.37750816986225255,0.910951559731573,-0.16614248992093067,0.20951240069462418,-0.19741342083410146,0.3818150994370435,0.7530730752398209,-0.5474277517260964,0.34241725613981283,-0.12624271622309363
140,13.39999999999997,-0.42605345422740193,-0.4080281779857984,2.559804676108725,0.39956293303112667,0.9017449186911368,-0.16477401765678734,0.30404119286683945,0.39017851163585116,0.5130547837657766,0.7545552271851237,-0.5450407503801177,0.34718978522609073,-0.11410215172548759
141,13.40999999999997,-0.3175369691174392,0.07872567673330355,2.61796867310779,0.42255781532544034,0.8916806350707384,-0.1621314822352588,0.4636362085913479,0.8963793559145413,0.4693633907852748,0.755235518537375,-0.5419311844384315,0.35389131642826666,-0.10331462064194538
142,13.41999999999997,-0.6554378099492277,-0.02477707791410025,2.5470422475619943,0.44567289628845813,0.8811382406999574,-0.15780526221408347,0.7151933034755484,1.1316665218121884,0.23354373929875424,0.755156372167183,-0.5389658747251171,0.3613950175646201,-0.09290018837484261
143,13.42999999999997,-1.5226309925343302,-0.6709604850456308,2.2310242701404537,0.46625750798873794,0.8718087213343029,-0.1499793162821588,1.0402139141172915,1.2443783668107464,0.06021335789949464,0.7539354867123884,-0.5387618946434346,0.36707332447359925,-0.0809639008060031
144,13.43999999999997,-2.3256607648905474,-1.3348801882272416,1.7243151997776385,0.4820395506928847,0.86521215317578,-0.13783676367207917,1.3545087153454953,1.4615115267584888,0.015912247072548638,0.7512553072714336,-0.5428273786079378,0.3693472075984058,-0.06716827473898437
145,13.449999999999969,-2.353920944663556,-1.7532447826352606,1.2867867895985445,0.49291699668201766,0.8610652323921298,-0.12476583469369028,1.5022707469302126,1.8193071595609491,0.029180722548739404,0.7480417166969089,-0.5495328126381473,0.3682729625649953,-0.052839366647795684
146,13.459999999999969,-1.6213871307255792,-1.8669297545961396,1.0054484656127847,0.5006223049008522,0.8577964384445629,-0.11639739863033659,1.384555448956789,2.174561392190414,0.009449676046369444,0.7460527245448724,-0.5554029771835445,0.3651352106462115,-0.03980567267805138
147,13.469999999999969,-0.7319385907236613,-1.883458110795558,0.7854748350870925,0.5061286355189544,0.8546388325363566,-0.11585318307107285,1.0895722050366117,2.2875045614031206,-0.0578921999144152,0.7463680751197734,-0.5584407699629036,0.36085198014678604,-0.02912932245266809
148,13.479999999999968,-0.19076654745132565,-1.9550214574093476,0.6086089691714646,0.509783546859094,0.851622419745304,-0.12186805024617867,0.7778577109877811,2.0809099336076717,-0.07922696460054475,0.7486710164829421,-0.5590559463842204,0.35569509061203236,-0.020401312271653423
149,13.489999999999968,-0.03436958438715558,-2.096902613223156,0.5106546977965242,0.5119481439163407,0.8488947226342305,-0.13142668048056186,0.5425108141662686,1.6791539927966048,-0.05259748268282827,0.7520290332947762,-0.5585777882028363,0.3496751532590601,-0.012511256963889841
150,13.499999999999968,-0.20366630309331996,-2.268467746570855,0.505768857475415,0.513222500941213,0.8464629978390726,-0.14173375393759113,0.3581733345092917,1.2088634532013036,-0.027685699003109965,0.7555380420232354,-0.5581920398437001,0.3428535296245045,-0.004342829459147915
151,13.509999999999968,-0.5406146868566237,-2.3741965321811818,0.5945658376797367,0.514421919214798,0.8442048250139702,-0.15059184818159058,0.16066117584192224,0.7654486800486504,-0.0012287454430239299,0.7584589431167084,-0.5586565458175334,0.33555884299331357,0.004842557954042637
152,13.519999999999968,-0.9133248383464991,-2.3505397522324403,0.7150217293486306,0.5163030214686426,0.8419521325574777,-0.15666045991083558,-0.06536940785187031,0.42030661104801026,0.03442112247734383,0.7603190057451449,-0.5602195228849637,0.3283542109957656,0.015166785287218515
153,13.529999999999967,-1.2360751937667542,-2.212651350224033,0.8178814760703383,0.5191542819801453,0.839681372355078,-0.15941034626137066,-0.299641365401721,0.1998430398543696,0.06563881028598113,0.7609191926526103,-0.562845881783991,0.32170224075594683,0.02626610393191396
154,13.539999999999967,-1.4573464789592034,-2.014852736741672,0.8989863211952848,0.5229978454741357,0.8373570677830894,-0.15907086195393097,-0.5075852984823711,0.09184457908754907,0.09930398964545276,0.7603274448188126,-0.5662941165786046,0.3158625554766015,0.03767218891864234
155,13.549999999999967,-1.5685970956282442,-1.8007591486059555,0.9820028132978575,0.5278606145683532,0.8348073527010895,-0.15637776675089748,-0.6648743367783749,0.05447032864186696,0.12964230993587122,0.7587917519435138,-0.5701792076217931,0.31096836084473783,0.04904156232720494
156,13.559999999999967,-1.574015247611501,-1.630458674422913,1.029731392829859,0.5336306004348572,0.8318911342480251,-0.152270871244824,-0.7700406403844264,0.03902382962084003,0.12423893584668064,0.7566321167678023,-0.5741487070276968,0.3069418409095471,0.06020298804681798
157,13.569999999999967,-1.4854687486192504,-1.4693488124335574,1.0251170643707979,0.5398630839653126,0.8286589786828056,-0.14785750927509864,-0.8396710547507785,0.012556321637092346,0.08536955632601441,0.7542443038803539,-0.5778596228719716,0.30355541372561934,0.070898881905488
158,13.579999999999966,-1.3663229177810141,-1.3099711165134502,0.9776361451083618,0.5461395596785419,0.8252912432752305,-0.14358095461354695,-0.9031054610176985,-0.03848972422534981,0.014713008956328766,0.7518219706340399,-0.5811977127613206,0.30069243486747155,0.08086176613159508
159,13.589999999999966,-1.155498016536237,-1.1599140052030812,0.8914691975644948,0.5521080225720388,0.8219456137820474,-0.13990380155647308,-0.9797895355481536,-0.09627409205581547,-0.08980837108608515,0.7495743138273624,-0.584032125099513,0.29824912915910695,0.08987445317217944
160,13.599999999999966,-0.849765500862331,-0.9778349171266,0.7700527825573056,0.5574536041524288,0.818723000544576,-0.1375925711882777,-1.0727395069322143,-0.16101813260550063,-0.18754755409006885,0.747834429264015,-0.5860607797202414,0.2962014703248063,0.09762543039033507
161,13.609999999999966,-0.46888953174669756,-0.7281212552969709,0.6202622632906134,0.5619693635627836,0.8157392931692765,-0.1369508861831163,-1.1890253534473052,-0.24192853016184807,-0.26114414913833006,0.7468018875939235,-0.5870836374683015,0.2947150350750595,0.10371604450274129
162,13.619999999999965,-0.026170508763281697,-0.44461297835993174,0.47614580599204764,0.5656287123132834,0.812993319242816,-0.1382122653506535,-1.3326372967675875,-0.3288807943382376,-0.3335716581158893,0.7466408410018818,-0.5869016934361911,0.29400712525801875,0.10784923960607881
163,13.629999999999965,0.4154232260214759,-0.14182644106892778,0.33486966960607933,0.568519389169219,0.8104102807403676,-0.14147975323615675,-1.4760863532155328,-0.40172381448384503,-0.3928199138267033,0.7474308321787649,-0.5854061417371248,0.29420949677709995,0.10993884831267695
164,13.639999999999965,0.8036113021737132,0.20043878976985458,0.17407086120443016,0.570645219283335,0.8080603606911523,-0.14627630394777616,-1.5934909211747779,-0.4402280947535084,-0.39545952729150613,0.7490364614719163,-0.582750144040563,0.2954020650698417,0.1099185360018643
165,13.649999999999965,1.157702237401219,0.5733972084624164,-0.008652969630916302,0.5719099447302065,0.8061093310542191,-0.151987805033212,-1.6740848377312672,-0.45319116422833106,-0.35651400349810913,0.7512673889427663,-0.5791499764419178,0.2976371967566469,0.10765270999510472
166,13.659999999999965,1.464767514344255,0.9333566956664128,-0.18227297847629603,0.5723103151199473,0.8046213296908526,-0.15823508257842372,-1.709185102134723,-0.48007074103260017,-0.3066067181096373,0.753972927462052,-0.5747466999784528,0.30090354031122446,0.10313473504270691
167,13.669999999999964,1.6901797647021615,1.2513492022363573,-0.3310668780380555,0.5720207380129997,0.8035475706787589,-0.16461044950757114,-1.6912921101826637,-0.5244931730587218,-0.25266628157679916,0.7569410337667626,-0.569729427135999,0.3051148296138007,0.09662092993905964
168,13.679999999999964,1.8847278102224787,1.5185228331577516,-0.4846077075282298,0.5710762065508974,0.802880987219656,-0.1710167604683441,-1.621201706716415,-0.5511355771699201,-0.18745162275292138,0.7600528579167332,-0.5642262035416838,0.3100486664002591,0.08839229743639203
169,13.689999999999964,2.073052687059475,1.7616655298543673,-0.6478619440694482,0.5693894395369024,0.8026599404707211,-0.1775509798908109,-1.5207544186026156,-0.5425427655954248,-0.11775534486033432,0.7632738625832802,-0.5582575995991436,0.3155322429508839,0.07853480944037614
170,13.699999999999964,2.2557146217205375,1.984232609735967,-0.813389334738297,0.5669141052777159,0.8028924652396547,-0.18428873689059375,-1.4151051868327718,-0.5046133690674257,-0.06002510357912932,0.766560926628435,-0.5518203857798161,0.3214582054026036,0.06709052016615975
171,13.709999999999964,2.3939072960778685,2.196087468756534,-0.9837888190163873,0.5636154823650947,0.8036023428007686,-0.19117968154096993,-1.3153188628071069,-0.44201733723338543,-0.012800699777784162,0.7698221581549981,-0.5449645824240381,0.32773053966379573,0.05411812710289947
172,13.719999999999963,2.459866208246451,2.354943572518128,-1.1334096379916883,0.559518949088408,0.8048315320596751,-0.19792118546852439,-1.2199589071430337,-0.37067113629142384,0.03800113939587573,0.7728731637617323,-0.5378794698514591,0.33422671793679215,0.039825645608677754
173,13.729999999999963,2.436080751242158,2.4337033098733416,-1.2123158390524924,0.5548502008738504,0.8064654110216413,-0.2043097653820216,-1.1197861541278666,-0.29584760146018396,0.09921186427747652,0.7755633614218475,-0.5307610450097734,0.3407639681541804,0.02471389095609372
174,13.739999999999963,2.3041204286311556,2.435276429654393,-1.226560478171043,0.5500388022296867,0.8082974871270031,-0.2100039463122401,-1.0129742106482111,-0.19801724381317382,0.17556741360470302,0.7777320012728111,-0.5238537694748592,0.3472151090690842,0.00946172687191784
175,13.749999999999963,2.201983683910503,2.3944494833458956,-1.2406608039450024,0.5451929208487238,0.8102708089739863,-0.2149795076324738,-0.9041012508872136,0.006494720860969944,0.2664740717227812,0.7793684787392302,-0.517287128633201,0.35342440307541206,-0.005551990905553392
176,13.759999999999962,2.273810624583235,2.4227899809644926,-1.2866943386366774,0.5401862428450511,0.8122923239264681,-0.2199300201533256,-0.8009580561226666,0.404027779133782,0.38391920838299115,0.7807019806106773,-0.5107278154809335,0.35941151130478177,-0.02060036091777625
177,13.769999999999962,2.71133655166342,2.6075707122590868,-1.2808264882885927,0.5352685288632234,0.8137266523998397,-0.22654192713065777,-0.696738931804784,0.9830436915303997,0.4976584836387458,0.782232520381728,-0.5030601423132095,0.3655665558508269,-0.03648006827555194
178,13.779999999999962,3.2720155776656,2.8011019079320354,-1.004996219413498,0.5321074407455444,0.8129675700847707,-0.2364733144770907,-0.5395246430419511,1.594292887905405,0.5356477559191924,0.7844300885007149,-0.49282200910758744,0.37263174309101277,-0.053348580130522405
179,13.789999999999962,3.327606595834223,2.7851276325153145,-0.6297650975917981,0.532396565611433,0.8090996000642399,-0.24874459802976379,-0.22467511599368772,2.0533401012370502,0.5411786055249499,0.7870647411108699,-0.4802979876597601,0.3806481604608488,-0.06963039101861522
180,13.799999999999962,2.450584483094852,2.8285090724348296,-0.8085709668282743,0.5340610667880178,0.8052122883393579,-0.25767717849220534,0.2808000940173868,2.2774961670173064,0.6703421113396759,0.7884415825623681,-0.4688790198223841,0.38894218326717445,-0.08458729905170183
181,13.809999999999961,0.7907689629887156,2.758453583631517,-1.4799036547761275,0.532127962669992,0.8070730452364572,-0.25585370506635297,0.8381821499825789,2.322229558407788,0.8830271791178619,0.7862083252303849,-0.4633978111755904,0.3966381000736443,-0.09879349041992369
182,13.819999999999961,-0.42002410220627434,2.1570514460992603,-2.0028115610012143,0.5241003721492871,0.8160478041229264,-0.2434986262865872,1.347905715007754,2.330723808868917,1.0334329992176867,0.7805225709865586,-0.465130094239558,0.4023635177715341,-0.11176827320723963
183,13.829999999999961,-0.6811268596464299,1.1134881889956731,-2.2223624220917855,0.510427085993688,0.8285193086116217,-0.2300016011586318,1.8355667148235602,2.307287222845794,1.020329477764798,0.7745481467761963,-0.4708530461128242,0.4040886713570771,-0.1226670599169327
184,13.83999999999996,-0.40883492266389365,0.4387357295134419,-2.31831327672309,0.4930684619929872,0.8412433537838104,-0.22153961196352775,2.1131860418301383,2.1619082521493973,0.872613574530506,0.7702662051446237,-0.4771854620349702,0.40188761007335005,-0.13205931454675446
185,13.84999999999996,0.02873032991939345,0.34524248641172794,-2.3638033341028484,0.47400118265534974,0.8530100806940435,-0.21814533016830584,1.9602625554381534,1.9042776946463076,0.6950758399027719,0.7674705811433131,-0.48236877784888876,0.39779229098900215,-0.14156345776569754
186,13.85999999999996,0.41465356977359064,0.5624061781360642,-2.277857728229149,0.454954030596762,0.8633496903423016,-0.21805080673333818,1.522724039890837,1.5344310274098532,0.5512288875380377,0.7654320833457569,-0.4857829664994423,0.3936805620237735,-0.15203026438040174
187,13.86999999999996,0.5650844200899859,0.8571900710023995,-2.0101955183874067,0.43783577785561695,0.8718552417020544,-0.219309312446371,1.1340020700933418,1.0729561282269877,0.5162256983193175,0.7635880082682305,-0.48750302402177687,0.39074864241020896,-0.16297572566775134
188,13.87999999999996,0.4407498559633024,1.1102014696034543,-1.6666443796837813,0.4239221020096685,0.878648003445591,-0.2195984649305723,0.9121884397528134,0.6095596951257487,0.5504292299008997,0.7613871703476826,-0.4882845406055183,0.3895880273207945,-0.17339331508645117
189,13.88999999999996,0.20601218397064902,1.3062892373921235,-1.3402209478974,0.4133281249645706,0.884242607542285,-0.2173630268859594,0.7894511124323309,0.24337798800479188,0.5709557104701506,0.7584756977140807,-0.4889090918526198,0.3902383455743364,-0.18269269962070098
190,13.89999999999996,0.08476179033823227,1.439656843951834,-1.017300844077912,0.405832470225382,0.8887871904130087,-0.21292860603754063,0.6977574676075899,-0.004829979633921233,0.5434365040502561,0.7550134733669527,-0.4894132764312291,0.392439440057225,-0.1907956911642381
191,13.90999999999996,0.16136620841597998,1.5180856870491528,-0.6650672576672533,0.401448527849011,0.8919688579722598,-0.20789668252763552,0.6182928349502396,-0.1630828759626271,0.4722468822401709,0.7515358774028769,-0.4892284649596776,0.39585845375744566,-0.19781230869886757
192,13.919999999999959,0.44756323549218613,1.5361227581207926,-0.3245986261602197,0.400208403281669,0.8933439191809284,-0.20437282003104812,0.5401347695509302,-0.25731791691317113,0.38279552510751524,0.7487117897101366,-0.48757401526824773,0.4000994300531711,-0.2039801025960562
193,13.929999999999959,0.832015681443379,1.521270820685447,-0.041168520660964714,0.4017211087464494,0.8927652024938859,-0.20393378747736396,0.45386966606244483,-0.3247647367607214,0.2955251847318914,0.7469977476966969,-0.4839716136793233,0.404716465919966,-0.20965228050557913
194,13.939999999999959,1.1854583832757228,1.5277838004434319,0.17860148428582784,0.4054865171688057,0.8903914627790804,-0.20681855116376535,0.35510556945709426,-0.4022216968339911,0.23859131041756018,0.7464131367292097,-0.4784295200840684,0.40948982803881556,-0.2151052673151188
195,13.949999999999958,1.4235303273962472,1.5834456814611826,0.3399198781548223,0.4110680085740802,0.8865644661425539,-0.21214492167951224,0.24773793503753944,-0.5086743735118335,0.2268923855231295,0.7466185744197371,-0.47129804305253636,0.41447130469860144,-0.22051423939568449
196,13.959999999999958,1.5047993486146425,1.6861993864118272,0.4405005615542552,0.41805418392008215,0.8817613630779373,-0.21840236986623335,0.13876378106269402,-0.6446410139933609,0.24406815190051448,0.7470942442074426,-0.4631557720648241,0.4198358961667951,-0.22593055495539913
197,13.969999999999958,1.4373459205739052,1.8074317967417053,0.49504543509811155,0.42604418879115075,0.8765057325073622,-0.2240429283434182,0.03646904266380355,-0.8011387713503766,0.26806554428617985,0.747335314614943,-0.45463668397834045,0.4257444094917515,-0.23131113513847118
198,13.979999999999958,1.2461795724021896,1.9153847281767487,0.5158767083575159,0.4346879226276089,0.8712822308688923,-0.2277882263810405,-0.04974287889563508,-0.9695430590963499,0.2848146608081597,0.7469652009744782,-0.44633970762338676,0.43227383328776353,-0.23649747148104927
199,13.989999999999958,0.987216622735883,1.9920855895730492,0.5062000916859483,0.4436079306168364,0.8664785629852236,-0.22891761723809323,-0.10837435640844263,-1.1271774309021814,0.30364934082574363,0.745792462686364,-0.43871370612612975,0.4393705020040885,-0.2413437252235607
200,13.999999999999957,0.7191876521473027,2.01470591726962,0.4799986016631343,0.45245948309635575,0.8623248978500458,-0.22727275394378885,-0.14349381765451819,-1.2571120528724666,0.32750883935335695,0.7437974756243914,-0.43200622568937225,0.44689034951185824,-0.24575658238734552
201,14.009999999999957,0.4880717154248023,1.953092636373422,0.44978640399484104,0.4609317581124135,0.8588567604471675,-0.2233452230192262,-0.16088818384924758,-1.3503178673194063,0.33942303238240074,0.7411745493651591,-0.4262718985186812,0.4545316819214064,-0.24965531856175618
202,14.019999999999957,0.32731978459518024,1.7995140301644192,0.43309792371102135,0.46884861724015636,0.8559269138585642,-0.2180518276947866,-0.16461874751481742,-1.4105028309728758,0.32923846931840456,0.7382699413861709,-0.4214142105138043,0.46191645109085966,-0.2529409816629095
203,14.029999999999957,0.24136640476240745,1.562545946851086,0.4496885915226512,0.4762192686572355,0.8532559022099264,-0.21248174353011257,-0.16545063513265293,-1.4474686768584204,0.3069887382913635,0.7354946772547593,-0.4172258155216868,0.4686874741628411,-0.25551042861060735
204,14.039999999999957,0.20021084620801163,1.2889925248176006,0.5087396522970629,0.483264222225315,0.8505195939445364,-0.2074930816809327,-0.17587604462716808,-1.45723967427877,0.2909227060523101,0.7331917695622968,-0.4134779987857091,0.4746353739868183,-0.257244771139245
205,14.049999999999956,0.18037458056201405,1.019470557332575,0.6206005013238058,0.49037095675650116,0.8474302445344254,-0.20342041556451132,-0.2031765511726052,-1.4327797951228274,0.2846921856868857,0.7315271146247302,-0.409987151768291,0.4797831367602492,-0.25802657970929677
206,14.059999999999956,0.1823287149982417,0.7856566279499226,0.786402804224084,0.4980860064539951,0.8436328830680581,-0.20043123046136133,-0.24308073418791448,-1.3837965980885605,0.28244386470482835,0.7306044005480307,-0.40650584289670116,0.48428295342442224,-0.25774540313239214
207,14.069999999999956,0.19119301338552877,0.5842883078561334,0.989720136704896,0.5068980415705175,0.8388108915033573,-0.19855117997765703,-0.27788310857703813,-1.3266930103536356,0.28563566778433147,0.7304522512418004,-0.40279585812836205,0.48833660137436263,-0.2563481623627274
208,14.079999999999956,0.16429446755662147,0.3891269445062913,1.213318761315681,0.5170565172817528,0.8328241364775197,-0.19753055697952374,-0.2903141406609387,-1.2687380776004193,0.29720588935012066,0.731010030982275,-0.3988271428084328,0.49210196777629023,-0.25374624711500393
209,14.089999999999955,0.10458986648737331,0.16661539040426712,1.4494081876538722,0.5286343062190898,0.825598731633775,-0.19718495858943924,-0.27069664268346616,-1.2023172481175426,0.3058559290141133,0.7322563439113233,-0.3946931857617042,0.4955983727934788,-0.24977504870357783
210,14.099999999999955,0.041487664585359296,-0.09998133394554265,1.7129666064633942,0.5416624695333688,0.8170004238614142,-0.19760044156289164,-0.22089736791004905,-1.1023383568135925,0.29684651554289343,0.7342577586342918,-0.3904534792121436,0.4987376203827058,-0.2442439955516159
211,14.109999999999955,-0.017503860864956963,-0.37986178770252604,2.044839597285134,0.5563951296040544,0.8066726519134187,-0.19903126482283037,-0.15648788764180954,-0.9484893537102296,0.28336523695051397,0.7371369078973724,-0.38600911015897943,0.5014724340878827,-0.23690945266445135
212,14.119999999999955,-0.13353128279645216,-0.5691699026305996,2.4045790385656116,0.5732279226571364,0.7942306366721622,-0.20120665690408437,-0.09322718007220526,-0.7407482661492116,0.29112228392986483,0.7407984210470258,-0.38123767407861126,0.5040306828876698,-0.22757794178332028
213,14.129999999999955,-0.3768347277318454,-0.5853611176015056,2.661480806234686,0.5920405856818627,0.7799018529444995,-0.20270839084553352,-0.020713691553569294,-0.47484172130286467,0.34822701133486506,0.7446424063803763,-0.3763860345282037,0.5069232970863495,-0.2163870938968242
214,14.139999999999954,-0.7141763529008164,-0.35660274874820463,2.707307944268274,0.6118773759933178,0.7647576102459855,-0.20147748551116793,0.08257024726700742,-0.12277492947138002,0.46299094078715425,0.7477097240943202,-0.3720643090185457,0.510706388885235,-0.2040283637578432
215,14.149999999999954,-1.085998293139986,0.16150224291724713,2.5721083443597137,0.6317102710168424,0.7500738940431212,-0.1953617488115405,0.2245442166781896,0.29446593631393925,0.5692454834995946,0.7489554265636531,-0.3687509292785685,0.5160720256689785,-0.19159722206045657
216,14.159999999999954,-1.5343172458010281,0.7193377691562657,2.313282463724311,0.6507664055650485,0.7368303099523026,-0.18275306834226784,0.4190273003531436,0.6956465200944301,0.5596500283966953,0.7476594941715136,-0.36686387738850523,0.523466148977477,-0.17985625574003344
217,14.169999999999954,-2.127172593193255,0.7903947834124335,1.9100371464105912,0.6676772787392246,0.725993406910004,-0.1641609474678205,0.7095724080412643,1.0314711534311478,0.40562958686703365,0.7440584479552201,-0.36737507079860154,0.5319172792451249,-0.16858658879891195
218,14.179999999999954,-2.69845766455453,0.2282959078010786,1.3878706538133747,0.6804838316843599,0.7185653841089255,-0.14302597582416995,1.1172119368213869,1.301325858285772,0.18006799622632258,0.7394847668063977,-0.37149994277706705,0.5389411325621332,-0.15695291712099596
219,14.189999999999953,-2.8620268654743226,-0.6286842384416771,0.9001152190336219,0.6884355052837011,0.7145358800537561,-0.12415365738799655,1.5691512134267105,1.5554739092020318,-0.011143069329190305,0.7355811837327624,-0.37894779823166724,0.5424962929589342,-0.14476319068967103
220,14.199999999999953,-2.4018951702419824,-1.3248799046942494,0.5187755115486538,0.6923277394162167,0.7128356588409814,-0.1119321960725823,1.8602548589355856,1.875867992692142,-0.06803084419378788,0.7336498237831367,-0.3875307385602184,0.5420649490311706,-0.1330124469516342
221,14.209999999999953,-1.4533573179895969,-1.5860917639487284,0.21715769665891138,0.6932945147729008,0.7124665267964732,-0.1083244157427114,1.7992918797946698,2.2145530417162704,0.009186726839841716,0.7340919861727077,-0.3946378655228982,0.5385952772682315,-0.1235091533200556
222,14.219999999999953,-0.46611725530149334,-1.502334995704154,0.003851083004398917,0.6923267532160017,0.7127764763389307,-0.1123380227304754,1.426305715705062,2.346889248042768,0.07688901888529323,0.7364495833819477,-0.39877819246045676,0.5336649001459475,-0.11749039320967865
223,14.229999999999952,0.17443583961452247,-1.336305756156984,-0.09880965335229776,0.6902942697168609,0.7132693788178847,-0.12128954258682148,0.9765834690725195,2.141719843152658,0.08100537801103741,0.7399466974651242,-0.4001769798455276,0.528400096082258,-0.11453895696295868
224,14.239999999999952,0.35636664248173194,-1.2642078213647419,-0.10236904639626385,0.6879106163283324,0.713617885295875,-0.1322677012343354,0.6309883304963197,1.705771620257902,0.06692341072759476,0.7438652449822344,-0.4001050606094277,0.5232356278846807,-0.11311098181325692
225,14.249999999999952,0.1609779538164815,-1.2993665436021256,-0.041808268498721574,0.6856140489246861,0.7137618516623884,-0.14300438841391594,0.3936869356383452,1.2192351006997453,0.04820047462958009,0.7476980309382733,-0.39998974581607166,0.5181694610723724,-0.11155950558324772
226,14.259999999999952,-0.23751381202835561,-1.3478050313993728,0.0509959566153249,0.6836762004241784,0.7138004910267842,-0.1518573006264242,0.1881807689544635,0.8082534403973199,0.04946859761606164,0.7510545604027602,-0.400835386485368,0.5132210535355058,-0.10881393885930954
227,14.269999999999952,-0.6727795762096412,-1.313830202369223,0.1501423484974799,0.6823274246917332,0.7138258485870563,-0.1577258910087138,-0.02417486856108271,0.5256634101752894,0.07685483024123878,0.7536041447690007,-0.403015130331638,0.5086345263731511,-0.10457834950059836
228,14.279999999999951,-1.0178220202254753,-1.1791677507433895,0.23318711139915055,0.6817170120253292,0.7138692844636906,-0.16016394598600442,-0.23059785552403264,0.3668927401385328,0.11004658765483646,0.755143228535496,-0.40638799877508486,0.5047375369653632,-0.09915520694605114
229,14.289999999999951,-1.2153270348531358,-0.9958238149573595,0.2921614956725921,0.6818574596868281,0.7138762288653974,-0.15953098728413448,-0.4077532544978012,0.3001770686470178,0.12860360966470685,0.7557032109527936,-0.4105087136679587,0.5017076996470854,-0.0931043757131154
230,14.299999999999951,-1.2801405777687591,-0.8202703840011981,0.33135191990271184,0.6826559009406251,0.7137292153567734,-0.15674201224085482,-0.538520795275469,0.28343359257247225,0.12711323701103663,0.7555184772255852,-0.4148825810914187,0.4994954850792621,-0.08690932949504197
231,14.30999999999995,-1.2372305464822917,-0.6791992122686998,0.34225135242203253,0.6839210086595943,0.7133684425395056,-0.15281540396056728,-0.6185857231408979,0.27338121359301304,0.11355306155805679,0.7548850242207299,-0.4191269774411734,0.49791585157051144,-0.08091813071895267
232,14.31999999999995,-1.1089605940485396,-0.5770532045602448,0.3199540390559195,0.6853529480414005,0.7128658558436282,-0.14869150814824497,-0.6616779645886249,0.23889065153077746,0.0805504580865024,0.7540893337198613,-0.42298606942206723,0.4967227235492267,-0.07542032122099634
233,14.32999999999995,-0.9304476558734189,-0.4936028135828233,0.26913733151541924,0.6866774158199114,0.7123386920231501,-0.1450683155812329,-0.6899216861464458,0.17277326886734007,0.029843086448034836,0.7533523775003826,-0.4262987043877328,0.49571439289901437,-0.07063677526872957
234,14.33999999999995,-0.7224370418232291,-0.39896515862133164,0.1885741246437745,0.6876805109984175,0.7119432783596832,-0.14223512804081112,-0.7233241040049605,0.08614452175287096,-0.025275200272263855,0.7527666230682488,-0.42899926469711847,0.4948135623286331,-0.06676232847205425
235,14.34999999999995,-0.49940408313336704,-0.2931676194989838,0.07444922618562595,0.6881425311713754,0.7118913667058263,-0.14025032298986992,-0.7764271888616016,-0.014041682047155939,-0.08482431130407327,0.7523483648858034,-0.4310890258183051,0.49400015063929487,-0.06400058007573381
236,14.35999999999995,-0.25457907463851104,-0.1813010890670863,-0.07929465784426021,0.6878078680637019,0.7124232512964955,-0.1391872257810668,-0.8600586268241724,-0.12740999713117782,-0.1431107197289873,0.7521174534421297,-0.4325904110235794,0.49322552244079776,-0.06255299291250824
237,14.36999999999995,0.01734805633022732,-0.044488950982287154,-0.25348008017236323,0.6864642039833873,0.7137331082321642,-0.1391052646475875,-0.9794104459771459,-0.24244847929439745,-0.19686766880499554,0.7520837123087766,-0.4334928218091016,0.49247449781918823,-0.06263032161403018
238,14.37999999999995,0.31238604016624977,0.14412456788114145,-0.415640524754077,0.6841255524217158,0.7158099640238546,-0.13994515105632144,-1.1261987560854654,-0.3354016585576898,-0.2445608574027573,0.7522128311736789,-0.433695511682264,0.4918694574543678,-0.06439509960790715
239,14.389999999999949,0.6340912349225614,0.39544521676038846,-0.569718094806753,0.6809550092819728,0.7185185790858646,-0.1415100020759785,-1.284758598599641,-0.3826906545913509,-0.2736597655768371,0.7524149674136791,-0.43305532595120666,0.49163783623943774,-0.06798088839172813
240,14.399999999999949,1.0139941676636508,0.7101041912399917,-0.7165868692854571,0.67709240389569,0.721727738757737,-0.14368731081078762,-1.4421352815592214,-0.3874999591554941,-0.284834519858445,0.752605135636245,-0.4313661815532359,0.4920142555940027,-0.07360404831386685
241,14.409999999999949,1.4524816349055227,1.0816758780151088,-0.8400810500037823,0.6727385250633305,0.7252090509393189,-0.1465734369210395,-1.5883646662428805,-0.3816705728772119,-0.2794823811931931,0.7527446269734868,-0.42830842793269314,0.4932145626007299,-0.08149354894060172
242,14.419999999999948,1.8678230570422365,1.47370845249745,-0.9369496044103947,0.668154906872792,0.7287189105983569,-0.1500867226756389,-1.7049863043666076,-0.3926026174308691,-0.260925936682299,0.75273174868987,-0.42369781909694665,0.495406321308309,-0.0916834417683126
243,14.429999999999948,2.1925939280821507,1.821164249769589,-1.010283207243963,0.6635280939173348,0.7321380319442167,-0.15392412634570715,-1.7630583489583664,-0.42553517384940026,-0.23350218555494628,0.752412115023283,-0.4176632828394705,0.4985786372231808,-0.1038976397443458
244,14.439999999999948,2.383564598813625,2.0771462360273154,-1.0824769309957119,0.6588459779988131,0.7355365781802423,-0.15778461366411783,-1.741625869558468,-0.47511991743995247,-0.19524436695076536,0.7516640460442384,-0.41059987227023137,0.5024909707449718,-0.11765007436007371
245,14.449999999999948,2.452228441596394,2.25944199377725,-1.1861326054150052,0.6539064631425859,0.739162966503592,-0.16134334911709095,-1.6487850372266655,-0.5244539532744616,-0.14373479129392505,0.7503789130000952,-0.4030350199038419,0.506824926528649,-0.13245689190497253
246,14.459999999999948,2.4818298646007304,2.4110715492110453,-1.3288187212563747,0.6483832300665858,0.7433429120739388,-0.16439178795830756,-1.519920306862485,-0.5429548880923385,-0.0838808345780434,0.7484609941199906,-0.3953633215119711,0.5113436756664214,-0.148109530552708
247,14.469999999999947,2.53788700089809,2.5490095242858617,-1.475255998387395,0.6420199004912778,0.748249296297046,-0.16707374731500227,-1.3909549770051035,-0.5210699832580665,-0.031020368159583634,0.7458924044291996,-0.38766878957479073,0.5159032365824586,-0.164644746236782
248,14.479999999999947,2.615103874075167,2.663322026362772,-1.6038161024596749,0.6348285089347397,0.7537534711803382,-0.16977726674565177,-1.2795741479611893,-0.4720999531121538,0.010259495587340389,0.7427389986937436,-0.37981512939682416,0.5204145214385788,-0.18206029054853462
249,14.489999999999947,2.6689673776540714,2.749978730541754,-1.7215136460125664,0.6268657225119515,0.7597241383795709,-0.17271318014690032,-1.185228272941606,-0.3971425159418023,0.055857741028438754,0.7390369499695822,-0.37177310881601566,0.5247929290379532,-0.20023257752673426
250,14.499999999999947,2.6650286624662263,2.792352273212628,-1.8096476979489027,0.6182007803144317,0.7660823601423101,-0.17582136211850832,-1.097880800401341,-0.28955207184625154,0.11727252552410626,0.7347830229981941,-0.3636828183670972,0.5289653135282488,-0.21889086150099893
251,14.509999999999946,2.586928130042961,2.761150701960982,-1.8326875011494759,0.6090768883370199,0.772632337792927,-0.17897253238825714,-1.0085685399624462,-0.14356980708982042,0.19815513994901074,0.7300418537111776,-0.3557324036954935,0.5328696951077083,-0.2375638333988158
252,14.519999999999946,2.5052865047738297,2.673506555258637,-1.781843661578563,0.5999337592401272,0.7789894477394664,-0.18227372874201037,-0.914512520377049,0.07707921635852817,0.31388480547316777,0.7250217916186934,-0.34797432462879596,0.5364325474222339,-0.2557299975332063
253,14.529999999999946,2.556136836105508,2.6587987722750928,-1.7264172331794094,0.5911229660059788,0.784794766560434,-0.18612290617831784,-0.8287429294970791,0.43412632896319786,0.46821572252630794,0.7198825745070141,-0.34008504510056425,0.53968724656673,-0.27340386238141934
254,14.539999999999946,2.9307670888260806,2.7862321799151277,-1.6532906076728264,0.5828811279100488,0.7896276800853643,-0.19159108391720386,-0.7606610426438983,0.973250112323667,0.6225972823432914,0.7146921617938007,-0.3310955316280001,0.5427271450812178,-0.29141102296065663
255,14.549999999999946,3.5748418915168063,2.8616518177456873,-1.309386626505149,0.5765250814558176,0.7919793261665139,-0.2008644266441813,-0.6575364968292882,1.6302488582707872,0.7165064675210858,0.7099938498715161,-0.3193522610440413,0.5454661449793905,-0.3102425811758719
256,14.559999999999945,3.706319344324306,2.7221991010215145,-0.7939546554101087,0.5740658845184263,0.790324627079656,-0.21397161992643987,-0.37870874355699846,2.179938674425851,0.781316424970925,0.7064490694130608,-0.30466517034174334,0.5478441116043646,-0.3284007643278373
257,14.569999999999945,2.7354671122850225,2.6634083293455957,-0.8589132708478253,0.5738674752934361,0.787546479885113,-0.22459095326488107,0.14595986253641152,2.445056169662665,0.956455491520805,0.7027067709794687,-0.29065221904462524,0.5506294206201524,-0.3441581201484064
258,14.579999999999945,0.9509155919886148,2.63378937074207,-1.6050587969335925,0.5702588406824257,0.7903146205970255,-0.22395109098462498,0.7356777510803094,2.4761678828277054,1.214965735931704,0.6958595026726332,-0.2828226002235169,0.5550022717526462,-0.35735433357874746
259,14.589999999999945,-0.40779761620108634,2.0060222042558165,-2.179091935974708,0.5601385927745853,0.8006819097984562,-0.21215362343972866,1.2218091428747142,2.445595618759493,1.38580546740675,0.6860623396663591,-0.28317655808364117,0.5601110814492274,-0.3679027609702062
260,14.599999999999945,-0.7078306896986968,0.9010776851149658,-2.3713967701382717,0.5446234786111617,0.8146538973896957,-0.19893552859146696,1.6646370186733235,2.3846453313180866,1.3702918374669584,0.6767651654248925,-0.28903433918680677,0.5630070151103072,-0.3760736715876393
261,14.609999999999944,-0.38604793213083854,0.17355473287670303,-2.4509584346724975,0.5256176017125966,0.8287796683169777,-0.19159959405865262,1.9297872355261976,2.21357407086513,1.1793977539421958,0.6699412588194775,-0.2968790887642185,0.5621807134895737,-0.38335177602731907
262,14.619999999999944,0.11391085375201704,0.10589844206677532,-2.4555635705927656,0.5052659497586494,0.8417335679057483,-0.18989551865634663,1.7612346230285887,1.9265856510145143,0.9448838792122002,0.6646649863285367,-0.3040340382407169,0.5591100089392894,-0.3913369835563173
263,14.629999999999944,0.4664750154273204,0.3652637383431038,-2.3367057149725827,0.4852905772254382,0.8530787555783725,-0.1914203438319144,1.3214915276554235,1.5450968390851887,0.7574858086477239,0.6597555414135734,-0.30928612341244943,0.5555411709526994,-0.40050656199339796
264,14.639999999999944,0.46560914840805645,0.7468374201346308,-2.063704147036777,0.46739913222401147,0.8626813638024664,-0.19298912873996202,0.9578452883782907,1.1098708678280143,0.7322655247404528,0.6545067698161318,-0.31268109243202635,0.5529323095163012,-0.40998675535556006
265,14.649999999999944,0.17378066405522627,1.103606888204196,-1.732294374208992,0.45271589025996456,0.8708069653326221,-0.1915512481072211,0.7809168704623156,0.7031425241369742,0.8156864523170366,0.6485095084328721,-0.3149275866088533,0.5523079182804648,-0.4185549567641916
266,14.659999999999943,-0.10023999583939909,1.3433080893722813,-1.4273062704619757,0.4412369634897356,0.8778216154480251,-0.1862723203386076,0.721037184185393,0.39630196339608714,0.8578002037278145,0.6418105500115598,-0.31660450615629954,0.5537360329157905,-0.4256708291801026
267,14.669999999999943,-0.1495743204902329,1.4489992207340814,-1.1207712139306079,0.4325585549263078,0.8836613022424007,-0.1789049096202199,0.7093621651607881,0.18920306126847233,0.7939077554244375,0.6349596829911982,-0.31758838807495215,0.556491505215225,-0.43158144132129483
268,14.679999999999943,0.01855100198144438,1.451812173365422,-0.8019828218396329,0.4265802230072864,0.8879439045352938,-0.17196461960802217,0.7032291207589975,0.04298949129996422,0.6512659039920623,0.6286863081140608,-0.3173657080294382,0.5597267318809391,-0.4367192688030096
269,14.689999999999943,0.33598114072293805,1.4010315441892285,-0.5080379806549429,0.42318770652062904,0.8904416568544617,-0.16740269080986514,0.6744449221922908,-0.06563278460947188,0.49357956585659496,0.6235083119111099,-0.3155346117261876,0.5627902918637654,-0.441508393720609
270,14.699999999999942,0.694058295812024,1.3344738737756987,-0.27523618915354015,0.4219991933004373,0.8912258227028829,-0.1662318671886061,0.6079150381903633,-0.16546969127295208,0.3594107656688013,0.6196008875552166,-0.3119945865538322,0.5652767875502304,-0.4463219702804403
271,14.709999999999942,0.9764220032798454,1.304535593998515,-0.0969726233726601,0.4225534408697725,0.8905966949625242,-0.16817410523499904,0.5089106638960088,-0.2821847936229761,0.2797979791999892,0.6167655581299805,-0.30696649929039227,0.5671651960372609,-0.4513098540552167
272,14.719999999999942,1.135855576631743,1.3532801120815892,0.03928174122777202,0.4245578722824391,0.8889022989938504,-0.17203509008665946,0.3945344698540132,-0.41189973436554184,0.255337686301368,0.6145606059039576,-0.3007663791857695,0.5687805156145624,-0.45642763473051456
273,14.729999999999942,1.1702431182239585,1.4589511776561885,0.13666954218591415,0.42779551618008405,0.8865002197556607,-0.1763519871153818,0.282763186967684,-0.549521352109478,0.2591547214269582,0.6124924076868851,-0.293731506066318,0.5705550042662878,-0.4615437468387098
274,14.739999999999942,1.112700773055526,1.587902468348358,0.20722499621577517,0.432034066034916,0.8837179485610859,-0.17994665064607102,0.18243640782401185,-0.6910381667480583,0.26736599063210265,0.6102010724325504,-0.286201953871218,0.5728008447870557,-0.46649949525403905
275,14.749999999999941,1.015899785781472,1.6978675227282816,0.2675968813441112,0.4371049074710222,0.8807595833158228,-0.18218985508382335,0.10092864090493252,-0.8170073492693524,0.27488634469845274,0.6075366996237025,-0.27842206562978955,0.5756482526141584,-0.4711562669201754
276,14.759999999999941,0.8936843470870409,1.7683052272544983,0.3218852309645217,0.44285201640976246,0.8777257531490328,-0.18294788167264736,0.0452700768390841,-0.9242808743703729,0.27950178135582193,0.6045304859896709,-0.2705727503643505,0.5790515509798237,-0.47540687636996537
277,14.769999999999941,0.7342849792944403,1.758511022903,0.3870265511582021,0.4491751692105755,0.8746626308953184,-0.182195416340632,0.015214573067915578,-1.0417724191409976,0.27862948271973614,0.6013202981465818,-0.2628679092575504,0.582913138254992,-0.4790694464521947
278,14.77999999999994,0.5255416246446144,1.6460564591738787,0.4685738169130678,0.4559836373089423,0.8715872124473248,-0.18000070201242865,0.005740798505483207,-1.1831944923575075,0.2724973714703978,0.5981704885719993,-0.25561978657123197,0.587064763655824,-0.48186081175681267
279,14.78999999999994,0.2415661674393847,1.460738095841676,0.5535240291083876,0.4631809241890535,0.8685528836182322,-0.176242016442245,0.005320646709321465,-1.3310547666069164,0.2712478513252242,0.5953041392083883,-0.24919950631537358,0.5914119060443027,-0.48345902417548736
280,14.79999999999994,-0.1131351119845225,1.2495642204596702,0.6433256065084665,0.4706879082438932,0.8656558673556002,-0.1704936083164437,-0.004392595457137471,-1.468911541350413,0.2809309862935971,0.5927987888213545,-0.2439552018371855,0.5960122223341482,-0.48356512358379194
281,14.80999999999994,-0.5186417539917394,1.049968381595425,0.7616781557720023,0.47863454032723324,0.8628584577818894,-0.16232096440008698,-0.03454970926984931,-1.589657269952397,0.2914333937436793,0.5906657964113959,-0.24002399138836644,0.6010161470175759,-0.48194608364823
282,14.81999999999994,-0.9214637824641676,0.8704516623500616,0.9155583246389175,0.4873095832950513,0.8599651532313815,-0.15145195853102772,-0.08288841085861626,-1.6795759413950537,0.2938221541227912,0.5889048793682639,-0.2373445308689135,0.6065754477665556,-0.4784474521811662
283,14.82999999999994,-1.2490964732758862,0.7062525932126644,1.1067118904151219,0.49698280716883025,0.8566566182459181,-0.13813242765850528,-0.14009463979008543,-1.7109166024357783,0.2837272242880628,0.5875590428841546,-0.2356671635231431,0.6126878609687193,-0.4731088142257862
284,14.83999999999994,-1.435062888358508,0.5165418236611036,1.3224791756580523,0.5078848421838017,0.8525078954296185,-0.1233150080491638,-0.19223748547223043,-1.673246217769556,0.25265605580788386,0.5868127213197079,-0.23459825181259686,0.6191107302734774,-0.46615023586285126
285,14.84999999999994,-1.436880902275143,0.26872305335413965,1.5730418729198015,0.5205875272070782,0.8467800405762499,-0.10896180404152626,-0.2201695991014127,-1.5794480962411175,0.21345429232578647,0.5872082539578728,-0.23345230515982995,0.6253098880611413,-0.4578772307895422
286,14.859999999999939,-1.3164234203716614,-0.032645110262733076,1.8483099612683098,0.5350934969133204,0.8391929908648711,-0.09667945387897894,-0.22069873962427586,-1.466436729056046,0.17515349874334313,0.589082862365102,-0.2318785398034762,0.630783322186257,-0.44866573288974526
287,14.869999999999939,-1.1841121516448998,-0.39869220654927084,2.1884821182646412,0.5516724064343793,0.8294086426163987,-0.08741156491131384,-0.20170257850726003,-1.3356038529904344,0.11861019742321464,0.5927656310728427,-0.22966862075420402,0.6352500388441561,-0.43852802553209475
288,14.879999999999939,-1.1165005712327591,-0.7724281168884778,2.6370995397667563,0.5709643114434737,0.8168625456518713,-0.081255384369999,-0.16182095720554587,-1.1718828937424206,0.06649494383811011,0.5985212213911653,-0.22669549030326147,0.6387310853601416,-0.4270358780671153
289,14.889999999999938,-1.0733795989075146,-1.0899043620213442,3.1508037141410448,0.5936079441562164,0.8008674908032026,-0.07784219311983025,-0.09104337521448999,-0.9763351264261426,0.04632076981239078,0.6063584345584311,-0.22270148462853098,0.6414651740089008,-0.41375787696842226
290,14.899999999999938,-1.0788820436222253,-1.3007080094737555,3.547591672502334,0.6192634155863106,0.7812900790475585,-0.07668360885310269,0.012887420929092022,-0.7434953384940374,0.07809818690328708,0.6158692385352544,-0.21760898696668413,0.6436599670360397,-0.3987236057126628
291,14.909999999999938,-1.270784488148677,-1.3288331255397068,3.685078205179895,0.6462496195477625,0.7591690949173452,-0.07617643276320238,0.1524560837869459,-0.42577267877940045,0.22334238663273737,0.6260140254665203,-0.2120974492031458,0.6456940126210235,-0.38226263895587353
292,14.919999999999938,-1.65627551956154,-0.9549388017811218,3.453085457406434,0.672263772700001,0.7365739563898913,-0.07301645383820707,0.3430818775977709,0.038158861331511584,0.4681597055227777,0.6350030169971982,-0.20726233823289117,0.6484816384114177,-0.3649939585186633
293,14.929999999999938,-2.233271925673634,-0.20793322590323426,2.7916078570864236,0.6947415607775757,0.7163879079132877,-0.06299158003165983,0.6210990465511756,0.6476609777510252,0.6722702004478219,0.6405454922605864,-0.2042404929248605,0.6532856249161926,-0.34806782610940906
294,14.939999999999937,-2.874937240302677,0.010103776734098513,1.9843823401489362,0.711594562629527,0.7010599522447083,-0.04507150621272042,1.0147069603400574,1.3573885662161618,0.6691730492454312,0.6421038519847025,-0.20475042206838293,0.659948733213415,-0.3319585789164231
295,14.949999999999937,-2.847645798336681,-0.8602954532745946,1.5098776938462972,0.723475350238505,0.6897722637963137,-0.02739734521254548,1.5601703705082108,2.069023033362676,0.48985389358559694,0.6430778205831876,-0.20897197440202117,0.6653010138951169,-0.31640085646692323
296,14.959999999999937,-2.5460502908382985,-2.0176057162961145,1.096517838320752,0.7322147630433627,0.680783254461647,-0.01959986325107231,2.139040818824469,2.5475415503668577,0.2569817646107604,0.6471345522507098,-0.21548493718162298,0.6661482387326982,-0.3016285236842773
297,14.969999999999937,-2.211979642408424,-2.500359727771568,0.4731483833215757,0.737058927430745,0.6755206554243676,-0.02030053946713095,2.2869646366177054,2.7415899932229797,0.17291768885626774,0.65333244842013,-0.2240792472935514,0.6630385702420362,-0.2885866848743213
298,14.979999999999936,-1.6690410490042256,-2.3437454063081082,-0.05435397640841673,0.7378346032368629,0.6745073175195506,-0.025143381199403327,1.7461493872068392,2.729339883858809,0.26072262989718464,0.65945592093199,-0.23329306359699012,0.6580163977669329,-0.2787065044747187
299,14.989999999999936,-1.174021654051257,-2.0779382100038695,-0.4005535647430148,0.735579717559171,0.6766773943913574,-0.03189269115950765,1.0160386613611185,2.4575307943575124,0.2245330238006637,0.6646869501018408,-0.24178147401046113,0.6523654673453825,-0.2722710296619413
300,14.999999999999936,-0.8375648046258907,-1.8259080359654358,-0.5101563028636952,0.7316929085369679,0.680483679592903,-0.03941299497757545,0.5277611189367568,1.9830114770735232,0.1488343932410231,0.6691585009765625,-0.2492814577417572,0.6466383088135731,-0.26819703110971277
301,15.009999999999936,-0.5768426151949239,-1.6564582793186713,-0.42849416228979087,0.7276818531777937,0.6842747429736017,-0.0472620324511401,0.22617031454210568,1.451798201137703,0.16840084924191526,0.6732142694386768,-0.25549253555709256,0.6411585734367614,-0.26534945565275353
302,15.019999999999936,-0.4367015630798513,-1.54807860907793,-0.2864015276478801,0.7243908853508956,0.6871441108021656,-0.055499063175273776,-0.013352785987373609,1.0173300955378848,0.15393243178739302,0.6859386854654287,-0.2981335722543511,0.6113163828695681,-0.21580324740034124
303,15.029999999999935,-0.4559876993117758,-1.3555865231817334,-0.14926912506421575,0.7220295116340586,0.6889796800286021,-0.06304634183059096,-0.24942646099399354,0.7513553272943057,0.12070206535056403,0.7290542166249481,-0.4729732220636001,0.49474133708723284,0.0006804176736278797
304,15.039999999999935,-0.5316735583640675,-1.0756550619302632,-0.048437313433754854,0.7205590367499812,0.6900067519772395,-0.06843871952764462,-0.4671204503191414,0.5960422837663627,0.11021397453238732,0.7308883462146699,-0.4750009336282073,0.4900532492597733,0.00443115237980873
305,15.049999999999935,-0.5713038980006991,-0.8023268618062057,-0.002710946524709318,0.7197408155324021,0.6905683111379465,-0.07133328711443823,-0.6380026806476498,0.4620050657250277,0.0888562639132143,0.7318487044977969,-0.4770640462962674,0.4865610323097909,0.00792470643902763
306,15.059999999999935,-0.5208103011316761,-0.59714967864747,-0.002312785124341187,0.7192374917611677,0.6909679121446114,-0.07253130515571835,-0.7568335503714367,0.33385859556264297,0.04278959794280208,0.7322195227153968,-0.4790531755404663,0.483984908365196,0.010927758459091542
307,15.069999999999935,-0.39056815991337057,-0.44269078590749933,-0.025835268713384655,0.7187757988070572,0.6913912491437322,-0.07307190530066975,-0.8407487406126901,0.23263560685988063,-0.015728035344294764,0.7323662818876143,-0.4807395383251395,0.48203008053621405,0.013240159876301122
308,15.079999999999934,-0.18833161345221278,-0.2871317146919269,-0.07504651663407186,0.7181777393246268,0.6919505190485313,-0.07365407735385449,-0.9131914504584716,0.15988209092983977,-0.06524477530223013,0.7325382516732111,-0.48190998294962334,0.4805575106604492,0.014654465220608169
309,15.089999999999934,0.11916370261860573,-0.11034954585884957,-0.1808690050267332,0.7171623875551951,0.6928833652523156,-0.07476235149144378,-0.9989444203784495,0.09926999907549461,-0.10919005617542192,0.7329135330684576,-0.48236408997389135,0.47952436419018984,0.014784040012604756
310,15.099999999999934,0.5931498379786058,0.06209507636678427,-0.33008918428625234,0.7153880511646902,0.6944312901670004,-0.07733657195670399,-1.1103906237949905,0.024229337747063123,-0.1802491570457772,0.7338223573998647,-0.48169390365138864,0.47885507827865786,0.013076024552559204
311,15.109999999999934,1.1417539618939574,0.24135960954741717,-0.4883138613964127,0.7126606811695817,0.6966633625241969,-0.08225712165409584,-1.2480439653314994,-0.08087741311227113,-0.2656097958675,0.7355543320088035,-0.47950219339237665,0.47848460588260977,0.009126860055348403
312,15.119999999999933,1.6373389311925501,0.4285162827364247,-0.656138222275121,0.7089448433245014,0.6995397720496291,-0.08959687468007024,-1.3959905360096494,-0.1906818647978354,-0.33240812611901815,0.7380928743628299,-0.47575342763713085,0.4783902859916409,0.002881803826854469
313,15.129999999999933,2.0740122391495612,0.6213460679463885,-0.8149710961368224,0.704273232033872,0.7029879345844923,-0.09893702960986545,-1.5333350468670945,-0.268757866375439,-0.3769580745991602,0.7412316746882959,-0.4706314916649968,0.47857391061874355,-0.005535250233659205
314,15.139999999999933,2.4276015847848496,0.8039064643344789,-0.9596757844978874,0.6987466544401485,0.7068712448091932,-0.10983514862861089,-1.6444958995400876,-0.33462705827052136,-0.3867251673630725,0.744746236281559,-0.4643426280381347,0.4790224929453895,-0.015907961355490795
315,15.149999999999933,2.649658541381148,0.9858646821815505,-1.0917046154269776,0.6924855290109586,0.7110804515122376,-0.12167814779769619,-1.7221684590757622,-0.4045548331617087,-0.3609926640960205,0.7483577185795012,-0.45720053502405766,0.47971058141581363,-0.027916978178907256
316,15.159999999999933,2.6975797806201065,1.1974861733053743,-1.2063771280136928,0.6856474196586803,0.7156119208559828,-0.13329585623034446,-1.7586706698694299,-0.47518733711123234,-0.30858456582270716,0.7516193930586295,-0.4497178429234019,0.4807285530281545,-0.04116499684230663
317,15.169999999999932,2.5745540151511976,1.4146805319936722,-1.3042046395311588,0.6783896400119374,0.7205708753308616,-0.14335115102593957,-1.7507737854734604,-0.5382060462671893,-0.22460835527270856,0.7540598499940018,-0.4424896265356587,0.4822059021687909,-0.055204376682034775
318,15.179999999999932,2.2999305667173706,1.6001837369456198,-1.3882102512691046,0.6707564619597246,0.7261822240815315,-0.1507725690632611,-1.6865027655020235,-0.5899307466816186,-0.1396528817638295,0.7553321742583853,-0.4361100393283803,0.4841677439907992,-0.06956244179558622
319,15.189999999999932,1.9517512646497417,1.7298787341855517,-1.4738819229868478,0.6627117789771633,0.7326324576709797,-0.1550826797047119,-1.5665245181572942,-0.6259229032982361,-0.07144870469778752,0.7553125832467521,-0.43099203276727976,0.4865206860639743,-0.08381666611992938
320,15.199999999999932,1.5930012069631942,1.8204113616969064,-1.572317925207268,0.6542287000473761,0.7399426369345327,-0.15638210925316376,-1.4135818092253327,-0.630005232669247,-0.01728895664498869,0.7540720624998808,-0.4272385271924121,0.4891573162233778,-0.09771628176110764
321,15.209999999999932,1.3162355593946664,1.8723697449662182,-1.6654348305602595,0.6450283887697629,0.7482390120429286,-0.15511284426117403,-1.2575076009886306,-0.5991184736380533,0.015553845129745236,0.7517642237230406,-0.4248161594060819,0.4919084156524102,-0.11130955052505435
322,15.219999999999931,1.1546934333334702,1.9290156094257414,-1.7486744695810723,0.6350781477781325,0.7572933052233585,-0.1521951504545947,-1.1269615508381379,-0.5295831961295216,0.021400515732454755,0.7486728305674613,-0.42330553764625123,0.4946858493003306,-0.12477759077694868
323,15.229999999999931,1.0970182299839162,1.9866787408551543,-1.8659066803053057,0.6242502334226427,0.7669967042101292,-0.14834535261909418,-1.0190638012484126,-0.4063411642269239,0.036153275202373,0.7449773501499517,-0.4223376141617236,0.49745115332917067,-0.13843180549333717
324,15.239999999999931,1.2471151736466852,2.0281843261255763,-2.0110246266874046,0.6122189704829577,0.7772804721319795,-0.1449134232898857,-0.9227614276949344,-0.19744221250805863,0.07128243609493168,0.7410114965986024,-0.42139200161189283,0.4999715524173628,-0.15277044267681614
325,15.24999999999993,1.5109215091656865,2.056539452408295,-2.1612677988326454,0.598840870074646,0.7879369969163362,-0.1432465537833734,-0.8262289790017261,0.0957745127463322,0.13136807723916716,0.7370918270587032,-0.4199118775638652,0.502045987629683,-0.16821649175081713
326,15.25999999999993,1.908981043489187,2.0590986164248957,-2.3153131846990407,0.5840001648809893,0.7987623945379078,-0.14454978166262858,-0.7106971863276628,0.48566042084776384,0.22183563319107097,0.7334891245055288,-0.417485784649032,0.5034179690098718,-0.18505155683156632
327,15.26999999999993,2.3988019450599993,2.0670934334272353,-2.3515102948049824,0.5681725911858776,0.809107118253802,-0.149991277869999,-0.5691856802015958,0.98940710055517,0.3321811731928593,0.730494598352898,-0.41351493770470005,0.5039913992408362,-0.20334096503700688
328,15.27999999999993,2.8942140742655402,2.0742841405115477,-2.1917199537053698,0.5527902793672002,0.8178154051003508,-0.15991745369423746,-0.37200833874629896,1.5626480151536473,0.42734809497194526,0.7282729015289539,-0.4074102897156956,0.5040376243657271,-0.22260570905764507
329,15.28999999999993,3.057306221861341,1.831316440900632,-1.9199089593798315,0.5391107590475622,0.8240818752604939,-0.17385332412609247,-0.05253312678095587,2.1287935335035613,0.5007762288424203,0.7269674213253161,-0.39935843311300545,0.503569426093071,-0.24171681661069908
330,15.29999999999993,2.5102152744510913,1.5242341623056634,-1.7794548920724396,0.5270229814058891,0.8286830215223832,-0.18845544645350493,0.419487507521367,2.526174997137148,0.6431952187202675,0.7261180140936593,-0.3915581809810651,0.5024475278452829,-0.25878183560416335
331,15.30999999999993,0.9660047927868,1.3614817090922358,-2.1717852190493585,0.5135525510983054,0.8353930538542538,-0.19583866586540355,0.9754850966547343,2.5956415256632726,0.9460146787813584,0.723386623529223,-0.38804103853100197,0.501501574900583,-0.2731691403706891
332,15.31999999999993,-0.7534964787544184,0.9954808571726408,-2.7956340966880586,0.49403664200471814,0.8483201985588101,-0.1903415449156575,1.414015859285081,2.408079183242743,1.1768506294812375,0.716894892796428,-0.39263203807689817,0.5006629328515472,-0.28500090479588314
333,15.329999999999929,-1.647078485868757,0.19369973340083546,-3.0443094393444556,0.46985144549053137,0.8648752073015905,-0.1765674363629034,1.7119832167668911,2.120516615888276,1.223436194152265,0.7085840749055352,-0.4036398004309385,0.49878041777317456,-0.2935778237354237
334,15.339999999999929,-1.8400675729115676,-0.24605649116964662,-2.9549338502259594,0.4434123993502664,0.8816441151864906,-0.16137905205963216,1.8535753151850534,1.7715300422401756,1.068458341869026,0.7006458913272535,-0.4174927345499522,0.49497685005191944,-0.29963549576123255
335,15.349999999999929,-1.686187148482227,0.0022979918027872318,-2.774927442799219,0.4176673239836174,0.8967339837559755,-0.14624331735584914,1.6606977468842785,1.441829098440451,0.8571418370058141,0.6929275076895076,-0.4309980170285407,0.4910335299730464,-0.30490913594383745
336,15.359999999999928,-1.3091345462277388,0.47919830562274973,-2.571821429770049,0.39380037884560687,0.909707171449204,-0.13164334357424257,1.2427307371403322,1.1508289541553087,0.6435503747589381,0.684918715600702,-0.4423830912496459,0.48833695666975724,-0.31097322215245865
337,15.369999999999928,-0.9435669614279939,0.8398792089238801,-2.24191503500777,0.37249179808603167,0.9203831063292224,-0.1188716853758153,0.9460810298419391,0.8206149195107647,0.47149174238671393,0.6769881897249695,-0.451027686918085,0.4869672113311498,-0.3179936850739971
338,15.379999999999928,-0.7182622679345005,0.9754426829390664,-1.772417660512879,0.3548978450928269,0.9286539941109436,-0.10789840441805308,0.8787723061318414,0.48246456906650087,0.400610456105599,0.6696383059641848,-0.4572380100425537,0.48680978733073876,-0.32485674767822664
339,15.389999999999928,-0.46096235934520874,0.9803149446722589,-1.2824318638055638,0.34168787548125085,0.9345923034119911,-0.09891377251199372,0.9351159002906364,0.22253527121743316,0.41000543231824166,0.6633706908871417,-0.4613363307881294,0.48755697038008916,-0.330749477116734
340,15.399999999999928,-0.08173772696001566,0.9718834078217757,-0.8675956961833362,0.3325782977071249,0.938476611929781,-0.09301980825758682,0.9694202883470573,0.03141542700107253,0.3850389801813052,0.658562928244049,-0.46325358413140344,0.488759837510114,-0.3358634157326109
341,15.409999999999927,0.3983310270854718,1.0197837241239138,-0.5046273811451444,0.32704263932363875,0.9405999945367854,-0.09118431176184408,0.9050227319122146,-0.1138849117090547,0.31233482288375214,0.6553263092354187,-0.4627509902352041,0.4901726539280877,-0.34079207411949075
342,15.419999999999927,0.9033211043018743,1.1108350193235688,-0.20211763105451588,0.32471619592371553,0.9411449457492673,-0.0938362702265061,0.767709198565897,-0.21155249775153376,0.2598653223953642,0.6536137131019004,-0.45966468458867976,0.4917214675425176,-0.345987018639391
343,15.429999999999927,1.3655338482248438,1.2271424342048607,0.028787019785930124,0.32506029101279293,0.9403117252704294,-0.10074504445841764,0.6104828423701599,-0.29887121008355133,0.22189049150859697,0.6531883386726693,-0.4541156974046939,0.49336218775219004,-0.35173504922227916
344,15.439999999999927,1.7078756052692414,1.358881643570224,0.19821247101497672,0.3275177197145444,0.938294142540458,-0.11106775378664716,0.45753682027729986,-0.4147562034410078,0.19429485966570248,0.6536883091708523,-0.44648273219753987,0.4950951285923002,-0.35808578975472005
345,15.449999999999926,1.8598416386935541,1.5015086296493114,0.3168134914446154,0.3316115628108223,0.9353399804698139,-0.123175369070648,0.3188559793980381,-0.5733872335292389,0.18204032519243663,0.6545740630762872,-0.43738400705199776,0.4970985982380362,-0.36485662950130515
346,15.459999999999926,1.816102308153012,1.6418693103794177,0.4124168306448143,0.3370485000018732,0.9317281731892214,-0.1352006054754418,0.20368852807419507,-0.7641485539823284,0.18689560794103172,0.6553320331931283,-0.42751967946032254,0.4996253897476889,-0.37167176112515943
347,15.469999999999926,1.5791566895882247,1.7856702131194189,0.4813880171540796,0.3436016372188691,0.9278116586229197,-0.14526150626919768,0.11041397203254283,-0.9713062528619432,0.2024431089330894,0.6554842533705177,-0.41758686721232674,0.502979935691598,-0.37811430477482866
348,15.479999999999926,1.1927605525143716,1.947606056402984,0.5562242817427052,0.3511637661053159,0.9239486340257969,-0.1516609238749059,0.04269904874940622,-1.1694859087597718,0.23542695597231933,0.6546279733026226,-0.40816781162225185,0.5075100808152658,-0.38378664939810536
349,15.489999999999926,0.7429068169437623,2.097228537571986,0.6346210664035613,0.3597381294301848,0.9203602564294563,-0.15337309858348083,0.0028414742544965385,-1.331944001406547,0.27161159200235196,0.6525572203576823,-0.39958002159714634,0.5134653845686237,-0.38840055892513853
350,15.499999999999925,0.3595442904275652,2.16248839605022,0.7083646109623735,0.3691416230416026,0.9170965549215285,-0.15055025908835576,-0.006152845288107653,-1.4417850187834378,0.2891452507842212,0.6494089587762523,-0.391919605072112,0.520692648231987,-0.39184501297517227
351,15.509999999999925,0.10135174041824743,2.109089586109095,0.8000807848391558,0.37916757308888854,0.9139593005339947,-0.1445880533029329,0.004165554189964928,-1.5112131813425207,0.2821097703704371,0.6456954372578383,-0.38501255902311143,0.5286471128096568,-0.39417104358992733
352,15.519999999999925,-0.11402862633452383,1.9332905181843136,0.9119300227583466,0.3897920646256715,0.9106937769700426,-0.13672064281264354,0.02821463437741162,-1.5568257493328912,0.260241863843008,0.6419663063260489,-0.378773220108625,0.5368116415535039,-0.39527106901286346
353,15.529999999999925,-0.3207253460722025,1.6843376261278382,1.02350312375539,0.40094922153061646,0.9071654802323464,-0.1275995360600226,0.0611342252537068,-1.5823653074913135,0.2546373013477993,0.6385696148637463,-0.3732800127025971,0.5448472182897058,-0.39500402064669293
354,15.539999999999925,-0.5702288575075249,1.4143865541756497,1.1229878102777184,0.41251742160249777,0.9033605459887569,-0.11729434555684672,0.07748914577929937,-1.5899730614024439,0.2722306048418685,0.6356054781860593,-0.36870690591124405,0.5526341265968103,-0.3932586782993658
355,15.549999999999924,-0.8133338819500748,1.1350561756543898,1.249632639038407,0.42443512589593724,0.8992646045833936,-0.1056594277232987,0.06898101159323924,-1.5777446145611822,0.2872287994276689,0.6330570637240792,-0.36518847915937674,0.5601824224264756,-0.3899586074940878
356,15.559999999999924,-0.9842900710963615,0.8231892784701906,1.4266332753477937,0.4372571876515162,0.894473208637024,-0.09330740798750474,0.05609997841686638,-1.5398086857439397,0.28110483783109425,0.6312034226554039,-0.36242968298017353,0.5674397791418943,-0.38501243931322443
357,15.569999999999924,-1.0847732049245984,0.47024958957341606,1.6179489960981321,0.4513406241761358,0.8886417138835127,-0.08115707327886912,0.061606169916796,-1.4923877817367424,0.2689353894305715,0.6303699087555121,-0.36014715215454796,0.5742061168410332,-0.3784309138019682
358,15.579999999999924,-1.090679298492675,0.09364306745927675,1.7861458887697068,0.466600434633384,0.8816669476702146,-0.0701663214793844,0.08147526637580607,-1.424141860518751,0.26491447387534744,0.6307668106541928,-0.3581621770823657,0.580201983522376,-0.37042202068212104
359,15.589999999999923,-0.9923939492294143,-0.32801008365430406,1.948982272212613,0.48287457796085603,0.8735107542846513,-0.06152457798722233,0.10898527548336218,-1.3200808393692098,0.2683378586260263,0.6326413084465558,-0.3562561143072737,0.5850791300739939,-0.36127779177315367
360,15.599999999999923,-0.8106976428011171,-0.7319585282136967,2.158725848423124,0.5003818733287303,0.8639576938312362,-0.056270177032024624,0.1262503170684193,-1.172423130254547,0.2589156736213616,0.636245543240287,-0.35405720242795563,0.5886486700707042,-0.35116783557701575
361,15.609999999999923,-0.5692421847723943,-1.0903117010590149,2.416210485275206,0.5194761935130022,0.8526922407750169,-0.054997552786448474,0.12652234474737548,-0.980238306312063,0.23008720144845313,0.6416681262584629,-0.3511092910181452,0.5909505022038478,-0.34022036303483927
362,15.619999999999923,-0.39292623664962745,-1.3659938217704128,2.689255255345189,0.5403983130705716,0.8394095926492017,-0.05756540581424578,0.13207467857378025,-0.7410505516703495,0.20281854146082173,0.6487626794799236,-0.3471175330081194,0.5922207033925679,-0.328443698322272
363,15.629999999999923,-0.37590008025769567,-1.5011311084770065,2.9039452001074113,0.5628491394218592,0.8241632794178422,-0.06240844485823599,0.17864911681487355,-0.4370617521289677,0.23792688464220169,0.656910925230765,-0.34236963987680763,0.5929392464717557,-0.31568002583370314
364,15.639999999999922,-0.6380605127700002,-1.344821808811313,2.9121401661858393,0.5857835812362896,0.8076687713359136,-0.06679173504761038,0.287130164397986,-0.029452523385172957,0.3601492230894895,0.6649027960875425,-0.3375146098552579,0.5938737211517913,-0.30212523597764684
365,15.649999999999922,-1.0849100760436314,-0.85320048630949,2.718622478688539,0.6075713918988083,0.7914401521855747,-0.06645649246389815,0.4414609494236803,0.4901876064644508,0.4812408833900642,0.6709120463948578,-0.3336978882268519,0.596167576026849,-0.28824596192973256
366,15.659999999999922,-1.3824694809900286,-0.42432200390809666,2.4950684537299757,0.6276124133912101,0.7761215499466239,-0.060647137616445045,0.6476709595655603,1.022215999471178,0.42700102973022425,0.6743909366620288,-0.3309045157454138,0.6001470166651399,-0.27477855330420015
367,15.669999999999922,-1.9876640571915498,-0.541267491799672,2.1623131387366366,0.6453790188416717,0.7621425253923452,-0.0506746143100907,0.9651065006038784,1.342840491659754,0.21363173892863654,0.6761043735026226,-0.33003839614582886,0.6047605134486925,-0.26115610178919574
368,15.679999999999922,-2.896965319150113,-1.1820170704354216,1.5849429585179136,0.6592911266682049,0.7509106812664333,-0.0377127948926424,1.3997470559962848,1.508787998502096,0.05305533521112876,0.6769987244401063,-0.3336350409728694,0.6081353769212045,-0.2459803052551361
369,15.689999999999921,-3.492725227042874,-2.011873444800436,0.8846941925165946,0.6679729434049563,0.7437745675168772,-0.02412875049870596,1.804594113729664,1.7665069175369363,0.04293016530309682,0.6778456819592805,-0.34277902051325904,0.6086284781003621,-0.2292620944346562
370,15.699999999999921,-3.2308632435247384,-2.5077704962342042,0.4157416549790864,0.6718562947689007,0.7405441292942614,-0.013836615230940373,1.9174099934483597,2.1469550426722686,0.08603815987428057,0.6793922304635686,-0.35520063226080195,0.6057195770996827,-0.21287701622128696
371,15.709999999999921,-2.3986733131107782,-2.5427517561509116,0.17551443642899292,0.6736275466929134,0.7390030786904022,-0.009947085269599176,1.6087667677726798,2.427110688005391,0.06895509946698748,0.6822241173325011,-0.3666056282362395,0.600508180156894,-0.1988027551393771
372,15.71999999999992,-1.5622293122842739,-2.4096757487945197,0.018941708601672824,0.6740497208794844,0.738585667353439,-0.012135565175375467,1.0815515613884483,2.343294276656746,-0.01634771938988798,0.6860789607176494,-0.37543755577606314,0.5941095634236712,-0.1880155156900261
373,15.72999999999992,-1.039012166445094,-2.310458472771509,-0.06693489953950378,0.6734762678748796,0.7389728196463116,-0.01853310536202711,0.6101976726473366,1.9367951631999105,-0.050403892231621804,0.690581770763725,-0.3820946298087613,0.5871344497282149,-0.1798723090908439
374,15.73999999999992,-0.7717408486582149,-2.268276855810899,-0.043128020387504976,0.6724868644941633,0.7395976247357654,-0.027331546555724978,0.2814197094110106,1.4372974582692724,-0.035285673537518436,0.6954825868631231,-0.38737980027671787,0.5798808864228234,-0.17309467622639987
375,15.74999999999992,-0.7441871896495859,-2.2234569775756015,0.05401501281365927,0.6717882313105219,0.7398160987026758,-0.03689847354892077,0.03865340125673564,0.9935782637577335,-0.021513843657571516,0.700500647976288,-0.3918877407398769,0.5726833444500812,-0.16655297553546977
376,15.75999999999992,-0.8647098859975344,-2.1141158792549977,0.16078505364110185,0.6716972672684307,0.7394156658394492,-0.04558556667147658,-0.18524344593438316,0.6636897673809738,0.0036899371755903868,0.7052004762015658,-0.39616085004601104,0.5659116707676757,-0.15961287387998113
377,15.76999999999992,-1.0249033160225505,-1.8861199298961864,0.25104269185841205,0.6722436241135618,0.7384924024292139,-0.052081410580789786,-0.4085500103687013,0.4581431266760385,0.03851725567286939,0.7091252093416447,-0.4004882547519816,0.5599658757140025,-0.15222769715925732
378,15.77999999999992,-1.1753994931383813,-1.585344456585697,0.3171268776423558,0.6734185884458915,0.7371642246835253,-0.055628777854210075,-0.6029328549594158,0.3426908192100465,0.06624646005994057,0.7119596026186811,-0.40490544001909123,0.5551863719018741,-0.14463563367522436
379,15.78999999999992,-1.2603186815004213,-1.3060839344127317,0.36313980529623974,0.6751297366736306,0.7355444835043418,-0.056334353633551354,-0.7466465098760937,0.2817234590333385,0.07545061077546882,0.7136965968394273,-0.40933626644901305,0.5516090154468464,-0.13710077441600352
380,15.799999999999919,-1.2603502785024732,-1.1059157698854438,0.37192575294571384,0.6771697141907265,0.7337565226872599,-0.05514925828863037,-0.8309176173491586,0.23878869855674428,0.06141124579836135,0.7146406748845014,-0.4136445774076313,0.5489263671108969,-0.12983167932441125
381,15.809999999999919,-1.1973741723914033,-0.9851930357787004,0.35887499301954057,0.6792870667570026,0.7319429828152423,-0.05317135491157017,-0.8588983346677261,0.18173337955395438,0.03027958262429119,0.7151611246929152,-0.41771130244232846,0.5467437458284498,-0.12297964561619765
382,15.819999999999919,-1.1033054765507837,-0.9100266395056373,0.31262678820651496,0.6812644932322104,0.7302459384627271,-0.05116997167452671,-0.8527264467742018,0.09541129497343262,-0.016800511299920787,0.7155232252634368,-0.42147723824472,0.5447655050543225,-0.11664526853431734
383,15.829999999999918,-1.0249342661115888,-0.8597671018662618,0.23698485510074724,0.6828276241640271,0.7289044242754362,-0.04943721072093071,-0.8476744045992863,-0.017032675497718072,-0.07723622062198557,0.7158325871192167,-0.4250402710013914,0.5427888994786759,-0.11089532443442533
384,15.839999999999918,-0.9387818233917357,-0.8002621304779577,0.14060288039949298,0.6837955404194268,0.728096140122095,-0.04795372783396393,-0.8758806777913196,-0.14143399128864254,-0.12279817186945896,0.7160902712621484,-0.42850763907442596,0.5407420382957528,-0.10577366687039054
385,15.849999999999918,-0.8184869359950177,-0.66186207225142,0.03117041532982036,0.6840683098554002,0.7279282423911033,-0.046592712754410556,-0.963595394364031,-0.2798854369788155,-0.14531220518105858,0.7162331311860819,-0.4318091238359755,0.5387414253350403,-0.10150848061086135
386,15.859999999999918,-0.7022725160321321,-0.442150921803519,-0.07968702284201641,0.6836247490196525,0.7284539238973043,-0.044850061952133785,-1.1130576762272935,-0.4296245860531058,-0.17790495775860607,0.7160660336750739,-0.4348811836425935,0.5370768394367087,-0.09835223902258745
387,15.869999999999918,-0.5751398104215106,-0.14815985158718198,-0.17727128729210273,0.6825286062072606,0.7296386259743134,-0.0421947215825419,-1.3057902284368772,-0.5494341569835322,-0.22934923030792098,0.7153981490415345,-0.43768593088781144,0.5360339088065565,-0.09644856167342496
388,15.879999999999917,-0.4205478504811451,0.1809646411125107,-0.25600817544519006,0.6809166180430175,0.7313494982790784,-0.03843351460527362,-1.5161059262486205,-0.6041700018963979,-0.2866367956957335,0.714152765546062,-0.4400634506959373,0.5358419276648058,-0.09592885659387969
389,15.889999999999917,-0.20796999342974284,0.5479898256726945,-0.3158662738678597,0.6789275858969783,0.7334320593253867,-0.03360469561820535,-1.707093814035575,-0.5983668765022896,-0.33400186025543255,0.7123282731436817,-0.44180938390863495,0.5366577427111036,-0.09690162866875619
390,15.899999999999917,0.055494748200696525,0.9216361560335247,-0.38480075002279307,0.6765456932564291,0.7358617797369139,-0.02803299191074711,-1.8472421823727634,-0.5572404193335665,-0.36120684869929126,0.7099987307920615,-0.4426831429901551,0.5385298015317808,-0.099577903672683
391,15.909999999999917,0.31990345655279445,1.2600731401967162,-0.4716960446242483,0.6735810327056699,0.7387805192759073,-0.02196548011521507,-1.9089622951257799,-0.5262706935884606,-0.3792671644443728,0.7072113839703157,-0.4426556450725654,0.54136097769797,-0.10406474168550267
392,15.919999999999916,0.5045378215499438,1.547834936280471,-0.5802977690176747,0.6698320507192206,0.7423424302202728,-0.01551794506404524,-1.8761720625304377,-0.5135284631618572,-0.3869584497391619,0.7039885887841886,-0.44191027521757387,0.5449347313907799,-0.11022757128953779
393,15.929999999999916,0.5874017475929287,1.7895682162810376,-0.7428443993810236,0.6650635498646217,0.746727918485257,-0.008433238006696998,-1.7652534873752284,-0.5017959523936874,-0.36747247248860293,0.7002399985376375,-0.44085496353899695,0.5490237327121692,-0.11776051801362757
394,15.939999999999916,0.6076107594420515,2.018223471336458,-0.9585645632249256,0.6587546269833475,0.7523403681717116,-0.00031511996706410066,-1.6107964975106182,-0.46815452917837796,-0.32557771538790337,0.6957842953145261,-0.43994481092633425,0.553432374314989,-0.12658405485190344
395,15.949999999999916,0.6528825838699039,2.2425013041674418,-1.2224245057595093,0.6504092765249259,0.7595054702324664,0.008926526574753235,-1.451901126500355,-0.40982018088560196,-0.2864896882667206,0.690509344235068,-0.4394131065321835,0.5580103916657331,-0.13678041767197258
396,15.959999999999916,0.8168924588869464,2.4339619502570993,-1.5165298737494841,0.6395990406415161,0.7684504723374823,0.01848162722443566,-1.3034857439788632,-0.3329511132972899,-0.26317715655283985,0.6845595895075826,-0.43908855884310305,0.5625285971190117,-0.14867286100192548
397,15.969999999999915,1.1357100538825091,2.5509684011020433,-1.781390063903664,0.626219833601433,0.7791416424610448,0.02679200441966921,-1.167123506269668,-0.2435030325421906,-0.2338158069595015,0.6783420588721774,-0.43852492909703533,0.566647069042302,-0.16251700990049592
398,15.979999999999915,1.5184099572059588,2.6117735119054633,-2.0000084780780827,0.6105786340724324,0.7912423337681751,0.03238188090654732,-1.0297880545386127,-0.13933242796123255,-0.17189100632207485,0.6722699432068985,-0.4372267864510142,0.5701063698709113,-0.17834430961408904
399,15.989999999999915,1.8692893056997566,2.584069113632037,-2.246604810870695,0.5927588761047069,0.8045805212035682,0.03448831274105118,-0.8774481475611469,0.012355790001861724,-0.10728677985978956,0.6665459533234317,-0.4351801877850736,0.5725910563141582,-0.1959738216738759
400,15.999999999999915,2.125440571882253,2.5015130100411036,-2.504412290835678,0.5725678965168566,0.8191158118122716,0.03303547000725422,-0.7131974247151148,0.2587761260817749,-0.05809746840513045,0.661149957954453,-0.4327336513755029,0.5738100519581211,-0.21514136442500725
401,16.009999999999913,2.343731734975578,2.4598266817780923,-2.6866026667064613,0.5502411691626203,0.8344294071752515,0.028495736718213153,-0.5511202876581748,0.6296524220453613,0.0231228550610905,0.6559185933048869,-0.43009560746427405,0.5738155236407192,-0.2354510540772653
402,16.019999999999914,2.752818070822657,2.574177314524217,-2.6938653373130927,0.5268432730951873,0.8496136432284378,0.020670760865445094,-0.382066427611087,1.113462109537639,0.14948647539008322,0.6508160760057354,-0.4264935113375415,0.5730929777450422,-0.25691783624088466
403,16.029999999999916,3.3945129514320267,2.664366223722317,-2.485441203900771,0.5041527023755401,0.8634785808111017,0.007959289942913445,-0.16861848591294643,1.586308942256912,0.21686522535252523,0.6462759701656755,-0.420481920676245,0.5719837965023706,-0.2797135078884172
404,16.039999999999914,4.0101322310212355,2.3863972584749407,-2.1244352692969812,0.4841090320050164,0.8748186037820035,-0.011897135887600909,0.16369506900996597,1.915484526285967,0.22952834421646756,0.6434020368089065,-0.41135715998590744,0.5699263259365086,-0.3031051438476006
405,16.049999999999912,3.8425775191270706,2.003175825869778,-1.8766782891885714,0.4671492373603397,0.883313187037993,-0.03653406770369394,0.661976861461768,2.0607547645894844,0.35494582337235236,0.6421572536106016,-0.40075417500198823,0.5666596225077456,-0.3252801110878311
406,16.059999999999913,2.7722472430094167,1.5830854647668149,-2.006015395237542,0.4509089006010649,0.8906098691311014,-0.05790419455353722,1.2285601796408925,2.108832985579695,0.6074886591582802,0.6404805824556382,-0.3924495769542231,0.5630432386378604,-0.3444832736572131
407,16.069999999999915,1.4779977575979126,0.8035535270028249,-2.3202931035118994,0.4314599317918569,0.8992306144750598,-0.07139913069546602,1.7403714526832128,2.1112271359062516,0.8543067902342362,0.63722326886551,-0.38990134807979826,0.558814129557832,-0.3600010139358497
408,16.079999999999913,0.6000842152791032,-0.25383757531499085,-2.4860425939954607,0.40945761743456566,0.9088120095440203,-0.07920299150619448,2.1608276190015965,1.9856338276244172,0.9652456461764949,0.6339195679451436,-0.3930594124265416,0.5530735534025601,-0.3711142835593644
409,16.08999999999991,0.190658552330589,-0.8804141339615801,-2.4822870368546046,0.38613421618647836,0.9184436876358459,-0.08497529857436943,2.341773469192081,1.722314104784203,0.8924217192635638,0.6316419646995065,-0.39989178687270915,0.5455025912128617,-0.37882130567999944
410,16.099999999999913,0.016457918500219423,-0.8358445829334067,-2.38840760976187,0.3628124444132405,0.9275145359324782,-0.08917645092650606,2.116416478389054,1.3917640830176796,0.7202534666951936,0.6295820373028855,-0.40791420710906,0.5375788404849329,-0.38497612882746407
411,16.109999999999914,-0.08271697654828168,-0.5054012514720918,-2.2368525504222383,0.3405943945652661,0.9357098037226637,-0.0912632707819077,1.6691156706782162,1.0633903660291155,0.5593719784963791,0.6268227058326088,-0.4155210368676018,0.5307452461037903,-0.3907890267697718
412,16.119999999999912,-0.19358108334504087,-0.21376753265002443,-1.9833676970542269,0.32038288983311736,0.9428418982225696,-0.09117623570077343,1.3144603076513306,0.7641449205730942,0.48391084679780827,0.6233055489720261,-0.42222568263825194,0.5254747769932674,-0.3963195707264741
413,16.12999999999991,-0.33075867060439146,-0.042043012421625,-1.639681282474664,0.30309279030322406,0.9487549405893024,-0.08907188956838773,1.139326351545562,0.5162254744645488,0.47543229854302477,0.6194433635312321,-0.4280406143898204,0.5217628084866819,-0.4010218173346737
414,16.13999999999991,-0.416990578810047,0.060078711363538,-1.2720336992064867,0.28925545000034003,0.9534102509971917,-0.0854277139054536,1.0613687946367945,0.33072857700521374,0.47176989281859744,0.6156635973224298,-0.4329801080344308,0.5194312894324682,-0.4045580198017398
415,16.149999999999913,-0.3558613576119294,0.15199181038034418,-0.9203667606321563,0.2788867741097433,0.9568608598154705,-0.08133314310260506,0.9901117424825405,0.18509782320277537,0.43824019024069655,0.6123029152432495,-0.43682491245902133,0.5181839535987697,-0.4071221086902124
416,16.15999999999991,-0.12805455102844265,0.26137397694094106,-0.600257459255137,0.2717922305194088,0.9591565622686544,-0.0783418063621036,0.8916333476886876,0.06170336430846511,0.3731812807943723,0.6096673382772162,-0.4391388437169237,0.517673118984507,-0.40923650474230383
417,16.16999999999991,0.23482367029506634,0.36680409274632086,-0.3252289934637235,0.26762546445049096,0.9603637901769928,-0.07794540352542928,0.7666837889660747,-0.04641920464524635,0.2910624312591561,0.6080121807395159,-0.4395392984263771,0.517525350998089,-0.4114515556138235
418,16.17999999999991,0.6406621197913598,0.45399833043872817,-0.09369604881343196,0.26596405147498675,0.9605673512647812,-0.0810508437623808,0.6311755396225067,-0.15678899357728154,0.22059242539533935,0.6074778136465223,-0.4378937450747672,0.5174190279723206,-0.4141187871518342
419,16.189999999999912,0.9837181042598702,0.5125381681590403,0.07668902983681547,0.2663276817331959,0.9598851183997688,-0.0876164909345847,0.49766806834076993,-0.2853380632734405,0.1732764115082897,0.6079975170372043,-0.4344118701389663,0.5171792575856131,-0.4173063956964985
420,16.19999999999991,1.197860621361911,0.5588831890085676,0.1904531634279204,0.2681239058173231,0.9585017692237623,-0.09675050148424374,0.3684688111867791,-0.43403653404047915,0.14319560306779114,0.6092769010161976,-0.42958698938445994,0.5167916487858542,-0.42089603916285984
421,16.20999999999991,1.2520649403378092,0.624629844050271,0.2582712026578755,0.2708866344045358,0.9566331560670269,-0.10698596247468807,0.24373440635062998,-0.6029562464353392,0.13969157055556192,0.6108674932486893,-0.4239922777925392,0.5164590472074517,-0.4246529754279593
422,16.21999999999991,1.1417246630107099,0.7366567926692883,0.307776845854999,0.2743463794411272,0.9545149947045091,-0.11666739190391923,0.13140737674699005,-0.7874951017661004,0.15760031918771575,0.6122609657257286,-0.4181283257235108,0.5165530389759048,-0.42833030135639355
423,16.22999999999991,0.8860234556189948,0.8840212702360464,0.3599964807916195,0.2784920322638214,0.9523733163320577,-0.1241450970089063,0.03908489654745132,-0.9814992295487142,0.18793834399874046,0.6130000316457298,-0.41240712395216433,0.5175327425163483,-0.43162625380404834
424,16.23999999999991,0.5514212185683232,1.0021848538858853,0.42541732774345326,0.2834209382652359,0.9503631443919115,-0.12834846214866621,-0.02068910755602714,-1.1659853794102042,0.221040624018636,0.612874987965411,-0.40712978477750295,0.5196764366076634,-0.43423176336872654
425,16.249999999999908,0.1797153175327722,1.0297878031112313,0.5012279293733072,0.28913213260178094,0.9485674058674949,-0.12889286771854871,-0.04022605693709145,-1.3193095255135703,0.24655345351139074,0.611959422853838,-0.40257947795290666,0.52294935449061,-0.4358342109754479
426,16.25999999999991,-0.18203394942613346,0.9480210040762022,0.5678269786185539,0.2954574923690599,0.9470093301687329,-0.1259521927987777,-0.028164715744066947,-1.435050453503123,0.26197584766785603,0.61050731246439,-0.39902219279621737,0.5270658312482805,-0.4361839240226564
427,16.26999999999991,-0.5069457774478145,0.7965647393872389,0.6256804114821619,0.3021688433006877,0.945651179889819,-0.12006500737596466,-0.0021462923354758218,-1.5225570557851678,0.27477258544226674,0.608803459928358,-0.3965972408562905,0.5316690066853711,-0.43518925883461845
428,16.27999999999991,-0.8047417491892366,0.6368278156745293,0.6964869599441148,0.30921484300441143,0.9443973693565311,-0.1116556703033925,0.014729111192086246,-1.592155901729296,0.2889724228256244,0.6070163873489534,-0.3952890831508974,0.5365748855311101,-0.43284675125665933
429,16.289999999999907,-1.0778742115763087,0.5069030548237304,0.8002274179957004,0.3168291023964195,0.9430669507372331,-0.10098284788932821,0.015889519599559566,-1.6528551453224964,0.30797618321398984,0.6052209182496013,-0.3949161058005686,0.5417961511557087,-0.4291784553812481
430,16.29999999999991,-1.3383290913441457,0.4095167619106823,0.9389195794737536,0.32537620666879713,0.941435700674702,-0.0881173376820249,0.00593550933380518,-1.6975560223522126,0.33194000673321733,0.6034222553266453,-0.3952497574580871,0.5474584330618271,-0.424184269388113
