time,seconds_elapsed,rotationRateX,rotationRateY,rotationRateZ,gravityX,gravityY,gravityZ,accelerationX,accelerationY,accelerationZ,quaternionW,quaternionX,quaternionY,quaternionZ
1681266041084656600,0.09265673828125,-0.01900411956012249,-0.03571118786931038,0.04365119710564613,0.06976109743118286,-0.03643869236111641,-0.9968979954719543,-0.0028821006417274475,0.006333246827125549,0.004588425159454346,0.9992243104204497,0.018233490089281774,0.034907625687439055,1.7013358194762067e-17
1681266041094700800,0.10270068359375,-0.01153554953634739,-0.03276652842760086,0.041320931166410446,0.0693826675415039,-0.036412786692380905,-0.9969253540039062,-0.0001538097858428955,0.004750948399305344,0.00655364990234375,0.9992311161574123,0.01821307174205649,0.03472187401841755,0.00021098840550632135
1681266041104744700,0.11274462890625,-0.0013310395879670978,-0.03255806118249893,0.03628728911280632,0.06903879344463348,-0.03639369085431099,-0.9969499111175537,-0.003731444478034973,0.0025498420000076294,0.008210897445678711,0.9992372316218083,0.018196749232940637,0.03455311195580708,0.00040448196951705214
1681266041114788900,0.122788818359375,-0.0037111067213118076,-0.03443266078829765,0.03387419879436493,0.0686793178319931,-0.03635168820619583,-0.9969762563705444,-0.004562161862850189,0.00491873174905777,0.005765318870544434,0.9992436199659522,0.018169771513556754,0.03437613619199872,0.0005764658271039715
1681266041124835000,0.1328349609375,-0.010354818776249886,-0.035977620631456375,0.02889595367014408,0.06831152737140656,-0.036260493099689484,-0.9970048666000366,-0.00021182745695114136,0.007955584675073624,0.006053328514099121,0.9992506900771131,0.018118657292559525,0.034194721921713626,0.0007359546624440402
1681266041134879000,0.14287890625,-0.020452458411455154,-0.03679787367582321,0.029230179265141487,0.06792627274990082,-0.03614416718482971,-0.9970354437828064,0.00018868595361709595,0.011638704687356949,0.0057024359703063965,0.999258229008582,0.01805545423969079,0.034004300048162364,0.0008829195143347567
1681266041144923000,0.1529228515625,-0.023311704397201538,-0.032945167273283005,0.026071671396493912,0.06752600520849228,-0.03597882017493248,-0.9970685839653015,-0.0016845092177391052,0.01048148050904274,0.007108867168426514,0.9992667685231114,0.018002610170183987,0.03378777538352301,2.9978004780766986e-17
1681266041154967000,0.162967041015625,-0.021596895530819893,-0.032407741993665695,0.03161104395985603,0.0671558603644371,-0.035780854523181915,-0.9971007108688354,-0.0027486979961395264,0.005980540066957474,0.007812380790710449,0.9992747811144189,0.017898479409046906,0.03360492801644386,0.00014666694293673628
1681266041165011000,0.173010986328125,-0.015422738157212734,-0.03271877020597458,0.026077263057231903,0.06682237237691879,-0.03554699942469597,-0.9971314668655396,-0.002476245164871216,0.003930885344743729,0.007705807685852051,0.9992824709667132,0.017776526506417492,0.03344035329564165,0.00029090490742431785
1681266041175055000,0.18305517578125,-0.007690782193094492,-0.035888463258743286,0.02334645763039589,0.06649957597255707,-0.035415370017290115,-0.9971577525138855,0.001996941864490509,0.008727848529815674,0.002620398998260498,0.9992890265991323,0.017706648386231694,0.033280700031745124,0.0004094341365506367
1681266041185099000,0.19309912109375,-0.018789278343319893,-0.032350748777389526,0.01870696432888508,0.06614275276660919,-0.03529048338532448,-0.9971858859062195,0.000995732843875885,0.011105399578809738,0.005028903484344482,0.9992960617014999,0.01764067563357891,0.03310373099179869,0.000513039985613053
1681266041195143000,0.203142822265625,-0.025060756132006645,-0.022897861897945404,0.017240894958376884,0.065855011343956,-0.03505241498351097,-0.9972133636474609,-0.0028364062309265137,0.0033142343163490295,0.008703231811523438,0.9993029138400749,0.017518464263215298,0.03296108862089922,0.0006053946602426774
1681266041205186800,0.213186767578125,-0.027463993057608604,-0.018008563667535782,0.019834015518426895,0.0656840056180954,-0.03475334495306015,-0.9972350597381592,-0.007319331169128418,0.001306183636188507,0.013348400592803955,0.9993083182630657,0.017365761458537767,0.032876849889642894,0.0006972286527537087
1681266041215231000,0.22323095703125,-0.038887619972229004,-0.016834789887070656,0.024877242743968964,0.06553636491298676,-0.0343322716653347,-0.9972593784332275,-0.0053863972425460815,0.00320444256067276,0.01654648780822754,0.999314208810367,0.01715136528296141,0.03280455113524174,0.0008088204525621908
1681266041225273600,0.233273681640625,-0.04882851615548134,-0.013104736804962158,0.029324188828468323,0.06538964807987213,-0.03381916135549545,-0.9972865581512451,-0.0020811185240745544,0.0024014152586460114,0.019747495651245117,0.9993209003942141,0.016890081499757487,0.03273303232407347,0.0009461177225762426
1681266041235317500,0.2433173828125,-0.05540519207715988,-0.020312847569584846,0.03961144760251045,0.06520038098096848,-0.033284563571214676,-0.9973168969154358,0.0016634538769721985,-0.0023751258850097656,0.01628357172012329,0.9993283381901245,0.016616747114391487,0.03264079414783649,0.0011242346108131364
1681266041245361700,0.253361572265625,-0.04005378112196922,-0.02093040570616722,0.049561548978090286,0.06496966630220413,-0.03282247856259346,-0.9973472952842712,0.003877803683280945,-0.0069113075733184814,0.01503223180770874,0.9993356285120529,0.016378161814152786,0.032528579277607876,0.0013513994642471538
1681266041255405300,0.2634052734375,-0.021173566579818726,-0.021189531311392784,0.049446769058704376,0.06478089839220047,-0.0324992798268795,-0.997370183467865,0.003578290343284607,-0.008073735982179642,0.01397174596786499,0.9993410086809187,0.01620822010717761,0.03243785725243991,0.001606189208079653
1681266041265449500,0.273449462890625,-0.022607261314988136,-0.02494257688522339,0.053166139870882034,0.06455019116401672,-0.032253555953502655,-0.9973930716514587,0.006372474133968353,-0.0011325739324092865,0.01346057653427124,0.9993462451270749,0.01607709611617432,0.03232616444612291,0.0018620438392130522
1681266041275493400,0.283493408203125,-0.03886905312538147,-0.023163318634033203,0.06035507470369339,0.06428201496601105,-0.031979285180568695,-0.9974192380905151,0.0072662681341171265,0.00008851289749145508,0.015317797660827637,0.9993522591087171,0.015930780294589008,0.03219609284848048,0.0021487219128600217
1681266041285537500,0.29353759765625,-0.05330323800444603,-0.019017044454813004,0.062142856419086456,0.06401139497756958,-0.031581033021211624,-0.9974493384361267,0.004973404109477997,-0.008518964052200317,0.02262634038925171,0.9993591002678147,0.015721588984222323,0.03206498408489974,0.0024638780693581404
1681266041295581700,0.303581787109375,-0.057297978550195694,-0.017317146062850952,0.0622086375951767,0.06379565596580505,-0.031056374311447144,-0.9974796175956726,-0.0003040134906768799,-0.006983688101172447,0.021435916423797607,0.9993657781019789,0.015449153505166763,0.03196103745827264,0.002779379163101668
1681266041305625300,0.313625244140625,-0.02700630947947502,-0.012790336273610592,0.06867106258869171,0.06362670660018921,-0.03066525049507618,-0.9975025057792664,0.00015484541654586792,-0.00006585195660591125,0.015294253826141357,0.999370526167239,0.01524282494812448,0.03188094435356484,0.0031177066431590595
1681266041315669500,0.32366943359375,-0.005719662643969059,-0.009911724366247654,0.06973845511674881,0.06352074444293976,-0.03060113824903965,-0.9975112676620483,0.004899471998214722,0.005134321749210358,0.00695645809173584,0.9993715374190071,0.0151995267302766,0.03183318584080719,0.0034742044400040374
1681266041325713400,0.33371337890625,-0.0025920462794601917,-0.0006861495785415173,0.06585503369569778,0.0634993389248848,-0.030697202309966087,-0.9975096583366394,0.0034865662455558777,0.008861973881721497,0.005871474742889404,0.9993699327958694,0.01523682971667626,0.03182782582637492,0.0038133760264754857
1681266041335757600,0.343757568359375,-0.02321183681488037,0.0036673196591436863,0.0668334811925888,0.06353364139795303,-0.030694952234625816,-0.9975075125694275,-0.0024529024958610535,0.008768174797296524,0.007135868072509766,0.9993680276612491,0.015224771694287173,0.03185020450563824,0.004154650587775802
1681266041345801500,0.353801513671875,-0.050490330904722214,0.012773732654750347,0.05765010416507721,0.06365180015563965,-0.03035992942750454,-0.9975102543830872,-0.0051040127873420715,0.0021160095930099487,0.009305298328399658,0.9993673297549094,0.015046636101868013,0.03191344166024791,0.0044761039430658385
1681266041355845400,0.363845458984375,-0.05520705506205559,0.021887868642807007,0.04923451319336891,0.06385932862758636,-0.029867026954889297,-0.9975118637084961,-0.004121348261833191,-0.00011639297008514404,0.010893821716308594,0.9993664931832773,0.014790771776504102,0.03202021193410647,0.004750505820454734
1681266041365889500,0.3738896484375,-0.04705682769417763,0.03140934929251671,0.036509398370981216,0.06414875388145447,-0.02944442816078663,-0.9975058436393738,-0.003327406942844391,0.008387399837374687,0.008873701095581055,0.9993637880113593,0.014571325172407753,0.03216739084075609,0.004978932224704832
1681266041375933400,0.383933349609375,-0.027196306735277176,0.034276507794857025,0.023017557337880135,0.06448636204004288,-0.029148373752832413,-0.997492790222168,-0.0025663748383522034,0.012836828827857971,0.005076408386230469,0.9993597354923294,0.014417261472637792,0.03233796405286113,0.005138116456850077
1681266041385977600,0.3939775390625,-0.009345137514173985,0.03817445784807205,0.017314132302999496,0.06485030800104141,-0.028992129489779472,-0.9974737763404846,0.0008538514375686646,0.01391654834151268,-0.00031369924545288086,0.9993544375949291,0.01433479391010377,0.032521311404252344,0.005243494085958894
1681266041396021500,0.404021484375,0.0006153509020805359,0.04437589645385742,0.008739553391933441,0.06529495120048523,-0.028931668028235435,-0.9974464774131775,0.0030489712953567505,0.014115486294031143,-0.0025076866149902344,0.9993472410901388,0.014301114759914763,0.0327448688565597,0.0053154781879954345
1681266041406066400,0.41406640625,0.012992087751626968,0.04625827446579933,-0.00013196910731494427,0.065765380859375,-0.028929328545928,-0.9974156618118286,0.003158390522003174,0.01023741252720356,-0.0027369260787963867,0.9993394067874826,0.014298093340681951,0.032980786010721845,0.005336940484180558
1681266041416110600,0.424110595703125,0.026748379692435265,0.05516841262578964,-0.0014987033791840076,0.06623438745737076,-0.029075369238853455,-0.9973803758621216,-0.0006675496697425842,0.010246124118566513,-0.004130244255065918,0.999330555894225,0.014369848668591305,0.03321619987920728,0.00534245176678876
1681266041426154500,0.434154541015625,0.025542765855789185,0.06573624908924103,-0.01920153573155403,0.06677072495222092,-0.029344744980335236,-0.997336745262146,-0.0002578422427177429,0.010668085888028145,-0.002922654151916504,0.9993199970560398,0.014505248955886679,0.03348480051175911,0.005285594922487733
1681266041436198400,0.444198486328125,0.000009177136234939098,0.07261680066585541,-0.029797986149787903,0.0674082413315773,-0.02947154827415943,-0.9972901344299316,-0.0006207078695297241,0.01114584505558014,-0.0035338401794433594,0.9993089532602493,0.014571102615514355,0.03380280365075342,0.005169420855282059
1681266041446242600,0.45424267578125,-0.032217469066381454,0.07614202052354813,-0.040936924517154694,0.06810840219259262,-0.029215404763817787,-0.9972500801086426,-0.002327941358089447,0.008722949773073196,-0.003482341766357422,0.9992997620315811,0.014447105809885613,0.03415033237020848,0.004998857404994401
1681266041456286500,0.464286376953125,-0.039745960384607315,0.08238021284341812,-0.0430741123855114,0.06887252628803253,-0.028684288263320923,-0.9972130060195923,-0.002878449857234955,0.002774963155388832,0.002126336097717285,0.9992914657219297,0.0141864731790034,0.03452881751198718,0.004799539500123799
1681266041466330600,0.47433056640625,0.029769089072942734,0.0899079367518425,-0.046126093715429306,0.06971818208694458,-0.028490809723734856,-0.9971597790718079,-0.003251083195209503,-0.004315486177802086,0.0036600232124328613,0.9992791280170273,0.01409559184172162,0.03494880580710548,0.00457739002106547
1681266041476374300,0.484374267578125,0.06629300862550735,0.07720545679330826,-0.0384569875895977,0.07056742906570435,-0.028839662671089172,-0.9970900416374207,-0.0021319538354873657,-0.000029865652322769165,-0.011134445667266846,0.9992627241973373,0.01427605894987499,0.03537206935707966,0.004362131610311146
1681266041486418400,0.49441845703125,0.09412410855293274,0.05603024363517761,-0.027205664664506912,0.07121416926383972,-0.02951245754957199,-0.9970243573188782,0.006483398377895355,0.0094930250197649,-0.023117244243621826,0.9992470835611919,0.014617913489158528,0.03569511122842834,0.004183241236276169
1681266041496462600,0.504462646484375,0.11603446304798126,0.044675059616565704,-0.03074447438120842,0.07166722416877747,-0.03047015331685543,-0.9969630837440491,0.013156197965145111,0.00399625301361084,-0.023621022701263428,0.9992323419509348,0.01510196772227807,0.035922023221026146,0.0040282179611985415
1681266041506506500,0.514506591796875,0.09971834719181061,0.03748200833797455,-0.035770125687122345,0.07204172015190125,-0.031434979289770126,-0.9969061017036438,0.010065644979476929,0.0028706230223178864,-0.0192987322807312,0.9992187866049327,0.015591138454199951,0.03610888248827744,0.003836472574066142
1681266041516550700,0.524550537109375,0.06792712956666946,0.03723673149943352,-0.018840676173567772,0.07236356288194656,-0.032159652560949326,-0.9968597292900085,0.0035334601998329163,0.006021447479724884,-0.007824718952178955,0.9992078001506358,0.01595908031326259,0.03626920758377969,0.0036777274167997085
1681266041526594300,0.53459423828125,0.036776360124349594,0.0439012311398983,-0.019636163488030434,0.07272309064865112,-0.03254109248518944,-0.9968211650848389,-0.0009764432907104492,-0.011449895799160004,0.007792234420776367,0.9991985882774154,0.01615295673999862,0.03644860596849906,0.0035813510273563025
1681266041536638500,0.544638427734375,0.02105705253779888,0.04276885464787483,-0.02044842764735222,0.07309573143720627,-0.03276927024126053,-0.9967864155769348,-0.0069338008761405945,-0.013113807886838913,0.014868080615997314,0.9991901916782853,0.016270599455357648,0.03663403057685346,0.003472507011080597
1681266041546682600,0.5546826171875,0.011871847324073315,0.05247025191783905,-0.022291600704193115,0.07352207601070404,-0.03291342034935951,-0.9967503547668457,-0.008840255439281464,-0.00012175366282463074,0.015915393829345703,0.9991815638122368,0.016346132642604396,0.03684618492268465,0.0033641405544843745
1681266041556726500,0.5647265625,-0.004454128444194794,0.053694505244493484,-0.019400473684072495,0.07400699704885483,-0.032905034720897675,-0.99671471118927,-0.006532818078994751,0.0033793747425079346,0.01670372486114502,0.999172999993538,0.01634502323866975,0.037087502769792745,0.003262838898319043
1681266041566770400,0.5747705078125,-0.011818415485322475,0.05747873708605766,-0.010815772227942944,0.07459473609924316,-0.03269357234239578,-0.9966778755187988,-0.005670972168445587,-0.0019437745213508606,0.015156269073486328,0.9991640443003025,0.016241044115277044,0.03738045627208,0.003192002668229287
1681266041576814300,0.584814453125,-0.019863026216626167,0.06142660975456238,-0.000018252176232635975,0.07526342570781708,-0.03247762471437454,-0.9966346621513367,-0.0037304088473320007,-0.003410942852497101,0.01390761137008667,0.9991531915948778,0.016132896409956955,0.037714798979580584,0.0031705704527990935
1681266041586858500,0.5948583984375,-0.03952693194150925,0.061618976294994354,0.009987777099013329,0.07591553777456284,-0.032130323350429535,-0.9965964555740356,-0.007220655679702759,-0.009617626667022705,0.013625264167785645,0.9991435111296241,0.01595664700346097,0.03804160147580575,0.0032117676853869364
1681266041596902700,0.604902587890625,-0.05875362455844879,0.06200540065765381,0.014846713282167912,0.07652684301137924,-0.03159448131918907,-0.9965668320655823,-0.005543135106563568,-0.014563258737325668,0.015167295932769775,0.9991358442733417,0.015684540242712354,0.03834819922871531,0.0032923041418515217
1681266041606946600,0.614946533203125,-0.07171320915222168,0.06895598769187927,0.025591501966118813,0.07713048905134201,-0.031091704964637756,-0.9965360760688782,-0.0008824989199638367,-0.009542351588606834,0.015762150287628174,0.9991278130199492,0.015427347450440717,0.03865162525165072,0.0034141025074830565
1681266041616990500,0.624990478515625,-0.08257118612527847,0.06213882565498352,0.03164433687925339,0.07769107818603516,-0.03045770339667797,-0.9965121150016785,0.0005100369453430176,-0.0009905621409416199,0.012518584728240967,0.9991211760534192,0.015102849168440699,0.038933780262480025,0.0035772333263830993
1681266041627034400,0.635034423828125,-0.07192379236221313,0.054877955466508865,0.03946923464536667,0.07814840227365494,-0.02972225844860077,-0.9964985847473145,0.004264131188392639,0.011030340567231178,0.010002613067626953,0.9991171119124278,0.014726205083935998,0.0391644018667218,0.003777043126418289
1681266041637078500,0.64507861328125,-0.06767977774143219,0.05742313712835312,0.047995876520872116,0.07861380279064178,-0.029055684804916382,-0.9964816570281982,0.010329492390155792,0.02171630598604679,0.014319121837615967,0.9991118262402144,0.014382340776194455,0.03939967060174508,0.0040171734315211215
1681266041647122400,0.655122314453125,-0.05618405342102051,0.0694245845079422,0.040355268865823746,0.07915964722633362,-0.02852267399430275,-0.9964538216590881,0.009859941899776459,0.03102521412074566,0.019662439823150635,0.9991039365239349,0.014104936980881364,0.03967546935248544,0.004260530408674317
1681266041657166600,0.66516650390625,-0.055923864245414734,0.07691578567028046,0.041002947837114334,0.07983425259590149,-0.028064463287591934,-0.996412992477417,0.009261630475521088,0.04863341152667999,0.028166532516479492,0.9990927214285643,0.013865484007464344,0.04001557024763212,0.004481436018309352
1681266041667211500,0.67521142578125,-0.07874300330877304,0.09969528019428253,0.04224904254078865,0.08063554763793945,-0.02749750390648842,-0.9963642954826355,0.01456385850906372,0.05676396191120148,0.0400044322013855,0.999079419734897,0.013570656176392701,0.0404189720230115,0.004715329926186746
1681266041677255400,0.68525537109375,-0.12886370718479156,0.13312487304210663,0.03747186437249184,0.08176249265670776,-0.026595907285809517,-0.9962969422340393,0.015802018344402313,0.06343072652816772,0.05853754281997681,0.9990614704262679,0.013107766209309361,0.04098447264169842,0.004940647931500801
1681266041687299600,0.695299560546875,-0.20131464302539825,0.1540234386920929,0.04037896916270256,0.08317756652832031,-0.02501734159886837,-0.9962206482887268,0.015592388808727264,0.08762425184249878,0.0746050477027893,0.9990412215552746,0.012304318704382148,0.04169254910485868,0.005184363548329759
1681266041697343500,0.705343505859375,-0.2810331881046295,0.17363549768924713,0.048586566001176834,0.08479557186365128,-0.022670455276966095,-0.9961404204368591,0.0247318297624588,0.10387782752513885,0.09893888235092163,0.9990197484813926,0.011114281405339937,0.04250007591981042,0.005455070959847002
1681266041707387400,0.715387451171875,-0.3674890995025635,0.1990635097026825,0.08040788024663925,0.08662872761487961,-0.019476883113384247,-0.996050238609314,0.040369994938373566,0.0982886254787445,0.12045514583587646,0.998994787239793,0.009493521013949426,0.043413647678277996,0.005861376415157531
1681266041717431600,0.725431640625,-0.4600861370563507,0.21142269670963287,0.07176166027784348,0.08868687599897385,-0.015403502620756626,-0.9959404468536377,0.04853523522615433,0.10337051749229431,0.1468651294708252,0.9989642954320003,0.007427125456908546,0.04443664657537463,0.006353277484939445
1681266041727475500,0.735475341796875,-0.5581337213516235,0.21816307306289673,0.0861901342868805,0.0908377543091774,-0.010377807542681694,-0.9958116412162781,0.051480792462825775,0.1253681480884552,0.16362780332565308,0.9989287510006187,0.00488223283534768,0.045501086024776975,0.006854805588132654
1681266041737519600,0.74551953125,-0.6715718507766724,0.2503630816936493,0.1391766518354416,0.09314575791358948,-0.004296733066439629,-0.9956431984901428,0.0688566192984581,0.11142878979444504,0.16727405786514282,0.9988815027311945,0.0017974499760084566,0.046638646748784415,0.007567264672797153
1681266041747563500,0.7555634765625,-0.7243865132331848,0.31925052404403687,0.17142486572265625,0.09598864614963531,0.002566335955634713,-0.9953790903091431,0.07320061326026917,0.08605680614709854,0.17422741651535034,0.9988076907466297,-0.0016945504266308157,0.04803715794158285,0.008521778105223712
1681266041757607400,0.765607421875,-0.7723532319068909,0.39453673362731934,0.1813531368970871,0.09955719858407974,0.009838756173849106,-0.9949831962585449,0.056326404213905334,0.11581747233867645,0.18051481246948242,0.9986990111216144,-0.005403597199605451,0.04979159100489852,0.009583725192367429
1681266041767651600,0.775651611328125,-0.9620380401611328,0.45957908034324646,0.16096131503582,0.10383366048336029,0.018218083307147026,-0.9944278001785278,0.059313125908374786,0.15991312265396118,0.18655121326446533,0.9985492348805012,-0.009675496075049713,0.0518891035572468,0.010646122483494405
1681266041777695500,0.785695556640625,-1.443595290184021,0.5031161308288574,0.14288564026355743,0.1087135598063469,0.029846111312508583,-0.9936249852180481,0.07814538478851318,0.17073076963424683,0.2037537693977356,0.998336536376467,-0.015583219353825433,0.05426491246449481,0.011687883332986154
1681266041787739400,0.795739501953125,-2.186810255050659,0.4931393563747406,0.1406344622373581,0.11375874280929565,0.04768458008766174,-0.9923633933067322,0.09778892248868942,0.11263960599899292,0.20020335912704468,0.9980065233313965,-0.024618748413433034,0.05667639761106136,0.012833923744744126
1681266041797783600,0.805783447265625,-3.083951950073242,0.4292098879814148,0.24574251472949982,0.11848365515470505,0.07362926006317139,-0.9902223944664001,0.11206119507551193,0.007181376218795776,0.18646568059921265,0.9974478873560371,-0.0377614187883405,0.05884630032608596,0.01445152981663157
1681266041807827500,0.815827392578125,-4.014349937438965,0.37348929047584534,0.4262872636318207,0.12274007499217987,0.10852836072444916,-0.9864869117736816,0.1274580955505371,-0.120185986161232,0.15967416763305664,0.9964692363848595,-0.055496922645952566,0.06063518972901666,0.017098922032236303
1681266041817871600,0.82587158203125,-4.811974048614502,0.37413111329078674,0.6180945038795471,0.12708278000354767,0.15153168141841888,-0.9802489876747131,0.1261824071407318,-0.21679344773292542,0.14315181970596313,0.9948291263383592,-0.077471178799425,0.06223916653745102,0.02096334743915045
1681266041827915500,0.83591552734375,-5.569672584533691,0.3706289827823639,0.7309558391571045,0.13198022544384003,0.20154370367527008,-0.9705469608306885,0.09969376027584076,-0.2562463879585266,0.12057137489318848,0.9922729908409486,-0.10321841330864685,0.06381608742855908,0.025839715841645166
1681266041837959400,0.84595947265625,-6.217121601104736,0.2769935727119446,0.7559197545051575,0.13693544268608093,0.25764650106430054,-0.9564867615699768,0.08100564777851105,-0.22465693950653076,0.10005676746368408,0.988567773166347,-0.13237062348870524,0.06507401977098229,0.03125801449252001
1681266041848003300,0.85600341796875,-6.793275356292725,0.083268903195858,0.8351709246635437,0.1409228891134262,0.31844618916511536,-0.9374074935913086,0.08953042328357697,-0.20037361979484558,0.034010887145996094,0.9835251810180677,-0.16436316943592438,0.06542947416221839,0.037173213324574905
1681266041858047500,0.866047607421875,-7.322284698486328,-0.06072075292468071,0.939531683921814,0.14411917328834534,0.3828198313713074,-0.9125122427940369,0.10078421235084534,-0.2571483850479126,-0.039971888065338135,0.9768990916706013,-0.1988474563323605,0.06483487034417797,0.04386506764157182
1681266041868091600,0.876091552734375,-7.711916923522949,-0.18920300900936127,0.9938575029373169,0.14702445268630981,0.44921231269836426,-0.8812446594238281,0.08155201375484467,-0.348305881023407,-0.033016204833984375,0.9685060939459312,-0.2352633486554232,0.06347315447136788,0.05116858407357712
1681266041878135600,0.886135498046875,-8.079667091369629,-0.24054262042045593,1.0257799625396729,0.15006686747074127,0.5161234140396118,-0.8432654142379761,0.016131684184074402,-0.41095978021621704,-0.031292080879211426,0.9582131184876082,-0.2730935537462945,0.06154028738123194,0.05882497579551349
1681266041888179500,0.896179443359375,-8.31816291809082,-0.2949627637863159,1.005600929260254,0.1534644365310669,0.5822732448577881,-0.7983774542808533,-0.03385096788406372,-0.4238412380218506,-0.015190660953521729,0.94591460522391,-0.3119478930092811,0.05915909110539592,0.06659052037074929
1681266041898223400,0.906223388671875,-8.448756217956543,-0.310911625623703,0.9462598562240601,0.15714915096759796,0.6458938121795654,-0.7470778822898865,-0.05847074091434479,-0.38701313734054565,0.005210816860198975,0.9316866993777336,-0.3511142323089205,0.05639028591507511,0.0741539139209112
1681266041908267500,0.916267578125,-8.38273811340332,-0.3173263967037201,0.8038521409034729,0.16087037324905396,0.7053508758544922,-0.690362811088562,-0.07815265655517578,-0.3401165008544922,0.04200160503387451,0.9157506625988732,-0.38984352005198875,0.05329760627131885,0.08112964804987824
1681266041918311700,0.926311767578125,-8.011457443237305,-0.28702467679977417,0.6662052869796753,0.16421863436698914,0.7586846947669983,-0.6304202675819397,-0.08493414521217346,-0.2647271752357483,0.06972086429595947,0.8986677613835783,-0.42696216158097666,0.04993161340384408,0.08721471872472725
1681266041928356400,0.9363564453125,-7.391932487487793,-0.24763423204421997,0.5843469500541687,0.16747625172138214,0.8041867613792419,-0.5702939033508301,-0.08286646008491516,-0.14834880828857422,0.10866987705230713,0.8812471106621664,-0.4611707326689589,0.04663249356935695,0.09246765122657874
1681266041938400500,0.946400390625,-6.617645740509033,-0.22034776210784912,0.5391402840614319,0.1708681434392929,0.8413896560668945,-0.5127059817314148,-0.06802408397197723,0.025278985500335693,0.11092686653137207,0.8642518267480925,-0.49167388756608793,0.0436325690784915,0.09706543814620086
1681266041948444700,0.956444580078125,-5.758052825927734,-0.236618310213089,0.4770185947418213,0.17411889135837555,0.8707548975944519,-0.45985692739486694,-0.04959210753440857,0.2102234959602356,0.05681133270263672,0.8483500565534232,-0.5180757790978174,0.040853654887531024,0.10114591476749206
1681266041958488600,0.966488525390625,-5.03838586807251,-0.25009578466415405,0.4136252701282501,0.17696848511695862,0.8935303092002869,-0.4126568138599396,-0.041256994009017944,0.31792593002319336,-0.006639420986175537,0.8338805516932648,-0.5405659984637817,0.03820985580330933,0.10474537604458967
1681266041968532500,0.976532470703125,-4.704951763153076,-0.21422934532165527,0.3546721935272217,0.1795293688774109,0.9118998646736145,-0.36906328797340393,-0.06275403499603271,0.3206287622451782,-0.05510050058364868,0.8202990658378426,-0.5605297962705796,0.035703017095627246,0.10789351569542097
1681266041978576400,0.986576416015625,-4.451643943786621,-0.0860958844423294,0.29848694801330566,0.18200361728668213,0.9273190498352051,-0.32703807950019836,-0.11011962592601776,0.31944602727890015,-0.03552597761154175,0.8070438396707016,-0.5791013461068414,0.03350511901429209,0.11044994227527985
1681266041988620500,0.99662060546875,-4.196763038635254,-0.04262353852391243,0.2812749445438385,0.18451836705207825,0.9401292204856873,-0.2865484356880188,-0.16900034248828888,0.32294756174087524,-0.040645718574523926,0.7941178498552335,-0.5964232896525288,0.03170237278651481,0.11247676975951511
1681266041998664700,1.006664794921875,-3.895622491836548,-0.06393042206764221,0.31962844729423523,0.18721552193164825,0.9504360556602478,-0.24823664128780365,-0.17813673615455627,0.2614779472351074,-0.13658998906612396,0.7816777115388175,-0.6123527348074829,0.030096649035384174,0.11444691385318828
1681266042008708400,1.016708251953125,-3.661923885345459,-0.08439010381698608,0.32718196511268616,0.1901809275150299,0.9585493803024292,-0.21216566860675812,-0.12845927476882935,0.19902819395065308,-0.1748124659061432,0.7697454219227513,-0.6269746724559935,0.028634306737185637,0.11651083059772177
1681266042018752500,1.02675244140625,-3.2887518405914307,-0.07150333374738693,0.2950536012649536,0.19303293526172638,0.9648024439811707,-0.17859065532684326,-0.08909022808074951,0.18621379137039185,-0.16619694232940674,0.7584615656313966,-0.6402825985206116,0.027255537347229027,0.11845424033812359
1681266042028796400,1.03679638671875,-2.80458664894104,-0.03531020134687424,0.2823186218738556,0.19573013484477997,0.9692556262016296,-0.14910772442817688,-0.0914212316274643,0.22504973411560059,-0.12045401334762573,0.748413237338392,-0.651737905283698,0.02615034104622785,0.12013081706114587
1681266042038840600,1.046840576171875,-2.243384838104248,-0.004907289519906044,0.30322152376174927,0.1985401064157486,0.9721601009368896,-0.12444506585597992,-0.09052331745624542,0.24913811683654785,-0.07700145244598389,0.7398894359026814,-0.6611555808605191,0.025510104293904136,0.12159830708941974
1681266042048884500,1.056884521484375,-1.5765691995620728,0.0007239347323775291,0.3542082607746124,0.20174746215343475,0.9737080335617065,-0.10578595101833344,-0.05865071713924408,0.30139267444610596,-0.01987016201019287,0.733314100235284,-0.6681768405918168,0.025430950710666922,0.12305852900000215
1681266042058928400,1.066928466796875,-1.001988410949707,-0.07191191613674164,0.39067867398262024,0.2053891122341156,0.974216639995575,-0.09336631000041962,-0.014883279800415039,0.3106344938278198,-0.049623794853687286,0.7287889148420464,-0.6727938466013109,0.025793132609877263,0.12469913366645481
1681266042068972500,1.07697265625,-0.6477745771408081,-0.16693128645420074,0.37795329093933105,0.20907187461853027,0.9741430282592773,-0.08563987165689468,0.028492063283920288,0.22330570220947266,-0.13149267435073853,0.7258006550421475,-0.675644826909338,0.026155934697544674,0.12662265339356424
1681266042079016400,1.087016357421875,-0.48740354180336,-0.29411667585372925,0.404073029756546,0.21265506744384766,0.973784863948822,-0.08075159043073654,0.049567073583602905,0.14749205112457275,-0.14278966188430786,0.7237159707312476,-0.6774465370522436,0.026275349262004255,0.12888344639630378
1681266042089060600,1.097060546875,-0.6314270496368408,-0.3819017708301544,0.38461944460868835,0.21635061502456665,0.9733338356018066,-0.07624604552984238,0.04045464098453522,0.08843368291854858,-0.16771143674850464,0.721671202078453,-0.6791149721254375,0.026073596803467512,0.13158117033378655
1681266042099104500,1.1071044921875,-1.0303176641464233,-0.49240031838417053,0.19035221636295319,0.21888509392738342,0.9732984900474548,-0.06913226842880249,0.05264487862586975,-0.00784444808959961,-0.177495539188385,0.718711967017221,-0.6817711234773999,0.024939955587222604,0.13423551753129295
1681266042109148400,1.1171484375,-1.3035627603530884,-0.6190606355667114,0.09024666249752045,0.2197667807340622,0.9737812280654907,-0.05875801667571068,0.06767809391021729,-0.0474812388420105,-0.17747855186462402,0.7146207821558063,-0.6856466791925091,0.022574846276959448,0.13673359553353204
1681266042119192600,1.127192626953125,-1.2903000116348267,-0.7692239880561829,0.15287035703659058,0.22054772078990936,0.9742181301116943,-0.047510288655757904,0.07647964358329773,-0.0045223236083984375,-0.2133844494819641,0.7101024437533158,-0.6898264262620923,0.01960504756357866,0.13967610272870137
1681266042129236500,1.137236572265625,-1.242378830909729,-0.8713962435722351,0.2247975468635559,0.22203868627548218,0.974339485168457,-0.03689717501401901,0.08554784953594208,0.007792532444000244,-0.2601761817932129,0.7056211017760406,-0.6937451342943437,0.016404289344089138,0.14334389077724227
1681266042139280600,1.14728076171875,-0.9007596969604492,-0.8879818916320801,0.2990826964378357,0.22431935369968414,0.9741058349609375,-0.02825889177620411,0.060501039028167725,0.013580262660980225,-0.17961156368255615,0.7017051655752261,-0.6969152868541475,0.013402879676207536,0.1474423238299985
1681266042149324500,1.157324462890625,-0.5976725816726685,-0.8149820566177368,0.3750443160533905,0.22738583385944366,0.9735350012779236,-0.022918052971363068,0.00941517949104309,0.006415009498596191,-0.08331358432769775,0.6988952324864951,-0.6988703647152055,0.011008475400246114,0.15167211383006118
1681266042159368400,1.167368408203125,-0.22750601172447205,-0.6970927119255066,0.4434278905391693,0.2312391698360443,0.9726777076721191,-0.020648838952183723,-0.014686599373817444,0.008965909481048584,0.013599276542663574,0.6971752095424554,-0.6997039720569117,0.009483266561178306,0.15579172131292343
1681266042169412600,1.17741259765625,0.03779151663184166,-0.6292669773101807,0.46062979102134705,0.23553690314292908,0.9716313481330872,-0.021326899528503418,-0.03097774088382721,0.08809149265289307,0.08785521984100342,0.6965365419956875,-0.6994716412429192,0.008716267778038491,0.15968803554585154
1681266042179457500,1.18745751953125,0.17815609276294708,-0.6131577491760254,0.47231438755989075,0.23995523154735565,0.9704886674880981,-0.023942163214087486,-0.03622005879878998,0.10829246044158936,0.04876822233200073,0.6965893696681493,-0.6985416989836329,0.008271221586170892,0.16350630327374052
1681266042189501400,1.19750146484375,0.131915882229805,-0.5940342545509338,0.4174197316169739,0.2441442459821701,0.9693613052368164,-0.027057837694883347,-0.03236767649650574,0.07546895742416382,-0.0068318843841552734,0.6968332563772743,-0.6974306273327688,0.007848636566836898,0.16718929173533456
1681266042199545300,1.20754541015625,0.0864381492137909,-0.5570586919784546,0.4071476459503174,0.24797390401363373,0.9683178663253784,-0.02948436513543129,-0.03436627984046936,0.0007219314575195312,-0.012172102928161621,0.6968724561043497,-0.6965654495879195,0.007375098774787475,0.17061921584140968
1681266042209589500,1.217589599609375,-0.02866937592625618,-0.5477776527404785,0.40018001198768616,0.2517336905002594,0.9672920107841492,-0.031246719881892204,-0.027170240879058838,-0.034766316413879395,0.009365614503622055,0.6966775368809714,-0.6959376465750056,0.006887105564996977,0.1739649542835704
1681266042219633700,1.227633544921875,-0.2208864837884903,-0.5318706035614014,0.41329315304756165,0.25548675656318665,0.966300904750824,-0.03144756704568863,0.007635623216629028,-0.014579713344573975,-0.03477555513381958,0.695915698919063,-0.6958710395112474,0.006301884732612892,0.17727106863573439
1681266042229678300,1.23767822265625,-0.49475619196891785,-0.5008062720298767,0.48313403129577637,0.25963959097862244,0.965259850025177,-0.029333654791116714,0.014530152082443237,0.030955851078033447,0.008902192115783691,0.6942853417838107,-0.6966350811720047,0.005721532039899126,0.18065042897092176
1681266042239722500,1.247722412109375,-0.7717071175575256,-0.43775802850723267,0.5498526096343994,0.26455992460250854,0.9640601873397827,-0.024414127692580223,-0.006366074085235596,-0.02030402421951294,0.03228771314024925,0.6915959966441607,-0.6984014025049238,0.00533080651076045,0.18412505352165656
1681266042249766700,1.2577666015625,-0.9475218653678894,-0.3875214457511902,0.574313759803772,0.26991966366767883,0.9627309441566467,-0.017107250168919563,-0.007514387369155884,-0.15732616186141968,0.004976566880941391,0.6880288993976762,-0.7010139690148237,0.005078429239377181,0.18753653485703606
1681266042259810600,1.267810546875,-0.7869444489479065,-0.33872249722480774,0.6298715472221375,0.2756694257259369,0.9612064361572266,-0.009388367645442486,0.012736767530441284,-0.1729070544242859,0.027576863765716553,0.6842879295802232,-0.7037612428543956,0.005092077717140026,0.1909031806569523
1681266042269854500,1.2778544921875,-0.4721297323703766,-0.3368470370769501,0.7089634537696838,0.2820849120616913,0.9593793153762817,-0.004376973956823349,0.014881432056427002,-0.06173539161682129,0.053586602210998535,0.6814679463871212,-0.7055345052477797,0.005707436783337609,0.19439590469943405
1681266042279898400,1.2878984375,-0.24218550324440002,-0.35179081559181213,0.7708083987236023,0.28921210765838623,0.9572628736495972,-0.001976816914975643,0.010195702314376831,-0.026003777980804443,0.021065592765808105,0.679499241692865,-0.7063746925135233,0.006810678506158859,0.19816423762588226
1681266042289942500,1.297942626953125,-0.15941910445690155,-0.3599694073200226,0.8254554271697998,0.2968486249446869,0.9549237489700317,-0.0011678108712658286,0.024135112762451172,-0.042585551738739014,0.0045095086097717285,0.6780289550098321,-0.7066458055414652,0.00823407998826573,0.202139970688416
1681266042299986700,1.307986572265625,-0.26482006907463074,-0.441944420337677,0.9160460233688354,0.30518868565559387,0.9522917866706848,-0.00043682247633114457,0.04828101396560669,-0.09229111671447754,0.019922316074371338,0.6764337022604825,-0.7068850031399829,0.00975607969963495,0.20653289179405795
1681266042310030300,1.3180302734375,-0.46308496594429016,-0.5165592432022095,0.9879649877548218,0.31428995728492737,0.9493257999420166,0.001527931191958487,0.07337471842765808,-0.13903826475143433,0.0005320312920957804,0.6741723472643004,-0.7075592403603458,0.01113045304623684,0.21148919091663848
1681266042320074500,1.328074462890625,-0.690133273601532,-0.5680245757102966,1.0798344612121582,0.3241501450538635,0.945990800857544,0.005286406259983778,0.08531928062438965,-0.18192219734191895,-0.008460164070129395,0.6710370365090085,-0.7088657321186408,0.012352201668931246,0.21694698538289953
1681266042330118400,1.338118408203125,-0.8325711488723755,-0.6179843544960022,1.20260488986969,0.33499032258987427,0.9421623945236206,0.010549385100603104,0.09248444437980652,-0.21958249807357788,-0.01083922479301691,0.6671009360395171,-0.7106972004649295,0.01357136450268712,0.22293839453499795
1681266042340162600,1.34816259765625,-0.9529744982719421,-0.6641188263893127,1.3442744016647339,0.34711191058158875,0.9376731514930725,0.016795536503195763,0.11005648970603943,-0.24065178632736206,-0.01436937041580677,0.66250383974741,-0.7128628687814427,0.014976598831689864,0.2295447069612677
1681266042350206700,1.358206787109375,-1.0410672426223755,-0.7241482734680176,1.4827046394348145,0.36051180958747864,0.9324535131454468,0.023697057738900185,0.12493115663528442,-0.2612804174423218,0.00790393352508545,0.6573291156047864,-0.7152439589035456,0.016571307936209236,0.23679067795487044
1681266042360250400,1.36825048828125,-1.058303952217102,-0.7799204587936401,1.6285473108291626,0.3752485513687134,0.9264117479324341,0.03081478364765644,0.1323348879814148,-0.24173468351364136,0.0353473424911499,0.6516987450295144,-0.7176825087100677,0.018417605254202607,0.2447064661354478
1681266042370294500,1.37829443359375,-0.896887481212616,-0.8818470239639282,1.7502561807632446,0.3912140429019928,0.9195632934570312,0.03680754825472832,0.14198893308639526,-0.20767980813980103,0.015835285186767578,0.6460920617008736,-0.719708089495542,0.02059223575318983,0.2533006744976176
1681266042380338400,1.38833837890625,-0.6343839764595032,-0.9875600934028625,1.8202449083328247,0.40802282094955444,0.9120901823043823,0.04011000692844391,0.1391420066356659,-0.17263400554656982,-0.031412478536367416,0.6410987556509954,-0.720780601006415,0.02302886445529106,0.26255927593008044
1681266042390382600,1.398382568359375,-0.3737054765224457,-1.0649268627166748,1.9175128936767578,0.42542922496795654,0.9040919542312622,0.04034097120165825,0.12783899903297424,-0.11069607734680176,-0.08013582229614258,0.6369295286075065,-0.7207660885417683,0.025821144983322407,0.2723052117683088
1681266042400426500,1.408426513671875,-0.2133760005235672,-1.1427502632141113,2.0872931480407715,0.4439407289028168,0.8952441215515137,0.03813355416059494,0.136030375957489,-0.0765339732170105,-0.09294307231903076,0.6332451482431578,-0.7198739218033603,0.029125822921253545,0.28272531712248916
1681266042410471400,1.418471435546875,-0.11530588567256927,-1.2153089046478271,2.2199177742004395,0.46364742517471313,0.8853598833084106,0.03418808802962303,0.17334583401679993,-0.13542097806930542,-0.10442423820495605,0.6297353816952189,-0.7183371309879294,0.03295162396539753,0.2938354382509567
1681266042420515600,1.428515625,-0.06480961292982101,-1.3275848627090454,2.3198330402374268,0.4841156005859375,0.8745248317718506,0.02895055152475834,0.21946698427200317,-0.24464207887649536,-0.13264918327331543,0.6262117582925917,-0.7163150784641995,0.036986268986509925,0.30558698451447264
1681266042430559500,1.4385595703125,0.06251459568738937,-1.4336403608322144,2.419628620147705,0.5051345825195312,0.8627541661262512,0.02223297394812107,0.2621382474899292,-0.27606892585754395,-0.13876426219940186,0.6227185437862441,-0.7137393729627061,0.041141152991207956,0.3179702999628284
1681266042440603400,1.448603271484375,0.3555816113948822,-1.513007402420044,2.5609614849090576,0.5267928242683411,0.8498973250389099,0.012781263329088688,0.28766000270843506,-0.22530949115753174,-0.1556950807571411,0.619736546270098,-0.7101375569371339,0.04577424854034885,0.33096186666863514
1681266042450647600,1.4586474609375,0.5840750336647034,-1.6054826974868774,2.7552778720855713,0.5494014024734497,0.835558295249939,0.00039936951361596584,0.28179043531417847,-0.20729297399520874,-0.16218829154968262,0.6172654609926997,-0.7053943045849262,0.0511718655251625,0.3446499039299099
1681266042460691500,1.46869140625,0.8725500702857971,-1.618851900100708,2.9045965671539307,0.5728405117988586,0.8195344805717468,-0.01473101507872343,0.2657976746559143,-0.18003863096237183,-0.11858499050140381,0.6152575448988935,-0.6995240612994637,0.05745067460144843,0.35892015721248954
1681266042470735600,1.478735595703125,1.0158168077468872,-1.6255874633789062,3.034160852432251,0.5966452360153198,0.8018612265586853,-0.03213945031166077,0.25357431173324585,-0.1295742392539978,-0.10225993394851685,0.6136614180190296,-0.6926467629664559,0.06458124361591536,0.3734827447929997
1681266042480779500,1.488779541015625,0.8547828197479248,-1.5637651681900024,3.1126766204833984,0.6204888820648193,0.7826527953147888,-0.04947614669799805,0.24735450744628906,-0.0920858383178711,-0.08255809545516968,0.6116171439700674,-0.6856072011584804,0.07214355822052886,0.38815259438535277
1681266042490823400,1.498823486328125,0.463419109582901,-1.4710307121276855,3.158153533935547,0.6439286470413208,0.7623807191848755,-0.06427644193172455,0.24311035871505737,-0.03861051797866821,0.026404201984405518,0.6082480466544593,-0.6793637746870597,0.07954017937917071,0.40270644302744685
1681266042500867600,1.50886767578125,0.061108481138944626,-1.4042507410049438,3.2596585750579834,0.6671271920204163,0.741080105304718,-0.07577133178710938,0.23509424924850464,-0.05919539928436279,0.05915457755327225,0.6031698762322972,-0.6742468967784935,0.08663403603989249,0.41721892397103605
1681266042510911500,1.518911376953125,-0.46175363659858704,-1.3794127702713013,3.3280153274536133,0.6901577711105347,0.7187949419021606,-0.0837608352303505,0.2500123381614685,-0.16162025928497314,0.04137200117111206,0.5960830317971283,-0.6704088911167583,0.09312088860771427,0.43193208146656015
1681266042520955600,1.52895556640625,-0.8545296788215637,-1.3079382181167603,3.4013657569885254,0.7128900289535522,0.695660412311554,-0.08856858313083649,0.2671818733215332,-0.1962859034538269,0.05565541237592697,0.5870906688495385,-0.6677741159087993,0.09896179902016351,0.4467760314358288
1681266042530999300,1.538999267578125,-1.1349533796310425,-1.2128182649612427,3.450359582901001,0.7353188395500183,0.6716106534004211,-0.09080293029546738,0.26938074827194214,-0.18842583894729614,0.07917582988739014,0.5765221848819708,-0.666097499475378,0.10446366189166566,0.4615447290898031
1681266042541043500,1.54904345703125,-1.2449421882629395,-1.0807992219924927,3.4518344402313232,0.7571238875389099,0.6468246579170227,-0.09154925495386124,0.27501100301742554,-0.1787307858467102,0.0954708456993103,0.5650324136010718,-0.6649427500714843,0.10989318064037937,0.4759337947909602
1681266042551087600,1.559087646484375,-1.3670780658721924,-0.8943390250205994,3.4305896759033203,0.7781519293785095,0.6214632391929626,-0.09090109169483185,0.2873539328575134,-0.13714927434921265,0.20625758171081543,0.5528993751766799,-0.6642447471423105,0.11544856391187168,0.4896455922744288
1681266042561131500,1.569131591796875,-1.3144574165344238,-0.6724127531051636,3.3732364177703857,0.7982548475265503,0.5957527756690979,-0.0886998176574707,0.30156803131103516,-0.0079231858253479,0.3356481194496155,0.5403003356872875,-0.6640437938448922,0.12122678242842114,0.5024194978013933
1681266042571175700,1.57917578125,-1.0147287845611572,-0.51781165599823,3.355396032333374,0.8173863887786865,0.5695178508758545,-0.08676726371049881,0.3057670593261719,0.11607474088668823,0.357214093208313,0.5282511249957527,-0.6635230852300706,0.12788073418266468,0.514134413074059
1681266042581219300,1.58921923828125,-0.7948758602142334,-0.3850594758987427,3.342967987060547,0.8357217907905579,0.5424655079841614,-0.08543884009122849,0.31584352254867554,0.14570581912994385,0.32721441984176636,0.5167947772495353,-0.6625075359927757,0.13551511218533732,0.5250165137468075
1681266042591263500,1.599263427734375,-0.642867386341095,-0.2467460334300995,3.325908899307251,0.8531522154808044,0.5148026347160339,-0.08431655913591385,0.32247626781463623,0.2325727939605713,0.3629268407821655,0.5057465689115802,-0.6611710404293999,0.14385609464451518,0.5351435081365413
1681266042601307400,1.609307373046875,-0.5218828916549683,-0.12814587354660034,3.2943661212921143,0.8696601986885071,0.48660919070243835,-0.08308041095733643,0.2941122055053711,0.29654818773269653,0.3393060564994812,0.4950121592482435,-0.6596239911799058,0.1528266530677047,0.5445208960657858
1681266042611352300,1.619352294921875,-0.5117467045783997,-0.07990864664316177,3.211083173751831,0.885035514831543,0.45833128690719604,-0.08151374012231827,0.2609909772872925,0.26459965109825134,0.28279250860214233,0.48442414710760257,-0.6580372310046558,0.16195719780236337,0.5532540792755369
1681266042621396500,1.629396484375,-0.6810638308525085,-0.02388319931924343,3.112816333770752,0.8991237282752991,0.43043777346611023,-0.07937223464250565,0.23622173070907593,0.23298394680023193,0.2820852994918823,0.4736594386671817,-0.6566588901456937,0.17062527529069735,0.5615450991122156
1681266042631440400,1.6394404296875,-0.811265230178833,0.09753773361444473,2.9843103885650635,0.9119505286216736,0.4032157063484192,-0.0759151503443718,0.22807925939559937,0.2565133273601532,0.32226836681365967,0.46246738500690004,-0.6558424174311216,0.17864251334155198,0.5692814578156102
1681266042641484500,1.649484619140625,-0.8583078384399414,0.20724479854106903,2.8531832695007324,0.9235371947288513,0.3768432140350342,-0.07119016349315643,0.22660917043685913,0.2890504002571106,0.3512653112411499,0.4511389344772165,-0.6555332424144187,0.18622858961710845,0.5762539814022843
1681266042651528700,1.65952880859375,-0.9589653015136719,0.27203187346458435,2.6955766677856445,0.9338843822479248,0.35150182247161865,-0.06562188267707825,0.21406471729278564,0.27497830986976624,0.3666015863418579,0.4398306015634236,-0.6556096950757878,0.1933002529052272,0.5825460150036297
1681266042661572400,1.669572265625,-0.9664642214775085,0.3686755895614624,2.5388736724853516,0.9430062174797058,0.3274586498737335,-0.05924435704946518,0.19903767108917236,0.27305102348327637,0.38172370195388794,0.42859195490019136,-0.6561128907650208,0.19973406355030873,0.5881589774198183
1681266042671616500,1.679616455078125,-0.8297057151794434,0.4510476589202881,2.433828830718994,0.9511264562606812,0.3042963147163391,-0.05255570262670517,0.1628413200378418,0.30178284645080566,0.37326502799987793,0.4178778747781357,-0.6566704966693059,0.20616985331963464,0.593005798872143
1681266042681660400,1.689660400390625,-0.8960102200508118,0.5921810865402222,2.2752277851104736,0.9583278894424438,0.2820930480957031,-0.045066822320222855,0.1161348819732666,0.31364065408706665,0.372596800327301,0.4074372789346852,-0.6575203799800861,0.21244655356587172,0.5970997997528197
1681266042691704600,1.69970458984375,-0.8777233362197876,0.7371480464935303,2.1639411449432373,0.9646387100219727,0.26107245683670044,-0.03623977303504944,0.05989730358123779,0.37943053245544434,0.4172670841217041,0.39711789634728495,-0.6589161275605894,0.2184253870036797,0.6003476067275159
1681266042701748700,1.709748779296875,-0.8214989304542542,0.8588582277297974,2.0759761333465576,0.9702378511428833,0.2407223880290985,-0.026287313550710678,0.001914680004119873,0.3849642872810364,0.36710768938064575,0.38699871883009235,-0.6606580491687095,0.2244711230032605,0.6028063841045661
1681266042711792400,1.71979248046875,-0.8564238548278809,0.9393283724784851,1.9782235622406006,0.975129246711731,0.22108732163906097,-0.01559225469827652,-0.011445283889770508,0.3006870150566101,0.3002145290374756,0.37708826146869007,-0.6626483630009065,0.2304365853345456,0.6046490478656336
1681266042721836500,1.72983642578125,-1.024993658065796,1.0276786088943481,1.8522452116012573,0.9793025851249695,0.20236316323280334,-0.0039162831380963326,-0.02738320827484131,0.27062880992889404,0.3441721200942993,0.3669506580221152,-0.6651657918078706,0.2357887357260775,0.6060571143016464
1681266042731880400,1.73988037109375,-1.1138947010040283,1.167528510093689,1.731975793838501,0.9827558994293213,0.18468786776065826,0.008998972363770008,-0.04940640926361084,0.2838332951068878,0.3919410705566406,0.35658425735270916,-0.66832227895548,0.2405094963907324,0.6069168572356886
1681266042741924600,1.749924560546875,-1.210307240486145,1.2784454822540283,1.6177942752838135,0.9855263233184814,0.16792906820774078,0.023186884820461273,-0.0790170431137085,0.2605683207511902,0.3599461317062378,0.3461031903933981,-0.6720562734832314,0.24481382177663807,0.6071401066123241
1681266042751968300,1.75996826171875,-1.429300308227539,1.3483941555023193,1.5150713920593262,0.9876362681388855,0.15201830863952637,0.03827386721968651,-0.10171109437942505,0.24922685325145721,0.34043407440185547,0.3352562886227507,-0.6763613775855319,0.2483389223059691,0.6070141855894052
1681266042762012400,1.770012451171875,-1.6108940839767456,1.4019654989242554,1.4026902914047241,0.98911052942276,0.13682293891906738,0.0542190745472908,-0.11961907148361206,0.2868373990058899,0.38207554817199707,0.32387631361236,-0.6812713981383844,0.25095581194908506,0.6066255158443399
1681266042772056600,1.780056640625,-1.7089333534240723,1.3892775774002075,1.3130738735198975,0.9899969696998596,0.12232054769992828,0.07031022757291794,-0.1527320146560669,0.2788483500480652,0.3101677894592285,0.3122569500558225,-0.686485971325005,0.25276891866168466,0.6060861605395311
1681266042782100500,1.7901005859375,-1.7981308698654175,1.300776481628418,1.288256049156189,0.9904440641403198,0.10804139822721481,0.08571716398000717,-0.16900253295898438,0.22324222326278687,0.1893225908279419,0.30053862069209114,-0.6916219059648754,0.25400338663483496,0.6056549007350339
1681266042792144600,1.80014453125,-2.0245285034179688,1.1591272354125977,1.281434178352356,0.9905892610549927,0.09345155209302902,0.09999772161245346,-0.16691994667053223,0.19919681549072266,0.1034935712814331,0.28838504732157305,-0.6965754575290357,0.2545220879315778,0.6056691319381823
1681266042802188300,1.810188232421875,-2.2918949127197266,0.9220998883247375,1.2017332315444946,0.9905648231506348,0.07871568948030472,0.11218253523111343,-0.15328466892242432,0.11499468237161636,0.02667248249053955,0.2757154079518737,-0.7011796561289255,0.2538471143667737,0.6065390651773479
1681266042812232400,1.820232421875,-2.684731960296631,0.8100755214691162,1.0017948150634766,0.9903519153594971,0.06474974006414413,0.12251511216163635,-0.14248234033584595,0.06159306317567825,0.05877457559108734,0.262450431753824,-0.7057547579327766,0.2513320070151986,0.6081627747881115
1681266042822276600,1.830276611328125,-2.8278443813323975,0.8315027356147766,0.7734729051589966,0.9898320436477661,0.052422598004341125,0.13222725689411163,-0.17820203304290771,0.20615288615226746,0.13263486325740814,0.2488421574135341,-0.7107070468068911,0.2470002477453688,0.6098883596260354
1681266042832321300,1.8403212890625,-2.575742721557617,0.7631099820137024,0.709780752658844,0.9890501499176025,0.041403722018003464,0.1416517049074173,-0.26097720861434937,0.3804408013820648,0.06556271016597748,0.23585090285871912,-0.7156290055190254,0.24228284146018497,0.611186023407129
1681266042842365400,1.850365478515625,-2.295156955718994,0.4851856827735901,0.7088465094566345,0.9883887767791748,0.03077903762459755,0.14879606664180756,-0.2574775218963623,0.37757670879364014,-0.0932386964559555,0.22417005246645372,-0.7195032238245553,0.23814522294103885,0.6126579196196383
1681266042852409600,1.86040966796875,-2.1828086376190186,0.2636699080467224,0.6338934302330017,0.9880003333091736,0.020635370165109634,0.1530659794807434,-0.1580902338027954,0.32471683621406555,-0.13258863985538483,0.21353711239922443,-0.7223002041627271,0.23412689679885454,0.6147103002128159
1681266042862453500,1.87045361328125,-2.068324565887451,0.2086428999900818,0.4899780750274658,0.9877270460128784,0.011728186160326004,0.15574835240840912,-0.12604808807373047,0.339208722114563,-0.09021174907684326,0.20377106999973174,-0.7246048048182229,0.22983048233243591,0.6169303641282842
1681266042872497700,1.88049755859375,-1.927731990814209,0.20639681816101074,0.38147372007369995,0.987419605255127,0.004246522672474384,0.15806427597999573,-0.1930166482925415,0.3476059138774872,-0.12344205379486084,0.19488681763554663,-0.7267794352859435,0.2254413212875545,0.6188593520957593
1681266042882541300,1.890541259765625,-1.6657136678695679,0.1805844008922577,0.29251667857170105,0.9871110320091248,-0.001997079001739621,0.16002324223518372,-0.25250738859176636,0.30865296721458435,-0.17471744120121002,0.18699877270950463,-0.7287448366658067,0.22122970225105054,0.6204995450380876
1681266042892585500,1.90058544921875,-1.3590024709701538,0.18536530435085297,0.20665796101093292,0.9868084192276001,-0.006915324367582798,0.16174323856830597,-0.24854272603988647,0.3034546375274658,-0.1828918755054474,0.18049625551843837,-0.7304222127375707,0.21761206448106246,0.621730862037494
1681266042902629600,1.910629638671875,-1.085216999053955,0.19045168161392212,0.15552712976932526,0.9864740967750549,-0.010669241659343243,0.16356921195983887,-0.21547812223434448,0.3248324692249298,-0.18447363376617432,0.17524549083209293,-0.7319302213219425,0.21462236606621055,0.6224984575354553
1681266042912673500,1.920673583984375,-0.8324753046035767,0.14950601756572723,0.16421303153038025,0.9861727356910706,-0.013781419023871422,0.16514529287815094,-0.15308886766433716,0.32049834728240967,-0.18118228018283844,0.171074866301968,-0.7331254230502842,0.2123670425037686,0.6230253139440196
1681266042922717700,1.9307177734375,-0.7608456015586853,0.11918912082910538,0.22043049335479736,0.9859216213226318,-0.016990013420581818,0.16634178161621094,-0.07958024740219116,0.2586282193660736,-0.1605128049850464,0.16745119116866533,-0.7340015720577235,0.21074293138647499,0.6235295471901716
1681266042932761300,1.94076123046875,-0.788894534111023,0.08153243362903595,0.23553994297981262,0.9857124090194702,-0.02059123106300831,0.1671733856201172,-0.022104740142822266,0.18028971552848816,-0.12338054180145264,0.16374857154090922,-0.734714105056497,0.20924119462137447,0.6241791953137481
1681266042942805500,1.950805419921875,-0.7724971771240234,0.12626981735229492,0.23011161386966705,0.9854937195777893,-0.024214060977101326,0.16797545552253723,-0.0019733309745788574,0.13279561698436737,-0.060538291931152344,0.1600177640370856,-0.7354190389208819,0.20771751341480438,0.6248252183648308
1681266042952849400,1.960849365234375,-0.6484935879707336,0.18518505990505219,0.2159276306629181,0.9851628541946411,-0.02766820788383484,0.169376403093338,-0.0035803914070129395,0.12099096924066544,0.0011253207921981812,0.15649153242053407,-0.7362569737847947,0.206431271366106,0.6251576373803814
1681266042962893600,1.9708935546875,-0.4664292633533478,0.19101259112358093,0.1850176453590393,0.9847793579101562,-0.030573878437280655,0.1710980236530304,0.010551273822784424,0.14347366988658905,0.006895765662193298,0.15361178660113242,-0.7370852148086923,0.20555875203030916,0.6251833823464749
1681266042972937500,1.9809375,-0.22581778466701508,0.19475480914115906,0.21275553107261658,0.984379768371582,-0.03310568258166313,0.17291583120822906,0.047693848609924316,0.16494163870811462,0.006420820951461792,0.1514998982902543,-0.7377657276179475,0.20532813504098946,0.6249717054720703
1681266042982981400,1.9909814453125,0.02133314497768879,0.1929989904165268,0.2745576500892639,0.9839593172073364,-0.03569495677947998,0.1747845560312271,0.07663315534591675,0.18405617773532867,0.016896352171897888,0.15017217989937462,-0.7381905424125053,0.2060752274164985,0.6245445589500266
1681266042993025500,2.001025634765625,0.12037317454814911,0.23138020932674408,0.2883661389350891,0.9834849238395691,-0.03834804892539978,0.17687922716140747,0.06557178497314453,0.14479339122772217,0.001755446195602417,0.1493794998546956,-0.7384870252242062,0.20754885555309147,0.623895742513342
1681266043003069400,2.0110693359375,0.08517684042453766,0.3117884695529938,0.3123822510242462,0.9828773140907288,-0.04111333563923836,0.17961497604846954,0.011171579360961914,0.08908697962760925,0.021892651915550232,0.1485596755368206,-0.7389454491954782,0.20920589815650936,0.6229946953601155
1681266043013113600,2.021113525390625,-0.09126393496990204,0.3905937075614929,0.33075249195098877,0.9820996522903442,-0.04428563266992569,0.18308164179325104,-0.05201554298400879,0.038288943469524384,0.050545692443847656,0.14719982325406192,-0.7396994694488371,0.2106786943174643,0.6219254796780975
1681266043023158500,2.031158447265625,-0.2879706025123596,0.436422199010849,0.33317434787750244,0.9811647534370422,-0.047950129956007004,0.18712730705738068,-0.08007222414016724,-0.021065369248390198,0.03615464270114899,0.14499611581711389,-0.7407926715400172,0.21163617326373663,0.620816011788826
1681266043033202400,2.041202392578125,-0.5811272859573364,0.4479924738407135,0.3307945430278778,0.9801625609397888,-0.05195926874876022,0.19126181304454803,-0.0760338306427002,-0.07279657572507858,-0.004509478807449341,0.14192841748319768,-0.7421294468805701,0.21183670403414867,0.619859019818009
1681266043043246600,2.05124658203125,-0.8334948420524597,0.4246717095375061,0.33005258440971375,0.9791280031204224,-0.05666769668459892,0.19518394768238068,-0.036836981773376465,-0.09326516091823578,-0.00013078749179840088,0.13774584286354613,-0.7436364600549535,0.2111795210871113,0.6192204590676543
1681266043053290500,2.06129052734375,-1.0198009014129639,0.40041473507881165,0.2745850682258606,0.9781320095062256,-0.0614812970161438,0.19868960976600647,-0.0002574324607849121,-0.047176528722047806,0.004237055778503418,0.13287804380866292,-0.745236771629594,0.20968299888753172,0.6188687395710847
1681266043063334400,2.07133447265625,-0.9969496726989746,0.3200701177120209,0.23927342891693115,0.9772437214851379,-0.06607308983802795,0.20156626403331757,-0.00037616491317749023,-0.009808860719203949,-0.020184993743896484,0.1279301023598204,-0.7467322322645452,0.20778379301796204,0.6187492993278534
1681266043073378600,2.081378662109375,-0.903599739074707,0.2908899784088135,0.25665080547332764,0.9764647483825684,-0.0704505518078804,0.20384640991687775,-0.0024047493934631348,0.0749518871307373,-0.01271471381187439,0.12324321638926133,-0.7480135508647845,0.20591001093724984,0.6187793924990306
1681266043083422500,2.09142236328125,-0.7690541744232178,0.2656908631324768,0.19601650536060333,0.9757458567619324,-0.07442399859428406,0.20586639642715454,-0.029670536518096924,0.18184587359428406,0.015004634857177734,0.11911413009531903,-0.749117238181825,0.20434422189679172,0.6187718208454017
1681266043093466600,2.101466552734375,-0.8247160911560059,0.28377026319503784,0.21117600798606873,0.9750350713729858,-0.07788773626089096,0.2079421728849411,-0.09828042984008789,0.12047503143548965,-0.03910362720489502,0.11527111559734363,-0.750245791632627,0.20273711025024455,0.6186609768056051
1681266043103510500,2.111510498046875,-0.8648377060890198,0.24724076688289642,0.1732611209154129,0.9743043780326843,-0.08156833797693253,0.20994679629802704,-0.08427447080612183,0.09519442170858383,0.01280108094215393,0.11123986660567821,-0.7513674386558263,0.20104817512473352,0.618588967014464
1681266043113554400,2.121554443359375,-1.0006269216537476,0.26339441537857056,0.10978946834802628,0.9736384749412537,-0.08500871807336807,0.21166417002677917,-0.016332566738128662,0.07963761687278748,0.048177868127822876,0.10696120501727983,-0.7525324642407816,0.1988139266421822,0.6186495183346026
1681266043123598600,2.1315986328125,-1.1282552480697632,0.2613951861858368,0.050814833492040634,0.9730139374732971,-0.08801145851612091,0.21330133080482483,0.01490086317062378,0.049391455948352814,-0.008406311273574829,0.10245618903480633,-0.7538281067405138,0.1959434881696501,0.6187502563869755
1681266043133642500,2.141642578125,-1.0855796337127686,0.21139249205589294,-0.07847391068935394,0.9725135564804077,-0.0903569757938385,0.2145996242761612,0.04642254114151001,0.0275823175907135,-0.12313839793205261,0.09798636510237485,-0.7551350140587164,0.19253810083843984,0.6189498180399736
1681266043143686700,2.151686767578125,-0.9458198547363281,0.2455350160598755,-0.15522249042987823,0.972137987613678,-0.0913555920124054,0.21587474644184113,0.10266053676605225,0.059586770832538605,-0.15964600443840027,0.0942903531407302,-0.756445554167004,0.18901718513796717,0.6190088621526266
1681266043153730300,2.161730224609375,-0.7424652576446533,0.23507174849510193,-0.18905209004878998,0.9717562794685364,-0.09149974584579468,0.21752548217773438,0.1600489616394043,0.16442149877548218,-0.12745285034179688,0.09138980570682075,-0.7577735557924569,0.18585473202332356,0.6187770938670927
1681266043163774500,2.1717744140625,-0.721941351890564,0.15548531711101532,-0.1903996467590332,0.9715096354484558,-0.09116273373365402,0.21876510977745056,0.22677814960479736,0.19632628560066223,-0.1070554256439209,0.08908702047770335,-0.7588835129817608,0.1829709584704177,0.6186120491482902
1681266043173818600,2.181818603515625,-0.8163663148880005,0.08455967903137207,-0.19702266156673431,0.9714159965515137,-0.09104164689779282,0.21922995150089264,0.25995272397994995,0.1433487832546234,-0.12361839413642883,0.08662061721482572,-0.7597647470934501,0.17992361820690883,0.6187743185235116
1681266043183862500,2.191862548828125,-0.9164282083511353,0.047122564166784286,-0.28372666239738464,0.9714987277984619,-0.09063316136598587,0.2190333753824234,0.21653515100479126,0.02080894261598587,-0.2134181261062622,0.0839826950067228,-0.7605413254410368,0.1763337082618647,0.6192173542540538
1681266043193906400,2.201906494140625,-0.9257283210754395,0.0012295800261199474,-0.3747828006744385,0.9717339277267456,-0.08938325941562653,0.21850229799747467,0.18598061800003052,-0.05818448215723038,-0.29848888516426086,0.08146845431651731,-0.7613168238979124,0.17218548536489792,0.6197673116090519
1681266043203951600,2.21195166015625,-0.777306318283081,-0.10525931417942047,-0.34284457564353943,0.9721648097038269,-0.08776240795850754,0.2172400802373886,0.21568608283996582,0.032815493643283844,-0.27650508284568787,0.07930591672140082,-0.7618214109617121,0.16807193289130692,0.6205566128087147
1681266043213995500,2.22199560546875,-0.44284918904304504,-0.19174963235855103,-0.3199227452278137,0.9727796316146851,-0.08586221933364868,0.2152368426322937,0.24445945024490356,0.1318827122449875,-0.2109185755252838,0.07813012466648787,-0.7618681294945574,0.16484955561793793,0.6215119028385775
1681266043224039700,2.232039794921875,-0.19886820018291473,-0.19368229806423187,-0.34208452701568604,0.9734847545623779,-0.08333875238895416,0.2130306512117386,0.19102025032043457,0.14159676432609558,-0.21374770998954773,0.07811656374059951,-0.7616400111277016,0.16254175086926725,0.6224005506448419
1681266043234082800,2.242082763671875,-0.010451452806591988,-0.18006691336631775,-0.39797335863113403,0.9741770029067993,-0.07991441339254379,0.21116982400417328,0.09817999601364136,0.1655314564704895,-0.20312833786010742,0.07904221908031234,-0.761413242060933,0.1607320241942176,0.6230307906325092
1681266043244126700,2.252126708984375,0.09459320455789566,-0.20107978582382202,-0.38943710923194885,0.9748942852020264,-0.07590632140636444,0.20933079719543457,0.06766247749328613,0.19333791732788086,-0.14942464232444763,0.08063267791224821,-0.7611136899743711,0.15928385711368565,0.6235647354651792
1681266043254171000,2.2621708984375,0.15379904210567474,-0.21927984058856964,-0.39040571451187134,0.9756253957748413,-0.07182148844003677,0.20735576748847961,0.07668155431747437,0.1619093418121338,-0.09595131874084473,0.08251497665448769,-0.7607087514579742,0.15811413188640525,0.6241099774743963
1681266043264215000,2.272215087890625,0.1496535688638687,-0.24883534014225006,-0.3952345550060272,0.9763761758804321,-0.06765199452638626,0.20521314442157745,0.06900328397750854,0.13122010231018066,-0.07890082895755768,0.08451596617921349,-0.7602351833712135,0.1570001265445383,0.6247001806259566
1681266043274259000,2.282259033203125,0.09683924168348312,-0.28339871764183044,-0.4371958374977112,0.9771984815597534,-0.06330301612615585,0.20267121493816376,0.034108102321624756,0.09949685633182526,-0.06737148761749268,0.08651609713625277,-0.7596685622523284,0.15568968927834323,0.6254432682454997
1681266043284302800,2.292302734375,0.01097333524376154,-0.3173372447490692,-0.4724867343902588,0.978080689907074,-0.0587211512029171,0.19977465271949768,0.0030899643898010254,0.09140545129776001,-0.023550838232040405,0.08837764885588131,-0.7590632552953889,0.15398150460000926,0.6263401698174371
1681266043294346800,2.3023466796875,-0.03152816742658615,-0.3731183409690857,-0.5228891968727112,0.9790447950363159,-0.05383741483092308,0.19639882445335388,-0.023554861545562744,0.11281260848045349,0.007397651672363281,0.09017550133286846,-0.7583709625000563,0.1518976382663377,0.6274303589003914
1681266043304391000,2.312390869140625,-0.12293770909309387,-0.42530593276023865,-0.5951915979385376,0.9801105260848999,-0.04847263544797897,0.19244138896465302,-0.04914140701293945,0.10984346270561218,0.0020776987075805664,0.09196610618060727,-0.7575707223087231,0.1493562579076362,0.6287459842973109
1681266043314434800,2.322434814453125,-0.23116765916347504,-0.428679496049881,-0.668602466583252,0.9812299609184265,-0.042558107525110245,0.18808621168136597,-0.07296591997146606,0.11000193655490875,0.02266824245452881,0.09361655345012597,-0.7567537206458148,0.14617424066561557,0.6302323089074929
1681266043324479000,2.33247900390625,-0.3731311857700348,-0.3932378888130188,-0.6667278409004211,0.9822574257850647,-0.036480508744716644,0.1839550882577896,-0.0897250771522522,0.11086709052324295,0.049824848771095276,0.09491284120904835,-0.7560926404403268,0.1424832072736953,0.6316755299013432
1681266043334523000,2.34252294921875,-0.5984354019165039,-0.38574784994125366,-0.6838082671165466,0.9831960201263428,-0.030687017366290092,0.17995446920394897,-0.1058005690574646,0.05298008397221565,0.0763779729604721,0.09552977721877942,-0.7555592984213386,0.13822945296754996,0.6331640480386512
1681266043344566800,2.35256689453125,-0.9486812949180603,-0.35552018880844116,-0.7606967091560364,0.9840602278709412,-0.02496444061398506,0.17607343196868896,-0.10558146238327026,-0.01565447449684143,0.08530972898006439,0.09513136542238823,-0.7552395169202922,0.13285325335275727,0.6347543960554852
1681266043354611000,2.36261083984375,-1.2013490200042725,-0.3539140820503235,-0.8374585509300232,0.9848496913909912,-0.018922165036201477,0.1723744124174118,-0.10241878032684326,-0.012236308306455612,0.11580312252044678,0.09383790959490917,-0.755153695135745,0.12621449772989218,0.636401749171178
1681266043364654800,2.37265478515625,-1.36890709400177,-0.38730159401893616,-0.9392211437225342,0.9856188893318176,-0.012361207976937294,0.16853007674217224,-0.08753246068954468,0.025941479951143265,0.08063077926635742,0.09196386555722232,-0.7551308083958816,0.1185010500016697,0.6381829698901582
1681266043374698800,2.38269873046875,-1.3700910806655884,-0.3533354699611664,-0.9811696410179138,0.9863418340682983,-0.005090260878205299,0.16463187336921692,-0.042265474796295166,0.08161303400993347,-0.0035295486450195312,0.0900751686058857,-0.755089408951209,0.11025387825179753,0.6399769091726119
1681266043384744000,2.392743896484375,-1.32114839553833,-0.17679373919963837,-0.9496285319328308,0.9867959022521973,0.002312421565875411,0.16195134818553925,-0.006724059581756592,0.11417312175035477,0.015691518783569336,0.08823647758332194,-0.755344610798452,0.10212832917277288,0.6412788451402267
1681266043394787800,2.402787841796875,-1.2230290174484253,-0.03372674435377121,-0.9385359287261963,0.9869004487991333,0.009546918794512749,0.16104693710803986,0.005759894847869873,0.12048843502998352,0.09409533441066742,0.08645046669746445,-0.7560513853808757,0.09439157608656094,0.6418743927581139
1681266043404832000,2.41283203125,-0.9295441508293152,0.07500985264778137,-0.9540155529975891,0.9867375493049622,0.017196984961628914,0.16140957176685333,0.036074161529541016,0.13302575051784515,0.08678996562957764,0.08535638659610582,-0.7570259423782298,0.08727260688410932,0.6418796049804298
1681266043414876000,2.4228759765625,-0.5608688592910767,0.18917492032051086,-0.9036408066749573,0.9863166213035583,0.025230439379811287,0.16291898488998413,0.07043063640594482,0.1669844686985016,0.06175146996974945,0.08546759225284786,-0.7581803282412495,0.08137616433207007,0.6412765742783052
1681266043424919800,2.432919921875,-0.249160498380661,0.22794495522975922,-0.8192178010940552,0.9857131242752075,0.033106643706560135,0.1651468425989151,0.08887171745300293,0.1649676263332367,0.042952537536621094,0.08663608006154994,-0.7593810138641665,0.07690188730073932,0.6402505044758076
1681266043434964000,2.4429638671875,-0.027712540701031685,0.2622373104095459,-0.719871997833252,0.9850242137908936,0.04056001827120781,0.16757631301879883,0.10436159372329712,0.09835594892501831,-0.008350729942321777,0.08853858064450665,-0.7605040829843153,0.07363218725490256,0.6390403955389271
1681266043445008000,2.4530078125,-0.02141576260328293,0.33924874663352966,-0.5651905536651611,0.9842293858528137,0.046892765909433365,0.170567587018013,0.11875200271606445,-0.0017420537769794464,-0.013447776436805725,0.09045393127504606,-0.7617097967722216,0.0712880179390582,0.6376003267847391
1681266043455051800,2.4630517578125,-0.14243334531784058,0.4010204076766968,-0.4710424840450287,0.9833328127861023,0.05186223238706589,0.1742607206106186,0.14145344495773315,-0.07789379358291626,0.0032601356506347656,0.09167698946483419,-0.7631104600743173,0.0692299434096322,0.635975575853281
1681266043465095700,2.473095703125,-0.26382875442504883,0.4813069999217987,-0.3350100815296173,0.9823276996612549,0.05553334951400757,0.17874053120613098,0.16864269971847534,-0.10695551335811615,0.0474252849817276,0.0920482210804424,-0.7647560500236876,0.06721942431864297,0.6341583481117321
1681266043475139800,2.483139892578125,-0.3406979739665985,0.5097085237503052,-0.21207165718078613,0.9812542796134949,0.057677365839481354,0.18388357758522034,0.18904894590377808,-0.13514629006385803,0.09249889850616455,0.09156849618111089,-0.7665913541918044,0.06541777186535512,0.6321972283237173
1681266043485184000,2.49318408203125,-0.35681942105293274,0.48581168055534363,-0.09259985387325287,0.9802256226539612,0.0585794672369957,0.18901373445987701,0.21740621328353882,-0.16038616001605988,0.06860044598579407,0.09055799400914846,-0.7683880536282134,0.06392705518761513,0.6303113250589646
1681266043495228000,2.503227783203125,-0.285549521446228,0.43889370560646057,0.024204794317483902,0.9793083071708679,0.05829140916466713,0.1937972456216812,0.2139289379119873,-0.1546201854944229,0.03212442994117737,0.0892607928341663,-0.7700211355790311,0.06297676578588238,0.6285967773945914
1681266043505271800,2.513271728515625,-0.3079778552055359,0.37992042303085327,0.12491782009601593,0.9785362482070923,0.05699848011136055,0.19803477823734283,0.17211365699768066,-0.16063624620437622,-0.000051975250244140625,0.08777694021900526,-0.771431914052622,0.06253154477943348,0.6271185833168883
1681266043515315700,2.523315673828125,-0.42108476161956787,0.304225891828537,0.22376450896263123,0.9779472947120667,0.05454455688595772,0.20160362124443054,0.12414926290512085,-0.1762181967496872,-0.05943736433982849,0.0857116369000655,-0.7726126212700829,0.06222175843352075,0.6259805957444388
1681266043525359900,2.53335986328125,-0.5486887693405151,0.2463495284318924,0.2970126271247864,0.9775224924087524,0.05100994184613228,0.20456716418266296,0.08436703681945801,-0.19691455364227295,-0.0705338716506958,0.08291813973788935,-0.7736041116567061,0.06180826371574404,0.6251727595750771
1681266043535404000,2.543404052734375,-0.6081620454788208,0.2149042785167694,0.37181681394577026,0.9772095680236816,0.04649464413523674,0.20712177455425262,0.04970675706863403,-0.19450494647026062,-0.05560196936130524,0.07950542635553692,-0.7744646542764603,0.061362757453956,0.6245941653771171
1681266043545448700,2.55344873046875,-0.4736071527004242,0.18475623428821564,0.39115217328071594,0.9769589304924011,0.041545163840055466,0.2093442976474762,0.00949108600616455,-0.15420086681842804,-0.04982888698577881,0.07607668889204977,-0.7751940232790244,0.061207635022196054,0.6241314866222376
1681266043555492900,2.563492919921875,-0.1915547251701355,0.12422095984220505,0.38133707642555237,0.9767827987670898,0.037090182304382324,0.2109965682029724,-0.023810505867004395,-0.0426139160990715,-0.07386577129364014,0.073541651480126,-0.7756859930705335,0.06172135125191224,0.6237734127518626
1681266043565537000,2.573537109375,0.13908390700817108,0.05935673788189888,0.39608994126319885,0.9767249226570129,0.03322368115186691,0.21190771460533142,-0.04082697629928589,0.09118115901947021,-0.08020897209644318,0.07219717738929358,-0.7758613706909541,0.06319010180540437,0.6235653981684683
1681266043575581000,2.583580810546875,0.39185404777526855,0.02021537348628044,0.42633944749832153,0.9767724275588989,0.02978011965751648,0.21219919621944427,-0.05563002824783325,0.15985603630542755,-0.07546509802341461,0.07195606995534122,-0.7757512126881663,0.0656479702210945,0.6234762323203451
1681266043585624800,2.593624755859375,0.6076523661613464,0.028343606740236282,0.47728466987609863,0.9768635034561157,0.02644842118024826,0.21222133934497833,-0.07693082094192505,0.16192124783992767,-0.07339681684970856,0.07250505444753375,-0.7754693338184416,0.0689781484685836,0.6234037398579382
1681266043595668700,2.603668701171875,0.7565550208091736,0.052087847143411636,0.5366835594177246,0.9768972396850586,0.022937240079045296,0.21247434616088867,-0.09036177396774292,0.12609529495239258,-0.05070066452026367,0.0735585957605512,-0.7751735982658369,0.07309629190062485,0.6231788275961605
1681266043605713000,2.613712890625,0.8516474366188049,0.044070933014154434,0.5940189957618713,0.976905345916748,0.019174784421920776,0.21280963718891144,-0.09552735090255737,0.04686519503593445,-0.016657844185829163,0.07496048700760366,-0.7748184321982354,0.07785383294701285,0.6228771641558516
1681266043615757000,2.623757080078125,0.8425382375717163,0.08935467153787613,0.6299365162849426,0.9768726229667664,0.014930397272109985,0.21329957246780396,-0.09094744920730591,0.03398922085762024,0.0034973621368408203,0.07629580235272654,-0.7744503152674701,0.08292464406051712,0.6225183147910263
1681266043625801000,2.633801025390625,0.8712372779846191,0.08262380212545395,0.6147719621658325,0.9767600297927856,0.010671636089682579,0.21406880021095276,-0.08442634344100952,0.01706879958510399,0.019451692700386047,0.07763213023760564,-0.7741344649662685,0.0880354086944979,0.6220439093432524
1681266043635844900,2.643844970703125,0.8532155156135559,0.07296551764011383,0.6566357612609863,0.9766572713851929,0.006341014988720417,0.2147085815668106,-0.05742233991622925,-0.013253303244709969,-0.0034506618976593018,0.07900088755386755,-0.7737324307537934,0.09323312099943726,0.6216142994023292
1681266043645888800,2.653888671875,0.7208758592605591,0.13796450197696686,0.6636462807655334,0.9764551520347595,0.0015513579128310084,0.215715229511261,-0.028914928436279297,-0.006251102779060602,-0.014009207487106323,0.07997844525716716,-0.773424552012808,0.09834671318165568,0.6210844494666814
1681266043655933000,2.663932861328125,0.4376087188720703,0.20650547742843628,0.5884189009666443,0.9760686755180359,-0.003315594047307968,0.2174375206232071,-0.01629084348678589,-0.045482054352760315,0.03283718228340149,0.08021818535681238,-0.7734178064043635,0.10268229359692982,0.6203598279575946
1681266043665976800,2.673976806640625,0.20305348932743073,0.2232287973165512,0.4936111569404602,0.9755554795265198,-0.007937164045870304,0.21960990130901337,-0.0022736787796020508,-0.05239613354206085,0.0958808958530426,0.07961479725354742,-0.7736960836497101,0.10582683221231104,0.6195615731521645
1681266043676020700,2.684020751953125,0.12586839497089386,0.15078359842300415,0.3877294659614563,0.9750811457633972,-0.011859219521284103,0.2215307652950287,0.017411351203918457,0.018832452595233917,0.10903573036193848,0.07878171635378556,-0.7740014263181925,0.10810724958695736,0.6188925410386461
1681266043686065000,2.69406494140625,0.060219328850507736,0.038324955850839615,0.30802851915359497,0.9748185873031616,-0.015031307004392147,0.22249238193035126,0.03421461582183838,0.08511489629745483,0.04275122284889221,0.07802658579983855,-0.7740756001919599,0.10978686473668957,0.6185997741163696
1681266043696108800,2.70410888671875,-0.06447020918130875,-0.06605038791894913,0.2148144245147705,0.9747955203056335,-0.01759154722094536,0.22240528464317322,0.029553115367889404,0.09940912574529648,-0.009941816329956055,0.07724121828699358,-0.7738991579079375,0.1108275084306605,0.6187334607419233
1681266043706154000,2.714154052734375,-0.2528992295265198,-0.15694114565849304,0.1001320481300354,0.9750272035598755,-0.019457286223769188,0.22123132646083832,-0.0005247592926025391,0.07570113986730576,-0.03981947898864746,0.07621521766559389,-0.7735099816981792,0.11089620646867407,0.6193347570854708
1681266043716198000,2.724197998046875,-0.3433592915534973,-0.18361501395702362,0.034086186438798904,0.9753866791725159,-0.020760538056492805,0.21952159702777863,-0.043257832527160645,0.08419127762317657,-0.02944275736808777,0.07490537801299833,-0.7730698444120323,0.1101081989607263,0.6201841367925839
1681266043726241800,2.73424169921875,-0.42786461114883423,-0.20689690113067627,0.018256891518831253,0.9758064150810242,-0.021819788962602615,0.21754443645477295,-0.08429652452468872,0.07534758746623993,0.0023348331451416016,0.07346320163102553,-0.7725960673350314,0.10893820235579921,0.6211528504514825
1681266043736286000,2.744285888671875,-0.5930055379867554,-0.23167940974235535,-0.00233307178132236,0.9762738943099976,-0.02298288606107235,0.21531611680984497,-0.08732742071151733,0.02543950453400612,0.029633313417434692,0.07160429084975066,-0.7721022955801681,0.10731310863139848,0.6222658277650016
1681266043746329900,2.754329833984375,-0.8323062658309937,-0.2579781413078308,-0.04625711962580681,0.9768120646476746,-0.024265505373477936,0.2127188742160797,-0.05728691816329956,-0.012065734714269638,0.06979766488075256,0.06906211236249282,-0.7715916151734244,0.10490860168395907,0.623595190315504
1681266043756373800,2.764373779296875,-1.1084814071655273,-0.2053327113389969,-0.09909556806087494,0.9773233532905579,-0.02559421956539154,0.2101995199918747,-0.04618644714355469,-0.043268755078315735,0.10281932353973389,0.06566287477687632,-0.7712303706371829,0.10150603430994207,0.6249708541248304
1681266043766418000,2.77441796875,-1.4071623086929321,-0.1221880242228508,-0.16942858695983887,0.9776976108551025,-0.02694091573357582,0.20828302204608917,-0.05882847309112549,-0.030325371772050858,0.15403704345226288,0.061284016226029595,-0.7711905245344354,0.09698808189946635,0.6261811654177494
1681266043776461800,2.7844619140625,-1.5406551361083984,-0.08884598314762115,-0.26111483573913574,0.9779647588729858,-0.027895061299204826,0.20689818263053894,-0.06277310848236084,0.026948967948555946,0.1695057451725006,0.05625330548809912,-0.7714210811762723,0.09142543283587198,0.6272053049190993
1681266043786506000,2.794506103515625,-1.3867517709732056,-0.04443378001451492,-0.3300720453262329,0.9781879186630249,-0.028015239164233208,0.20582357048988342,-0.04377037286758423,0.09785465896129608,0.14393842220306396,0.05147897201484291,-0.7717454373732604,0.0855614635095753,0.6280430368413477
1681266043796550000,2.8045498046875,-1.066198468208313,0.026137415319681168,-0.28153276443481445,0.9782924056053162,-0.02743580751121044,0.2054050713777542,-0.017232835292816162,0.15321394801139832,0.056649476289749146,0.047743841318469406,-0.7721561390709311,0.08048247799183188,0.6285045493007917
1681266043806593800,2.81459375,-0.8761123418807983,0.07643947005271912,-0.14121292531490326,0.9782268404960632,-0.027301516383886337,0.20573456585407257,0.011732697486877441,0.14085736870765686,-0.0578615665435791,0.04467239314496057,-0.7726549826015296,0.07662609137768824,0.6285992707454288
1681266043816638000,2.824637939453125,-0.628446102142334,0.08701908588409424,-0.035221781581640244,0.9780606627464294,-0.028035316616296768,0.20642559230327606,0.07659631967544556,0.014943208545446396,-0.10808262228965759,0.04197382606759057,-0.7731405547771019,0.07393563788188003,0.6285105057081122
1681266043826681900,2.834681884765625,-0.3731014132499695,-0.018493494018912315,0.0488763190805912,0.9779842495918274,-0.029167067259550095,0.20662976801395416,0.15482813119888306,-0.09368149191141129,-0.15203380584716797,0.0399398262379179,-0.7733573193858359,0.07234180712451425,0.6285617200377995
1681266043836726000,2.84472607421875,0.05533653870224953,-0.13753025233745575,0.18836896121501923,0.9781086444854736,-0.030613770708441734,0.2058294117450714,0.1571144461631775,-0.04018707200884819,-0.1877172291278839,0.03896933164550579,-0.7731081111187855,0.07223953974974553,0.6289407654257806
1681266043846770700,2.854770751953125,0.4208889603614807,-0.20946729183197021,0.3319080173969269,0.9783895015716553,-0.03264492005109787,0.20417721569538116,0.07416170835494995,0.0189119353890419,-0.2628929316997528,0.039215237975449575,-0.7724034623852939,0.07403712214294503,0.6295820772236458
1681266043856814800,2.86481494140625,0.40554168820381165,-0.24297624826431274,0.40250256657600403,0.9787233471870422,-0.035413891077041626,0.202104389667511,0.03952598571777344,-0.054048433899879456,-0.3140122890472412,0.03978751209324515,-0.7714639129690534,0.0767829670930925,0.6303686508753215
1681266043866859000,2.87485888671875,0.3437001705169678,-0.24508175253868103,0.44690945744514465,0.9790554046630859,-0.03883461281657219,0.19985495507717133,0.08085036277770996,-0.0825948715209961,-0.18247511982917786,0.0399655804726099,-0.7704550625273435,0.0795391411979204,0.6312488401871571
1681266043876903000,2.88490283203125,0.3326321542263031,-0.28249895572662354,0.4232688248157501,0.9793998599052429,-0.0424669124186039,0.197413370013237,0.13949638605117798,-0.054350145161151886,-0.0786999762058258,0.03999054159814146,-0.7693771386060172,0.08225270083565041,0.6322134654199544
1681266043886946800,2.89494677734375,0.33758988976478577,-0.31686171889305115,0.35562267899513245,0.9798199534416199,-0.045650724321603775,0.19459868967533112,0.1467820405960083,0.005962565541267395,-0.08226346969604492,0.04016444528659624,-0.7681895704356652,0.08475924824956234,0.6333146028459171
1681266043896990700,2.90499072265625,0.3371839225292206,-0.32276061177253723,0.2819593846797943,0.9802947044372559,-0.04812552407383919,0.1915884017944336,0.07552176713943481,0.10142441093921661,-0.05480849742889404,0.04060549940747429,-0.7669572951078395,0.08700981735588328,0.6344737656402483
1681266043907035000,2.915034912109375,0.30606088042259216,-0.310405433177948,0.21058505773544312,0.9807767271995544,-0.049930837005376816,0.18863564729690552,0.00419306755065918,0.14748024940490723,0.01195642352104187,0.04120083098643193,-0.7657750573948898,0.08891785641955385,0.6355977266812441
1681266043917079000,2.9250791015625,0.29917222261428833,-0.2761520743370056,0.14981518685817719,0.9812336564064026,-0.051137685775756836,0.18591657280921936,-0.027681708335876465,0.16408318281173706,0.10232195258140564,0.04191322672192994,-0.7647001962161654,0.09050911423729943,0.636619817922214
1681266043927123000,2.935123046875,0.31095004081726074,-0.23079444468021393,0.08613766729831696,0.9816466569900513,-0.051703695207834244,0.18356578052043915,-0.043216049671173096,0.17835159599781036,0.17002618312835693,0.04283328438671826,-0.7637685906112609,0.09187182133107319,0.6374812549157315
1681266043937166800,2.945166748046875,0.268892765045166,-0.17077581584453583,0.027825362980365753,0.981988251209259,-0.05172911286354065,0.18172183632850647,-0.08120107650756836,0.19790825247764587,0.20601928234100342,0.04386939158155395,-0.7630296916859088,0.09298712619541881,0.6381335498995518
1681266043947210800,2.955210693359375,0.10279326885938644,-0.08686548471450806,-0.04574339836835861,0.9822280406951904,-0.051286473870277405,0.18054787814617157,-0.11633765697479248,0.20370647311210632,0.2442721128463745,0.044705425050142356,-0.7625762027553917,0.09354929425862417,0.6385353382096924
1681266043957255000,2.9652548828125,-0.11982801556587219,0.023320620879530907,-0.1107863113284111,0.9823320508003235,-0.0504864864051342,0.1802069991827011,-0.10791206359863281,0.18416868150234222,0.27014100551605225,0.044940582497828854,-0.7625094248353327,0.09318194485930792,0.6386522758666071
1681266043967299000,2.975299072265625,-0.3108839690685272,0.14990653097629547,-0.16115733981132507,0.9822502136230469,-0.049514658749103546,0.18092145025730133,-0.0802118182182312,0.14457687735557556,0.28357136249542236,0.044518876632222294,-0.7628894953453621,0.09198013496990319,0.6384021162445183
1681266043977342700,2.9853427734375,-0.43340396881103516,0.2749948799610138,-0.19890844821929932,0.9819427132606506,-0.04840686917304993,0.18288064002990723,-0.06929934024810791,0.11450789123773575,0.2770651578903198,0.0435514338577014,-0.7637537120071147,0.09011429227619186,0.6377013381896479
1681266043987388000,2.995387939453125,-0.37685227394104004,0.3816068172454834,-0.2240590751171112,0.9814371466636658,-0.047063663601875305,0.18591880798339844,-0.0771099328994751,0.11369873583316803,0.22492408752441406,0.042491953679152705,-0.7649903560112338,0.0880293287869204,0.6365806322280191
1681266043997432000,3.00543212890625,-0.20388548076152802,0.4587671756744385,-0.2033143788576126,0.980729341506958,-0.04547201469540596,0.19000568985939026,-0.08531320095062256,0.11856155097484589,0.15263044834136963,0.04188247231281468,-0.7665147558948657,0.08635955801634126,0.6350141348154652
1681266044007476000,3.01547607421875,-0.03361760452389717,0.457760214805603,-0.19455550611019135,0.979926586151123,-0.04374149069190025,0.1944996416568756,-0.07793402671813965,0.10331176221370697,0.07155260443687439,0.04187050592121363,-0.7680947338857685,0.0853246722256281,0.6332431072904464
1681266044017519900,3.025519775390625,0.05301551893353462,0.49623236060142517,-0.19550839066505432,0.9790746569633484,-0.04173681139945984,0.1991749405860901,-0.06287604570388794,0.07934968173503876,0.013166427612304688,0.04236885760808222,-0.7696834790550112,0.08470427457733425,0.6313614817478796
1681266044027563800,3.035563720703125,0.0990021824836731,0.4827152192592621,-0.19123615324497223,0.9781493544578552,-0.039630793035030365,0.20409055054187775,-0.05307018756866455,0.04768737405538559,-0.018452048301696777,0.04309985238513851,-0.7713220547128798,0.08430637674265587,0.6293623916577058
1681266044037608000,3.04560791015625,0.18014483153820038,0.49399155378341675,-0.13695693016052246,0.977193295955658,-0.03765961155295372,0.2089851349592209,-0.03621441125869751,0.025742430239915848,-0.023285627365112305,0.04395340989841742,-0.7729220937921374,0.08416652589896467,0.6273559057482713
1681266044047651800,3.05565185546875,0.3126826286315918,0.4579389989376068,-0.0850689634680748,0.9762135744094849,-0.03604493662714958,0.21379339694976807,-0.016176462173461914,0.023700527846813202,-0.047960877418518066,0.04506995653865559,-0.7744249363896444,0.08463282796515227,0.6253574153117639
1681266044057695700,3.06569580078125,0.3310818672180176,0.41648516058921814,-0.03549608588218689,0.9752941131591797,-0.034708667546510696,0.21816687285900116,0.021440505981445312,-0.017796896398067474,-0.1545223891735077,0.04635475191572495,-0.7757398395571726,0.08550520299403906,0.6235124803231197
1681266044067740000,3.075739990234375,0.326308935880661,0.4023222029209137,0.0012558040907606483,0.9743862152099609,-0.03380266949534416,0.22232627868652344,0.07081025838851929,-0.049037352204322815,-0.177633136510849,0.04750597053742243,-0.7769636861887698,0.08654806408435409,0.6217556514297156
1681266044077783800,3.08578369140625,0.4134649336338043,0.38516965508461,0.005346686113625765,0.9734840393066406,-0.0329880453646183,0.22636403143405914,0.0969046950340271,-0.08950956165790558,-0.18368515372276306,0.04877390726734458,-0.7781202536976415,0.08781164042597046,0.6200315486361732
1681266044087828000,3.095827880859375,0.4788348972797394,0.3175341486930847,0.03233302757143974,0.9726669788360596,-0.032077547162771225,0.22997832298278809,0.11208027601242065,-0.10064346343278885,-0.21644362807273865,0.05032366989650022,-0.7791079574248578,0.08933056907580497,0.6184483725674749
1681266044097872000,3.105871826171875,0.5598209500312805,0.23257207870483398,0.06186242401599884,0.9720100164413452,-0.0313250795006752,0.23284193873405457,0.12672966718673706,-0.04608282446861267,-0.19989806413650513,0.05208262740908567,-0.7798111364796044,0.09118968744909119,0.6171438160457845
1681266044107915800,3.115915771484375,0.5828818082809448,0.15654602646827698,0.07807867974042892,0.9715411067008972,-0.030610546469688416,0.23488463461399078,0.14787405729293823,-0.03874070197343826,-0.1721862554550171,0.05406436237044023,-0.7802161097206823,0.09330134718342425,0.6161450093577383
1681266044117961000,3.1259609375,0.5324877500534058,0.08966599404811859,0.10151796042919159,0.9712139368057251,-0.030154624953866005,0.23629210889339447,0.14852160215377808,-0.04691758006811142,-0.1703587770462036,0.05591371998759537,-0.7804126652683266,0.09540507969507388,0.6154084059456774
1681266044128004900,3.1360048828125,0.6018545627593994,0.0038610792253166437,0.1138654351234436,0.9710699915885925,-0.0298598762601614,0.23692061007022858,0.12815779447555542,-0.048494044691324234,-0.15028119087219238,0.057766423293001405,-0.7803455361245686,0.09757638690221879,0.6149818662446278
1681266044138048800,3.146048828125,0.7190147042274475,-0.0750938355922699,0.13294778764247894,0.9711049199104309,-0.02947387658059597,0.23682589828968048,0.10331207513809204,-0.05885929614305496,-0.1493624448776245,0.05996298785931884,-0.7800026249544592,0.10004426679016672,0.6148101013990567
1681266044148093000,3.156093017578125,0.7811145782470703,-0.15312178432941437,0.13443143665790558,0.971358060836792,-0.02902877889573574,0.23584094643592834,0.09130978584289551,-0.026818426325917244,-0.18109235167503357,0.06257058446084475,-0.7793155150482042,0.10289703902427189,0.6149508029752592
1681266044158136800,3.16613671875,0.7754346132278442,-0.20579083263874054,0.119186170399189,0.9717552065849304,-0.02833878993988037,0.23428256809711456,0.09791618585586548,-0.0006224382668733597,-0.15837004780769348,0.06537347532906947,-0.7784351218764329,0.10573573779125456,0.6152924818164842
1681266044168181000,3.176180908203125,0.6821520924568176,-0.21817399561405182,0.09589628875255585,0.9722122550010681,-0.02775970846414566,0.23244896531105042,0.07707351446151733,0.008167371153831482,-0.08568990230560303,0.06798110539360509,-0.7774823500600739,0.10837749547309533,0.6157548105756597
1681266044178225000,3.186224853515625,0.5239951610565186,-0.2281499058008194,0.052509669214487076,0.9727208018302917,-0.027035409584641457,0.2303977608680725,0.0627710223197937,-0.009921412914991379,-0.056828975677490234,0.07025275071638346,-0.7765311730047917,0.1104455327766837,0.6163323582052623
1681266044188268800,3.196268798828125,0.3579041659832001,-0.1950816959142685,0.013501817360520363,0.9732018113136292,-0.026360318064689636,0.22843657433986664,0.057987093925476074,0.012093299999833107,-0.012097328901290894,0.07196757034537299,-0.7756979218872875,0.11185268656143503,0.6169297864888604
1681266044198312700,3.206312744140625,0.2353934347629547,-0.1662931591272354,-0.022426621988415718,0.9736131429672241,-0.025631817057728767,0.22676119208335876,0.018376052379608154,0.034741275012493134,0.040344059467315674,0.07323736062230736,-0.7750374019191584,0.11268373634431225,0.6174591357384854
1681266044208356900,3.21635693359375,0.1974111646413803,-0.13628199696540833,-0.06630033999681473,0.9739686846733093,-0.02475740946829319,0.22532643377780914,-0.0321657657623291,0.040184006094932556,0.07385268807411194,0.07425136520549307,-0.7745135999135708,0.1131012846247422,0.6179186818735325
1681266044218401000,3.226401123046875,0.22789129614830017,-0.09452804177999496,-0.11161242425441742,0.9742537140846252,-0.023368649184703827,0.22424030303955078,-0.06591331958770752,0.06487251818180084,0.10141292214393616,0.07542821388684172,-0.7741264235568357,0.11335091251509159,0.618215561745926
1681266044228445400,3.236445556640625,0.283677339553833,-0.06322231888771057,-0.12405551224946976,0.9744621515274048,-0.021618735045194626,0.22350765764713287,-0.09769237041473389,0.10992132127285004,0.12007449567317963,0.07684922021211564,-0.7738447840274358,0.11365772558479871,0.6183366371569629
1681266044238489600,3.246489501953125,0.3182174265384674,-0.023868966847658157,-0.13834737241268158,0.974589467048645,-0.019640285521745682,0.2231345772743225,-0.1202806830406189,0.1282065361738205,0.14379355311393738,0.07846246725860948,-0.7736645196418219,0.11406356324939515,0.6182848180949827
1681266044248533800,3.25653369140625,0.2998964786529541,-0.011442923918366432,-0.13389696180820465,0.9746444821357727,-0.017570646479725838,0.2230684608221054,-0.13933253288269043,0.0972825139760971,0.16871637105941772,0.08012848495824862,-0.7735789695759385,0.11449806225165567,0.6180980971835965
1681266044258578400,3.266578369140625,0.21840299665927887,-0.013614405877888203,-0.12926599383354187,0.9746960401535034,-0.015674524009227753,0.22298431396484375,-0.1565503478050232,0.055164240300655365,0.16980746388435364,0.08156802448405837,-0.7735092037980206,0.11478532500646747,0.617943797843127
1681266044268622600,3.27662255859375,0.087835393846035,-0.010247371159493923,-0.12347547709941864,0.9747427701950073,-0.014058617874979973,0.2228870391845703,-0.15970999002456665,0.015630237758159637,0.1525096893310547,0.08258327126774606,-0.7734811249938273,0.11476267483099765,0.6178481848247386
1681266044278666800,3.286666748046875,-0.0022213722113519907,-0.029003363102674484,-0.08809671550989151,0.9747953414916992,-0.012895752675831318,0.222727432847023,-0.15051573514938354,-0.015699263662099838,0.15091454982757568,0.08308947189782957,-0.7734751052665151,0.11445512202902815,0.6178449087106745
1681266044288710700,3.296710693359375,-0.047695647925138474,-0.044697105884552,-0.08762399852275848,0.9748899340629578,-0.012096075341105461,0.2223576158285141,-0.12906497716903687,-0.04756584390997887,0.11769984662532806,0.08327395729573098,-0.7734215073389807,0.1140086845836552,0.6179696535082116
1681266044298754800,3.3067548828125,0.03417418524622917,-0.041758544743061066,-0.08141563832759857,0.9749966263771057,-0.01124631054699421,0.22193406522274017,-0.09879142045974731,-0.027831491082906723,0.1002248227596283,0.08352273256845033,-0.7733451900606616,0.11359685769131168,0.618107404018057
1681266044308798500,3.316798583984375,0.14016559720039368,-0.04460173472762108,-0.04957621917128563,0.9750981330871582,-0.01036340557038784,0.22153155505657196,-0.06758171319961548,0.047060757875442505,0.08867970108985901,0.08412476379891275,-0.7732141442090201,0.11360311352927392,0.6181886909851952
1681266044318842600,3.326842529296875,0.13853856921195984,-0.03595125675201416,-0.04595378786325455,0.9751909971237183,-0.009546867571771145,0.2211587280035019,-0.019105911254882812,0.05349215120077133,0.057497382164001465,0.0848800194246674,-0.7730562480825132,0.11385691881079255,0.6182361520356029
1681266044328886500,3.336886474609375,0.06440147757530212,-0.054275937378406525,-0.03704071789979935,0.9752905964851379,-0.008882783353328705,0.2207467406988144,0.021520137786865234,0.019975896924734116,0.036424994468688965,0.08543564762970889,-0.7729052865680918,0.11397714313208467,0.6183262143157806
1681266044338930700,3.3469306640625,-0.017886923626065254,-0.057445183396339417,-0.01990434341132641,0.9753881096839905,-0.008524551056325436,0.22032999992370605,0.05248969793319702,-0.010915188118815422,0.019858628511428833,0.08565446871011953,-0.7727791916561149,0.11391805346255314,0.618464450975266
1681266044348974600,3.356974609375,-0.04366685450077057,-0.05837196856737137,-0.00777151295915246,0.9754913449287415,-0.008466259576380253,0.21987469494342804,0.08450621366500854,-0.024446990340948105,-0.006098955869674683,0.08557312968156214,-0.7726614830190415,0.11371710485666074,0.6186597115149732
1681266044359018500,3.3670185546875,0.07006028294563293,-0.09051185101270676,0.038660965859889984,0.9756332635879517,-0.008581430651247501,0.21923942863941193,0.10919016599655151,-0.002206585370004177,-0.023377537727355957,0.0855776445841448,-0.7724525595679443,0.11373985178609364,0.6189157523631387
1681266044369062700,3.377062744140625,0.2880306839942932,-0.1537771075963974,0.12999939918518066,0.975886344909668,-0.009007002227008343,0.21809296309947968,0.12680518627166748,0.02818724513053894,-0.047698020935058594,0.08609728318829295,-0.7719556028058357,0.11459070444249787,0.6193066159513294
1681266044379107800,3.38710791015625,0.3621160387992859,-0.18521912395954132,0.19566869735717773,0.9762536883354187,-0.009880085475742817,0.21640464663505554,0.13296860456466675,0.012931818142533302,-0.10536634922027588,0.08698686978750042,-0.7711694475192872,0.11618952912880287,0.6198635946570021
1681266044389151500,3.3971513671875,0.2656579315662384,-0.18130934238433838,0.22903862595558167,0.9766258001327515,-0.011242813430726528,0.21465237438678741,0.11921465396881104,-0.020266622304916382,-0.11002275347709656,0.08770344160215357,-0.7703341698879431,0.11794683298646419,0.6204690934068456
1681266044399195600,3.407195556640625,0.04997164011001587,-0.1639515906572342,0.23288875818252563,0.9769739508628845,-0.013188428245484829,0.21295037865638733,0.10595744848251343,-0.06717964261770248,-0.07957327365875244,0.08770220125664407,-0.7695770378157734,0.11927434868905616,0.6211546333448751
1681266044409239600,3.417239501953125,-0.07846755534410477,-0.1592729538679123,0.19928446412086487,0.9772731065750122,-0.015365978702902794,0.2114264965057373,0.09807473421096802,-0.07160916179418564,-0.03347846865653992,0.08702195989923439,-0.7689747026610732,0.11996314493981532,0.6218632816743308
1681266044419283700,3.42728369140625,-0.05192219465970993,-0.20152784883975983,0.18220402300357819,0.9776208400726318,-0.01737934723496437,0.20965488255023956,0.07143598794937134,0.0033259745687246323,0.016007408499717712,0.08626309432389705,-0.7683308131725586,0.1203960253171062,0.6226805809657896
1681266044429327600,3.43732763671875,-0.0031192381866276264,-0.22973020374774933,0.1716001033782959,0.9780487418174744,-0.01917986012995243,0.20749053359031677,0.024056732654571533,0.0817103385925293,0.011885151267051697,0.08574635797143085,-0.7675449099080757,0.12091352151929838,0.623620171032075
1681266044439371500,3.44737158203125,0.004657573066651821,-0.23340855538845062,0.1516578197479248,0.9784990549087524,-0.02074945718050003,0.2052040994167328,-0.03999215364456177,0.11955008655786514,-0.0013771206140518188,0.08539615102215611,-0.7667166478220776,0.12143981655832191,0.6245841051652725
1681266044449415700,3.457415771484375,0.015066538006067276,-0.24428889155387878,0.1601695567369461,0.978963315486908,-0.022248897701501846,0.20281881093978882,-0.07349175214767456,0.13284458220005035,0.005921468138694763,0.08507588273818362,-0.7658597359383007,0.1219355232386766,0.6255817809433277
1681266044459459600,3.46745947265625,0.06360184401273727,-0.2538553774356842,0.1593407839536667,0.979443371295929,-0.0237279050052166,0.20031900703907013,-0.054882824420928955,0.11578414589166641,0.019575506448745728,0.08489601309545751,-0.7649415033267248,0.12257243473184622,0.6266044776964704
1681266044469503700,3.477503662109375,0.14809195697307587,-0.27560117840766907,0.15774421393871307,0.9799483418464661,-0.025083228945732117,0.1976664662361145,-0.016462624073028564,0.09960711002349854,0.04000452160835266,0.08495529132701914,-0.7639434143866705,0.12338433419491483,0.6276538296394639
1681266044479547600,3.487547607421875,0.25260210037231445,-0.2975403070449829,0.16424286365509033,0.9804800152778625,-0.026282867416739464,0.19485273957252502,-0.0029259920120239258,0.13234668970108032,0.047762006521224976,0.0853999094096133,-0.7628374759111486,0.12452051018870354,0.6287131692110396
1681266044489591600,3.497591552734375,0.2756213843822479,-0.3230816125869751,0.21161755919456482,0.9810341596603394,-0.027576381340622902,0.19186250865459442,-0.007630407810211182,0.12031927704811096,0.017945870757102966,0.08604472294423793,-0.7616226950015402,0.12594493181077823,0.6298133904127502
1681266044499636700,3.50763671875,0.2137250304222107,-0.3514063060283661,0.2521021366119385,0.9816139340400696,-0.02937367744743824,0.18860213458538055,0.001784205436706543,0.07200668752193451,0.01081499457359314,0.08648308174075922,-0.7602975501107103,0.12747038656354243,0.6310462875457239
1681266044509680400,3.517680419921875,0.12867698073387146,-0.3562804162502289,0.2825431227684021,0.9821984767913818,-0.03169150650501251,0.18515241146087646,0.022195816040039062,0.043898507952690125,0.012281164526939392,0.08651827911452396,-0.7589238103857983,0.12888310411246545,0.6324066806205282
1681266044519724500,3.527724609375,0.004804123193025589,-0.3516049385070801,0.30602264404296875,0.9827553629875183,-0.03444044291973114,0.1816742867231369,0.030916333198547363,0.04841747134923935,0.00639033317565918,0.0860934756121021,-0.7575746146965093,0.13006863435777,0.6338380722715965
1681266044529768700,3.537768798828125,-0.13030362129211426,-0.33809101581573486,0.2914237082004547,0.9832704067230225,-0.03753937408328056,0.1782410889863968,0.03616917133331299,0.07239042222499847,0.0009429454803466797,0.08509766272318259,-0.7563067539165418,0.13084584427837417,0.6353249129964749
1681266044539812600,3.5478125,-0.10816572606563568,-0.3446097671985626,0.278926819562912,0.9837566018104553,-0.04055161774158478,0.17486634850502014,0.04583001136779785,0.10695783793926239,0.003508925437927246,0.08393309826682281,-0.7551003501639458,0.13136451600880586,0.6368060679800058
1681266044549856800,3.557856689453125,-0.027795251458883286,-0.40689709782600403,0.2859823405742645,0.984287679195404,-0.04346384108066559,0.17113876342773438,0.06061875820159912,0.144202321767807,-0.020854830741882324,0.0830197448427839,-0.7537431179467279,0.13206322973370407,0.6383872439411875
1681266044559900400,3.567900390625,0.03725101053714752,-0.45595982670783997,0.2692084312438965,0.9848977327346802,-0.04618089646100998,0.16686397790908813,0.080455482006073,0.1779252588748932,-0.06394338607788086,0.08245307559359843,-0.7521668106795564,0.13295518321660973,0.6401323543994571
1681266044569944600,3.577944580078125,0.07428386807441711,-0.47049853205680847,0.28595438599586487,0.9855359792709351,-0.04877966269850731,0.16229301691055298,0.07882541418075562,0.19061006605625153,-0.0765080451965332,0.08210585833355184,-0.7504644274329213,0.1339763005964274,0.6419594874747887
1681266044579988700,3.58798876953125,0.12508940696716309,-0.46705320477485657,0.31792110204696655,0.9861401319503784,-0.0516195073723793,0.1576794683933258,0.05969715118408203,0.19395345449447632,-0.08214843273162842,0.08180785501360804,-0.7487007571061184,0.13522909729545457,0.6437915946135939
1681266044590032600,3.59803271484375,0.2122884839773178,-0.48618564009666443,0.39974379539489746,0.9866845011711121,-0.05484716221690178,0.15311801433563232,0.05896961688995361,0.19065037369728088,-0.10680760443210602,0.08163800267286657,-0.7468671557690248,0.1369250236404346,0.6455819461375635
1681266044600076800,3.608076904296875,0.3086220324039459,-0.5829979777336121,0.52815181016922,0.9872204661369324,-0.05909094959497452,0.14799848198890686,0.08242040872573853,0.18770724534988403,-0.13319744169712067,0.08147357126687499,-0.7447079240308296,0.13931744400348145,0.6475821369612408
1681266044610120400,3.618120361328125,0.7090852856636047,-0.6339448094367981,0.537036120891571,0.9877901673316956,-0.06373281031847,0.14215615391731262,0.10275530815124512,0.1227537989616394,-0.12468482553958893,0.08183290732943622,-0.7421391605971221,0.14250453301505517,0.6497885368256955
1681266044620165600,3.62816552734375,1.2830734252929688,-0.8374513387680054,0.7568848729133606,0.9884043335914612,-0.06857261806726456,0.135479137301445,0.07452279329299927,0.17950397729873657,-0.17559444904327393,0.0841128660793374,-0.7388295384472281,0.1478867260250076,0.6520624290718735
1681266044630209800,3.638209716796875,1.58170747756958,-0.9755913615226746,0.6932473182678223,0.9890711307525635,-0.07395195960998535,0.1275520771741867,0.011264562606811523,0.33602163195610046,-0.2688636779785156,0.08783867723797445,-0.7346633278131407,0.1550671906583574,0.6546055015107194
1681266044640253400,3.64825341796875,1.3578400611877441,-1.0125271081924438,0.7177917957305908,0.989770233631134,-0.07911331951618195,0.1187267005443573,-0.019173920154571533,0.23182326555252075,-0.37267863750457764,0.09172206946551993,-0.7301427891254771,0.16203351109545225,0.6574372506427276
1681266044650297600,3.658297607421875,1.2328006029129028,-1.0123825073242188,0.7146242260932922,0.9903433322906494,-0.08477454632520676,0.10969594120979309,0.0016914606094360352,0.26322609186172485,-0.1738896369934082,0.09489167148505454,-0.7255869022128084,0.16843876225387958,0.6604146573198432
1681266044660341800,3.668341796875,1.0904525518417358,-0.9816270470619202,0.6729830503463745,0.9907901287078857,-0.0904364213347435,0.10077644884586334,0.006890356540679932,0.2662634551525116,-0.1219250038266182,0.09769183923950152,-0.721101944695307,0.1743565562617942,0.6633761743924149
1681266044670385700,3.6783857421875,0.9730374813079834,-0.9501546025276184,0.7149425148963928,0.9910810589790344,-0.09626397490501404,0.0921490490436554,-0.036918580532073975,0.31605157256126404,-0.12152218818664551,0.09999215028645254,-0.7167590728449847,0.17980810805728287,0.6662784517984013
1681266044680429800,3.688429931640625,0.7217618823051453,-0.946931004524231,0.7700393199920654,0.9911699295043945,-0.10295318067073822,0.08356111496686935,-0.06020087003707886,0.3443930149078369,-0.12768948078155518,0.10142868946442672,-0.7124587622907862,0.18488664059756932,0.6692768604297653
1681266044690473500,3.698473388671875,0.3043276369571686,-0.8703768253326416,0.7018384337425232,0.9911023378372192,-0.10992372035980225,0.07505138218402863,-0.03159928321838379,0.27845704555511475,-0.09859561920166016,0.1016308278036912,-0.7084319214641704,0.1888118180526508,0.6724175704643848
1681266044700517600,3.708517578125,0.010630510747432709,-0.7967719435691833,0.6138023138046265,0.9909574389457703,-0.116299569606781,0.06691349297761917,-0.02142941951751709,0.3008241057395935,-0.03636527061462402,0.10074617774942962,-0.7049115871857283,0.1911972783689293,0.6755688887469519
1681266044710561500,3.7185615234375,-0.16596822440624237,-0.7397611737251282,0.6074679493904114,0.9907154440879822,-0.12238013744354248,0.05920862406492233,-0.037743210792541504,0.3730515241622925,-0.006184224039316177,0.09911460872316548,-0.7017751233659193,0.19265510176595232,0.6786544208385142
1681266044720605700,3.728605712890625,-0.24087966978549957,-0.7270200848579407,0.5663290619850159,0.99038165807724,-0.12835338711738586,0.051665324717760086,-0.029368042945861816,0.41810256242752075,-0.0036305226385593414,0.09708356364547302,-0.6988060828561602,0.193656191191226,0.6817198835944652
1681266044730649600,3.738649658203125,-0.2008851170539856,-0.7344772219657898,0.46939557790756226,0.9900577068328857,-0.13357064127922058,0.044095221906900406,-0.012732446193695068,0.45432567596435547,-0.04343903437256813,0.09522429668516914,-0.6959108222890844,0.1943083600548253,0.6847514890294873
1681266044740694500,3.748694580078125,0.025649825111031532,-0.7652745842933655,0.3772009313106537,0.9897899031639099,-0.13778136670589447,0.03649695962667465,-0.015974104404449463,0.5187323093414307,-0.07027983665466309,0.09417525424119555,-0.6929587959085358,0.19508097631458574,0.6876644728629725
1681266044750738700,3.75873876953125,0.3557334542274475,-0.7968317270278931,0.2929803431034088,0.9895898699760437,-0.14097267389297485,0.028960594907402992,-0.0294000506401062,0.6206937432289124,-0.0892937183380127,0.09447336670376301,-0.6898312315552176,0.1965023384392016,0.6903582677898285
1681266044760782600,3.768782470703125,0.6576173305511475,-0.8322108387947083,0.20558390021324158,0.9894537329673767,-0.1432323008775711,0.02158362977206707,-0.04047912359237671,0.7004527449607849,-0.10910797119140625,0.09621952858336864,-0.6865136436866608,0.19872300211881477,0.6927842534017398
1681266044770826500,3.778826416015625,0.8598660826683044,-0.8162797689437866,0.09570534527301788,0.9894002079963684,-0.14449696242809296,0.014410154893994331,-0.04157012701034546,0.7249718308448792,-0.09253501892089844,0.0991970539471945,-0.6830930916461738,0.20146688434055213,0.694949449543387
1681266044780870700,3.78887060546875,1.0484743118286133,-0.7953433394432068,-0.006647392641752958,0.9894420504570007,-0.14471900463104248,0.007774948142468929,-0.055100858211517334,0.7239121198654175,-0.06453752517700195,0.10314169186528829,-0.6797621945966166,0.20447697381972532,0.696759731987571
1681266044790914600,3.79891455078125,1.2384623289108276,-0.8011975288391113,-0.07661715894937515,0.9895508289337158,-0.1441759467124939,0.0015006916364654899,-0.09315812587738037,0.7341417670249939,-0.060216426849365234,0.10804833371222408,-0.6764067352070798,0.2079044837851516,0.698265806143148
1681266044800958700,3.808958740234375,1.3632676601409912,-0.8296072483062744,-0.13445356488227844,0.989691436290741,-0.1431376338005066,-0.004738008603453636,-0.12834805250167847,0.7204386591911316,-0.07260870933532715,0.11370431574976447,-0.6729245719425803,0.21166841081382415,0.6996001271550241
1681266044811002600,3.819002685546875,1.3959952592849731,-0.85481858253479,-0.2313007414340973,0.9898875951766968,-0.14141561090946198,-0.011146212927997112,-0.15936696529388428,0.6897706985473633,-0.07904839515686035,0.119927513963999,-0.6693422888732847,0.21542468204306423,0.7008498788406557
1681266044821046500,3.829046630859375,1.4067682027816772,-0.8574977517127991,-0.3418634831905365,0.9901703596115112,-0.13874131441116333,-0.017704779282212257,-0.20380866527557373,0.6737754940986633,-0.07490074634552002,0.12656530978844835,-0.6657732833992508,0.21884594094934248,0.7020210695080453
1681266044831090700,3.839090576171875,1.4249637126922607,-0.8261438012123108,-0.45047569274902344,0.99053955078125,-0.13508212566375732,-0.024166835471987724,-0.23785406351089478,0.6761435270309448,-0.03728020191192627,0.13364675813966193,-0.6622995199245295,0.22198181982597923,0.7030091341269119
1681266044841134600,3.849134521484375,1.4422961473464966,-0.7654025554656982,-0.5478028059005737,0.990990936756134,-0.13048182427883148,-0.03018776886165142,-0.2666715383529663,0.6804085969924927,0.01772141456604004,0.1410363634497871,-0.6590681842386324,0.22480045357118164,0.7037062822377786
1681266044851179500,3.859179443359375,1.558527946472168,-0.7588181495666504,-0.6444363594055176,0.9915071129798889,-0.12502218782901764,-0.03581618517637253,-0.30148959159851074,0.7073891758918762,0.0175209678709507,0.14897412428671153,-0.655971216585581,0.22758222956440421,0.7040700483577029
1681266044861223700,3.8692236328125,1.5747096538543701,-0.7851069569587708,-0.7413807511329651,0.9920567274093628,-0.11871884763240814,-0.0415809229016304,-0.32901668548583984,0.7192285060882568,-0.039870381355285645,0.1574845805644646,-0.6528292145548312,0.23026844063871132,0.7042648019170886
1681266044871267600,3.879267578125,1.5580350160598755,-0.8063432574272156,-0.8525203466415405,0.9926219582557678,-0.11146224290132523,-0.04772310331463814,-0.35323309898376465,0.6954314112663269,-0.033712975680828094,0.16635594682164015,-0.6496622597948554,0.23254547363225334,0.7044054595103035
1681266044881311700,3.889311767578125,1.5435885190963745,-0.7780227065086365,-0.9535630941390991,0.9931917190551758,-0.10322856903076172,-0.05397900193929672,-0.3967563509941101,0.6847715973854065,-0.01163368672132492,0.17553297100636236,-0.6465813333422198,0.23439939873845464,0.7043986722940645
1681266044891355400,3.89935546875,1.5155587196350098,-0.7112088203430176,-1.0317870378494263,0.9937505125999451,-0.0941781997680664,-0.059916846454143524,-0.4634772539138794,0.6637888550758362,-0.0026746317744255066,0.1848933352283385,-0.6437281027867802,0.23591461737269973,0.7041112545988664
1681266044901399600,3.909399658203125,1.4888031482696533,-0.6290401816368103,-1.0965921878814697,0.994284987449646,-0.08447665721178055,-0.0652742013335228,-0.5254436135292053,0.6445353031158447,0.018994398415088654,0.19430928701503755,-0.6411897595774342,0.23714676848497027,0.7034776636783937
1681266044911443700,3.919443603515625,1.4380289316177368,-0.5351067781448364,-1.15876305103302,0.9947880506515503,-0.07421444356441498,-0.06991880387067795,-0.5771246552467346,0.6234698295593262,0.04597789794206619,0.20369611504421292,-0.6390147779876204,0.23811910866280875,0.7024721747488032
1681266044921487600,3.929487548828125,1.3816986083984375,-0.4328230023384094,-1.234757423400879,0.9952648878097534,-0.06326156854629517,-0.07379341125488281,-0.6220656037330627,0.5928636789321899,0.06096089631319046,0.21302168627681253,-0.6372623187367091,0.23874679442786953,0.7010836700269861
1681266044931531800,3.93953173828125,1.3457273244857788,-0.2963937819004059,-1.3218231201171875,0.9957221746444702,-0.05150463059544563,-0.07671055197715759,-0.6686500906944275,0.5720277428627014,0.06448835134506226,0.22233649462954364,-0.6359990590295224,0.23906049461925816,0.6992293570081588
1681266044941575400,3.949575439453125,1.3539891242980957,-0.09304893016815186,-1.3959565162658691,0.9961875677108765,-0.03891247510910034,-0.07807612419128418,-0.713472843170166,0.5664546489715576,0.08155524730682373,0.23160061446279886,-0.635426149568892,0.23915590350407692,0.6967058824702755
1681266044951619600,3.95961962890625,1.6814311742782593,0.027901196852326393,-1.4340095520019531,0.9966301321983337,-0.025912079960107803,-0.07782436907291412,-0.7564111351966858,0.5981929898262024,0.09543312340974808,0.2413859102673573,-0.6352562573257023,0.23986934369655427,0.6932855496662357
1681266044961664800,3.969664794921875,2.0270378589630127,0.054186269640922546,-1.475478172302246,0.9969457387924194,-0.01280728355050087,-0.07703837007284164,-0.7909674644470215,0.648549497127533,0.03901357203722,0.2523199471679582,-0.6348522645349598,0.24175073451224718,0.6890962795014227
1681266044971708400,3.97970849609375,2.1868386268615723,0.05710349977016449,-1.5443658828735352,0.9970816373825073,0.0006564451032318175,-0.07633834332227707,-0.7773094177246094,0.6604611277580261,-0.03062570095062256,0.26421343884512205,-0.634136019274156,0.244340620514897,0.6843685484993847
1681266044981752600,3.989752685546875,2.1543192863464355,0.052877891808748245,-1.6898906230926514,0.996993899345398,0.015151056461036205,-0.07598262280225754,-0.721282958984375,0.6410989761352539,-0.00331723690032959,0.2765987469720941,-0.6333514706819767,0.24672779409525566,0.6793263631980747
1681266044991796700,3.999796630859375,2.1431634426116943,0.11085410416126251,-1.889175534248352,0.996633768081665,0.03140036389231682,-0.07572876662015915,-0.6707062125205994,0.629930853843689,0.09004158526659012,0.28937509601376515,-0.6327869625117911,0.24842760558942578,0.6738888990486639
1681266045001840600,4.009840576171875,2.2813680171966553,0.24874752759933472,-2.099320650100708,0.9959554076194763,0.04969872161746025,-0.07484970986843109,-0.6385948061943054,0.6525871157646179,0.17093437910079956,0.3028787125529887,-0.6326022187217063,0.24977905640979242,0.6675995455157693
1681266045011884800,4.019884765625,2.521979331970215,0.41332367062568665,-2.2979536056518555,0.9948815107345581,0.06989488005638123,-0.07297403365373611,-0.6000452041625977,0.6996669173240662,0.23094838857650757,0.3174030082657489,-0.6327403822212687,0.2513017977374008,0.6601077302172156
1681266045021928400,4.029928466796875,2.926253318786621,0.5024991035461426,-2.506004810333252,0.9932626485824585,0.09193705022335052,-0.0705457404255867,-0.518622875213623,0.7689333558082581,0.27925556898117065,0.3333340570856177,-0.6328870861106711,0.2533398238236118,0.6512765857144529
1681266045031972600,4.03997265625,3.519303560256958,0.5685281753540039,-2.708310842514038,0.9909146428108215,0.1157035082578659,-0.0685611367225647,-0.4084104895591736,0.8589669466018677,0.3184696435928345,0.351343948311922,-0.6324344143426534,0.2564101092707654,0.6409663392450862
1681266045042016800,4.050016845703125,4.140998363494873,0.6184666156768799,-2.852968215942383,0.9877340197563171,0.14076143503189087,-0.06758354604244232,-0.2870963215827942,0.9591989517211914,0.3509851098060608,0.37159899859562845,-0.6309975050915856,0.26086466665038327,0.6290515594667854
1681266045052060700,4.060060791015625,4.714572429656982,0.6498597264289856,-2.985039710998535,0.9836599826812744,0.16661356389522552,-0.06821242719888687,-0.14526593685150146,1.0544863939285278,0.39069175720214844,0.39390243081806825,-0.6282997329209868,0.2667081430093878,0.6155867872031686
1681266045062105600,4.070105712890625,5.124200344085693,0.655129611492157,-3.3302865028381348,0.9784146547317505,0.19422073662281036,-0.07059100270271301,0.007730364799499512,1.153572916984558,0.4395486116409302,0.4181285406026517,-0.6245487212510213,0.2732094317779913,0.6003865720094296
1681266045072149500,4.0801494140625,5.452478885650635,0.5636175274848938,-3.6527159214019775,0.9714949131011963,0.22462551295757294,-0.07576828449964523,0.15687716007232666,1.2830649614334106,0.4814690351486206,0.44422175724743146,-0.619758521103852,0.27931207364012584,0.5835675514176906
1681266045082193700,4.090193603515625,5.819346904754639,0.5547100305557251,-3.866731643676758,0.9628223776817322,0.2567300796508789,-0.08403760194778442,0.3589394688606262,1.4501943588256836,0.4674605131149292,0.47178440457065607,-0.6137219451425824,0.2851781411690297,0.5651884926653267
1681266045092237800,4.10023779296875,5.85667610168457,0.5412653088569641,-4.0443902015686035,0.9524575471878052,0.28951922059059143,-0.0948854461312294,0.6150625944137573,1.580613374710083,0.40616482496261597,0.5000162931026554,-0.6066427709192558,0.29076076895952857,0.5453681623352957
1681266045102281500,4.110281494140625,5.339258670806885,0.4515543580055237,-4.29428243637085,0.9401538968086243,0.3233749568462372,-0.10742083191871643,0.9588938355445862,1.6809433698654175,0.3869466185569763,0.5275279166020115,-0.5995830407139374,0.2946010200106291,0.5248091773080532
1681266045112325600,4.12032568359375,4.326038837432861,-0.06138935685157776,-4.713092803955078,0.9249839186668396,0.3599472939968109,-0.12183000147342682,1.4454078674316406,1.7764816284179688,0.4107704758644104,0.5533369550580659,-0.5936922132048923,0.2943035073226547,0.5047109383483259
