,seconds_elapsed,rotationRateX,rotationRateY,rotationRateZ,gravityX,gravityY,gravityZ,accelerationX,accelerationY,accelerationZ,quaternionW,quaternionX,quaternionY,quaternionZ
0,2.48974,-0.0615011341869831,0.0034427093341946,0.0042964909225702,0.2569382488727569,0.4583899974822998,-0.8508003950119019,-0.0110580623149871,-0.0043646395206451,0.0005350112915039,0.9619159202983016,-0.2367310457948709,0.136228497201578,-0.0108614324834463
1,2.49974,-0.06147272847610699,0.002380518975469068,0.004066243118020149,0.2569363939421659,0.45847218187493866,-0.8507566491680917,-0.010316447713005019,-0.003526392094942294,0.00025199370682723525,0.9619046540424462,-0.23677778057204046,0.1362275192541639,-0.010852756416683155
2,2.50974,-0.06081129902351829,-0.003223968953733775,0.0027264737006918002,0.25691840428683504,0.45898344516943756,-0.8504863941161005,-0.005480649710226638,0.0016667143904154095,-0.0015767100113746584,0.9618350593663029,-0.2370684662243999,0.13621795437301154,-0.010798579924384516
3,2.51974,-0.05854949208787316,-0.0033183347291433707,0.0018037661531511207,0.2568666241934183,0.45947496075284333,-0.8502366076848035,-0.00044458979412836464,0.006259672537264448,-0.0029283530798588876,0.9617707476202532,-0.23734767319710454,0.1361901642285389,-0.010745467811247772
4,2.52974,-0.0604949257462687,-0.0036258793307963515,0.00018700954196688904,0.2568060806201223,0.4599620927876181,-0.8499914831845843,0.000309317601735877,0.009101581116685537,-0.0003924933056796489,0.9617075482474409,-0.23762418490668055,0.13615800709511827,-0.010693984874244878
5,2.53974,-0.060584992686328346,-0.00698692152186652,-0.002086690929012692,0.2567160971139149,0.46045317251327683,-0.8497527347631767,-0.00015950609874203862,0.01052931785565988,0.002261255412282964,0.9616460694617125,-0.23790156667780865,0.13611192484219028,-0.010649159246094065
6,2.54974,-0.06099076202282054,-0.008683613384864383,-0.003553722337457367,0.25658803247539064,0.4609429777289026,-0.8495258410451579,0.0013565727002789205,0.010901557014342245,0.00578034848693108,0.9615874002551061,-0.2381759898021728,0.13604878618351682,-0.01061727132521317
7,2.55974,-0.0674667064800489,-0.002413316533313327,-0.00029281459477004167,0.2564688057149946,0.46146368778301555,-0.849279080699132,0.004022038075771134,0.01150111623053317,0.009985681918275232,0.9615235187830393,-0.2384666851197004,0.13599292947199637,-0.010592650723229827
8,2.56974,-0.09752390984881827,0.005850635037509767,-0.005093888480569901,0.2564466280781127,0.4620847058946144,-0.8489479946102986,0.0035912014569352882,0.00876701233192417,0.01275903671834771,0.9614378681865725,-0.23881660358414233,0.1359874368663457,-0.010552719292439179
9,2.57974,-0.12209371871143132,0.010816113330294013,-0.017081897548876596,0.2563997625345491,0.46303419189464096,-0.848444658069716,-0.0018473996991473602,-0.0008483815567144876,0.020421709374570052,0.9613071053496743,-0.2393452507056474,0.13598336968812008,-0.010536659826862398
10,2.58974,-0.07705349813721357,0.01279845507193261,-0.020257764816252043,0.2563859036433108,0.463953845062583,-0.847946413553477,-0.009391371929244652,0.0013550509454150982,0.026892635119561626,0.9611771490088619,-0.2398497445719614,0.13601059115255318,-0.01057879298529141
11,2.59974,-0.017458268338519867,0.019582285564977472,-0.018033828495752264,0.25642341450332595,0.46439752030358616,-0.8476921962332387,-0.0030794975781342116,0.013999639184969676,0.014574209278551095,0.9611101737062692,-0.24008568771402028,0.13606163728475798,-0.010656667505897558
12,2.60974,0.037705478172122234,0.017591505082917402,-0.014435394450693863,0.2565123377399697,0.4643520239629083,-0.8476902132444453,0.008468959455899506,0.03471289644118211,0.01654549775718137,0.9611083673823104,-0.24004545530894456,0.13613624673846403,-0.010770961189916044
13,2.61974,0.046414865296366466,0.012038672135903985,-0.017164099356571105,0.2565779819861831,0.464039859523986,-0.8478412526476886,0.015564229533766944,0.0378380544094264,0.0036365619205667573,0.9611462529145041,-0.23985556145996867,0.13619354012506912,-0.010893715451669037
14,2.62974,0.028130318156587942,0.005256077794675502,-0.016361085606563103,0.25659485820634087,0.4637983627545123,-0.8479682368079321,0.016507845065766625,0.017899465478941036,-0.003119827614206224,0.9611778273078087,-0.239704606548689,0.13622619613853526,-0.011014252968945674
15,2.63974,0.0033244151578393603,-0.0015314120828805713,-0.012829194781996421,0.25657071931406605,0.46375125428519226,-0.8480013369668546,0.009668501214805138,0.004416568788150112,0.0010819882804680874,0.9611855543411234,-0.23966684276477895,0.1362319238123345,-0.011093710456023184
16,2.64974,-0.01124336048875163,-0.009002327366201943,-0.012528163261727192,0.2564883158139613,0.4638648115024747,-0.847964140315626,0.006639796832943482,-0.004257480441190773,0.00061762476739844,0.9611753682245692,-0.23972180387799558,0.1362034200670398,-0.011142966803864323
17,2.65974,-0.0031639223175420417,-0.010578995600541784,-0.00929479071638192,0.256388179700103,0.4639863533595253,-0.8479279282270891,0.00814986483275657,-0.00041326258969146034,0.0014148234079999539,0.9611655434239649,-0.23978303929620898,0.13616209738356785,-0.01117772684246384
18,2.66974,-0.0016310746207346802,-0.010088195045821237,-0.004013581537381139,0.25626686120112024,0.46409098733911075,-0.8479073587989597,0.006615651742285673,0.003639794884763016,0.004516612471294924,0.9611599697346325,-0.23983663877966233,0.13610548503394143,-0.01119808037618141
19,2.67974,-0.003907961680358208,-0.008842184973473957,-0.0064279133341933,0.25615300575063676,0.46422150390786304,-0.8478703010199511,0.0025352297781124624,0.003348171073469887,0.008448252285278714,0.9611500643738401,-0.23990511028741626,0.13605287821244275,-0.011215832642291805
20,2.68974,0.006815352542714656,-0.002038171189513419,0.0012056175630695766,0.2561295788690479,0.4643574935680654,-0.8478029027307712,-0.0007259787739966087,0.00043407051662795954,0.009647453121954313,0.961132388076798,-0.2399790044865825,0.13604641511150428,-0.01122527791246576
21,2.69974,0.007903741070507335,-0.002044572520001794,0.005140950142038531,0.2561871934494234,0.4644138997943427,-0.8477545746998284,-0.004611136283677488,-0.006101161967241895,0.005449173944856176,0.9611199780066858,-0.24001300489543106,0.13607520546940027,-0.01121189302638048
22,2.70974,0.01418091911142846,-0.0005080156448084676,0.004171220528450197,0.25627021084744267,0.46435329035689893,-0.8477626809255884,-0.006102174517079452,-0.002342373387547753,0.008330070294438831,0.9611223205122371,-0.23998333091695292,0.13611263362096757,-0.011191531727658716
23,2.71974,0.00624694815640029,0.0002472468209974404,0.008537471639111026,0.25635116852439566,0.4642676624040014,-0.8477851174862151,-0.006776267925429477,-0.00025129989096592774,0.008875069199875244,0.9611284470467746,-0.23994026904467583,0.1361473606892174,-0.011167418580929896
24,2.72974,-0.0015262953919895682,-0.0018288106473943046,0.015832214179311195,0.2564326678660484,0.46421521585704967,-0.8477891768690977,-0.006827821280926181,-0.005834456520799336,0.007296802558733225,0.9611302563352134,-0.2399215288798478,0.13617291318018235,-0.0111018330751998
25,2.73974,-0.008153852214613577,-0.003909144652234035,0.014803585905595247,0.2565209363047213,0.46422458834742875,-0.8477573477649285,-0.006227131994854442,-0.00714979990994104,0.006645948734720356,0.9611229555409004,-0.23994021937780113,0.1361984353131946,-0.011015131094865531
26,2.74974,-0.0037081741800958266,-0.006807816337621206,0.012642631404946664,0.25657167270859105,0.46426570834578945,-0.8477194558324912,-0.007991991073985662,-0.0029678783301919876,0.0019871295664805008,0.9611140050141344,-0.23997488784897497,0.13620688067837444,-0.01093656240182448
27,2.75974,0.004218397998672487,-0.009871255184495857,0.008918796895285705,0.2565824834121829,0.46425383305013457,-0.847722686994025,-0.007652205245374497,0.004240948834275923,-0.0020835373827301465,0.9611155454005603,-0.2399774232754385,0.13619648237484222,-0.010873164162088047
28,2.76974,0.011902720362287122,-0.013408436648211303,0.0063055803215705,0.25652705359327643,0.46418021565348283,-0.8477797897332566,-0.004074189576089711,0.011668162161318267,-0.0056629508448013816,0.9611308951374039,-0.23994212067508847,0.13615388905322914,-0.010828352598644625
29,2.77974,0.011072825251748908,-0.01722217466175488,0.0021958995424099896,0.25640434004015217,0.4640669028279738,-0.8478789314810129,-0.0012805123236040003,0.015277474582192387,-0.005014921579117782,0.9611570734749861,-0.23988216980961274,0.13607743075036968,-0.010795376166782694
30,2.78974,0.005955772713235033,-0.013889600390892582,-0.0015149165309137392,0.2562517639760447,0.4640013884734337,-0.8479609135206277,-0.0024158024186387485,0.012631504322693922,-0.0014511469969123428,0.9611785562635602,-0.23984575305385877,0.13599098843175517,-0.010780821524006654
31,2.79974,0.005604367876599484,-0.01214845114903478,-0.0013961220020036896,0.25611530918869185,0.46397052845365994,-0.8480190522350567,-0.00884495552066417,0.008824332948211253,0.0039007849773342517,0.9611936866861353,-0.23982705657842754,0.13591712283209645,-0.010778687336810044
32,2.80974,0.009484591283402618,-0.011362661793284635,-0.00157793350696983,0.2559977768314526,0.46390921037990396,-0.8480880550832676,-0.010081290029684668,0.007028659078980391,0.008287336135959607,0.961211652237063,-0.23979150395445967,0.13585286036364805,-0.010777957473627668
33,2.81974,0.01317854618683358,-0.011490978320327399,-0.0036328834772702155,0.255875607175326,0.4638179392723448,-0.8481748495990237,-0.006295783995753684,0.006475170800200704,0.008408880511062033,0.9612341721922188,-0.2397380085381553,0.13578752553950044,-0.010785984191364553
34,2.82974,0.0159596790720585,-0.00876501010105965,-0.0032038031677744613,0.25574525642694307,0.46370673907571486,-0.8482749692250097,-0.001732894245564105,0.00837424688832098,0.007831234052796933,0.9612601020629205,-0.23967270344162697,0.13571847557409228,-0.010798583485903018
35,2.83974,0.01533546199895585,-0.012089793294752344,-0.00594589509619117,0.25559337999804893,0.4635942362887122,-0.8483822706419566,0.001030390176101847,0.009306820695094092,0.00846960940972161,0.9612877524466833,-0.2396050088731833,0.1356403757544761,-0.010820919653746701
36,2.84974,0.02043437689755349,-0.01215495033445853,-0.007646379645046439,0.2554375475402796,0.46349436225865437,-0.8484837359060028,0.0002487818264224073,0.008325985575749066,0.008243666946647254,0.9613137714697496,-0.2395426524883761,0.13556342041113997,-0.010854884032603304
37,2.85974,0.020771500743154606,-0.011786551063893345,-0.008202318147010402,0.2552860717690361,0.46337184279561283,-0.8485962539405024,0.0015130369741763981,0.007442617767589268,0.0070149917259731895,0.961342530518107,-0.23946620243704145,0.13549099054968905,-0.01090015451046777
38,2.86974,0.02942621583178984,-0.009384965794654702,-0.008424257385774412,0.2551365970545311,0.4632163280064405,-0.8487261130177226,0.0024853040959288016,0.006728731089087984,0.006233491568262961,0.9613757131367583,-0.23937047300662267,0.13542054906213666,-0.010952570761999876
39,2.87974,0.03233892064386155,-0.005524544167561563,-0.009010661409521295,0.2549890285563655,0.46301688256013335,-0.8488792599114171,0.0018730729206793658,0.008570665710867825,0.005774520857909821,0.9614148229645537,-0.2392489170820747,0.13535259670571695,-0.011015612416578514
40,2.88974,0.025851912413570658,-0.006624366545360751,-0.009368679837445737,0.25485984377916326,0.46283418273036653,-0.8490176585028305,-0.0009570140118221182,0.009927571766562988,0.006055901884034972,0.9614500581136722,-0.23913672758455673,0.135295179069481,-0.011079992116016738
41,2.89974,0.013888257269590878,-0.004027804018679889,-0.008388586433565609,0.2547643043335505,0.46273497134898567,-0.8491004074834371,-0.0030513919609087294,0.0024798301780064548,0.008130786140999886,0.961471000348155,-0.23907334500011582,0.13525428256225974,-0.011130137458137776
42,2.90974,0.010031974168904136,-0.004034451347366249,-0.005346180488194879,0.25470686167280926,0.4627008922157243,-0.849136245142359,-0.003412114381265095,-0.0030627980061001536,0.009311207170018425,0.9614799215150469,-0.23904879988400177,0.13523147772114044,-0.011164750347014777
43,2.91974,0.0062433218728707674,-0.0021409035732577334,-0.0009571913410062443,0.25468204882207585,0.4627019809635178,-0.8491431100924028,-0.004561368181848557,-0.0035197135705881738,0.008776441234408787,0.9614815356416875,-0.2390472651904501,0.1352215380478785,-0.011177644974774227
44,2.92974,0.006500451630579878,0.000146586292067681,-0.0003257288371178791,0.25468111354514344,0.462691677930474,-0.8491489924901873,-0.004003437997182579,-0.004076531307969504,0.010097425878208329,0.9614829997718085,-0.23904101997778116,0.13522169881717833,-0.011181394314865709
45,2.93974,0.0041292236948556925,-0.0046030735536029144,-0.0005936854959710648,0.25467161713936765,0.46269149850423313,-0.8491519316988463,-0.003404744912692003,-0.004417070638694085,0.009604928887655217,0.9614837302583643,-0.23904010456911265,0.13521786124507745,-0.011186257038632448
46,2.94974,0.0010700824757236924,-0.004791551749386156,-0.00107845314562477,0.2546495294055767,0.46270905260857004,-0.849148981882858,-0.0036376075130176155,-0.0037221809676323903,0.007693053406077048,0.9614829890396164,-0.23904940137870118,0.13520683885511783,-0.011187285381720024
47,2.95974,0.0026637779671623927,-0.00719273628627742,-0.0007157929584296901,0.25460800180911075,0.46273719569140165,-0.849146109813198,-0.0008567149588191282,-0.0016244153873921476,0.004768953444787799,0.9614822669673599,-0.2390648457278631,0.1351848586558092,-0.011184604858079338
48,2.96974,0.005805743660065166,-0.008098765193029656,-0.0037505652594926908,0.2545289475112819,0.46275357099702014,-0.8491608675222929,0.0007046915173839325,0.0029830591111714025,0.0020806355446741287,0.9614859560923695,-0.2390718555302278,0.13514516232378546,-0.01119204890538238
49,2.97974,0.008882955692070243,-0.008164998567186606,-0.0043699443818973355,0.2544310321619359,0.4627270625171778,-0.849204646375732,0.0012396754336906175,0.006632452218425082,0.0008571984324750978,0.9614971000389673,-0.23905317797526301,0.13509720771839734,-0.011211119356753592
50,2.98974,0.010490955361821402,-0.008554438893411523,-0.0060661984074702946,0.25432658851892104,0.4626650912649775,-0.8492696752023313,0.0012431574497671304,0.00787108913911149,0.0018200385295411715,0.9615136812905373,-0.23901365991017537,0.13504675895381557,-0.011237902041284073
51,2.99974,0.008620548142867729,-0.008245995191743481,-0.006011431046107855,0.25421883875307505,0.462606077431839,-0.8493340682652019,-0.0007358840232039732,0.006240784027663512,0.0025817580438480072,0.9615300828180646,-0.2389756520816513,0.13499479922543572,-0.011265353570590384
52,3.00974,0.003193721742627556,-0.008383424975620331,-0.0026151745002072195,0.25412995860487775,0.4625803788356383,-0.8493746952153892,-0.005296569411619836,0.00276800961159226,0.004268897797009015,0.9615405547845548,-0.2389587506945449,0.13494950536709913,-0.011275765594752718
53,3.01974,0.002126581997751376,-0.009457229260696219,-0.0012677153440276085,0.25404380686152817,0.46256984299340936,-0.8494062142324752,-0.0056486804972648765,-0.00031988899871928565,0.006794749631198051,0.9615488056115827,-0.23895159386909912,0.13490375763833126,-0.011276948235106563
54,3.02974,0.00369517584283105,-0.007253019757751848,0.0016918624977106526,0.25396668875841966,0.46254426245010666,-0.8494431964820851,-0.0047921734609429785,-0.0011202705407021472,0.006475085218217508,0.9615585188413929,-0.23893746903650254,0.1348602055345684,-0.011269219975430858
55,3.03974,0.004978161480013032,-0.008929381921887351,0.0024414919249547075,0.253910004113859,0.4625060210868864,-0.8494809602538828,-0.0052122018670678364,-0.0007741364190616377,0.006253077947566764,0.9615684992940263,-0.2389177249067761,0.13482519584231,-0.01125349728017374
56,3.04974,0.008936332333899481,-0.00973333640567328,0.0005455652507382501,0.2538406701897461,0.4624539059833203,-0.8495300473427494,-0.002946254234237797,0.000737201257993847,0.004168781391540682,0.9615813430124808,-0.23888906134810137,0.1347849624587406,-0.011245271142515377
57,3.05974,0.009043721506050964,-0.01200104274666838,-0.0016907946759293743,0.2537487707566007,0.46240164046758364,-0.8495859508569247,-0.0016499484221295386,0.002181819897160024,0.0022964891222863586,0.9615959349502903,-0.2388594933885575,0.13473365669769222,-0.01124073257686186
58,3.06974,0.008292430126426487,-0.014504020105993925,-0.0028938501039864565,0.2536253195480646,0.46237102782621853,-0.8496394709860976,-0.001133061411423576,0.003676183329935108,0.0021350632867045975,0.9616098570894709,-0.23884103220583083,0.1346670598554116,-0.011239763109622457
59,3.07974,0.004798271086840123,-0.014438955921757642,-0.0032563002598217836,0.25348272944549793,0.4623440149142548,-0.8496967315642906,0.0009448971658503672,0.004060055856589109,0.0032142310780205723,0.9616247297922352,-0.23882433074791196,0.1345903936129863,-0.011238750875550065
60,3.08974,0.002614628549989873,-0.015436003704211089,-0.003360055988172231,0.25332696160672563,0.4623385240059138,-0.8497461767792133,0.0024926706725470985,0.0031021991766306493,0.003319619853039698,0.9616375443806556,-0.23881895037328857,0.13450808228112646,-0.011240879469107967
61,3.09974,0.001241584051317641,-0.017384833881102468,-0.005139228814001985,0.2531559765239423,0.46233626350868756,-0.84979837233863,0.001205099060269,0.005031868284194567,0.002822157943232648,0.9616510733187982,-0.2388148977722084,0.13441824870101135,-0.01124495834717839
62,3.10974,0.003173201142897296,-0.013906146761702529,-0.00453525815249688,0.252993119761894,0.46233482311955454,-0.8498476590919103,0.0012201803691911702,0.00595029870995753,0.005923626943171919,0.9616638528860828,-0.23881152998476046,0.1343325452768316,-0.011248194148909688
63,3.11974,0.004029150109154295,-0.011749164920961222,-0.005047287334788535,0.2528458107766684,0.4623242689246745,-0.8498972307985447,-0.0002461866603952746,0.005197569180161494,0.008265539003480985,0.9616766541543436,-0.2388026863414786,0.13425597169243964,-0.011255870020993963
64,3.12974,0.007437406928018937,-0.0078840952600348,-0.005830628689139538,0.25273370722629174,0.4622993623171002,-0.849944104747334,-0.00251836347042039,0.0038336790569761894,0.009855197007007406,0.9616886141542043,-0.23878477334587156,0.13420051304789946,-0.011274823011907303
65,3.13974,0.013829871861203283,-0.00608236921002568,-0.005956686752126769,0.25265814604201114,0.4622392563363245,-0.8499992626841557,-0.003195043972006004,0.003045245323803961,0.011607342196917956,0.9617026230673261,-0.23874625631953872,0.13416627331402206,-0.011304832518096683
66,3.14974,0.014310164985611433,-0.003493005382614942,-0.0010059603253539796,0.25261290493200406,0.4621440134377657,-0.8500644959621473,-0.0031274963588675576,0.003069537906684933,0.011776127695284556,0.9617193301285327,-0.238689776069274,0.13414521870878657,-0.011326802663424103
67,3.15974,0.016299273857264186,-5.451480160020096e-05,0.00043000050762892803,0.2526133802690234,0.4620354553107758,-0.850123373825563,-0.004198968131035962,0.0029517960128632153,0.012536218335016629,0.9617345770921928,-0.23862878269205506,0.1341440182188117,-0.011332445692990007
68,3.16974,0.020079956232243436,-6.557991960882167e-05,-0.00014847857135063524,0.2526253173206889,0.46189400669026953,-0.8501966790769058,-0.0046991018274342095,0.0026203309941813624,0.01003837882024068,0.9617535623895057,-0.23854950067182923,0.13414838727012832,-0.01133948780050062
69,3.17974,0.023241955541950517,-0.0032430489792635185,-0.0010718517789894539,0.25262584354149176,0.4617289321608471,-0.850286195784972,-0.0020432420545583472,0.004882820560790764,0.0068208300021186195,0.9617766520888745,-0.23845619415026795,0.13414748249830646,-0.0113521646821902
70,3.18974,0.021977705071332062,-0.006738177907220944,-0.0021802404213732375,0.25259443884180005,0.4615682345318208,-0.850382729360323,-0.0005915441828988389,0.0058755349546404,0.00415579908287653,0.9618015339299657,-0.23836449495656067,0.13413049763450927,-0.01136786739076478
71,3.19974,0.017473208516761752,-0.009825511475610074,-0.00571786936845892,0.2525158427840129,0.4614378727729442,-0.850476847203568,-0.0017449195509946207,0.006948845430873812,0.0018471990718905574,0.9618257558947056,-0.23828752326716285,0.134091856682979,-0.011394144622270097
72,3.20974,0.0126073423240868,-0.011775637547362031,-0.009588321236541852,0.25238936982930393,0.46135090526852524,-0.8505615739737551,-0.0020640571153225625,0.007300879617956988,0.0015908285451351509,0.9618473178735805,-0.23823240210279012,0.13403184462956233,-0.011432044288673041
73,3.21974,0.005176734351480717,-0.013061791993354879,-0.01020139354911081,0.2522331249348096,0.4613332548598819,-0.8506175273930758,-0.0010465190862526956,0.004330573596455315,0.0022213194902693505,0.9618613860687111,-0.2382150688328002,0.13395830883780915,-0.011471836823794466
74,3.22974,-0.0010132336065128934,-0.013454371497005792,-0.0077233137130859365,0.2520720467643289,0.4613740039500411,-0.8506431459665853,-0.002195183571937085,-0.00010920590542232796,0.004225772083571303,0.9618676592153371,-0.23823127224146667,0.13388162602805964,-0.011503058525075365
75,3.23974,-0.003900806879076152,-0.013063390167107069,-0.005113518605613424,0.25192722519369093,0.46143937285936826,-0.8506505445222499,-0.004094127353070493,-0.0022967966874493867,0.004993116647088141,0.9618693978688275,-0.2382638291216141,0.13380979784626132,-0.01151639526273679
76,3.24974,-0.00012722685012992222,-0.009915285885465195,-0.003276745417630088,0.2517958526124747,0.46148767459008944,-0.8506632484476642,-0.002962146809266434,-0.0030617240535924994,0.0058786452116149825,0.9618725613541305,-0.2382875656304675,0.13374380294814736,-0.011526288340525357
77,3.25974,0.005250660914501167,-0.006407298789869956,-0.0021367082833269563,0.25170711076924396,0.46150514136794835,-0.850680051435941,-0.0023301194176603363,-0.0022186106398045208,0.006848863535340117,0.9618767772669722,-0.23829453558806796,0.1336999993292049,-0.011537694292884317
78,3.26974,0.01274037429207868,-0.0005456576447394675,-0.001966873699597078,0.2516618279863339,0.4614602350180102,-0.8507178155900518,-0.004085172907213385,-0.00010114643312406795,0.007316699962994497,0.9618864140663913,-0.23826739251519277,0.1336777907153483,-0.011549783347990344
79,3.27974,0.021486057933094178,0.0026620924456330873,-0.00011646412599598951,0.25165209883364975,0.4613449574827165,-0.850783201743891,-0.00578955077368321,0.0027988867993414338,0.007864212353783042,0.961903212138596,-0.23820090283383527,0.13367397497318165,-0.01156745988571468
80,3.28974,0.023208134326877315,0.004626842925105546,-0.00039590972334118925,0.25166888033540047,0.4611846187490736,-0.850865175640599,-0.006603815729463714,0.004900832888576195,0.006360630910778365,0.9619242380504965,-0.23810890229052317,0.13368458950197193,-0.011591343421599652
81,3.29974,0.02321292151519897,0.0020860970952287635,-0.002482150316253569,0.25168059755817346,0.4610080602725265,-0.8509573888362127,-0.006173189031869445,0.005400822468921244,0.003624609180736652,0.9619478517197687,-0.23800703664753353,0.13369355239658476,-0.011621179994412515
82,3.30974,0.022226786626603642,-0.0019561919919751113,-0.00534186600152402,0.2516609364637576,0.4608265112038678,-0.851061536277876,-0.005367216256591269,0.005253584722348653,0.001834626921630399,0.9619744913286535,-0.2379011607357761,0.13368724289552164,-0.011657147486388198
83,3.31974,0.018633204912479332,-0.0054260308629320965,-0.00645435280330666,0.25158826507167253,0.4606631728072377,-0.8511714584742771,-0.0045450574694162645,0.005114003199904614,0.0014537725580573348,0.9620025761868765,-0.23780394870868693,0.1336546415689425,-0.011698640040191405
84,3.32974,0.012491337796063475,-0.009766487828081608,-0.007919576816273657,0.2514823330899363,0.46054968338338126,-0.8512641627680145,-0.004541885546228793,0.0036661226415822487,0.0008017245361949377,0.9620261674906616,-0.23773389508355014,0.1336058237155427,-0.011740589923816058
85,3.33974,0.005096209038722473,-0.014423358216121356,-0.00875911978793493,0.25133924302887695,0.46050558275642095,-0.8513302574589262,-0.004193964471539418,0.002603677111089017,0.001217126885056935,0.9620428998721519,-0.2377023268523065,0.13353824580825963,-0.01177904041086563
86,3.34974,0.0007112933498371823,-0.013462605759401107,-0.0074130959953576,0.25118600616031506,0.46051645863714,-0.8513696107967064,-0.0030337587205108442,-0.0002155047939090915,0.0026432037918275187,0.9620527661484353,-0.23770226552037071,0.13346468189113284,-0.011809176850260282
87,3.35974,0.0013998166098943342,-0.01385679059742638,-0.005476759939782175,0.2510275399176459,0.4605472312724194,-0.8513997162674828,-0.0020941116880087963,-0.0013524421094908892,0.0037777215554804415,0.962060290081102,-0.2377141285122596,0.13338717841781686,-0.011832446571869895
88,3.36974,0.0067163701898443305,-0.012824372023376362,-0.0031446218497045786,0.2508669878390501,0.46054030666313506,-0.8514507954185752,-0.0008720453353443855,0.0026423008760151556,0.005779042184618326,0.9620733481690193,-0.23770568998358632,0.13330646708750368,-0.011851218261364132
89,3.37974,0.012474909494357863,-0.00976877516152978,-0.0021767498863020773,0.25073298902960356,0.460480057794909,-0.851522846197187,-0.002681302790400686,0.004455439707130492,0.007135430380781451,0.9620919768207142,-0.23766952936742597,0.13323579252098125,-0.011859279867011538
90,3.38974,0.018505199749486594,-0.007529815987985136,-0.00013667099301609056,0.2506240909777841,0.46036540451277796,-0.851616869949042,-0.00314033877412889,0.00346009652151416,0.0071656685664013425,0.962116342930759,-0.23760411519721977,0.13317599949519432,-0.011863271821335463
91,3.39974,0.02093893217330001,-0.004958489625640954,0.0006406234210790037,0.2505426978826003,0.4602195360776025,-0.8517196425977093,-0.0007461498299521595,0.0033645623956627497,0.008094612200796176,0.9621429374640388,-0.23752153544438787,0.13313038796798282,-0.011868867138004058
92,3.40974,0.02541343174866214,-0.004850073831904047,0.00047621663988992393,0.2504818114235626,0.46003338958255835,-0.8518381135227898,0.0001385421569269863,0.005921990931725414,0.008687838728380066,0.9621735884142881,-0.23741636581070355,0.13309552636921196,-0.011878238429003173
93,3.41974,0.027261965172489896,-0.006908087616142928,-0.000991298554556977,0.25040968196919766,0.4598176206048839,-0.8519757967637596,0.00040104376714028534,0.00714907980102309,0.007550618866498353,0.962209176464183,-0.23729391166046374,0.13305525517013483,-0.01189302982175196
94,3.42974,0.027433950862828547,-0.007992323607710941,-0.0014181114727957992,0.2503260925831257,0.4595967765806308,-0.8521194837156485,0.0028711871332745493,0.007513762640477997,0.006377550066728087,0.962246333630298,-0.23716836264596997,0.13300905717551154,-0.011908979642357079
95,3.43974,0.028159436657379286,-0.010228909947660162,-0.003005911679588755,0.25022700916435525,0.45936835438244983,-0.852271742829491,0.005110535069848606,0.007699795524168383,0.0058130998300606205,0.9622856369747628,-0.23703772276788718,0.13295574059633652,-0.011930151220746364
96,3.44974,0.028280592412755608,-0.012902299170017352,-0.0038769503447051413,0.25011586454280677,0.45915130019182093,-0.8524213326470311,0.004810603010912943,0.006283492458343297,0.0058199126449840054,0.9623241967392028,-0.23691272254648207,0.13289727470893511,-0.011955157707040864
97,3.45974,0.0260499453493707,-0.014590002743601118,-0.0034144176528331056,0.24998159808771325,0.4589549589157688,-0.8525664689382096,0.0021844375541079297,0.005078226683618842,0.006592997022931987,0.9623615913990479,-0.23679919515583683,0.13282661495871717,-0.01197823801921481
98,3.46974,0.022912385554147645,-0.01692022562115031,-0.0036513895193587874,0.24982639172873192,0.4587826599082903,-0.8527046669178852,0.0014369606564369976,0.0025003427922541807,0.007501130859121247,0.9623972282568796,-0.23669925434373876,0.13274461117053968,-0.011997714107472688
99,3.47974,0.020027947057451898,-0.016872638962474547,-0.004965532440059896,0.2496767907349319,0.4586373770401496,-0.8528266389019615,0.001452985598847489,-0.0010436963505572271,0.0067293427798850195,0.9624287426926855,-0.23661517401514356,0.13266478400448553,-0.01201109281737639
100,3.48974,0.016560870238964437,-0.01586677752517245,-0.005175345932555824,0.24953431684782526,0.458531653299116,-0.8529251980585527,0.0008890621330642662,-0.0029532518375988974,0.007195722479561842,0.9624541910455461,-0.23655290987143354,0.13259006884107968,-0.012025677782256196
101,3.49974,0.011384724295513775,-0.01452348204330786,-0.003106080533643128,0.24940150587054388,0.4584552084351127,-0.8530051493910777,0.0013244900673497703,-0.0038682001079092974,0.00825127173074565,0.9624748267797776,-0.23650739322326989,0.13252052242870208,-0.012037310987628065
102,3.50974,0.0046965635888869366,-0.013856316519431514,0.0012143289066894906,0.24929897835427592,0.45842585874258407,-0.8530508817101589,0.0006480789694767443,-0.005594432159520916,0.008632130331622741,0.9624867795754986,-0.23649081780742837,0.13246380784383188,-0.012030806213850755
103,3.51974,-1.69123278577505e-05,-0.01471126496461111,0.003575497296865832,0.24922040098048814,0.4584452589737396,-0.8530633905418981,-0.0006632430496960976,-0.007773388172977653,0.00862109159516648,0.9624903010571969,-0.23650424781120064,0.1324162017979844,-0.012004473472155523
104,3.52974,-0.0008095438519913744,-0.013240478040140792,0.005361080798569066,0.24915010876475516,0.4584731395711609,-0.8530689327281907,-0.0013819432342041715,-0.007851232482230394,0.008015033532435214,0.9624921793356265,-0.23652361223956123,0.1323711306919264,-0.011969725672611925
105,3.53974,0.0009803973144499678,-0.009222878856944642,0.004121646089819046,0.24909037257575437,0.4584864327941109,-0.8530792363564241,-0.0026769603970700183,-0.005451565968629943,0.006376997075231851,0.962495293037681,-0.23653491510622673,0.13233146341986868,-0.011935762124930964
106,3.54974,0.00022779610323608401,-0.005601552397965981,0.002565204153638508,0.24906100241899168,0.4584925803086635,-0.8530844997953623,-0.0036233281860825407,-0.00445278086985731,0.004754050342439046,0.9624969524111723,-0.23654134383017517,0.13231001997018518,-0.011911194323983357
107,3.55974,-0.0014873738011188333,-0.002986474415433827,0.0013796616746264382,0.2490553996408162,0.45849840324108576,-0.853082994831378,-0.005272479946305438,-0.0038154269821766705,0.0028421915234473193,0.9624967796770623,-0.23654698259247864,0.13230275686196052,-0.011893096471399524
108,3.56974,-0.006654895885843565,-0.002414684309593319,0.00038810976764675934,0.24905319095725545,0.45853437213387677,-0.8530643250626836,-0.007311231293765392,-0.0034920633826341333,0.0008667428228161626,0.9624920845197691,-0.2365684764665488,0.1322996326704123,-0.011881352832078543
109,3.57974,-0.018889381297515294,-0.001526870765111888,-0.0007314956177088933,0.24905794246557306,0.45864559176862857,-0.853003158144599,-0.008163082784485007,-0.005088855255252467,0.0023758971599241166,0.9624763789817846,-0.23663176617166878,0.13230203668308543,-0.011869136091995329
110,3.58974,-0.03071253756661163,-0.0001795754599376335,-0.000969930897514868,0.24906703303575128,0.45885503589205495,-0.852887841043047,-0.010831380395787458,-0.008788674493688038,0.003918741437156626,0.9624466262148975,-0.2367497377364311,0.13230883903908272,-0.011855057419402805
111,3.59974,-0.03872501128587612,0.0010295939805754777,-0.0003338805565919843,0.24907987572140078,0.45914255852491115,-0.8527293395912082,-0.013127926191802619,-0.012214428581272231,0.005139334210213998,0.9624057068225694,-0.2369118357387293,0.1323181845284359,-0.011834950397203397
112,3.60974,-0.0425885259196973,0.004037263037221459,-0.0012926314260191891,0.2490981288791805,0.45948417662961627,-0.8525399516518289,-0.012251492205773618,-0.011625935320741382,0.0068783223249194135,0.9623568150488198,-0.23710474087688774,0.13233044506820327,-0.011809303797885874
113,3.61974,-0.04260691582318916,0.007304865689427373,-0.0038557690287722647,0.2491265375613407,0.4598458230895141,-0.8523366143192851,-0.010998107945527113,-0.008117903692922136,0.00676310551288767,0.9623041078385469,-0.23730730670949127,0.13235147795115118,-0.011795265182501725
114,3.62974,-0.043590827818132366,0.007891249098271547,-0.007631352122327724,0.24915570792505196,0.46021030778055383,-0.8521313426078974,-0.009995979939354496,-0.005978344605222534,0.004722798614374036,0.9622507262621419,-0.23750905700501043,0.1323773318193433,-0.011798821996140142
115,3.63974,-0.04405495332091207,0.007864195763578817,-0.009758242385361415,0.24916375490369985,0.46059525845818894,-0.8519209948708578,-0.009181997156151908,-0.003823943991942712,0.0021245597972726813,0.9621958287919994,-0.23771924415277929,0.13239731718008274,-0.011821784880747165
116,3.64974,-0.04452056493703757,0.006620870703336681,-0.012110079277045962,0.24915178520734543,0.4609902569170808,-0.8517108632042972,-0.008208414841486362,0.0005304500163017399,0.0009504608900046132,0.9621408638480192,-0.23793296043640266,0.13241022084466228,-0.011857919981187437
117,3.65974,-0.04383593939618166,0.0051066416590248255,-0.015076141582952313,0.24911218295637172,0.4613796334062505,-0.851511575217511,-0.004962760796558324,0.004492866970953586,0.0007973873292604136,0.9620885029586301,-0.23814219426887023,0.13241034514347608,-0.011902039239252841
118,3.66974,-0.04367222285499525,0.004504097698152715,-0.01631962225166006,0.24904206543465113,0.4617599874868772,-0.851325864990348,-0.0026563693316317563,0.00713796177330109,0.0011408023327706606,0.9620394811997499,-0.23834423145088854,0.1323974354176521,-0.011959704339071309
119,3.67974,-0.03962341249514563,0.0037886594167882244,-0.0162288159285154,0.2489618249584349,0.4621283411419874,-0.8511494429614689,-0.0022676063607404845,0.009043778251233382,0.0015083363781093586,0.9619928688755318,-0.23853888817263127,0.13237998808643284,-0.01202190591065578
120,3.68974,-0.036206988127241414,0.0034229530881257856,-0.0168527876862397,0.24888146032860992,0.4624687114543638,-0.8509880704007119,-0.0017104051906476085,0.009464336376545845,0.0033996040854566284,0.9619501407106253,-0.2387181935253864,0.1323615648194403,-0.012083263153406026
121,3.69974,-0.03196343057360259,0.004531960301608451,-0.019672712023317104,0.24879993362634162,0.4627829528103752,-0.8508410555767076,-0.0022107769793458733,0.01009398345335824,0.0055561880764318115,0.9619109942863483,-0.23888140081076284,0.13234478559329835,-0.012156385376180296
122,3.70974,-0.026215282726905393,0.004304509443834665,-0.020129967867988534,0.2487128006119691,0.46305959347626574,-0.8507159944389941,-0.0017161885916278834,0.012743843423370985,0.006274199401825266,0.9618774012548447,-0.23902201190711492,0.13232712515388992,-0.012241838233519754
123,3.71974,-0.023258200490646856,0.005046193274498281,-0.01791319108380645,0.2486343391835004,0.46330178203567474,-0.8506070732932091,-0.0003154227783470338,0.013121907462965675,0.0060872380039507495,0.9618480499125028,-0.2391438053499856,0.13231284976444815,-0.01232599586058991
124,3.72974,-0.018946173570689874,0.005427271363721982,-0.01779904934206852,0.24856379285172522,0.4635224235650289,-0.8505075163580578,-0.0003058547745634057,0.01099930041425462,0.006209185643150093,0.9618212128660029,-0.23925435165791434,0.13230113344991032,-0.012405785889656698
125,3.73974,-0.016141528814360137,0.0060496233144497515,-0.01791037687604568,0.24850997652455287,0.46372862362208184,-0.8504108466397851,-0.00056088794093089,0.00933917975399464,0.007291579877791917,0.961795068347097,-0.23935714682289697,0.1322978926255235,-0.012485397745021757
126,3.74974,-0.012825982746576045,0.007761754361335235,-0.016156538310892643,0.24848539851644905,0.4639185220971401,-0.8503144594709415,0.00024154264472029373,0.009257705429216305,0.007845988403034748,0.9617689624181098,-0.23945108005499496,0.13231005834897566,-0.012566267448681067
127,3.75974,-0.010353716083422452,0.00670352840398512,-0.015556557383202723,0.24846352363739807,0.4640773942624576,-0.8502341508133735,0.00025063563051006715,0.010627801683035664,0.0070834637682979495,0.9617470281319921,-0.2395277931195229,0.1323229289917132,-0.012647469176019503
128,3.76974,-0.00553865451946133,0.004356174616862508,-0.015102151802373514,0.24843487624027757,0.46420172923448316,-0.8501746191664227,0.0008065104456262671,0.010501848238362615,0.006084021440028554,0.9617304508636116,-0.23958554464256232,0.13233084662787736,-0.012726828106002501
129,3.77974,0.003383861113683893,0.0010867668443344724,-0.013231348837115202,0.24838567766516137,0.4642769153045323,-0.8501479348165316,0.00147317194532594,0.009140710388051096,0.005179178358752031,0.961722457069767,-0.23961627613369474,0.13232564061489274,-0.012802549549998293
130,3.78974,0.013343238351643827,-0.0030662819893405822,-0.013061476485543864,0.24831159103632328,0.46428963917054916,-0.8501626371655862,0.0020651502098784852,0.00860498638655196,0.003039495872686219,0.9617253387927451,-0.23961237054654771,0.1323049253053154,-0.012875806570422376
131,3.79974,0.020144985600237475,-0.00712847852627674,-0.011895481840936525,0.24821487349619642,0.4642167444457539,-0.8502306831475499,0.004527322292473612,0.008781924414398361,0.0006980379901112184,0.9617421411170225,-0.23956136198936503,0.13226869399895505,-0.012944239439205498
132,3.80974,0.02143833244665275,-0.012773069825687183,-0.010806304401863604,0.24808648990860177,0.46409790958691605,-0.8503330356057961,0.0063281667410600125,0.008560741768588934,-4.8965436680760606e-05,0.9617679895982185,-0.23948591529993385,0.13221186045676556,-0.01300239202220723
133,3.81974,0.021587473492030867,-0.014953328041171792,-0.009177981258296641,0.24793207491991298,0.46397130658890234,-0.8504471497915439,0.006917820499698351,0.006773271812910318,0.0007609975490563835,0.9617969377878802,-0.23940713935410193,0.1321387467277753,-0.013051434443799562
134,3.82974,0.022088729514173077,-0.013346794845690036,-0.005248110014966969,0.24778908873557667,0.4638390674542874,-0.8505609170889846,0.005585736116870198,0.003259266079396727,0.0032644685500344784,0.9618259312976335,-0.239327029850967,0.13206859299358586,-0.013088599597520179
135,3.83974,0.023662412168832428,-0.012069597519445684,-0.002118404503206299,0.2476675769992036,0.4636970311764545,-0.8506737362217465,0.0025010019687803,0.0016508689210988057,0.005232628250523424,0.9618549884796129,-0.23924407640459425,0.13200529504360514,-0.013108642797271962
136,3.84974,0.028677044349343265,-0.008350141134305924,0.0017688851042224256,0.24757443041569918,0.4635174200959949,-0.8507987320045902,-0.00048441712202969625,0.0018514120699838904,0.006978515399797408,0.9618874164282087,-0.23914245633834816,0.13195267849132095,-0.01311521454449169
137,3.85974,0.03132084426545286,-0.006271340486049124,0.005614699699188746,0.2475265109800408,0.46329253450061936,-0.8509351627981592,-0.002887051466583868,0.0009416155759115007,0.007248960753921249,0.961922938743542,-0.2390176726692078,0.13192029796587662,-0.01311159266891287
138,3.86974,0.03271491341225038,-0.008113287126829839,0.005944046741664088,0.24750014526233594,0.4630306583992133,-0.8510853755880148,-0.002916643624248356,6.0184355880830954e-05,0.0056364865500350145,0.9619621110590395,-0.23887355384001344,0.13189671110341275,-0.013101349409579476
139,3.87974,0.033341213337755596,-0.008994108234337016,0.004741795915323565,0.24747790376160544,0.46276123292808885,-0.8512383638470158,-0.0020644405456702376,-0.001101777118247829,0.005425653971460097,0.9620020593702807,-0.23872555990973532,0.1318746592452393,-0.01308926141605673
140,3.88974,0.02933053742221918,-0.008026995499793696,0.0037519677626150255,0.2474571921797289,0.46251756615538037,-0.8513768039980205,-0.0032843172390933095,-0.002847003302872927,0.006086186251058158,0.9620382259431864,-0.23859177030772213,0.1318543172068909,-0.01307796331152226
141,3.89974,0.02912920746788207,-0.00515042127426877,0.0034353352759248553,0.247453084690659,0.46228700015088425,-0.8515032176939231,-0.0059557627618198935,-0.0037802428329170635,0.005379126664913375,0.9620712630556568,-0.23846569419527236,0.13184269568852897,-0.013064875183864922
142,3.90974,0.0346192566825207,-0.006507834226101253,0.001996073208241581,0.24744684065866646,0.46202635971660194,-0.8516464717623387,-0.008230798496453466,-0.0020001350663301793,0.0018308310881995026,0.9621085419867091,-0.23832158267217962,0.1318315996065463,-0.013061708595333217
143,3.91974,0.04253327160974496,-0.014934236632288883,-0.0022548529334134094,0.24736705558248437,0.46170818333338487,-0.8518421780040836,-0.004605225529108644,0.005431758011614517,-0.003094669005038915,0.9621591652901491,-0.2381420483846619,0.13178489738119986,-0.013078412152408878
144,3.92974,0.04701685441194108,-0.023656541974196362,-0.008306603140271925,0.24718058331281392,0.4613564080387175,-0.8520868585833455,0.0055191663801047244,0.01196057614386913,-0.005219014913117146,0.962222266945725,-0.23794041271971667,0.13168490517935902,-0.013111934582304101
145,3.93974,0.04462774891601553,-0.02831437992022005,-0.01362003476005752,0.2469001664740453,0.46101440686116113,-0.8523531951296611,0.010732778650148534,0.01248646673783732,-0.0029473078557177203,0.9622906679039398,-0.2377403209501023,0.13154058058959195,-0.013166429674622376
146,3.94974,0.03695450992489796,-0.028766541228626017,-0.01635588321021763,0.24657856303610107,0.4607199928372636,-0.8526054402396843,0.008271293648917976,0.009447303384733551,0.0016104116419280688,0.9623553279930784,-0.23756517531750446,0.13137751707030237,-0.01322824947769923
147,3.95974,0.03086514081881957,-0.027774369584358388,-0.01614158631283403,0.24626161059554738,0.4604892465776327,-0.8528216845162061,0.002776161225474459,0.005632743738135404,0.006720968849804986,0.9624107181213045,-0.23742559443561678,0.13121823854072281,-0.013288510474026252
148,3.96974,0.029539315770383923,-0.024673459923163076,-0.015677715445451202,0.2459658493182219,0.4602868797050671,-0.8530162974251071,-0.0032103245941817733,0.0025068115318447595,0.011415000718502984,0.9624603555188421,-0.23730097907580622,0.13107283234848238,-0.013356371927356397
149,3.97974,0.03145976823401286,-0.01770401028216522,-0.01555614312763263,0.24570616719278546,0.46007702269353307,-0.853204339676203,-0.0061716930060669375,0.0018485002445991225,0.014263999601577582,0.9625081830962219,-0.23717187855081934,0.13094778022842732,-0.013430051513544795
150,3.98974,0.03333138582756914,-0.01061196368825518,-0.014469544522137907,0.2454882912268825,0.45985094299416174,-0.8533889140531422,-0.0048079133486639385,0.0027531023655908327,0.01466328290082618,0.9625549872467589,-0.23703337889671944,0.13084614204649414,-0.01351060124046215
151,3.99974,0.03622179087321607,-0.004656149175588521,-0.010261121751040568,0.24534916290439693,0.45960707457190547,-0.85356027091354,-0.003809530245355149,0.0022513138594468327,0.013652396906153205,0.9625983833309864,-0.2368863148307724,0.13078505645198482,-0.013588381881728223
152,4.00974,0.04081329890964909,-0.0009149579053465888,-0.0050957405814019505,0.2453151988300833,0.45932832028374854,-0.8537200485334743,-0.005229928068441908,0.00191051275578726,0.011856175611583036,0.9626390583668814,-0.2367236984209259,0.13077403830303339,-0.013647122637910694
153,4.01974,0.04421226587910745,-0.001527021037374849,-0.0017377837031546258,0.2453367264542732,0.45901175933775973,-0.8538841131876893,-0.005295465677255295,0.0029982554942030544,0.009434848363373344,0.9626811350542325,-0.23654361458021816,0.1307862575334593,-0.013685005344050429
154,4.02974,0.04594402681822207,-0.0013737509418229792,-0.0009834161237613072,0.2453641152698699,0.4586637648131525,-0.8540632359549507,-0.0036610116608121316,0.005317383364249624,0.006894804414972786,0.9627272543559924,-0.23634764708064857,0.13079817291425958,-0.013712471647949259
155,4.03974,0.04498330071214426,-0.0009081441852548576,-0.002957973022822517,0.24537122549881338,0.45830605694019994,-0.854253219557225,-0.003503307322171481,0.008244617900940141,0.003788601687006476,0.9627761517954841,-0.23614566745129417,0.1307998876588563,-0.013743226361193066
156,4.04974,0.03718104776503874,-0.0017095477998178403,-0.00530296118170932,0.2453452492622501,0.4579892317878118,-0.8544305934741112,-0.0038366970699300336,0.0088511533067165,0.0026707842269426017,0.9628215691858784,-0.2359640804553593,0.13078859535534815,-0.013787943312639892
157,4.05974,0.026427455252352287,4.5402959556383946e-07,-0.008755724581829917,0.24529927731861315,0.4577624274067071,-0.854565315923519,-0.005583913193638254,0.005225102911814539,0.00454824632562866,0.9628556942292507,-0.23583008185757393,0.13077275953750475,-0.013847501581025334
158,4.06974,0.021828184099510067,0.0038802766265933555,-0.012262199453590937,0.24526073823095398,0.457619897692802,-0.8546527049176605,-0.00907567689632383,-0.00036957781756976173,0.005897881709805245,0.962877349942344,-0.23574107405245218,0.13076616836974825,-0.013919565291912584
159,4.07974,0.021494106171368835,0.007034896980488521,-0.01313548282383779,0.24523921758569545,0.45750586559457296,-0.8547199470001102,-0.010683686106377424,-0.0053027678595013415,0.0062477715185434565,0.9628935553773167,-0.23566611504981252,0.1307727586736387,-0.01400558414114666
160,4.08974,0.018719460711796542,0.007356992002565106,-0.014640015008224013,0.24521410654388412,0.4573977299278578,-0.8547850013875501,-0.01015862593737745,-0.008731146302579644,0.0069536266438922295,0.9629090717734959,-0.23559339396475484,0.13077939312493428,-0.014098925134384875
161,4.09974,0.006515035534673712,0.008253020128278984,-0.012293972116532005,0.24520110940452494,0.45734536582699126,-0.8548167484850807,-0.008068683516965798,-0.014894452728737491,0.006725560295968582,0.9629160536832622,-0.235552626551947,0.1307921339779683,-0.014184895126557398
162,4.10974,-0.008290087017694013,0.008136253457237765,-0.006385178688015811,0.2452169688668024,0.45741016512781757,-0.8547775418542232,-0.006823998456687926,-0.02190342522046733,0.004703612436443453,0.962905007454055,-0.2355808366061398,0.13081630978835834,-0.014242215038018239
163,4.11974,-0.02362694077428025,0.006389065339317644,-0.001271087302079791,0.24524165169989032,0.45758527568135027,-0.8546766951359938,-0.0064074203826296385,-0.024350582799194293,0.0037869137383631708,0.9628785330324754,-0.23567544467380677,0.1308385759526105,-0.014260413400702167
164,4.12974,-0.03899308316694545,0.0058680136716190295,0.005642326787687868,0.24527841566963407,0.4578714688141051,-0.8545128382910104,-0.006052317020155868,-0.025534487100909435,0.002426757014834794,0.9628362492933643,-0.2358364255921784,0.13086156444833963,-0.014243144810571356
165,4.13974,-0.0471015257934939,0.0046753242391135395,0.0067382927721125665,0.2453227984554172,0.45825009176666115,-0.854297121121239,-0.0057874246047601285,-0.02566909913807745,-8.84366969508717e-05,0.9627808415612075,-0.23605179759884257,0.13088537817739632,-0.014202548489031961
166,4.14974,-0.05077406476699276,0.0018436799367729764,0.0035199086762555854,0.2453383740014942,0.4586640856255869,-0.8540704451578572,-0.004657029066633934,-0.021747018180052195,-0.0031632853569590084,0.9627226764739552,-0.23628735210148383,0.1308933025710767,-0.0141554949027127
167,4.15974,-0.053976805930165045,0.00010619452654814666,0.0020409547602660825,0.24531495587095806,0.45909604298189244,-0.85384504614309,-0.000970805372510453,-0.01425546553407565,-0.0043097935033042985,0.9626647697401721,-0.23653188906486866,0.1308821197942109,-0.01411281439892711
168,4.16974,-0.05771549594365568,-0.0016438673801841698,-0.0006692671007159376,0.24527230307116346,0.459549991366552,-0.8536130761666159,0.0016188317128624377,-0.008598340663978368,-0.003127828301390599,0.962605121677756,-0.23678791008374808,0.13086226218617608,-0.014073925687890008
169,4.17974,-0.06240646046770783,-0.0015236612583860918,-0.003439592412844894,0.24523247286054153,0.46002577615657086,-0.8533681889611643,-0.0010209749727683917,-0.006753744783839695,-9.382671830589478e-06,0.9625420072028205,-0.23705567350187212,0.1308452963950921,-0.014038312680444812
170,4.18974,-0.06584674381134792,-0.0013846044527367602,-0.00623994524803989,0.2451859837433531,0.46052076835779926,-0.8531145273320286,-0.004404339636479073,-0.0060128916426590035,0.0032613350032635385,0.9624764735881062,-0.2373328239534059,0.13082756160311199,-0.014011811127871312
171,4.19974,-0.06348464824137111,-0.0028055501759441537,-0.010742375632976062,0.2451059192473601,0.4610178073081,-0.8528690466032279,-0.0049706035200464856,-0.0042999883582049165,0.004272522208729425,0.9624128800809293,-0.23760853084237044,0.13079619415804342,-0.014001958099429647
172,4.20974,-0.05810125973293856,-0.0013748808150760856,-0.01424659162887394,0.2450126106512795,0.4614858153892241,-0.8526427337697778,-0.0022501423212713105,0.0006473362106866514,0.003789971823069899,0.9623539071616491,-0.237865078953619,0.1307624792859783,-0.01401415805651941
173,4.21974,-0.0557113411617541,-0.0016943541438844956,-0.01638555049687355,0.24492109021791922,0.46191640200557393,-0.852435861901242,0.0003319152751824512,0.004410376320331855,0.003571044591574702,0.9622997169229387,-0.23809836275595347,0.13073344182803961,-0.014045492957014554
174,4.22974,-0.05614264668927369,-0.003207034101316981,-0.020196490490759347,0.2448091096540829,0.46235168427801415,-0.8522320274751276,0.0009701520429601781,0.0053273727289979015,0.004329205282428944,0.9622461703537573,-0.238332457300588,0.1306966660730385,-0.014088754542350977
175,4.23974,-0.057365203545869194,-0.004306741350080198,-0.022456765658531736,0.2446804956272474,0.46282582424509944,-0.8520115528013109,0.0010521896716950674,0.005696360043758694,0.005473240186002063,0.9621880865325237,-0.23858683029172684,0.13065427487850134,-0.014140492699402292
176,4.24974,-0.05900064345998944,-0.004416944146620106,-0.0234407091381575,0.24454776566862724,0.46334458695337416,-0.8517676542288499,0.0016310125450503914,0.006124260191011608,0.006180870918431468,0.9621237875750671,-0.23886475375066185,0.1306131359304009,-0.014201003954146228
177,4.25974,-0.056307007663897436,-0.0036807082134110475,-0.024335464135542283,0.24440711155005065,0.4638710587642992,-0.851521461467377,0.002168437971573092,0.006816771088417514,0.006629197267640514,0.9620588323322015,-0.23914584199664427,0.13057001689399977,-0.0142694423685563
178,4.26974,-0.04448667095750149,-0.004286476813279655,-0.027754380279139092,0.24424191061847622,0.4643391636268207,-0.8513137283599634,0.002340180236168475,0.009716460690101233,0.005661002854526627,0.9620035658559868,-0.23939158950064174,0.13051743138971894,-0.014358379245398385
179,4.27974,-0.030601506751504238,-0.004146025336299401,-0.031028204296465387,0.244058237933721,0.464707875353005,-0.8511651809809361,0.0029808496065139344,0.014641836343633675,0.0039521685914755975,0.9619632439241647,-0.23957885578404026,0.13045832420537892,-0.014471184723191855
180,4.28974,-0.024625152107219696,-0.00515456509630236,-0.03101847045701335,0.24388047709841562,0.46500827510323184,-0.851052064139815,0.004562836974656431,0.01638768183034527,0.002512520988017941,0.9619320051252096,-0.2397274383965871,0.1304021494915954,-0.01459057106825973
181,4.29974,-0.02342377267036453,-0.0047244058086347955,-0.03213226902706067,0.24369679564299873,0.4653064250166621,-0.8509417170617988,0.007979138369185759,0.014172166822608143,0.003226883093045303,0.9619013043179944,-0.2398730808812706,0.13034587984044874,-0.01472224655290389
182,4.30974,-0.022599082519172434,-0.007626507617571097,-0.033242642003699155,0.2434987020595818,0.46560877518705673,-0.8508330188140362,0.009122654647955057,0.010717428743778144,0.0059017962781199975,0.9618709211020959,-0.24001994106464042,0.1302839767186064,-0.01486132282687005
183,4.31974,-0.020326184198079283,-0.009846687730395192,-0.031523041259539655,0.24329581752143403,0.4658840006060521,-0.8507403848306662,0.007456571942999361,0.008257387928032378,0.006751588508101923,0.9618448374723234,-0.24015277096538623,0.1302168958795375,-0.0149926937596817
184,4.32974,-0.016564387353400902,-0.009548291478559241,-0.028946856241654002,0.24310083027309368,0.4661233655502575,-0.8506650328657173,0.0072935920676336285,0.007636797793932588,0.007150423861060967,0.9618234241305895,-0.24026766900239366,0.13014962500070273,-0.015110393672593328
185,4.33974,-0.015344879416425424,-0.010413005401256198,-0.024301884523250578,0.24291019329151908,0.4663413407677436,-0.8506000285450254,0.006823853086815469,0.007073881515744171,0.008203635811966163,0.9618049471315779,-0.2403731391173758,0.13007972718546285,-0.0152106293660953
186,4.34974,-0.012294197106492967,-0.010530047487874257,-0.01932532115786497,0.24273173672898177,0.4665457270352082,-0.8505388977313951,0.003881442442694583,0.0042603225913623345,0.008601349533453123,0.9617877525569781,-0.24047369201822277,0.13001136756559933,-0.015292614640202621
187,4.35974,-0.008938835086462697,-0.01240944247534759,-0.01505593411526513,0.24256499257287467,0.4667215680343863,-0.8504900248544376,0.002154677653460795,0.003006810400271651,0.008008571841529614,0.9617740264123902,-0.24056053543234335,0.12994469334939168,-0.015359685139815575
188,4.36974,-0.004119555381266175,-0.012310867327138353,-0.013055569227118119,0.24241522029236956,0.4668456151210304,-0.8504646278621342,0.002009928914142738,0.0028068477551573935,0.008118896808170553,0.9617665629740754,-0.24062113048983078,0.12988135658471178,-0.01540984705889938
189,4.37974,-0.00023969871949859546,-0.007742969245593741,-0.010362707377593245,0.24231863410470356,0.46692345653318135,-0.8504494055519283,0.0010510467015501302,0.002132186728460149,0.00706418868609127,0.9617619248537967,-0.24065810297974302,0.12984215181649883,-0.015448974915786704
190,4.38974,4.9895884968656186e-05,-0.007875806566623816,-0.007977518053618722,0.2422635491409298,0.46697379766745417,-0.8504374701003172,-0.002020755470986242,-0.0001978120170301862,0.005553743175512036,0.9617583700968185,-0.2406815210740447,0.12982173200989083,-0.015478390175739614
191,4.39974,0.003452059660930868,-0.01125699258955893,-0.006269576173811077,0.24220446381437047,0.4669930995240229,-0.850443691798002,-0.004404524843214058,-0.001492493601742563,0.00300811946825228,0.9617597302183577,-0.2406893025905986,0.12979528941882396,-0.01549569901232732
192,4.40974,0.008759360740646791,-0.013273117144744554,-0.006164263746287051,0.24210954708200919,0.46698700367918705,-0.8504740557303168,-0.0043727680132917696,0.0008498168126405711,1.1968324178845014e-05,0.9617674433396689,-0.2406833248533618,0.1297478533330054,-0.01550787981037181
193,4.41974,0.01073858568394562,-0.014491218320823132,-0.004301157765997612,0.24200346688440208,0.4669444485541112,-0.8505276257367869,-0.0025174913157717804,0.0031875246518310732,-0.002125399631479617,0.9617812170503736,-0.24065722298818193,0.12969305078655444,-0.015518369337896899
194,4.42974,0.012959411167662664,-0.018036238916175607,-0.0038289812787625256,0.24187332799228603,0.46687412569882053,-0.85060323530861,-0.002052460055154932,0.0035036563470743592,-0.0028834519555594102,0.9618008233999495,-0.2406164048774678,0.12962299280464776,-0.01552196055822111
195,4.43974,0.01008725264448515,-0.01891871384307826,-0.0038693924346642388,0.24171090989375102,0.4668071360929963,-0.8506861761227446,-0.005526527521820896,0.0015958240343456587,-0.0019802278632795947,0.9618223624609131,-0.24057723495281993,0.12953571479965562,-0.015524718542203097
196,4.44974,0.008032323604450577,-0.020428849481012316,-0.0043746036007180945,0.24154092792404253,0.4667655746014677,-0.85075726332162,-0.0077951564101953795,0.0010211232927284319,-0.0006968991949334212,0.9618408204955332,-0.24055224518721788,0.12944489145040994,-0.015526436719650158
197,4.45974,0.006451662100035644,-0.019840039122167395,-0.0028307252037538116,0.24136416501159053,0.46673508602187486,-0.8508241601721332,-0.007547666365027077,0.0001671103333430173,0.0004877766401257527,0.961858316272617,-0.2405343399331324,0.12934892993591737,-0.015520694961869808
198,4.46974,0.0016267591040058666,-0.018569305721375575,-0.00041298214927187166,0.24118570900312553,0.46670863175321553,-0.8508892403688338,-0.008038221908967358,9.111849529964662e-05,0.0027600650391679553,0.9618754201093923,-0.24051986481896737,0.12925000416562338,-0.015506177173677249
199,4.47974,0.0004734619663992522,-0.01527288472663807,-0.0006856881649804199,0.24101962977970995,0.4666969287863376,-0.8509426995741547,-0.00899786465870889,-0.0003487755861049695,0.005435992649564767,0.9618895387294961,-0.2405139723720441,0.12915752304497768,-0.015489554144917567
200,4.48974,0.00473471090856707,-0.008655281975235357,-0.000989691667237984,0.24090217027040278,0.46667247701333625,-0.8509893930914072,-0.010416161917078209,-0.0003504373116334223,0.007264246984489908,0.9619018419136902,-0.24050083417061496,0.12909164714764298,-0.015477742898724807
201,4.49974,0.005732856457189001,-0.004447017910037968,0.002386629770895166,0.24083904664574501,0.4666309174603061,-0.8510300345204385,-0.011066464267584496,-0.00038081619667471836,0.00744086667885465,0.9619125185203781,-0.2404782433087761,0.12905500625964564,-0.015469609417936476
202,4.50974,0.007050147081374709,-0.0016397429558454146,0.0031888389535751358,0.24081010923443724,0.4665789827800255,-0.8510667201299205,-0.010015195381044555,0.0011555777661736274,0.008283780717595314,0.9619223259658987,-0.24045084815586482,0.12903497747095566,-0.015456668298124384
203,4.51974,0.009840095805888984,-0.00196316576452789,0.00028717057983634886,0.24077200591857378,0.46651433865450037,-0.8511129690975243,-0.008311592106549482,0.00321381225176555,0.007873856483181792,0.9619344389575858,-0.24041488121622104,0.129012417923207,-0.015454465867906815
204,4.52974,0.008715092864042236,-0.0024147890601593468,-0.003543137380390158,0.2407124007259709,0.46645290664290384,-0.8511634781702158,-0.00659862823578328,0.005286189545060217,0.005999970590701209,0.9619472539246884,-0.24037827423707997,0.12898276206406778,-0.0154690014380202
205,4.53974,0.0056546464816915,-0.0008146566860520567,-0.0033243949511872184,0.24065934429102018,0.46640878126926183,-0.8512026275172991,-0.005870889971195381,0.006360040380188819,0.0041008041037255165,0.9619570328377085,-0.2403503458727024,0.12895888386322618,-0.015490847452478007
206,4.54974,0.00397527417742523,-0.003828419537080088,-0.005340347881009072,0.24059120617843557,0.46638756165857814,-0.8512335011619545,-0.004997844159703781,0.006955952665907914,0.0031140259879995536,0.9619646405881502,-0.24033433098151794,0.1289288390910809,-0.015517466157089531
207,4.55974,0.005139445970228634,-0.005733862487959395,-0.008205796948082543,0.240484908968057,0.4663710874251692,-0.8512725552630799,-0.0039236501923410536,0.007661901140787014,0.0033517549400583963,0.9619742514983944,-0.24031975851107532,0.12888025877126535,-0.015550272351654095
208,4.56974,0.007648294083608232,-0.004502368257810055,-0.008230702491051447,0.24036560330030723,0.46635422541328225,-0.8513155238593266,-0.0023346052427289216,0.008980273921100087,0.002778745888030048,0.9619847646395872,-0.2403039035168304,0.1288265297974289,-0.01559007620401557
209,4.57974,0.008396549865826523,-0.0025734688041366954,-0.007144742445310581,0.24025725860776384,0.4663327937149963,-0.8513578555432616,-0.0017960722057419765,0.007854155009523038,0.004527356137684723,0.9619950681973044,-0.24028519539320897,0.12877928941455796,-0.015633137237347248
210,4.58974,0.00742481874261636,0.0006781867245696253,-0.005499885868064774,0.24018760057657884,0.4663077359373749,-0.851391232302288,-0.0037050877533454443,0.0036737508847845515,0.007787141659601565,0.9620031437604248,-0.24026499227605128,0.12875213752884393,-0.01567502123312097
211,4.59974,0.01039530659816737,0.0035143619918291385,-0.004998744913514812,0.2401534001697135,0.4662769744667505,-0.8514177316247681,-0.004848493774736784,0.0007476369888593532,0.009415462230594519,0.9620093880916073,-0.24024218147198007,0.12874324177345398,-0.01571541776372335
212,4.60974,0.014977978464043466,0.003394459177656988,-0.004602682794066464,0.2401414219266791,0.46621455601406,-0.8514552863085374,-0.0037613719189818935,0.0025318460127731137,0.008344499151337724,0.9620184484666378,-0.24020154095566965,0.12874612735526314,-0.015759423621932975
213,4.61974,0.01658866116445701,0.0029639327960229236,-0.005349614972896013,0.2401233980907065,0.46612282052832704,-0.8515105696563658,-0.001283815898943238,0.004048511494169018,0.006649101304399834,0.9620320198476091,-0.24014463975381106,0.1287449194820567,-0.015803133706099166
214,4.62974,0.01246728066550872,0.004472109814907996,-0.006996843492677295,0.24011243202162338,0.4660448742378407,-0.851556322471701,0.00018650959354023585,0.0015161933019658858,0.006921219473711643,0.9620431641299375,-0.24009517269567254,0.12874833610136321,-0.01584889726851735
215,4.63974,0.00978402949956869,0.005881021238443337,-0.006064644103487999,0.24012009249111047,0.4660060134657398,-0.8515754307429533,-0.0009248154519710451,-0.0018842561607089823,0.006712867941840211,0.9620473509852111,-0.24006739153392748,0.12876303579565646,-0.015895915611115266
216,4.64974,0.0077492723593254155,0.006457152537642351,-0.006497821863568501,0.24013867257526153,0.4659861490442049,-0.8515810610066279,-0.0022602505551752184,-0.0014266993071825947,0.006366535067281075,0.9620480044574685,-0.24005033976613485,0.1287839083211624,-0.015942345551632917
217,4.65974,0.0050447232028275075,0.004505396656660133,-0.007105023699460617,0.2401511410688935,0.46598229191550233,-0.8515796739317651,-0.0008425298896568645,-0.0009088253063844217,0.005264425472351539,0.962046893714772,-0.2400423587686821,0.1288015190794876,-0.015986900097874172
218,4.66974,0.003419916427568687,0.0028562027123312924,-0.005941174571520722,0.24014444165429494,0.4659769899766771,-0.8515844773993013,-0.0007394616428709238,-0.0011687980012699826,0.004090722395635939,0.9620474814953118,-0.24003339954667163,0.12880887072994954,-0.016031232143714505
219,4.67974,0.004528207181944054,0.002300481417510358,-0.006482854505944036,0.24012043395189375,0.465978053027719,-0.8515906855776255,-0.002383305876666733,0.00032155330958925335,0.003271263958814645,0.9620484543549813,-0.24002829195098455,0.12880635367187088,-0.01607201946176886
220,4.68974,0.0057251794949595,0.0017791662539168268,-0.0067719483583197244,0.2400974269683296,0.46596697050719144,-0.8516032125848858,-0.0025195900594250503,0.0012788888248197313,0.0016171426685665283,0.9620510122937822,-0.24001686771599473,0.12880331997411892,-0.016109917169071886
221,4.69974,0.00736063729416497,0.0026311964268826964,-0.006416093094361535,0.24007972844344294,0.46594785705394737,-0.851618658443009,-0.0016440553746371821,0.0018357219840964964,0.0007252637094870217,0.9620543715342017,-0.24000079980883152,0.12880327431403307,-0.016149489905863547
222,4.70974,0.008400173196581553,0.0010686146287775611,-0.004761357848759253,0.24007109610694247,0.46590606978443394,-0.8516439741501738,-0.001301057164794126,0.0014874721844134846,0.0020599874410461897,0.9620603471080613,-0.2399724733932865,0.12880693357661177,-0.01618725442517373
223,4.71974,0.008445098118946585,0.0013480294997381941,-0.005007642982812643,0.2400603056007506,0.46585624220539434,-0.8516742629536062,-0.0019589123506939853,0.0002518038784465388,0.002766851855125888,0.9620676875056084,-0.23994042490615025,0.12880783769236337,-0.01621946323311799
224,4.72974,0.0077470582751998605,0.000853673404213951,-0.004607451999913832,0.24004467952294026,0.4658032608753708,-0.851707639275387,-0.0023396653331809766,8.345177186388274e-05,0.003735462851129961,0.9620758775854253,-0.23990721209891389,0.12880491898436172,-0.016246972760252228
225,4.73974,0.005022280327894941,-0.0006353473604163652,-0.004318408710903103,0.2400367708609871,0.4657510904738284,-0.8517383969491702,-0.00043678735473784967,-0.0016035931470233175,0.005080160841054753,0.962083476452662,-0.23987494593301167,0.12880529807691735,-0.016271254805138267
226,4.74974,0.003769558287095383,0.0010582064259659105,-0.0035406786740045494,0.24002550517218968,0.465720355537141,-0.8517583840549992,-0.00011758386129034101,-0.004839288475638014,0.006667344689879681,0.9620883396638823,-0.23985520395865717,0.12880328938972224,-0.01629062055829233
227,4.75974,0.0043320106630259925,-6.117842271707386e-05,5.485601471889173e-05,0.2400137035536069,0.46570133742440795,-0.8517721029723841,-0.0015292432755311348,-0.007214746373403675,0.008515296437119377,0.962091737631289,-0.23984311138945608,0.12879915731905445,-0.01630128790526615
228,4.76974,0.006037542618766635,0.001091428414419576,0.00013224352528589983,0.24000959677842776,0.4656655234827412,-0.8517928525656265,-0.0014904057052536174,-0.007321960515623083,0.007135293678011629,0.9620970840215127,-0.23982270750529963,0.12879688281770238,-0.016304997908877857
229,4.77974,0.008390961169943284,0.002134740137303757,-0.002641167903423364,0.24001979822630115,0.46561616342562334,-0.8518169794770839,-0.0013981899963462752,-0.00363910278040393,0.004448556535973015,0.9621031714506464,-0.23979392968732494,0.12880366898705267,-0.016316170743444748
230,4.78974,0.012557348139647368,0.0034421304101148673,-0.00021781613743165548,0.24003666044973457,0.46553174591680535,-0.8518583523228919,1.4554505708017735e-05,0.0005250460406216496,0.003025881093147955,0.962113486253263,-0.23974446959740958,0.12881545904413697,-0.016337234501342564
231,4.79974,0.01183278869665397,-0.00046941257392937256,-0.0003489324457904774,0.2400490670910514,0.46542917638009157,-0.8519108951135527,0.003212159672711584,0.0028452784490796876,0.001374649426338504,0.9621268774963083,-0.23968568269587134,0.12882287064579132,-0.016352306239366805
232,4.80974,0.007510483790027358,-0.0034411651523942066,-0.0005928023265196905,0.24002994669736646,0.4653612861833417,-0.8519533699049764,0.001969426352172982,0.002331859541656926,0.0009310348124044161,0.9621377402193301,-0.2396466594237807,0.12881304582010353,-0.016361253253768002
233,4.81974,0.0013680624935220112,-0.0038540899755594112,0.0008151989969159882,0.24000548631289756,0.46532493881534465,-0.8519801165449901,3.3994013518195325e-05,0.0009076595134870703,0.003005147029117637,0.9621447313292948,-0.23962663347121022,0.1287983964195429,-0.016358587279242557
234,4.82974,-0.0022203398952659794,-0.004707173412835049,0.00168984393204009,0.23998281355944157,0.46532252815435954,-0.851987797836452,0.0006668166660228536,0.000858798892649325,0.005406318880914103,0.9621469059304937,-0.2396262297372397,0.12878418457216034,-0.016350033933058603
235,4.83974,-0.007388121139713495,-0.005631863981473802,0.000184442354183207,0.23995640361878756,0.4653525441229527,-0.8519788626249868,-0.00042477676612370915,0.00046903233427672065,0.004645090830901899,0.9621448789477741,-0.23964495800466187,0.12876672463790198,-0.016332682867593484
236,4.84974,-0.010720105879360533,-0.004197465749283126,-0.0009324580974105499,0.2399272522958419,0.4654141591475349,-0.8519534111367173,-0.0030911710679886865,-0.0007918964249988419,0.004946597449420328,0.9621385150067711,-0.2396810201862141,0.12874903016665784,-0.016316580599097037
237,4.85974,-0.008271820712260163,-0.0020003153549512085,0.0008387996043286423,0.23990838019967936,0.4654893986955821,-0.851917600440587,-0.005088122046618626,-0.0012928563815839053,0.007432835028570941,0.9621294180797227,-0.2397243991432474,0.12873778025896235,-0.016302943571345395
238,4.86974,-0.004328222253484167,0.0006634038509236676,0.002119334728540951,0.23991462605636885,0.46554627359329154,-0.8518847487950207,-0.004666191380949477,-0.0012496495738766316,0.007662317585143925,0.9621211259451811,-0.23975790761545301,0.12873914205805392,-0.01628865014805519
239,4.87974,0.0014970483640574348,0.0026040333924595505,0.0023022227143538695,0.23996382541770375,0.46556177698351797,-0.851862431324124,-0.005390781338012507,0.0003518712467508163,0.006401075694912517,0.9621155478626879,-0.23976870329251235,0.12876239540798914,-0.016275646507117304
240,4.88974,0.006271765274214314,0.0029687287738528437,0.004516572548327855,0.2400190290826399,0.4655230106698333,-0.8518680703727207,-0.0036982073759952963,0.004412588407050179,0.005190312066422949,0.9621172866988899,-0.23974920415575177,0.1287877146526601,-0.01626438815710495
241,4.89974,0.00426795873718465,0.0028582859870369703,0.00607431192600907,0.24008135534677982,0.4654760997273733,-0.8518761649082298,-0.0015942521812694309,0.004724962484047858,0.003963317326843676,0.9621197648438623,-0.23972657140962128,0.12881416134532858,-0.016243402190781225
242,4.90974,-0.0021249983255191836,0.0013233488914758758,0.00580864643862619,0.24013668121934797,0.4654672466228134,-0.8518653899203545,-0.0018663818343213593,0.0022131496474016837,0.0031023588170039623,0.9621173604789653,-0.2397253628419128,0.128837286502827,-0.0162196086864091
243,4.91974,-0.003173857453430977,-9.315007471588882e-05,0.004265271327391605,0.2401700121064268,0.4654879165439576,-0.851844705285869,-0.0020568779574201253,0.0010643989446447696,0.002814041659442638,0.9621123865703675,-0.23974040814480074,0.12884943730737822,-0.01619516522917437
244,4.92974,-0.003906631202606462,0.001953772207818909,0.0017851325291607574,0.24018636406811297,0.46550779283691396,-0.8518292367760553,-0.0012388361927078231,0.002244206288192929,0.0034909340020044186,0.9621086469722024,-0.2397542573645049,0.12885373513638884,-0.016175354042463067
245,4.93974,-0.006301730158741084,-2.9224085322780962e-05,0.0017022961441995144,0.24018105820471577,0.46554005017344413,-0.8518130951692569,-0.0001698179433432534,0.0027510708253208793,0.0022076692433788125,0.9621045747690964,-0.23977306094553372,0.1288500523223751,-0.01616819471444773
246,4.94974,-0.005450392807813884,-0.0017735058424765654,0.0004569565871910752,0.24016890211132294,0.4655894439474681,-0.8517895271605066,-0.00043219338439779115,0.0011648121302168443,0.003068397252714723,0.9620985511937127,-0.23980127660407058,0.12884326866770568,-0.016161190021196415
247,4.95974,-0.003371081289427294,-0.000489977028742049,0.0015557975188651668,0.24015545482249392,0.4656289479417819,-0.8517717163010747,0.00016178416323687247,-0.0005409108867836326,0.0046015947097164545,0.9620940713625384,-0.2398241006170085,0.12883531766985631,-0.016153369790595354
248,4.96974,0.0016877533332278322,-0.0021679559045379394,0.0038767407749149795,0.24013545903128414,0.46564731006585436,-0.851767295201036,-0.0005356542777543355,-0.00027008870814453957,0.004437112819779117,0.962093016436019,-0.23983500504109864,0.12882356740192719,-0.01614662157840894
249,4.97974,-0.0016022890992723133,-0.004297167771992169,0.004136752216389908,0.24011866146617947,0.4656562809896774,-0.8517671227455139,-0.0005037650594988258,-0.0033510579641527214,0.005252397459732575,0.9620932440334733,-0.23984208602338333,0.1288107184038266,-0.016129738064501534
250,4.98974,-0.008229845979786769,-0.005667085408741837,0.006790406067362529,0.24009026858926263,0.46570160147383344,-0.851750367774036,0.000527316266637585,-0.006229289416080711,0.00564614081414253,0.9620894648607278,-0.23987161716801392,0.12878829809433703,-0.016094990746689512
251,4.99974,-0.019201772357255217,-0.006539764671842214,0.007880175203861617,0.2400678913793117,0.46580600378849685,-0.8516996095240896,-0.0005658899667314577,-0.008661388559614423,0.00585348148630657,0.9620771900122689,-0.23993625966911136,0.1287664286758193,-0.016043009571548732
252,5.00974,-0.019511742047678984,-0.007277394251377042,0.011944815529510397,0.2400319007725873,0.46595693825797313,-0.8516271648516556,-0.001234562851356688,-0.010529947622936188,0.0018770469150168985,0.9620594428802743,-0.2400282303471347,0.1287356094574642,-0.015978796803142306
253,5.01974,-0.015853710320511888,-0.009639050211070409,0.010232156602981459,0.24000256753533758,0.46609321931845754,-0.8515608523445964,-0.0017128955344886086,-0.008337929796621232,0.0006847234286279022,0.962043390299783,-0.24011310395960994,0.1287061133077909,-0.015907427704043433
254,5.02974,-0.013106777903395228,-0.007759872025867953,0.010617758670619966,0.23999908193243977,0.466191364778107,-0.8515081212256144,0.0006086378642051642,-0.003161310940476913,-9.3517403461768e-05,0.9620309452905743,-0.24017763699516137,0.12868814514391014,-0.015831767197292537
255,5.03974,-0.009220922185880383,-0.006726819491221867,0.010654642746982829,0.23999852780987718,0.4662570866671767,-0.8514722890797289,0.0019318514359152649,-0.00028512930152434744,0.00022538175749746626,0.9620228620608392,-0.24022379554722184,0.12867157341338573,-0.015759185750036903
256,5.04974,-0.008594568960142882,-0.004165670479775973,0.013896085232190497,0.24001262515285898,0.466298568471927,-0.8514456065980869,0.0006766198281353279,0.0006124160275293788,0.0034115370975459506,0.9620170379520909,-0.24025614246743962,0.1286630437498478,-0.015690464888552875
257,5.05974,-0.009884724632459839,-0.0013583026146154467,0.015348727119133095,0.24004821778683097,0.46634474125523634,-0.851410301908466,-0.0012795852729634658,-0.0008123154229268734,0.006059297602333435,0.9621055307850448,-0.24185825761023483,0.1256815997581338,-0.0037241360754448963
258,5.06974,-0.015304147589871604,0.0013432249303276821,0.017702268422667734,0.240136754692085,0.46640536817549044,-0.8513521241781756,-0.005694090474931483,-0.0010089109467612723,0.008287453736898653,0.9621206821286306,-0.24239323993691259,0.12477763234863172,7.109811234946479e-05
259,5.07974,-0.01698525953294957,0.005655380730035292,0.019134284912894716,0.2402563420997772,0.4664787911810377,-0.8512781395702349,-0.008777532014041287,-0.0008381375359506838,0.008221242761171971,0.9621013934067009,-0.24244876635553725,0.1248179952172657,0.00016747157971054268
260,5.08974,-0.01513318488857029,0.006522976496898032,0.017763702263665835,0.2403861067096771,0.4665367685339556,-0.8512097353428371,-0.010161747044358946,-0.001147712040115451,0.007946807372379225,0.9620836252758765,-0.24249548193613338,0.1248642330838789,0.00026070297599172865
261,5.09974,-0.01173228253798028,0.005264615670455045,0.015305871546354174,0.24051976356514515,0.46658310086275273,-0.8511465713810078,-0.010898026520045106,-0.00045574611122745274,0.006737171684997013,0.9620672032571765,-0.2425348487670727,0.1249142132962184,0.0003463997552051219
262,5.10974,-0.004025403209436016,0.008238460944999953,0.013953363632505478,0.24066039154669994,0.46659923056703567,-0.8510979745287511,-0.009177050054821386,0.002728375674991908,0.0033154971723198686,0.962054607335206,-0.24255523874712176,0.12497182467018805,0.00041424871816000226
263,5.11974,0.006925753774832086,0.005333379701229947,0.012261230175064393,0.24077720182308002,0.466556502346081,-0.8510883582993485,-0.006146133921006259,0.005526800428069668,9.895101161523775e-05,0.9620520990755462,-0.24254051991833261,0.12501961397230751,0.00046680201562734696
264,5.12974,0.01675303219869832,0.0014238759876854861,0.002836579656967729,0.24084074270897926,0.4664600078892985,-0.8511232432668498,-0.003831277711538672,0.010391370267495724,-0.005006268677838109,0.9620610700846631,-0.24249155803089745,0.12504482306865852,0.0004932736149249436
265,5.13974,0.021691451840218368,-0.0020620515906792196,-0.005826404549820785,0.24082768662693768,0.4663087266268614,-0.8512098540745181,0.0006202868773363224,0.01765529006726134,-0.0056681010677314516,0.9620835687921695,-0.2424051324497779,0.12503928316313667,0.00047691117506666684
266,5.14974,0.0159529844119156,-0.001959024352495036,-0.008580043731158563,0.24075292730884554,0.466176813883693,-0.8513032518068685,0.0045669320488715935,0.017410508117908594,-0.0014204427065298486,0.962107830594507,-0.24232441801688798,0.12500901005304216,0.0004304772765552121
267,5.15974,0.005738892917838023,-0.0008020366525854847,-0.011596333223801783,0.24066393851153084,0.46612288096866183,-0.8513579602908377,0.002532130152902119,0.011504808510529542,0.003781944714866918,0.9621221794923801,-0.2422852559940271,0.12497547997503192,0.0003726507685326283
268,5.16974,0.0038048225977507914,0.0025306342844303798,-0.014336054059300584,0.24056945826185452,0.46614064090575763,-0.8513749422164072,-0.0032481301771720046,0.007050067932817434,0.009121479181429186,0.962126539628688,-0.24228412819117268,0.12494374488249796,0.0003014435538375871
269,5.17974,0.012007012675829579,0.004715318680186012,-0.011176103009471207,0.2404852680121376,0.46611942779356835,-0.8514103599600007,-0.0035206669622980732,0.005504357747695995,0.013027070189154657,0.9621358062130398,-0.24226062618322344,0.1249184524361039,0.00022337995973147894
270,5.18974,0.023442952635929486,0.0062920558350536195,-0.009462876698792552,0.24044252254989115,0.4660068839634542,-0.8514839943765045,0.0004572761854973245,0.00673421318883861,0.012368288492655227,0.9621549602888638,-0.24218795604537235,0.12491191388726107,0.00015130493672768321
271,5.19974,0.030896965547019484,0.009629624874743349,-0.0030967848629214626,0.24045528380186454,0.46581488215980194,-0.8515854496688078,0.0005944856276028011,0.008155814332534914,0.011667325383313098,0.9621813261587385,-0.24207421180815145,0.12492936178635966,9.4771838760045e-05
272,5.20974,0.0386650292832135,0.008167396993413397,0.0013427457060555866,0.24050739384217326,0.4655443297432236,-0.8517186779463185,-0.0015761071301203826,0.004850577464894985,0.010948420093313005,0.962215985098979,-0.24191947943521325,0.12496246501653524,5.2975989014070605e-05
273,5.21974,0.03805786135569143,0.006097715136903723,0.0015314729707846936,0.24056318406307156,0.46526823455761257,-0.851853794833844,-0.0022240628087035114,0.0013450089750303715,0.007901578339128901,0.9622510834211286,-0.24176290123722832,0.12499520706758413,1.9927363447337328e-05
274,5.22974,0.03302885747552191,0.0020570458170639824,-0.0006207573623392051,0.24061825556412797,0.4650187665705148,-0.8519744697503304,-0.0009089206378135729,-0.0001733356557002511,0.0036865081535516907,0.9622824576710952,-0.24162170951560114,0.1250268599497519,-8.383409312132606e-06
275,5.23974,0.029674678673882002,-0.001956263300421983,-0.0010769074867273533,0.2406283056570594,0.4647904305481872,-0.8520962348458281,0.0012425786654096235,-0.0021976926588938867,-0.0008573391671713683,0.9623140885300581,-0.24149185523572173,0.12503428922663076,-3.356711967928952e-05
276,5.24974,0.022998153471608183,-0.0027663417479985544,-0.0022450298488400564,0.24060011680906915,0.4646081604672524,-0.8522035555642811,0.00031623947248754784,-0.0027422361313692756,-0.0020328611650346127,0.9623418922721685,-0.24138675737490675,0.12502263552428794,-5.990300829163478e-05
277,5.25974,0.01699478477895652,3.588069953635014e-05,-0.00537290029459341,0.24056186009594638,0.46449151407790706,-0.8522779318529116,-0.0003103824480649108,-0.002708905494590568,-0.0018732267612635541,0.9623611510894801,-0.24131645565515736,0.12500964187465982,-9.735996629054846e-05
278,5.26974,0.013218607280357536,0.00032349080370369264,-0.006074917586393815,0.24055858455737825,0.4644253333947161,-0.852314911790946,-0.0018734172235775628,-0.0014207536731985775,-0.00020834349640793748,0.9623707438702478,-0.24127460219327465,0.12501646030134433,-0.00013632372628756298
279,5.27974,0.01053111361589632,0.001746681326469181,-0.005607630076918354,0.24055850089073277,0.4643906218009519,-0.8523338520610898,-0.0043553223844545,-0.002197637450868306,0.004690860305443789,0.9623756555172003,-0.24125052736732988,0.1250250597357773,-0.00017337021803522397
280,5.28974,0.009953168661755961,0.006002697393211446,-0.00018550389093960166,0.2405805557478339,0.46434732672113044,-0.8523512070373559,-0.00589793205370618,-0.004560345783849631,0.007590965643165902,0.962380189445818,-0.24122368674714026,0.1250421035167891,-0.00019802731939774906
281,5.29974,0.014555906229143427,0.007434204506561512,-0.00016775123641023237,0.24064038147153366,0.46426166955415266,-0.8523809873234218,-0.007564961589797909,-0.004831688163056535,0.008723858570301604,0.9623879328581196,-0.2411756274009396,0.12507527154305015,-0.0002104020681919945
282,5.30974,0.015461132607363095,0.006847149597562226,0.001355844482372389,0.24070356061117862,0.464149340669105,-0.8524243167846042,-0.0074164058707502185,-0.004052117526246762,0.008040437012017489,0.9623992008370053,-0.2411127780387424,0.12510983520211927,-0.00022323421169381685
283,5.31974,0.01661139130799095,0.009386123224465139,0.004216094390495983,0.24079983996830395,0.464003649798106,-0.8524764563368379,-0.0070868973349740155,-0.004334044852212625,0.005260948551644279,0.9624127583789265,-0.2410332166468889,0.12515895899068474,-0.0002267690449467951
284,5.32974,0.011467750187329272,0.008879945445967534,0.003408559834539017,0.24089612716483208,0.46386024032887524,-0.8525272799502712,-0.0062583255921278644,-0.004942013281726233,0.004294855660393911,0.9624259400085579,-0.24095526710456944,0.12520750572677414,-0.00022779938992825317
285,5.33974,0.007189902912936924,0.009254566043825331,-2.746678501277383e-05,0.2409718236748834,0.4637667138220449,-0.852556768149489,-0.0047373683967586715,-0.005258942453987034,0.0037990544267974876,0.962433603387194,-0.2409032837553429,0.1252486392577299,-0.0002390424139867989
286,5.34974,0.001623428500562696,0.00843319421829978,-0.0010987670457970006,0.24103928188074522,0.46373538175810275,-0.8525547630817933,-0.0037389061456266836,-0.004435026021026533,0.0025031509592174277,0.9624331410538253,-0.24088387736918898,0.125289965438912,-0.00026392925876995375
287,5.35974,-0.0007038125433513698,0.006419904829614356,-0.0008187258624000344,0.24109357653957408,0.4637463500690672,-0.8525334612471505,-0.0019189290549454774,-0.002212813526153433,-0.0008155901386474075,0.9624275967109643,-0.24088891203556534,0.12532283051450832,-0.0002796403075627115
288,5.36974,-0.006392643765769586,0.0049983815865948305,-0.0012034186619947534,0.2411328850111072,0.4637736991064489,-0.8525074388900342,0.0005021657824692217,0.00044187146906645813,-0.0014889147712269855,0.9624208398119372,-0.24090350075761294,0.12534663133799223,-0.0002896093789716686
289,5.37974,-0.012026106536671,0.003770078771087669,0.005002677219725402,0.241154684182245,0.4638296928697929,-0.8524707885306807,0.0005117258071829187,0.0004344573333812595,0.0012558210543371095,0.9624113107261179,-0.24093536786558764,0.1253584495552271,-0.0002865817699514036
290,5.38974,-0.01976229014478204,0.007032077617763729,0.0054385516744826015,0.24120606988823776,0.46395581790068646,-0.8523876365514946,0.0011047686998866806,-0.0015769073777926266,0.004365679663309621,0.9623897276658246,-0.24100945178620337,0.12538189784888942,-0.0002622855483384424
291,5.39974,-0.022486907238434207,0.005456395848197185,0.006766002482628373,0.24126797705823114,0.4641210508274798,-0.8522801546850248,-0.0028216043628799497,-0.00360270041478508,0.007153910587334995,0.9623618413133842,-0.24110618609550852,0.12541019697625594,-0.00023224727917827746
292,5.40974,-0.02137046238818379,0.008338461654211237,0.009173416697520084,0.24134626671067239,0.46428107445638295,-0.8521707916590011,-0.004805811374502837,-0.0035809885463631693,0.008986452862902543,0.9623333547152373,-0.24120225725971794,0.12544346576707097,-0.00018781244562600063
293,5.41974,-0.02052905375608568,0.011492015772954911,0.004617778261722109,0.2414531987937881,0.4644375917390306,-0.8520552247551776,-0.004620570278503682,-0.0023202874756404973,0.009467898343491819,0.9623032893349007,-0.24129504079063668,0.12549541389123653,-0.0001577055373973197
294,5.42974,-0.01894821076019075,0.013314571363694721,0.004347858864329237,0.24155643058330756,0.4645858650009153,-0.851945124277327,-0.0038160454121298273,-0.0016585298939257543,0.01053136196787575,0.962274710757456,-0.24138178087175866,0.12554791218664005,-0.00013823210545388433
295,5.43974,-0.01872136145282783,0.01586301969115094,0.0010239116959395622,0.24169119043905035,0.46472609242245955,-0.8518304133975939,-0.0037025721171552407,-0.0027256115646555746,0.008857427201404946,0.9622449038207502,-0.24146317191217062,0.12561980101204998,-0.00013010557739658523
296,5.44974,-0.021663898075538972,0.01634766495405025,-0.0017921502371225262,0.2418352936844952,0.4649007079936468,-0.8516942084286885,-0.004063425862014581,-0.00289551096048287,0.005665271224786421,0.9622095489576018,-0.24156201335774663,0.1257007568987536,-0.00013587584841307884
297,5.45974,-0.02727954301100134,0.018002756721357958,-6.833408169429778e-05,0.24197967159032224,0.46510454788231576,-0.8515419049829613,-0.000978241856622267,-0.00020427501680628322,0.003528351163931795,0.9621700186332035,-0.24167698537805446,0.12578261950721403,-0.0001424581675736829
298,5.46974,-0.029401877198290016,0.014977736438742232,-0.0010510420837301182,0.24212139317574308,0.4653462347025529,-0.8513695446975733,-0.00044359015734691387,-0.00041417815206517384,0.003679972764463484,0.9621251857455926,-0.24181344200156957,0.1258629149613131,-0.00014549583546503883
299,5.47974,-0.02954350748433831,0.013774460465471513,0.0009635704994850206,0.24224017091670533,0.4655927131527945,-0.8512010194061378,-0.003328567639355552,-0.001154393851275571,0.002869449737027501,0.9620813908855487,-0.24195282882831992,0.1259298298009828,-0.00014325048171524418
300,5.48974,-0.024088709205045838,0.009959160964520467,0.004554728324924195,0.24234004800771533,0.46582518238203335,-0.8510453601005421,-0.004495354200086243,0.0006156230116947054,6.419074706004967e-05,0.9620409244589562,-0.24208533306586827,0.12598416269297083,-0.00013176076707347462
301,5.49974,-0.014266973797470819,0.008162171808087416,0.0028336982282566223,0.2424220189346211,0.46599348100896104,-0.8509298526900922,-0.00028581243868808313,0.004646331494323614,-0.003291686172542738,0.9620108873715721,-0.24218213697943694,0.12602728485472686,-0.00011814273525478827
302,5.50974,-0.004843456524636547,0.003045114444581696,0.0024296706142030405,0.2424774756902045,0.46607634149890326,-0.8508687576627799,0.003834957588945907,0.007387765914993735,-0.00436121905666199,0.961995117135613,-0.24223043788389972,0.12605573144376656,-0.0001084240307037937
303,5.51974,-0.006596540460090139,-0.00019656732400836823,0.0007709269212195641,0.24249024042600703,0.46612183478443325,-0.8508401293961833,0.005068979520244062,0.006602300776395734,-0.0011929639237488817,0.9619876374068633,-0.2422569790904241,0.12606141805879875,-0.00010074672449967789
304,5.52974,-0.00942052635893911,-0.0025124240570446304,0.001285273165835962,0.24246875403889506,0.4661897349692777,-0.8508090294513012,0.003824011683668172,0.003149914605930289,0.0032599714754705245,0.9619795133854769,-0.2422946789633462,0.12605063068014766,-9.800895508876526e-05
305,5.53974,-0.014644944187452867,0.0031677445879986716,8.60533219078875e-05,0.24247878162609005,0.4663036885024027,-0.8507438116471965,-0.0007142779145747164,-0.0033241760387696115,0.006419898670091842,0.9619626509781709,-0.2423590839238625,0.12605625544071225,-9.084653006637238e-05
306,5.54974,-0.014530808481771584,0.005770833876025931,0.0004510995965623306,0.24251793921779954,0.4664262515004263,-0.8506654211306008,-0.002037860343373695,-0.004993264152604177,0.0066769178998351405,0.9619423038989716,-0.2424279937313347,0.12607913127031953,-9.026628333539103e-05
307,5.55974,-0.009356818904972605,0.0044104606234571745,0.0004966587952512879,0.2425538435234745,0.4665143917997119,-0.8506068269517528,-0.0012802171452606847,-0.004629286284757185,0.005538038434104884,0.9619269622483927,-0.24247758673187966,0.1260999812747695,-9.094034981997021e-05
308,5.56974,-0.007839810998688825,0.006795315312465338,0.0032130439109628265,0.2425716443801424,0.4665786303342867,-0.8505665100969092,0.0011930014796528998,-0.004470541242086852,0.004718675183542704,0.9619164733489624,-0.24251432731365216,0.12610924395836212,-8.550810064013949e-05
309,5.57974,-0.008519562070916519,0.006189674278448336,0.006620530065192049,0.24263150890464513,0.46664738033688025,-0.8505117103238155,0.001340087177396653,-0.005316350053693627,0.005552093861518198,0.9619022394898044,-0.24255614445012483,0.12613743408648415,-6.647626498080542e-05
310,5.58974,-0.013246447963210888,0.0025293987222350612,0.009189251393997394,0.24270775850990534,0.4667441023753211,-0.8504368877318702,0.0008300298947149122,-0.007046721472548867,0.005048403413834246,0.9618827954876918,-0.24261633881266692,0.12616998457775577,-2.8265146908419845e-05
311,5.59974,-0.017539920426444578,-0.0018084599066677315,0.010712221620088573,0.24277331376018857,0.4668616107115178,-0.8503536601023999,0.00014100910611442898,-0.006761020700686184,0.0035778356031354467,0.9618611911430468,-0.24269140271631512,0.12619049531014015,3.673480860642446e-05
312,5.60974,-0.018634289484098704,-0.0038329042239287512,0.01152910493270786,0.24282362332705357,0.46699749077425584,-0.8502647201540676,0.0002786584497212067,-0.003950903574569033,0.00210064137413964,0.9618380487768752,-0.2427770066970764,0.12620211189255798,0.00010633460470437528
313,5.61974,-0.018993695533453852,-0.007349424547595618,0.008752210382842941,0.2428164537727621,0.4671292204645671,-0.8501943559237622,0.0003990147574125544,-0.0011148410644202054,0.00047644343464257,0.9618197313832306,-0.24285896878959282,0.12618372554717275,0.00017387563899338607
314,5.62974,-0.02084754687466694,-0.0069700358343896904,0.004487139267131435,0.24278799611900956,0.4672867802403804,-0.8501159348200669,0.0019011963609906752,-0.0017427938053666517,0.0006561330177437222,0.9617993252809334,-0.24295340738478838,0.1261573820476272,0.00023013397931696296
315,5.63974,-0.019460628708210338,-0.0057807878468895835,0.00039765398557965086,0.24275167633749697,0.46745231053885494,-0.8500352783460418,0.002051252452072429,0.0001694082247353534,0.0013651824632268414,0.9617783962134637,-0.24304889497815912,0.12613321216171341,0.00026184492195932834
316,5.64974,-0.015906312750053532,-0.004479107212949569,-0.0005402498082394359,0.24272023873296375,0.46758457290859623,-0.8499714845098343,0.0015951501106728331,0.0020547321427558545,0.0024022865767975928,0.9617617955081276,-0.2431246293255915,0.12611367820050928,0.00028299885944440363
317,5.65974,-0.012324506707952446,-0.0008351152865197805,0.0005735111356433373,0.24270749753644322,0.46768382928430646,-0.8499205250360822,0.0020102402058747464,0.00125328741420163,0.005965135644819141,0.9617485331180485,-0.24318188824442893,0.12610433485170658,0.0003005687811776695
318,5.66974,-0.009426305030514302,0.002749493348313001,0.000899876570285338,0.24272297475795587,0.46775962175188807,-0.8498744290784,-0.0006249895544912345,-0.001130028443869283,0.007647211843337035,0.9617366356725304,-0.2432256299731987,0.12611134896482787,0.00031076694485500047
319,5.67974,-0.005844496241909783,-0.0014195482436652074,0.002141661532161093,0.2427366661768742,0.4678149008468535,-0.8498400955116765,-0.001899465027920742,-0.001733463652201317,0.007087989961154283,0.9617276855336575,-0.24325806444864326,0.126116865644532,0.0003216860510826543
320,5.68974,-0.0044683031145947355,-0.004021444856810942,0.0007783323612377603,0.24273347762472525,0.4678390227388088,-0.8498277284047365,0.0015062454536679515,-0.0006224795835679622,0.005299367536236294,0.9617244653615393,-0.24327274900138834,0.12611305759948602,0.00033182839770472657
321,5.69974,-0.004305075419561253,-0.005205076504789983,0.0024633462846016226,0.2427177258317642,0.4678603123984571,-0.8498204994675451,0.0029243091216670236,0.0012819396986204622,0.003076400143066048,0.9617225947889658,-0.24328693821536057,0.12610001464836584,0.00035197835062405423
322,5.70974,-0.005494798512079405,-0.004568753830187155,0.0017102228425397048,0.24269816658409687,0.46789705175465024,-0.8498058760339443,0.0031703855297040436,0.002074106743359853,0.0048083473946130785,0.9617187632010786,-0.24330952681329412,0.12608547275296036,0.00037121322771370316
323,5.71974,-0.011363410133699785,-0.006156131526620018,-0.0011080235355260932,0.24266655948755642,0.46796985412270564,-0.8497748236089576,0.00037096774383242213,-0.0008086633990875597,0.0052508283242519065,0.9617107212137569,-0.24335133950728882,0.12606631932396756,0.00038606464603966803
324,5.72974,-0.010408240123765743,-0.005474675949404493,-0.0013562406556905675,0.2426153458948951,0.46807682591853045,-0.8497305352177301,-0.0008855492536428472,-0.0024364575601542953,0.004699420570279958,0.9616991873072347,-0.2434109408621598,0.12603910887553924,0.0003942540910019889
325,5.73974,-0.0032307135212202376,-0.006021537252288444,-0.0021941654356000878,0.24257494885668363,0.4681529914145106,-0.8497000855534341,0.0007662848866589135,0.0019236062128275317,0.0014276248190808437,0.9616912619326027,-0.24345267329007472,0.12601885994082382,0.0003953138889942048
326,5.74974,-0.00014000640758687335,-0.006551616854368772,-0.0034105057597710662,0.2425088654389169,0.46817420525096476,-0.8497072532621184,0.0004394980612663064,0.006517837186371554,0.002718137120241433,0.9616931259305223,-0.2434631030931385,0.12598448291494696,0.0003943876132440954
327,5.75974,0.002105092840067595,-0.00649173687911035,-0.00313988069955279,0.24244128174271423,0.46817652065276816,-0.8497252598982903,0.0003078173014967114,0.0029986065420491287,0.003385891304581711,0.961697817440513,-0.24346248961972816,0.12594990480281942,0.00038975710495097273
328,5.76974,0.0068932819752755186,-0.004806681440268635,-0.003420841404867972,0.24237968408107521,0.4681601240960763,-0.8497518762433659,-0.0010325209013210231,0.0021012058067566017,0.002943222268068451,0.9617047522960279,-0.24345123718139344,0.12591883579530164,0.0003824051385910104
329,5.77974,0.006841958472614984,-0.004315618549072237,-0.002292554216292206,0.24234059505807531,0.4681219679401354,-0.8497840636192886,0.0007633109668979648,0.004225510546922049,0.004201842531117687,0.961713132614264,-0.24342858522504643,0.12589875651372304,0.00037714517121765725
330,5.78974,0.008792437069248865,-0.0051986481649235975,-0.003377506345518027,0.24230725954864557,0.4680642870723872,-0.8498253079960187,0.00037730655050635133,0.0027719344079030436,0.005376269070813714,0.9617238548274897,-0.24339434517820113,0.12588300247954226,0.0003654334481790206
331,5.79974,0.011558073795139503,-0.005624917620403743,-0.0036168678666918396,0.24224788023807312,0.4679987902801269,-0.8498782930684289,-0.003074374543537017,0.0017338605040653258,0.004816954137644985,0.9617376299339009,-0.24335449622067362,0.12585480165700985,0.00034781801523584607
332,5.80974,0.011086434317458522,-0.004386643972492598,-0.005774841948923699,0.24219082566094075,0.467914426968787,-0.8499410135623774,-0.002494313777681785,0.0015792893768596453,0.006050470660340334,0.9617539349091249,-0.24330403947833823,0.12582777597894998,0.0003290419423260272
333,5.81974,0.008924794798741066,-0.006025887783863905,-0.006749577580314259,0.24210592125759303,0.46784078442188587,-0.8500057479975933,-0.0011679676537015339,0.0008663267228904247,0.004083965744229153,0.9617707820533761,-0.24325700930389474,0.12579008857260882,0.0002948595394980964
334,5.82974,0.010384623510178947,-0.005874727831293552,-0.007298040875911805,0.2420416805036616,0.46779584524095613,-0.8500487525896301,-0.002151868506363489,-0.0002601004593464751,0.0032749966541818073,0.9617818828046114,-0.2432263242541478,0.12576396495671982,0.00026041465437114016
335,5.83974,0.0074500100768374634,-0.007059462366149197,-0.008345222311441202,0.2419606988361677,0.4677553020673621,-0.8500941117980673,-0.0009406300033660505,-0.0019030587674120855,0.0035946045526395235,0.9617937034753343,-0.2431974308631423,0.12572963621226912,0.0002235963200112515
336,5.84974,0.007226126677577769,-0.00948969185198608,-0.009762570724353058,0.24185802157973837,0.4677275983648519,-0.8501385697801279,-0.0025195426992234743,-0.0024022230777628953,0.0027893232153286865,0.9618052520724242,-0.24317558151953836,0.12568350881871063,0.0001889533777256479
337,5.85974,0.0016738086827994426,-0.009425615381813942,-0.008449289405672624,0.24175975681035294,0.4677356322781814,-0.8501621116426106,-0.0030102282836765143,-0.002376052632034166,0.0019677534237459004,0.9618113369903332,-0.24317411408548656,0.12563955247148,0.00015762126482380746
338,5.86974,0.0033481318496660977,-0.009400795159991952,-0.004575925859398347,0.24167429975669555,0.46775912243952644,-0.8501734992306978,-0.0010898093625320235,-0.002367383907025848,0.004612219914744791,0.9618144343068663,-0.24318442808547303,0.1255968589104863,0.0001491671985418567
339,5.87974,-0.001172269060829863,-0.00727146450384757,-0.0018688768294250042,0.2415912750292465,0.46777594660674743,-0.8501878416009664,-0.0036392863929892117,-0.00255770765952709,0.004030845713604865,0.961818081094174,-0.2431915756577819,0.1255545379387965,0.00014395769353671615
340,5.88974,-8.149084881601469e-05,-0.006954893231364876,-0.0016507115229302707,0.24152333697076617,0.4678017089891525,-0.8501929448045988,-0.005511280360082503,-0.0024747919077355205,0.004381423307927871,0.9618194215230756,-0.24320471398756058,0.12551885742856475,0.00014469665106960704
341,5.89974,-0.0021287970003386987,-0.003655484415012463,0.00011388789808120556,0.24147650598349332,0.46781963971035295,-0.8501964033530638,-0.0030703168351201987,-0.0013746146451070287,0.0041089156422075505,0.961820312902842,-0.24321466372233114,0.12549273695438024,0.00015126194375754962
342,5.90974,-0.0008550790194754476,-0.004887895683460815,-0.0006178855590701709,0.24142101711394312,0.4678374335374649,-0.8502023316489196,-0.0028814970664611155,-0.0012428924614397091,0.002649324512154937,0.9618217975049566,-0.2432236238111002,0.1254635181450519,0.00015197022362280533
343,5.91974,-0.002096962019142862,-0.006682430726896207,-0.0033669877935907323,0.24136576090102643,0.46785641486696194,-0.8502076183739711,-0.004664350296148392,0.0009492616346449018,0.005083876081437734,0.9618232540072178,-0.2432329461545443,0.12543495023981016,0.00015059768896514043
344,5.92974,0.0013499841578815336,-0.006504602525157555,-0.005024918597789806,0.24130048270512713,0.4678674067506787,-0.8502201364949505,-0.0019677167397140474,0.000857750458857499,0.005866943299894262,0.9618265516345984,-0.24323627156900637,0.12540358162728157,0.00013874027607960228
345,5.93974,0.0010794998953276484,-0.0019196659351904425,-0.006887045613883017,0.24122116694125767,0.46786724202661956,-0.8502426824154661,-0.00042037043743639786,0.0014733747730215564,0.004330793765184804,0.9618323075383512,-0.24323183791592148,0.12536718902776292,0.00011665555712671988
346,5.94974,0.0007982326478612919,-0.002539842043052299,-0.005619876906102503,0.24116763610460906,0.4678675727888287,-0.8502576900944487,-0.004383986737245961,0.003582679818517542,0.0033466455483981694,0.9618362240817205,-0.24322748352755558,0.12534570923341457,8.952216898703942e-05
347,5.95974,0.00428004200565973,-0.002193896286858544,-0.004122957042393603,0.24111053463382512,0.467850927727058,-0.8502830659015641,-0.004134704091831946,0.003408444549116291,0.004146220966184304,0.9618428631960028,-0.24321438593386419,0.12532054863900927,6.823167854956401e-05
348,5.96974,0.002895848018014472,-0.0049225259763892104,-0.0034528731559671988,0.2410456611272008,0.4678385215007542,-0.850308291883372,-0.0013806508556114452,0.0005396601793892296,0.0053102015021216364,0.9618494235450099,-0.2432043528607905,0.12528967287415343,5.356739246547163e-05
349,5.97974,-0.0009892199151350198,-0.005023271766313534,-0.00335804346609404,0.24098213255602327,0.46784018121553644,-0.8503253975309757,-0.0015796831192869483,-0.00039842041363841055,0.005250199809681374,0.9618538754329098,-0.24320318025357962,0.12525784432050918,4.656572909578586e-05
350,5.98974,-0.0014691231265872345,-0.003453126831778908,0.0006721298230681332,0.2409327856288113,0.46784919672847797,-0.8503344139692236,-0.0009390762846428046,0.0004262653694703648,0.004613529485951913,0.9618562847154808,-0.24320731964495534,0.12523176526179622,4.701674477123568e-05
351,5.99974,-0.007218142534242111,-0.005213861009749971,-0.0015256635300967757,0.2408887179080583,0.46790459310320603,-0.8503164224014848,-0.0009431891577163759,-0.0031069309608890002,0.0050927902643698175,0.9618516098862403,-0.24323826879921132,0.12520756207678016,5.452773473906908e-05
352,6.00974,-0.010068692451092778,-0.006107519397120558,0.0021666818442696283,0.24085308269249384,0.4679971443576927,-0.85027558192385,-0.003269152426981616,-0.004929056074653099,0.004113561789027394,0.9618409847133463,-0.24329080841242043,0.12518703340488063,6.790833169861908e-05
353,6.01974,-0.00978611794552842,-0.005569278076341206,0.004084913369438271,0.2408226146644994,0.46809566891278565,-0.8502299448245249,-0.0024599432087630095,-0.0049468428579387425,0.002998913743682245,0.96182910044637,-0.24334808291851223,0.1251668057411639,9.136597357338336e-05
354,6.02974,-0.008874879219895857,-0.0018418471338592082,0.006109497163272328,0.2408016031161545,0.4681767771796893,-0.8501912641853148,-0.00041971038202340055,-0.0005553711917155929,0.00338506784528001,0.961819040529995,-0.24339669057138105,0.12514959939074546,0.0001213289191683654
355,6.03974,-0.00222573175863478,-0.004153706631256051,0.0061294309788886185,0.24078622359979907,0.4682338325523311,-0.8501641449146273,-0.0004748170020698805,0.0025670017669806493,0.003725825783055069,0.9618119565260076,-0.2434324782811663,0.12513410842434008,0.00015459446602814116
356,6.04974,0.0033681506587870274,-0.003809372085789256,0.006283067473154364,0.24079470196739292,0.46821654408462693,-0.8501712881670983,-0.00227492135033231,0.003929203736566655,0.002460899473106005,0.9618138048667352,-0.2434281998308116,0.12512817715361813,0.00019448727344344914
357,6.05974,0.01133298012536563,-0.0058474310043262765,0.004871850658251419,0.24079251961916348,0.4681445146985056,-0.8502115585180008,-0.0016738280234977372,0.007202988804356509,0.0010643225842205228,0.9618242177417571,-0.24339234387012584,0.12511747336225862,0.00022697717176714926
358,6.06974,0.014013080504657978,-0.004986033229648228,0.004499810018867916,0.2407686140632823,0.4680290173848929,-0.8502819022931751,-0.0009314635249788317,0.010286162608778312,0.002228177963664858,0.9618425099590561,-0.24333079660903392,0.12509662546575132,0.0002509193219587
359,6.07974,0.00955300353129635,-0.005258910791566873,0.002332346335042903,0.24076268060259925,0.467920627823586,-0.850343264314577,-0.0011305225567394953,0.00888199290152185,0.0023676330743732815,0.9618584268727782,-0.24327241383052695,0.12508761040937863,0.0002662505585061088
360,6.08974,0.008981122107106637,-0.0006460277294565896,0.0015707615001010217,0.24073644705253666,0.46783141956763413,-0.8503997747155104,-0.005258473745235971,0.006592852518635225,0.00299511809263294,0.9618731258373887,-0.24322270441730526,0.125071310432201,0.00026925162140735307
361,6.09974,0.016307420308672046,-0.0020784368745806786,-0.0026880645106056845,0.24071178718926597,0.46771479994273013,-0.850470872471781,-0.004126725723049861,0.006211379340104149,0.0010913982886326735,0.9618916149343343,-0.2431551495873527,0.12506049320970922,0.0002518978197268094
362,6.10974,0.02439026293107899,-0.004852827375426324,-0.0043783286455957564,0.2406680871218749,0.46755544626030987,-0.8505708874307923,0.00033771404527478807,0.009287149756814852,0.001377327588741164,0.9619176107747598,-0.24306255102667715,0.12504064879561677,0.0002272835663459086
363,6.11974,0.020464342385904197,-0.0008832005273827985,-0.0042813381624827625,0.24062640409141164,0.46739374593945415,-0.8506715573771375,-0.00044423002490942396,0.006475261123448445,0.005474562339277144,0.9619438045432831,-0.2429678234665693,0.12502346851758087,0.00019613135376687788
364,6.12974,0.017107568016737025,0.0007584201085699192,-0.0010042843935828272,0.24060062810798302,0.4672547621367139,-0.8507551607252865,-0.0037688909197777973,0.0003593632287869193,0.008559746695692004,0.9619655046541623,-0.24288679565254606,0.12501369580333024,0.00017066167652030368
365,6.13974,0.01597775902617328,0.0042308976739911545,0.00149384274214088,0.24061212970534282,0.46713514340739204,-0.8508176037710095,-0.006024675763077746,-0.003406478966024787,0.010711014786534415,0.9619817198418247,-0.24281844683433582,0.1250216116733267,0.00015468056031950973
366,6.14974,0.014194607601491539,0.005933583762569048,0.0012166031689698972,0.24065851822184026,0.4670371045964643,-0.8508582874125341,-0.006098559627617604,-0.004309829845109153,0.009542014250746668,0.9619922643080497,-0.24276373230394996,0.12504650401617654,0.00014619629424464432
367,6.15974,0.014151134940185764,0.007250560406637812,0.0016458043856289624,0.24071065018920318,0.46694206184062,-0.8508957246053792,-0.003564132869586333,-0.0023034268856689244,0.007461814779787705,0.9620021382944339,-0.24270962240569574,0.12507665679340876,0.0001290269733407984
368,6.16974,0.014368284967753685,0.007039187964442491,0.0021286982720982715,0.24076976872189693,0.4668351592798739,-0.8509376399552531,-0.0038877685213383017,-0.001810318807209484,0.005759520037189536,0.9620130219235039,-0.24265024180141517,0.12510805746357595,0.00012077760561718186
369,6.17974,0.010295059761452875,0.005119826830676905,0.0020457074800703016,0.24081639794707946,0.4667426402407499,-0.8509752115177055,-0.0037084432767417585,-0.002508114238563007,0.0027364008341193213,0.9620228173281985,-0.24259919263216806,0.1251319827212223,0.0001169561565515417
370,6.18974,0.007704010781045478,0.0029586811410968997,0.003107687777192881,0.24087310599549389,0.46669641313487975,-0.8509845259227939,-0.002477506174187696,-0.004162759922430765,0.0008672165705547457,0.9620251071499122,-0.24257484706980623,0.12516067437005546,0.00011889656599146425
371,6.19974,0.008655409546995407,0.005079033516437104,0.0016165113814319983,0.24093426224653883,0.46665148602546563,-0.850991876268276,-0.0012035619461679748,-0.002677521845767198,0.00123954404274105,0.962027128863397,-0.2425517701685808,0.12519068192616764,0.0001249139105107405
372,6.20974,0.005992582454400611,0.005090837238200134,0.00043929489508287735,0.24097019464007252,0.4665983768915399,-0.8510108449171634,-0.0017550932902499362,-0.0016476420409690992,0.0005843503865425742,0.9620320643170934,-0.2425219330173837,0.1252106364335861,0.00011732020648812007
373,6.21974,0.0029419496308324853,0.0012150896424236847,0.00014502508165156335,0.24099076324917906,0.46656247089656816,-0.8510246754340818,-0.0021338987579897534,-0.0020669613061008517,0.0008574346360093319,0.9620356751369254,-0.24250184242404688,0.1252218697777009,0.00011329998037204139
374,6.22974,0.00011525350548880854,0.005222812587491235,0.0032927792967897595,0.24102757140299005,0.46655148126283036,-0.8510202549106136,-0.001884233165835111,-0.0019598814343736205,0.0024501771832589167,0.962034496458225,-0.24249718499531445,0.12523967800589944,0.00011916058186769654
375,6.23974,0.0001258100115200021,0.005948536473263541,0.004227618794109257,0.24109070471341548,0.46655461972372103,-0.8510006604497441,-0.002632929247172072,-0.0014967662711979615,0.005714844391597697,0.9620293402450913,-0.2425019717466429,0.12526958222578907,0.00013336095770635786
376,6.24974,0.0013399471872474287,0.007344105354318463,0.0037882627868793153,0.24114945513575642,0.4665357727147243,-0.8509943109140203,-0.004692472348110186,-0.004472191836704046,0.006616041081210606,0.9620277122202819,-0.2424934512271595,0.1252986789474748,0.00013990675946748984
377,6.25974,0.0012760759402659883,0.007851840261683828,0.00439459851317723,0.2412134991513354,0.46651824728248814,-0.8509857796550363,-0.0038921886443163594,-0.004607825990623476,0.007329790147280828,0.9620255268788149,-0.24248617756751537,0.12532976687986205,0.00014974729789718195
378,6.26974,-0.002925996519891829,0.008750949003104828,0.010700517726374545,0.24131551656462327,0.4664999388769728,-0.8509668897523456,-0.003796516875196447,-0.006385450428887318,0.00902712886194943,0.9620205141540306,-0.24248172832345008,0.1253760924434194,0.0001789233600115268
379,6.27974,-0.0060564784493747715,0.010576197996584331,0.009317530293102881,0.24145694085767824,0.4665156297227473,-0.8509182076503754,-0.00046501834328658187,-0.007238261491712799,0.008702454437784054,0.9620078561946575,-0.24249806905736,0.12544160833057957,0.00021713583049582215
380,6.28974,-0.0036848066802211785,0.013113152978044084,0.010940519009626544,0.2415896825282717,0.4665267951276248,-0.8508744061322824,-0.0009462715253275426,-0.005242225024363277,0.005367424490634646,0.9619965316566825,-0.24251097370179556,0.12550391840943292,0.0002494947630809831
381,6.29974,-0.0034070055128258793,0.015630828624332505,0.009001581377447863,0.24174791769830853,0.4665265135478611,-0.8508296171335029,5.630544962423074e-05,-0.0023305972966688494,0.002437827060640619,0.9619849011941893,-0.24251832262298303,0.12557890409462463,0.00028429413455103675
382,6.30974,0.00024038745329521628,0.01952747195707848,0.008899709122006456,0.24192870322832333,0.4665036311780432,-0.8507907524863415,0.0010764799345329102,0.0001707150376412902,0.002532137049465992,0.9619748260426328,-0.24251147578876533,0.12566939300736493,0.00030332028001937936
383,6.31974,0.003004270916023187,0.016155543901113144,0.010256841486352912,0.2421078717530646,0.46647161228146977,-0.8507573598275852,-0.0013095011289835652,0.002906471079843888,0.0011536117291500892,0.9619661503284404,-0.24249969279192193,0.12575856945087863,0.00032351481225215454
384,6.32974,0.001837225965278942,0.01336558297918612,0.012241787130453128,0.24227995398618313,0.4664171854300815,-0.8507381515236192,-0.0017128814778966264,0.004672348272991137,0.0025210733960473065,0.9619610263686736,-0.24247729636710294,0.1258398692453108,0.0003585081879520226
385,6.33974,-0.0005137047012003336,0.012993097564053428,0.014702166675626575,0.24243932902850876,0.46638484337422853,-0.8507104812451106,-0.0014220140953802836,0.00351744527626107,0.0033126681435448504,0.9619538002331205,-0.24246832726952092,0.12591210114505968,0.0004043553491072674
386,6.34974,0.00018477614960281635,0.010706505121027311,0.019486788998057312,0.24260107477380058,0.46633698335571705,-0.8506906599483955,-0.001224134053600642,0.002590376439474528,0.003872544538029252,0.9619486200252317,-0.2424529252579578,0.12598119835256955,0.0004664842416977695
387,6.35974,0.003271325292013839,0.010169270657160053,0.023278154731309186,0.24279485560015407,0.4662504112118988,-0.8506828306736776,-0.0003743086276071758,0.003432219919494154,0.002574195252613871,0.9619466451972905,-0.24241967152757585,0.12606064673034548,0.0005519810633907423
388,6.36974,0.0057446821728073276,0.012344728798456304,0.03136921591176328,0.24300118171912016,0.46614144438368793,-0.8506836461815507,0.0021916949285311934,0.0029396617589053887,0.0034741040553251438,0.9619467962967992,-0.24237740763097446,0.1261402774348823,0.0006615883077702809
389,6.37974,0.011120947318146347,0.011813402941958805,0.0350553521070396,0.24324866360486327,0.4659816902233268,-0.8507004256494208,0.0041671100512758645,0.0029516011353124356,0.006030688227369331,0.9619510837370505,-0.2423112976152681,0.12623396112381313,0.0007983063017559437
390,6.38974,0.009622182184739514,0.011909636934081954,0.04007294317739049,0.24351325817692437,0.4658084282140585,-0.8507196044581127,0.0037936788651509977,-0.000597287057739073,0.006442887018701375,0.9619559310967709,-0.24224066298759683,0.1263314867648791,0.0009548614896507279
391,6.39974,0.013556543479929892,0.012422897148841991,0.04332833363412826,0.24378818866828286,0.4656237204725484,-0.8507420141902409,0.005806059316788906,1.3359825919129507e-05,0.007132894401478414,0.9619615516681512,-0.24216638594697337,0.12642957206205885,0.0011302428368619398
392,6.40974,0.018475039892138233,0.009810042058998082,0.0471557777188776,0.2440849810452177,0.4654021766777941,-0.8507781444448861,0.008728100366156554,0.0007898335231935336,0.007153626871301543,0.9619706824531705,-0.24207507383302773,0.12653297370214195,0.0013280275213336668
393,6.41974,0.02232407645482882,0.011221385711596931,0.05246250831969904,0.2443951734983911,0.46512785927879785,-0.8508390895649116,0.0062594086568345956,0.0032070013129362304,0.006390216745216213,0.9619861995066766,-0.24195655835426388,0.1266391860025256,0.0015392867831475103
394,6.42974,0.023373511940612345,0.014077510109363048,0.05477910052334509,0.24474670753835767,0.4648190141491975,-0.8509067850546403,0.005081718624739322,0.002794271547529145,0.00452324880632418,0.9620032824165736,-0.2418216107974987,0.1267632462926558,0.0017645000220827532
395,6.43974,0.03422310250805878,0.01034281998704295,0.056979574007178534,0.2450982448821246,0.464461800115174,-0.8510006566487309,0.00524968316022507,0.003326960125232634,0.002088010546114878,0.9620272546209538,-0.24166079868303691,0.12688473276034187,0.0019968252878936154
396,6.44974,0.0441973237430146,0.012084134206438248,0.058440847472630814,0.24545302638324368,0.46399991288947073,-0.8511503786667899,0.0036505408204784194,0.004709053137566891,0.0030161440693061473,0.9620657070084213,-0.24144172044626627,0.1270067474054942,0.002226962653828268
397,6.45974,0.04675218758185926,0.009006073865739858,0.06076920568549547,0.24583143403131782,0.4634920597012817,-0.851317853621581,0.0024131682768516248,0.004530424397484423,0.0016947045655777509,0.9621086716315188,-0.24120005062921954,0.12713619185090144,0.0024746782247718163
398,6.46974,0.05237531859874993,0.004494160483623317,0.0624072838529997,0.24618279006699081,0.46292906852394516,-0.8515225812499969,0.0008065587499799687,0.0036688010260566596,0.0017748167930494295,0.9621611734264672,-0.24092766913927927,0.12724994050760163,0.0027246689063519344
399,6.47974,0.0641555055803366,-0.000952942508013111,0.06118237789964126,0.24651478398903948,0.46229798111534975,-0.8517693489020146,-0.0010462611105067935,0.00031825888683708443,0.0015104366998719542,0.9622244382770937,-0.240618490874303,0.12735014975973838,0.0029838521935038674
400,6.48974,0.06860604185808214,-0.004684793392251772,0.0507199019945142,0.24679296703127415,0.4616217613517472,-0.8520554921974477,0.0008179298500733837,0.0010868255650126758,-0.004587266639967099,0.9622980993524052,-0.24028071189020644,0.1274261011776927,0.003223717737596971
401,6.49974,0.07561958497488759,-0.009819984952145866,0.04973086010581823,0.24698064950350151,0.46090741131308205,-0.8523877572768837,0.006074196877328413,0.010510643721647827,-0.005936379714605276,0.9623835911397534,-0.23991536247194656,0.12746266025982544,0.0034277131555776937
402,6.50974,0.06467239391424494,-0.015104657336821536,0.049909576212821445,0.24712779437140614,0.4602066937671156,-0.8527236589311926,0.009785423595975585,0.008334322859837361,-0.00373602233755082,0.9624701414906127,-0.23955695660411555,0.12747793619421616,0.003632527254383404
403,6.51974,0.05588945264833818,-0.017804773785472898,0.04301145419797829,0.24721760686370453,0.45959485742548506,-0.8530275707594805,0.008693351025262605,0.00010243006843688011,0.0012509629653831783,0.9625483494359524,-0.23924615967609603,0.127465590940601,0.003832925350027324
404,6.52974,0.05633510732608026,-0.01706836777085711,0.043249053014181256,0.2472848296423633,0.4590621078100138,-0.8532949105201146,0.0018522759109028451,-0.005678557853519215,0.003521428567024423,0.9626170149034757,-0.23897767193380415,0.1274448876694821,0.004024641433744362
405,6.53974,0.04782336765684824,-0.01572782475392798,0.04817930059991852,0.24737552822984016,0.4585396957322193,-0.8535494994889633,-0.0017374329055016087,-0.008046933955589797,0.0034639461664462074,0.962682288777547,-0.23871699971205623,0.1274340335642468,0.004227933392055293
406,6.54974,0.04526084853511342,-0.00922191934647281,0.040545196806696646,0.24747576702985885,0.45807445122299206,-0.8537702122443487,-0.002996708306953374,-0.005246569421407044,0.007615538191389699,0.9627387196460657,-0.2384875202174871,0.12743068677471162,0.004425524708280306
407,6.55974,0.029427697452007608,-0.003992076593560543,0.04317922888072932,0.2476049976761108,0.45766357272156744,-0.8539530423397704,-0.0060234979281242555,-0.007795379037190846,0.011345708625271763,0.9627852314374868,-0.23828713513925734,0.12744687443904293,0.004610107872628933
408,6.56974,0.02200536924814853,-0.0018111713571889287,0.042156416883679555,0.24777136918000095,0.4573615175274565,-0.854066610230008,-0.01025682695342159,-0.01655951196934942,0.01074577164089313,0.9628138152845639,-0.2381481720989992,0.12748383216896086,0.004797389082044719
409,6.57974,0.027335105537737613,0.0036413605765078876,0.035230309407914356,0.247976703088859,0.4570940519903862,-0.854150196997267,-0.012815084230231403,-0.013503564132128767,0.013636614179030926,0.9628346556585327,-0.2380267593300021,0.1275466552839249,0.0049658905684091285
410,6.58974,0.038788070976799725,0.006216153029914096,0.030555438424234,0.24820459290960428,0.45674458438999027,-0.8542709935815862,-0.014107857611347002,-0.0063962955550814615,0.006187642862610846,0.9628653859924654,-0.23785537319198904,0.12762964096107532,0.0050961031513830565
411,6.59974,0.042396310902270376,0.001993366919121887,0.0233064092187435,0.2483954035165361,0.4563365715645116,-0.8544335628264714,-0.01591196718150886,0.0017635147961002997,0.0013413147109527877,0.9629070628986672,-0.23764747037689518,0.12769843462785416,0.005200879546268069
412,6.60974,0.03543518558017611,-0.0007349177222163797,0.014081574648026552,0.2484991679709574,0.455958173929061,-0.8546053838554833,-0.01598132344839264,0.001975572497251833,-0.0009186937981914576,0.962951197528687,-0.23744946858563307,0.12773044865372982,0.0052701571681054386
413,6.61974,0.017005475086503304,-0.0019565090001943605,0.004621712723308322,0.24851936020915888,0.45572548462016393,-0.8547236100016792,-0.014941971997407653,-0.0030716712062920457,-0.0006685672355925783,0.962981720172779,-0.23732483710978128,0.1277306739842035,0.005298113700929075
414,6.62974,0.004918290552187889,0.002354830706927002,-0.003963412654241948,0.2485031124484074,0.4556513084677223,-0.8547678449225491,-0.01968569490726832,-0.004686144894767994,0.0002517413818208632,0.9629932612742197,-0.23728213347605684,0.12772337062414726,0.005288270088282621
415,6.63974,-0.00023464531212902164,0.004477684477251483,-0.01000178045298772,0.24848436300188323,0.45563752858040457,-0.8547806729639115,-0.020044372526125984,-0.00229458761264815,-0.003197751870488352,0.962996818025823,-0.2372685078239085,0.1277236146886301,0.00524614991145436
416,6.64974,0.0056682532668915035,0.0010508719932725427,-0.010500175847617876,0.24844561520721598,0.4556177037241104,-0.8548024833351133,-0.01557330276424875,0.0020075255860812456,-0.004751755115902173,0.9630027877599777,-0.23724962547313344,0.1277159604455314,0.005192762308669316
417,6.65974,0.013166916877540258,-0.000460355861183278,-0.014290761227126388,0.24835320008689007,0.45555501130763365,-0.8548627781501597,-0.010334927622240225,0.009025351579847504,-0.004691858886126303,0.9630188606527689,-0.23720305434571723,0.12768447126771168,0.005118182606314954
418,6.66974,0.010568563072121421,-0.00010182548246145197,-0.014724750040358605,0.2482197062211043,0.4554868896317595,-0.8549378112671653,-0.006933626482171685,0.010169544409424155,-0.00298663698963504,0.9630387767453921,-0.23715080977499595,0.12763456013214472,0.005029807282647697
419,6.67974,0.004257172439201538,-0.0014132855800990571,-0.018876101660386287,0.2480672523132316,0.455466013217722,-0.8549931858503934,-0.005076618858873248,0.008778336157723558,0.0013953766515345657,0.9630536195311089,-0.23712357042221371,0.1275767151364796,0.004935870953333693
420,6.68974,-0.005767463651385335,0.003216703777918964,-0.020842780650466998,0.2479252543225895,0.4555337261227745,-0.8549983570322278,-0.0022278498977997057,0.004907259557709952,0.007221648223493455,0.9630556029992484,-0.23714427944444022,0.1275281114069718,0.0048323437969495925
421,6.69974,-0.0103020399574381,0.005991246347075352,-0.021718879003046893,0.2478005741085082,0.4556504814966468,-0.854972292652483,-8.674330982031816e-05,-6.24259694144413e-06,0.008694406209097741,0.9630493815365501,-0.23719172456496124,0.1274909724903691,0.0047226904472872705
422,6.70974,-0.007643172641472384,0.008897358423782272,-0.021396420402117318,0.24767530164058257,0.45577182016784334,-0.854943921668924,0.0006144572183381939,0.0007724191730828113,0.00984745546210578,0.9630425850260209,-0.23724063834963685,0.12745558879910826,0.004604993285542032
423,6.71974,-0.0024566981289667047,0.014051347621105145,-0.021516243649704274,0.24756796668580203,0.4558591315361827,-0.854928419394664,0.003663410682960014,0.0037002746779112843,0.009053774474286442,0.9630391388217123,-0.23726981086905685,0.1274316344343596,0.004477311496619616
