time,seconds_elapsed,rotationRateX,rotationRateY,rotationRateZ,gravityX,gravityY,gravityZ,accelerationX,accelerationY,accelerationZ,quaternionW,quaternionX,quaternionY,quaternionZ
1681410594787747000,0.1037470703125,-0.05654415860772133,-0.011377356946468353,0.000783997995313257,0.2731422781944275,0.4155893325805664,-0.8675706386566162,-0.003824591636657715,0.012374013662338257,0.011888325214385986,0.9663257715895763,-0.21503583325042813,0.1413303292496184,-6.344022003306043e-18
1681410594797723400,0.113723388671875,-0.049413543194532394,-0.009182911366224289,0.004372074734419584,0.27307260036468506,0.41606321930885315,-0.8673654198646545,-0.0045025646686553955,0.011472880840301514,0.013254761695861816,0.9662725810344716,-0.215301712794862,0.14128860360000478,0.000060350050167849004
1681410594807699000,0.123698974609375,-0.0442185178399086,-0.004986569285392761,-0.002223243471235037,0.27301880717277527,0.4164634644985199,-0.8671902418136597,-0.005837351083755493,0.012049198150634766,0.009890496730804443,0.966227228997302,-0.21552596604824328,0.141256651587161,0.00010846015445332714
1681410594817675800,0.13367578125,-0.030622079968452454,-0.009102964773774147,-0.0025238145608454943,0.27296051383018494,0.41679275035858154,-0.8670504093170166,-0.003246098756790161,0.022919893264770508,0.002899467945098877,0.9661911858000367,-0.21570766073719097,0.14122675891539582,0.00013076144975700466
1681410594827652000,0.143652099609375,-0.030075067654252052,-0.006581483408808708,-0.0014564197044819593,0.27288928627967834,0.4170478880405426,-0.8669500946998596,0.0008687078952789307,0.03243038058280945,0.0051337480545043945,0.9661651288685988,-0.21584878128772036,0.14118867597935741,0.0001531823746443523
1681410594837629000,0.15362890625,-0.04036179184913635,-0.004425388760864735,-0.0011466939467936754,0.27282896637916565,0.4173715114593506,-0.8668133616447449,0.002576977014541626,0.024767249822616577,0.010215520858764648,0.966129739193946,-0.21602845035632803,0.1411560687548376,0.00018240391701735185
1681410594847606000,0.16360595703125,-0.04509636014699936,-0.004735913127660751,-0.00008009787416085601,0.2727978527545929,0.41775432229042053,-0.866638720035553,-0.00213739275932312,0.01739591360092163,0.014999985694885254,0.9660845292751726,-0.21624199131550897,0.14113839355813354,0.00021875447298254038
1681410594857581800,0.173581787109375,-0.038559697568416595,-0.0034835869446396828,0.004575740080326796,0.2727704346179962,0.41813036799430847,-0.8664659857749939,-0.007038533687591553,0.01734033226966858,0.016383647918701172,0.9660397928026458,-0.21645299628169906,0.1411209075439753,0.0002624016473856309
1681410594867559000,0.183558837890625,-0.03913068026304245,-0.0043299393728375435,0.004031656309962273,0.2727501392364502,0.4184642732143402,-0.8663111925125122,-0.00270003080368042,0.019890308380126953,0.016991794109344482,0.9659998658347521,-0.21664180566287702,0.1411054016957426,0.00031049740518795856
1681410594877535700,0.19353564453125,-0.041562777012586594,-0.0007732342928647995,0.00712813064455986,0.2727501392364502,0.41879501938819885,-0.8661513328552246,0.0002906918525695801,0.01951378583908081,0.018739283084869385,0.9659584766879901,-0.2168302406821859,0.14109916036676934,0.0003649636743005359
1681410594887512000,0.203511962890625,-0.04287971183657646,0.004437240771949291,0.005479101091623306,0.272784560918808,0.419154554605484,-0.8659665584564209,-0.004351913928985596,0.014439314603805542,0.017165958881378174,0.965910631385849,-0.217035120980732,0.1411115470760802,0.0004199420961658933
1681410594897489000,0.213489013671875,-0.0431361086666584,0.006650860421359539,0.007233891170471907,0.27286145091056824,0.419515997171402,-0.8657673001289368,-0.007129579782485962,0.011407583951950073,0.016142725944519043,0.9658589003692043,-0.21724095071643457,0.14114791100150129,0.0004684030484035835
1681410594907465000,0.22346484375,-0.043454620987176895,0.0027908748015761375,0.005059420131146908,0.2729261517524719,0.4199020266532898,-0.8655596971511841,-0.006858646869659424,0.012394815683364868,0.012181520462036133,0.9658051983429123,-0.21746122851238778,0.141176321507845,0.0005254028229829573
1681410594917441800,0.23344189453125,-0.04240773245692253,0.0022326759062707424,0.005636793095618486,0.2729818820953369,0.42026978731155396,-0.8653636574745178,-0.005968242883682251,0.015277177095413208,0.011436104774475098,0.9657544217993409,-0.21767068477673163,0.14120075813571106,0.0005773929654209962
1681410594927419000,0.2434189453125,-0.04746986925601959,0.0011559599079191685,0.00370387127622962,0.27301451563835144,0.42065006494522095,-0.865168571472168,-0.002628713846206665,0.015430957078933716,0.012812674045562744,0.9657039172103716,-0.21788694523576713,0.14121258956473973,0.000631991063729354
1681410594937395000,0.25339501953125,-0.05511147528886795,-0.00002190377563238144,0.005661594215780497,0.2730328440666199,0.4210887849330902,-0.8649492859840393,-0.004783302545547485,0.009743183851242065,0.015797793865203857,0.9656470290931083,-0.218135958217213,0.14121633261196923,0.0006935784425491097
1681410594947372000,0.2633720703125,-0.04670147970318794,0.0047424910590052605,0.0012135824654251337,0.2730587124824524,0.4216986298561096,-0.8646439909934998,-0.008257627487182617,0.008919775485992432,0.012928962707519531,0.9655679624479182,-0.2184755159006542,0.14123192739506976,0.0007338501683669153
1681410594957348900,0.273348876953125,-0.04683620110154152,0.0020372001454234123,-0.002921557519584894,0.27311572432518005,0.42225778102874756,-0.8643530607223511,-0.006956636905670166,0.015043914318084717,0.00749582052230835,0.9654926038927408,-0.21878459667595135,0.14126848026817773,0.0007504899473555217
1681410594967325000,0.283324951171875,-0.05249861627817154,0.0005554170347750187,0.002877742052078247,0.2731054723262787,0.42283689975738525,-0.8640730977058411,-0.004916936159133911,0.02363535761833191,0.00758206844329834,0.9654200736781564,-0.2191038743401478,0.14126903276303837,0.0007703330764705984
1681410594977301800,0.2933017578125,-0.07637365907430649,0.009613040834665298,-0.00412027956917882,0.2730962932109833,0.4234905540943146,-0.8637558221817017,-0.005609661340713501,0.0185108482837677,0.005754232406616211,0.9653379096842901,-0.21946447491654053,0.14127074362628003,0.0007934629324447036
1681410594987278800,0.30327880859375,-0.08475835621356964,0.0014914642088115215,-0.03863351419568062,0.27299773693084717,0.4243837296962738,-0.8633485436439514,-0.015795499086380005,-0.003836125135421753,-0.0025418996810913086,0.9652324584544796,-0.21994314706509305,0.14124710086740802,0.0007391770356270468
1681410594997255000,0.3132548828125,0.004791770130395889,-0.0052453745156526566,-0.045149605721235275,0.2727566361427307,0.42498114705085754,-0.8631308674812317,-0.020956039428710938,0.02081972360610962,0.012590765953063965,0.9651762776464199,-0.22023616775899865,0.14117578791575525,0.0005393771131359561
1681410595007232000,0.32323193359375,0.04847134277224541,-0.0094158835709095,-0.032269757241010666,0.2725302577018738,0.4249303936958313,-0.863227367401123,-0.004540115594863892,0.053203850984573364,0.004737436771392822,0.9652013563970976,-0.22017556419039438,0.14109942625865401,0.0003441628392112303
1681410595017208800,0.333208740234375,0.04165787622332573,0.0015700818039476871,-0.03953361511230469,0.27234286069869995,0.42470189929008484,-0.8633989095687866,0.006038576364517212,0.048931002616882324,-0.0024915337562561035,0.965245838044928,-0.22001780387128864,0.1410415170042108,0.00014402567963352916
1681410595027185000,0.343184814453125,0.005204260349273682,-0.006620204076170921,-0.05188855156302452,0.27207866311073303,0.4247291088104248,-0.8634688258171082,-0.0044089555740356445,0.027800917625427246,0.00703883171081543,0.9652639488080625,-0.21999154691079106,0.140958534321139,-0.00010388097575326752
1681410595037161700,0.35316162109375,-0.014551601372659206,-0.0037133637815713882,-0.03418385609984398,0.27180179953575134,0.4250039756298065,-0.8634207844734192,-0.016583234071731567,0.011290699243545532,0.012697577476501465,0.9652514152413294,-0.22010431874268188,0.14086769147536446,-0.00032640766277802053
1681410595047138800,0.363138916015625,-0.039603959769010544,0.004305148031562567,-0.028855670243501663,0.2716376781463623,0.42548611760139465,-0.8632349371910095,-0.01625126600265503,0.0035758912563323975,0.009795665740966797,0.9652031896557879,-0.22034519906119684,0.14082091230708466,-0.0004627350546904382
1681410595057115000,0.373114990234375,-0.029861748218536377,0.026798471808433533,-0.0329284593462944,0.27164003252983093,0.42602646350860596,-0.8629676103591919,-0.013446033000946045,0.0017079710960388184,0.019782304763793945,0.9651338546543999,-0.22061728758438584,0.14086943218979786,-0.000624822258974434
1681410595067092000,0.383092041015625,-0.007580144330859184,0.020783722400665283,-0.023657996207475662,0.271570086479187,0.4262295365333557,-0.8628893494606018,-0.020181506872177124,0.01455119252204895,0.03444403409957886,0.9651135109728682,-0.22070373908811436,0.1408729014853349,-0.0007851752493874121
1681410595077068800,0.39306884765625,0.005983501207083464,0.028088774532079697,-0.027259105816483498,0.271525114774704,0.4264513850212097,-0.8627939224243164,-0.025553375482559204,0.032014280557632446,0.03880411386489868,0.9650886152589371,-0.22079674451829773,0.14089655974037127,-0.0009742685951966288
1681410595087044900,0.403044921875,-0.03236495330929756,0.017950385808944702,-0.043071359395980835,0.2715213894844055,0.42700743675231934,-0.8625200390815735,-0.027746915817260742,0.018183112144470215,0.006868243217468262,0.9650174562877967,-0.2210712509288848,0.1409520666007044,-0.0011783936256346058
1681410595097021700,0.413021728515625,0.00003409927012398839,0.02151060476899147,-0.049395713955163956,0.2714936137199402,0.4275905191898346,-0.8622398972511292,-0.02066957950592041,0.007956475019454956,0.006969571113586426,0.9649445874229862,-0.22135231106321676,0.14100784070305872,-0.0014363955219361196
1681410595106999000,0.4229990234375,0.016957422718405724,0.021401414647698402,-0.050418369472026825,0.27141502499580383,0.4278201162815094,-0.8621507287025452,-0.004904955625534058,0.03432294726371765,-0.005448698997497559,0.9649210526689004,-0.2214345542759791,0.14103676381006972,-0.0017243146299210066
1681410595116974800,0.432974853515625,0.0031772286165505648,0.02066750079393387,-0.04933203384280205,0.2712554633617401,0.4279332756996155,-0.8621447682380676,0.004364103078842163,0.04095417261123657,-0.012870430946350098,0.9649188177635469,-0.22145006984485235,0.14102299705606133,-0.002023054810835277
1681410595126952000,0.442951904296875,-0.03226518630981445,0.010912608355283737,-0.06078708916902542,0.271055668592453,0.42826342582702637,-0.8620436191558838,-0.0020737051963806152,0.023701995611190796,0.00865018367767334,0.9648919525503816,-0.22158545045542585,0.1409895931193968,-0.002310089547648477
1681410595136928800,0.4529287109375,-0.03938174992799759,0.015927182510495186,-0.07449907064437866,0.270822674036026,0.4288390576839447,-0.8618307113647461,-0.012033551931381226,0.007745534181594849,0.01658540964126587,0.9648359357292358,-0.22184760160120304,0.14095492085838404,-0.002646125114937615
1681410595146904800,0.46290478515625,-0.038458697497844696,0.02521868608891964,-0.051967132836580276,0.2706083655357361,0.42954719066619873,-0.8615453243255615,-0.011391997337341309,0.009280413389205933,0.007633030414581299,0.9647610399358075,-0.22218220835389907,0.1409340319286641,-0.002986204680408922
1681410595156882000,0.4728818359375,-0.06364211440086365,0.022708281874656677,-0.04935279116034508,0.27044281363487244,0.4304133951663971,-0.861164927482605,-0.0020864903926849365,0.012564599514007568,0.010762155055999756,0.9646615821210991,-0.22261657842894364,0.14092340878986706,-0.0032431844103564243
1681410595166859000,0.48285888671875,-0.10043101757764816,0.027155760675668716,-0.06433173269033432,0.27020561695098877,0.4314134120941162,-0.8607388734817505,0.00002759695053100586,-0.002671867609024048,0.015844523906707764,0.9645502539330861,-0.22312085227704856,0.14088166910045674,-0.003516646931927562
1681410595176834800,0.492834716796875,-0.08470386266708374,0.02664182521402836,-0.07333208620548248,0.27000316977500916,0.4324510991573334,-0.8602815270423889,-0.006361782550811768,-0.009217977523803711,0.017691314220428467,0.9644304056935584,-0.22363868215901414,0.1408721638162022,-0.003844667714019045
1681410595186812000,0.50281201171875,-0.05055920407176018,0.02706500142812729,-0.06756315380334854,0.2698579728603363,0.43337804079055786,-0.8598605394363403,-0.0012879669666290283,0.0061972737312316895,0.015866458415985107,0.9643198790037928,-0.22409436967817797,0.1408951163947906,-0.0041900996159065056
1681410595196789000,0.5127890625,-0.027547627687454224,0.026663077995181084,-0.06738778203725815,0.26980116963386536,0.43404141068458557,-0.8595437407493591,0.005101233720779419,0.024576842784881592,0.010621070861816406,0.9642363087771596,-0.22440861358196912,0.14095709939002157,-0.0045246163759332355
1681410595206765000,0.52276513671875,-0.030008388683199883,0.011472406797111034,-0.0748709961771965,0.2696421146392822,0.43458113074302673,-0.859320878982544,0.005412876605987549,0.02315211296081543,0.005057632923126221,0.9641767292373584,-0.22465080902110843,0.14096654910266102,-0.004876959263745095
1681410595216742000,0.532741943359375,-0.03835739940404892,0.01360543817281723,-0.08264116942882538,0.2693287432193756,0.43515539169311523,-0.8591285347938538,0.010624289512634277,0.01809176802635193,0.004087090492248535,0.9641248729959474,-0.22490509845724965,0.14090218749746533,-0.005259668915122418
1681410595226718000,0.542718017578125,-0.02705361135303974,0.01630481891334057,-0.07902806252241135,0.26900815963745117,0.43573617935180664,-0.8589345812797546,0.013889849185943604,0.01738893985748291,-0.004209280014038086,0.9640724018197815,-0.22516198558432782,0.14083600485517475,-0.005649379464410124
1681410595236694800,0.55269482421875,-0.004417906980961561,-0.010223357006907463,-0.07176653295755386,0.2686922550201416,0.43614089488983154,-0.8588280081748962,0.016616612672805786,0.02496454119682312,-0.002530515193939209,0.964042490824949,-0.22532716246190113,0.14076098945647347,-0.006006557120842261
1681410595246672000,0.562671875,0.014842872507870197,-0.01152990385890007,-0.07020352780818939,0.26833391189575195,0.4362705647945404,-0.8588742017745972,0.017722666263580322,0.040826112031936646,0.015154778957366943,0.9640523613776394,-0.22534497442791226,0.14065041337768874,-0.00633432727483286
1681410595256648000,0.57264794921875,-0.01407669298350811,-0.02863304316997528,-0.06445011496543884,0.26790037751197815,0.4363977611064911,-0.8589449524879456,0.011671215295791626,0.033634066581726074,0.005490422248840332,0.9640687574602845,-0.22536536516767497,0.14049195405497275,-0.006627952737505316
1681410595266625000,0.582625,-0.029091328382492065,-0.025873742997646332,-0.05413861945271492,0.2674270570278168,0.4368094503879547,-0.8588831424713135,0.011747777462005615,0.007648646831512451,0.004055321216583252,0.9640511155843028,-0.22554976307794705,0.14030582056913576,-0.006865213582315224
1681410595276601900,0.592601806640625,-0.03352569043636322,-0.024421626701951027,-0.04682514816522598,0.26705995202064514,0.43735471367836,-0.8587198853492737,0.017241865396499634,0.00046584010124206543,0.015870213508605957,0.9640073331460072,-0.22581529347774312,0.1401695590109739,-0.007061096766304279
1681410595286578000,0.602577880859375,-0.03442424535751343,-0.016116824001073837,-0.04393455386161804,0.26676082611083984,0.43789637088775635,-0.8585368394851685,0.012246191501617432,0.0010533332824707031,0.022935032844543457,0.9639586276221629,-0.22608384385086286,0.14006315588368187,-0.0072303942769404335
1681410595296554800,0.6125546875,-0.025527453050017357,-0.008860189467668533,-0.02773289754986763,0.2665823996067047,0.4383239150047302,-0.8583740592002869,0.0034371912479400635,0.0055085718631744385,0.03172922134399414,0.9639154024020369,-0.22629671001492713,0.14000992445258661,-0.007364329226597657
1681410595306531800,0.62253173828125,-0.019315630197525024,-0.002345563843846321,-0.011764317750930786,0.2665589153766632,0.4386323094367981,-0.8582237958908081,-0.00003355741500854492,-0.0017120540142059326,0.02599424123764038,0.9638759013253121,-0.22645626421464674,0.14002024339449737,-0.0074305057959566986
1681410595316508000,0.6325078125,-0.011675819754600525,0.002093497198075056,-0.005010407883673906,0.2666502296924591,0.4388946294784546,-0.8580613136291504,0.001675635576248169,-0.006658792495727539,0.022734224796295166,0.9638335678729284,-0.2265987250937807,0.14007987280282103,-0.007451817598411599
1681410595326485000,0.642485107421875,-0.015411436557769775,0.0009603220969438553,-0.004621053580194712,0.2667742073535919,0.439267635345459,-0.8578318357467651,0.0062208473682403564,-0.0022863149642944336,0.021238327026367188,0.9637739508198429,-0.22680327033194925,0.1401582972611568,-0.007468216705423383
1681410595336462000,0.652462158203125,-0.0220334529876709,-0.00211312435567379,0.004653770476579666,0.26684775948524475,0.4395889937877655,-0.8576443195343018,0.004957079887390137,0.0018173456192016602,0.01600015163421631,0.9637253277286759,-0.2269819048347097,0.1402035926720136,-0.007462572491430009
1681410595346438000,0.66243798828125,-0.024257192388176918,-0.006684440188109875,0.0015565144130960107,0.2669190764427185,0.4398029148578644,-0.8575124740600586,0.0040770769119262695,0.003877013921737671,0.007475912570953369,0.9636915320810625,-0.2271085096257414,0.14023370699906562,-0.007408371552747014
1681410595356414700,0.672414794921875,-0.026139747351408005,-0.011184277012944221,0.0009509947849437594,0.2670045495033264,0.4400327503681183,-0.8573679327964783,0.0033659636974334717,0.009628593921661377,0.004844188690185547,0.963654459179583,-0.22724366950775454,0.14027241463941054,-0.007357126217144547
1681410595366391800,0.682391845703125,-0.02237776666879654,-0.011913716793060303,-0.0018687602132558823,0.26702985167503357,0.4402908384799957,-0.8572275638580322,-0.00029090046882629395,0.016847342252731323,0.001514732837677002,0.9636183580765936,-0.22739201579284302,0.14028219879922682,-0.0073159219507645595
1681410595376367900,0.692367919921875,-0.009159831330180168,-0.011636694893240929,-0.005595787428319454,0.26699182391166687,0.44054514169692993,-0.8571087121963501,-0.004525333642959595,0.02089598774909973,0.00008362531661987305,0.9635875774364318,-0.22753247176348104,0.1402662388036065,-0.007308348517058862
1681410595386345000,0.702344970703125,-0.0009778020903468132,-0.009374072775244713,-0.00848664902150631,0.2669300436973572,0.440660297870636,-0.8570687770843506,-0.006843924522399902,0.022505104541778564,0.0009744763374328613,0.963577105491548,-0.22759214931250565,0.14024060970843294,-0.007327201706763494
1681410595396322000,0.712322021484375,0.0027780206874012947,-0.0033576730638742447,-0.01185230165719986,0.26688432693481445,0.44068679213523865,-0.8570693731307983,-0.010200917720794678,0.021776705980300903,0.005934178829193115,0.9635769300126805,-0.2275996518449518,0.14022732348867412,-0.007371027756632471
1681410595406297900,0.7222978515625,0.00030128087382763624,0.0024179238826036453,-0.010756144300103188,0.2669205963611603,0.44072654843330383,-0.8570376634597778,-0.012846410274505615,0.016869395971298218,0.012463748455047607,0.9635683756159737,-0.22761562850851733,0.14025795372420632,-0.007415294645419114
1681410595416275000,0.73227490234375,-0.0018798146629706025,0.0023193350061774254,-0.010599867440760136,0.26695874333381653,0.4407943785190582,-0.8569908738136292,-0.011694401502609253,0.011705130338668823,0.015209317207336426,0.9635557952938254,-0.22764608364221278,0.14029191492958654,-0.0074664764654477425
1681410595426251800,0.742251708984375,-0.0056998529471457005,0.009013189934194088,-0.0054945871233940125,0.26701945066452026,0.44086506962776184,-0.8569356203079224,-0.011144787073135376,0.008521586656570435,0.01681727170944214,0.9635411833293596,-0.2276806302390761,0.14033435851526127,-0.00750264002069233
1681410595436227800,0.752227783203125,-0.0028099571354687214,0.0105034951120615,-0.004081530496478081,0.26712164282798767,0.44096431136131287,-0.8568527102470398,-0.010117799043655396,0.008803844451904297,0.01281285285949707,0.9635194128775467,-0.22773137496569978,0.14039967811796322,-0.007539585553812796
1681410595446205000,0.762204833984375,-0.0004759626754093915,0.012150393798947334,-0.006726582068949938,0.2671726942062378,0.44108378887176514,-0.8567752838134766,-0.007895290851593018,0.009157389402389526,0.010400831699371338,0.9634989528088497,-0.2277914299305226,0.1404401258215007,-0.007583965359668381
1681410595456182000,0.77218212890625,0.00528755085542798,0.003680476453155279,-0.0076685259118676186,0.2671588361263275,0.4412055015563965,-0.8567169308662415,-0.005623131990432739,0.013201355934143066,0.0042389631271362305,0.9634833287524683,-0.22784947357935403,0.1404498195257672,-0.0076438387492990065
1681410595466157800,0.78215771484375,0.006531246937811375,-0.005304762162268162,-0.015583174303174019,0.2670414447784424,0.4413118362426758,-0.856698751449585,-0.0015537440776824951,0.02072441577911377,0.0010164380073547363,0.9634780499039682,-0.22789528606136975,0.14040781337005398,-0.007718981589517148
1681410595476135000,0.792135009765625,0.003882966237142682,-0.011638613417744637,-0.015649570152163506,0.26683011651039124,0.4414462447166443,-0.8566953539848328,0.00225868821144104,0.020040690898895264,-0.00005507469177246094,0.9634764913780658,-0.2279534008357414,0.140319499347417,-0.007806319429580004
1681410595486112000,0.802112060546875,0.004433441907167435,-0.014331867918372154,-0.02543535642325878,0.26654860377311707,0.44159093499183655,-0.8567084074020386,0.00096854567527771,0.018232792615890503,0.001926422119140625,0.9634790148436622,-0.22801395580020797,0.14019778939962893,-0.00790881782267643
1681410595496088000,0.812088134765625,0.0033909138292074203,-0.018591009080410004,-0.028908267617225647,0.266230970621109,0.44172489643096924,-0.8567381501197815,-0.0010484158992767334,0.019304275512695312,0.0050841569900512695,0.9634856976292717,-0.2280646666806086,0.1400622716835822,-0.008035062646418956
1681410595506065000,0.82206494140625,0.0018063330790027976,-0.015467386692762375,-0.028655266389250755,0.2658957839012146,0.4418756365776062,-0.8567644953727722,-0.0018881559371948242,0.01488107442855835,0.007765531539916992,0.9634913567563873,-0.22812410065892988,0.1399184010832099,-0.008163449134419293
1681410595516042000,0.8320419921875,0.0016932818107306957,-0.012374656274914742,-0.02776344120502472,0.2656201422214508,0.44201597571372986,-0.856777548789978,-0.001612544059753418,0.011811017990112305,0.010479450225830078,0.9634936605003992,-0.22817919038301637,0.13980512065783232,-0.008288551419460942
1681410595526017800,0.842017822265625,0.0008458639495074749,-0.011121639981865883,-0.025104274973273277,0.26536503434181213,0.442140132188797,-0.8567925691604614,-0.0029443204402923584,0.010099947452545166,0.014614284038543701,0.9634965904401236,-0.2282260154882196,0.13970180735556972,-0.008411371829462822
1681410595535995000,0.851994873046875,0.004716003313660622,-0.004877539351582527,-0.019526733085513115,0.2651805877685547,0.4422593414783478,-0.8567882180213928,-0.004377305507659912,0.0077377259731292725,0.015159249305725098,0.9634944982939899,-0.2282725223142694,0.13963366643912895,-0.008524800569251815
1681410595545972000,0.861971923828125,0.004343160428106785,-0.0015392666682600975,-0.013228889554738998,0.26507681608200073,0.44236552715301514,-0.8567654490470886,-0.005463719367980957,0.003374338150024414,0.0166928768157959,0.9634877698725718,-0.22831652870858332,0.13960238620563592,-0.008614314626576016
1681410595555948000,0.871947998046875,0.006078576203435659,-0.002436644397675991,-0.012374697253108025,0.26502278447151184,0.4424482583999634,-0.8567394614219666,-0.006508320569992065,0.005488842725753784,0.013264179229736328,0.9634803470420853,-0.22835055113725153,0.13959332681388723,-0.008688567069942914
1681410595565924900,0.8819248046875,0.0007930003339424729,-0.003531469963490963,-0.008309115655720234,0.2649654746055603,0.44253262877464294,-0.856713593006134,-0.005459189414978027,0.0069456398487091064,0.011147856712341309,0.9634730617997013,-0.22838790590674005,0.1395785268037992,-0.008745706161187765
1681410595575900700,0.891900634765625,0.0027579469606280327,-0.0034055570140480995,-0.0109124556183815,0.2648824453353882,0.4426489770412445,-0.8566791415214539,-0.003377288579940796,0.0065240561962127686,0.007130920886993408,0.9634636470394259,-0.2284433162861884,0.13954953766480702,-0.008797289597992171
1681410595585878000,0.9018779296875,0.0031089517287909985,-0.006684173829853535,-0.013003570027649403,0.2647874057292938,0.4427476227283478,-0.8566575646400452,-0.004090934991836548,0.009843438863754272,0.0018297433853149414,0.9634575655318139,-0.2284882520068203,0.1395146411607157,-0.008852663394989269
1681410595595855000,0.911855224609375,-0.0008471406763419509,-0.009800447151064873,-0.016547488048672676,0.26466161012649536,0.4428485035896301,-0.8566442728042603,-0.003415822982788086,0.011878758668899536,0.0007025599479675293,0.9634535201475767,-0.22853309774140532,0.1394649867610935,-0.008914364362131992
1681410595605831000,0.921830810546875,-0.004111111164093018,-0.011867325752973557,-0.0228264220058918,0.2644822299480438,0.4430088400840759,-0.8566167950630188,-0.0013443827629089355,0.014220893383026123,0.0022314786911010742,0.9634457183043721,-0.22860725000813176,0.13939268766820564,-0.008994315460275355
1681410595615808000,0.93180810546875,-0.006105352193117142,-0.014522496610879898,-0.025713589042425156,0.2642784118652344,0.44318822026252747,-0.8565869331359863,-0.0018271803855895996,0.014041513204574585,0.0034070611000061035,0.9634370286853422,-0.22868886647421838,0.13931237371246755,-0.009093126428787925
1681410595625784800,0.941784912109375,-0.010358952917158604,-0.011690489947795868,-0.027207888662815094,0.2640310227870941,0.4433771073818207,-0.8565654754638672,-0.002937823534011841,0.015759974718093872,0.006254255771636963,0.9634303882051474,-0.2287730054075725,0.1392127151018429,-0.009206716025382745
1681410595635761000,0.951760986328125,-0.00827869214117527,-0.013210834935307503,-0.023516448214650154,0.26379138231277466,0.44358035922050476,-0.8565340638160706,-0.0010502338409423828,0.01190987229347229,0.009945988655090332,0.963421172888635,-0.22886594582317127,0.13911629542130904,-0.009315062146169003
1681410595645738000,0.961738037109375,-0.012196734547615051,-0.008221136406064034,-0.018893200904130936,0.26359906792640686,0.44379040598869324,-0.8564844727516174,-0.002612680196762085,0.007885128259658813,0.013558506965637207,0.9634074769256288,-0.22896663185385385,0.1390397588366872,-0.009400509370921416
1681410595655715000,0.971715087890625,-0.008681394159793854,-0.009520335122942924,-0.011385033838450909,0.2634428143501282,0.44397035241127014,-0.8564392924308777,-0.0049893856048583984,0.007293194532394409,0.015298604965209961,0.9633952160895699,-0.2290558463983391,0.138974013400112,-0.009454016163848864
1681410595665691000,0.98169091796875,-0.005007031839340925,-0.0070704929530620575,-0.00396067276597023,0.2633156180381775,0.4440993368625641,-0.8564115166664124,-0.003824591636657715,0.007087916135787964,0.01664412021636963,0.9633877629362075,-0.22912080437732074,0.13891685064547535,-0.009484012415219395
1681410595675668000,0.99166796875,0.006826258730143309,-0.00575579609721899,-0.0029080254025757313,0.26323455572128296,0.44416552782058716,-0.8564020991325378,-0.004033446311950684,0.007082730531692505,0.011767148971557617,0.9633851294418057,-0.22915388366301495,0.13887923528773508,-0.00949977602690178
1681410595685644800,1.001644775390625,0.010478251613676548,-0.009255988523364067,-0.010011209174990654,0.26313233375549316,0.4441779851913452,-0.8564270734786987,-0.0011236071586608887,0.010808676481246948,0.009884774684906006,0.9633912012844581,-0.22915365165424167,0.13883469565976134,-0.009539258471039229
1681410595695621000,1.01162109375,0.0037716461811214685,-0.01015283539891243,-0.009824970737099648,0.26299652457237244,0.44420862197875977,-0.8564529418945312,-0.00048428773880004883,0.013661950826644897,0.009254515171051025,0.9633975385220779,-0.22916184119699565,0.13877461302420477,-0.009586476939639793
1681410595705598000,1.021597900390625,-0.0008763689547777176,-0.008819390088319778,-0.006432635709643364,0.2628568708896637,0.44429585337638855,-0.8564504981040955,-0.0007718503475189209,0.011209636926651001,0.008718013763427734,0.9633963098263192,-0.22920170713104285,0.1387131349605146,-0.009630311334744006
1681410595715575000,1.031574951171875,-0.0057058450765907764,-0.009235642850399017,-0.011255337856709957,0.26274773478507996,0.44442224502563477,-0.8564183712005615,-0.0021733343601226807,0.0073448121547698975,0.008411288261413574,0.9633875679252564,-0.22926390013694273,0.13866818108327927,-0.009671562375170521
1681410595725550800,1.04155078125,-0.009518958628177643,-0.010679075494408607,-0.010099791921675205,0.2626200318336487,0.44458210468292236,-0.8563746213912964,-0.0032510757446289062,0.008344650268554688,0.009450852870941162,0.9633758248820189,-0.22934469067675092,0.13861351972068595,-0.009709855290143616
1681410595735528000,1.05152783203125,-0.01171094086021185,-0.0047553526237607,-0.008742878213524818,0.26251402497291565,0.44477543234825134,-0.8563067317008972,-0.005037158727645874,0.007052689790725708,0.010588407516479492,0.963357974336755,-0.22944507968060832,0.13856978314984866,-0.009742150146274735
1681410595745504800,1.0615048828125,-0.015139760449528694,-0.004031505435705185,-0.007841131649911404,0.2624432146549225,0.44498544931411743,-0.8562192916870117,-0.007682442665100098,0.0052862465381622314,0.01001274585723877,0.9633349421580629,-0.22955599021007886,0.13854382514069574,-0.0097688629425855
1681410595755481000,1.071481201171875,-0.017669763416051865,-0.0005852691829204559,-0.005602878052741289,0.262385755777359,0.4452057480812073,-0.8561223745346069,-0.007090926170349121,0.004150420427322388,0.008969783782958984,0.9633095790555172,-0.22967387025573818,0.13852335364271195,-0.009787803800541272
1681410595765458000,1.0814580078125,-0.017802122980356216,-0.0033195363357663155,-0.003838001284748316,0.26235252618789673,0.44544368982315063,-0.8560088276863098,-0.006905078887939453,0.007208406925201416,0.00699460506439209,0.9632800518278848,-0.2298031761104249,0.1385138847847498,-0.009797074643942284
1681410595775435000,1.09143505859375,-0.016637656837701797,-0.007276568561792374,-0.004252722021192312,0.2622937560081482,0.44568556547164917,-0.8559008836746216,-0.006571680307388306,0.009850412607192993,0.006032228469848633,0.9632519992504411,-0.229934843325547,0.13849012054857898,-0.009802798681309465
1681410595785410800,1.101410888671875,-0.009075875394046307,-0.0029366808012127876,-0.006999772507697344,0.2622315287590027,0.445879727602005,-0.8558188676834106,-0.00441896915435791,0.012357085943222046,0.00674360990524292,0.9632305150644358,-0.23003792589180977,0.13846703235479738,-0.009824046424991538
1681410595795388000,1.111387939453125,-0.009251045063138008,0.0015879767015576363,-0.010516843758523464,0.2621893286705017,0.4460127353668213,-0.8557624816894531,-0.005490660667419434,0.013826251029968262,0.0067177414894104,0.9632154458724785,-0.23010455075836733,0.13845813325431203,-0.009866573776682305
1681410595805365200,1.121365234375,0.0009792217751964927,0.003193596377968788,-0.009303241036832333,0.2621467113494873,0.44612744450569153,-0.8557157516479492,-0.006073653697967529,0.014611780643463135,0.004855215549468994,0.9632028406258745,-0.23016018417902218,0.13845004946273906,-0.009915355757762827
1681410595815341600,1.131341552734375,0.0034893513657152653,-0.002954416908323765,-0.009636285714805126,0.26208287477493286,0.44618889689445496,-0.8557032942771912,-0.006070822477340698,0.016076207160949707,0.0063228607177734375,0.9631990719158953,-0.23018573123045735,0.13843011204625075,-0.00996727730326384
1681410595825318400,1.141318359375,0.002195321023464203,-0.004860175773501396,-0.01134070847183466,0.2619728744029999,0.44623905420303345,-0.8557108044624329,-0.0039772093296051025,0.014912188053131104,0.005796313285827637,0.9632003924842092,-0.2302036343919016,0.13838674085325714,-0.010024725982452066
1681410595835295500,1.15129541015625,-0.005576015915721655,-0.005393019877374172,-0.008914485573768616,0.2618543803691864,0.44632279872894287,-0.8557033538818359,-0.002836376428604126,0.01124262809753418,0.007360577583312988,0.963197963085899,-0.23024102064682184,0.1383379298481924,-0.010074751290339322
1681410595845271300,1.161271240234375,-0.01608112081885338,-0.004848402924835682,-0.0076257819309830666,0.2617334723472595,0.4464765191078186,-0.8556601405143738,-0.004836469888687134,0.008540630340576172,0.01017075777053833,0.9631863528257546,-0.23031907630035892,0.13828608022351643,-0.010110007269898996
1681410595855248400,1.171248291015625,-0.022028593346476555,-0.004528290592133999,0.0003205746761523187,0.26163923740386963,0.446706086397171,-0.8555691838264465,-0.0066495537757873535,0.004923641681671143,0.010873198509216309,0.9631626417414448,-0.23044350944786232,0.13824329490777543,-0.01011596675203013
1681410595865224400,1.181224365234375,-0.0233836080878973,-0.003268349915742874,-0.0014349811244755983,0.2615790367126465,0.4469708800315857,-0.8554492592811584,-0.007947415113449097,0.0038043856620788574,0.011958718299865723,0.963131626218333,-0.23058968859287615,0.1382163371798634,-0.010108869114547697
1681410595875201500,1.191201416015625,-0.02132818102836609,-0.001642223447561264,0.0032884012907743454,0.26154085993766785,0.447223961353302,-0.8553286790847778,-0.007726132869720459,0.004161655902862549,0.011960208415985107,0.9631005403177133,-0.23073101514821215,0.13819860609884946,-0.010092785821263967
1681410595885178400,1.201178466796875,-0.022391315549612045,-0.0018898975104093552,0.004419712349772453,0.2615082859992981,0.4474753439426422,-0.8552071452140808,-0.00433659553527832,0.004261225461959839,0.012067556381225586,0.96306921059018,-0.2308721356803312,0.13818275763355053,-0.010072326042518872
1681410595895154400,1.211154541015625,-0.022769950330257416,-0.0009650895372033119,0.004516817629337311,0.26147258281707764,0.44773831963539124,-0.8550804257392883,-0.005307972431182861,0.005005300045013428,0.008767008781433105,0.9630365608875628,-0.2310198446897029,0.13816517751396373,-0.010050350351179573
1681410595905131300,1.22113134765625,-0.020370706915855408,-0.0045795319601893425,0.0032547456212341785,0.2614441215991974,0.4479846656322479,-0.8549600839614868,-0.004867523908615112,0.007047802209854126,0.007670104503631592,0.9630056295092185,-0.23115956773040386,0.1381492047758404,-0.01002077976570678
1681410595915108400,1.2311083984375,-0.013668796978890896,0.0028473855927586555,0.002377400640398264,0.2614486515522003,0.4481826424598694,-0.8548548817634583,-0.0032241642475128174,0.00837564468383789,0.005627095699310303,0.962978401996408,-0.2312714524582788,0.1381523164825363,-0.01000281737658486
1681410595925084400,1.24108447265625,-0.004674236290156841,0.0016060862690210342,-0.00007670244667679071,0.26145634055137634,0.4483068585395813,-0.8547874093055725,-0.002575695514678955,0.012264519929885864,0.0036675333976745605,0.9629609472632937,-0.23134013191397956,0.1381594158041302,-0.010002380591363868
1681410595935061500,1.2510615234375,0.00513248797506094,0.0004078773781657219,-0.0000994557049125433,0.2614350914955139,0.44834285974502563,-0.854775071144104,-0.0015931427478790283,0.01541757583618164,0.003990828990936279,0.9629576043331624,-0.23135841640993998,0.13815122916266273,-0.010011413540201351
1681410595945038300,1.261038330078125,0.008024681359529495,-0.0025660740211606026,-0.0029509023297578096,0.261385977268219,0.44832903146743774,-0.8547973036766052,0.0018281936645507812,0.019063055515289307,0.0038299560546875,0.9629632375880829,-0.23134786664674092,0.13812855799274187,-0.010027054286252893
1681410595955014400,1.271014404296875,0.008278912864625454,-0.0007110759615898132,-0.0028093387372791767,0.26132044196128845,0.44831764698028564,-0.8548233509063721,0.002702385187149048,0.01759430766105652,0.0033524632453918457,0.9629697045092602,-0.2313372036421608,0.1380993664744049,-0.010051480679251767
1681410595964991200,1.2809912109375,0.004455146379768848,-0.004218725487589836,-0.0034471657127141953,0.26128578186035156,0.4483135938644409,-0.8548360466957092,-0.0002535879611968994,0.014668703079223633,0.004250168800354004,0.9629727856881337,-0.23133143105516826,0.1380859894074868,-0.010072835620951907
1681410595974968300,1.29096826171875,-0.0057159652933478355,-0.006623613648116589,-0.0010546317789703608,0.2612055242061615,0.4483697712421417,-0.8548310995101929,-0.0026605427265167236,0.011835426092147827,0.011340558528900146,0.9629713461838166,-0.23135970527533753,0.1380475840137004,-0.0100843277264695
1681410595984944400,1.3009443359375,-0.008996713906526566,-0.0029279449954628944,0.002450088271871209,0.2611580789089203,0.44847753643989563,-0.8547890782356262,-0.0027046501636505127,0.006326019763946533,0.015143752098083496,0.9629605997471278,-0.2314187970134339,0.13802459740765471,-0.010082168034204165
1681410595994921500,1.31092138671875,-0.005329373758286238,-0.0019238805398344994,0.003067425452172756,0.26113322377204895,0.4485837519168854,-0.8547409176826477,-0.006402939558029175,0.0014285445213317871,0.013478219509124756,0.962948154255564,-0.23147899369031372,0.138010894376517,-0.010068861565349974
1681410596004898300,1.320898193359375,-0.003430806566029787,-0.001161949709057808,0.004495678935199976,0.26112258434295654,0.44868141412734985,-0.8546929359436035,-0.004210293292999268,0.0033908486366271973,0.013704836368560791,0.9629358019200095,-0.23153497330077916,0.1380039829833598,-0.010053263953330067
1681410596014874400,1.330874267578125,-0.003408702090382576,-0.0026879943907260895,0.0040687741711735725,0.261112779378891,0.44879257678985596,-0.8546375632286072,-0.005100756883621216,0.0027303695678710938,0.009590625762939453,0.9629217970219417,-0.23159914711734766,0.13799652090135053,-0.01003227894062963
1681410596024851200,1.340851318359375,-0.00550807174295187,-0.00005865562707185745,0.0027835327200591564,0.26111534237861633,0.44891485571861267,-0.854572594165802,-0.004584521055221558,0.003645658493041992,0.007831931114196777,0.962905089853779,-0.23166937780215757,0.1379964356546542,-0.010013379746967775
1681410596034828500,1.35082861328125,-0.00368993217125535,-0.0016666185110807419,0.0009741809917613864,0.2611265182495117,0.4490089416503906,-0.8545197248458862,-0.0032986998558044434,0.005870938301086426,0.007580697536468506,0.9628914720258362,-0.23172325931812238,0.13800171140914366,-0.010000799376750039
1681410596044804400,1.360804443359375,-0.002136243972927332,0.0015669912099838257,-0.0011379719944670796,0.2611355483531952,0.44909900426864624,-0.8544696569442749,-0.0024074912071228027,0.00784081220626831,0.0032581686973571777,0.9628785438201801,-0.2317738532569095,0.1380074698683049,-0.009995322566987559
1681410596054781400,1.370781494140625,-0.0073050400242209435,0.002069956623017788,-0.00007889943663030863,0.2611387372016907,0.44920772314071655,-0.8544115424156189,-0.0025327205657958984,0.008235633373260498,0.004191875457763672,0.9628634210502047,-0.23183295421873742,0.13801346954792712,-0.010001831277260892
1681410596064758300,1.38075830078125,-0.002388578373938799,0.0003924318589270115,-0.0009406984318047762,0.2611459791660309,0.4492952823638916,-0.8543632626533508,-0.0029519498348236084,0.009857028722763062,0.0064171552658081055,0.9628508461992181,-0.23188079315996518,0.13802051310768274,-0.010005931564804225
1681410596074734300,1.390734375,-0.003719659522175789,-0.001146131195127964,0.0008888099691830575,0.2611215114593506,0.44934800267219543,-0.8543429970741272,-0.003934592008590698,0.011253923177719116,0.007037758827209473,0.9628454794458664,-0.23190862763088074,0.13801046634799635,-0.010012529921961987
1681410596084711400,1.40071142578125,-0.004413945600390434,-0.0019362904131412506,-0.0005801896331831813,0.26111188530921936,0.4494059085845947,-0.8543155193328857,-0.004413217306137085,0.009288638830184937,0.005102932453155518,0.962838403091967,-0.2319411229182491,0.1380056726732044,-0.010007821358713337
1681410596094688500,1.4106884765625,-0.012420040555298328,-0.003377753309905529,0.0006077300058677793,0.2610841989517212,0.4495069980621338,-0.8542707562446594,-0.004675447940826416,0.006212115287780762,0.0079420804977417,0.962826885223499,-0.23199785825365607,0.1379913296040646,-0.009998663324212955
1681410596104664300,1.420664306640625,-0.020422572270035744,-0.001764676533639431,0.00522565096616745,0.261051744222641,0.4496747553348541,-0.8541923761367798,-0.006199389696121216,0.002656906843185425,0.01106804609298706,0.9628067187320639,-0.23209310382642262,0.13797316389303405,-0.00997709129868517
1681410596114641400,1.430641357421875,-0.027951128780841827,0.0007212241180241108,0.004478202201426029,0.2610452175140381,0.44991999864578247,-0.8540651798248291,-0.0065438151359558105,-0.00163191556930542,0.011169791221618652,0.962774038126165,-0.2322341825072973,0.13796623914837977,-0.009936959585085142
1681410596124618200,1.4406181640625,-0.03476562723517418,0.0019252393394708633,0.0021932097151875496,0.26105743646621704,0.4502209424972534,-0.8539028763771057,-0.007151126861572266,-0.003535062074661255,0.011510968208312988,0.9627322546166873,-0.2324054943785165,0.1379719237271198,-0.00990210824763302
1681410596134594600,1.450594482421875,-0.03462913632392883,0.00014646165072917938,0.005077613051980734,0.2610618770122528,0.450541615486145,-0.8537323474884033,-0.005889087915420532,-0.0018110275268554688,0.009890913963317871,0.962688397912145,-0.23258821090041487,0.13797296113583205,-0.009863061897453607
1681410596144571400,1.4605712890625,-0.03251085802912712,0.0016367663629353046,0.0030373651534318924,0.2610749304294586,0.45086410641670227,-0.8535581231117249,-0.0045593976974487305,0.0013454854488372803,0.008999466896057129,0.962643530974144,-0.2327723337381883,0.13797821528697374,-0.009822318400215023
1681410596154548500,1.470548583984375,-0.02456575259566307,-0.0031990017741918564,0.0003677958738990128,0.26104751229286194,0.4511565864086151,-0.8534119129180908,-0.002533048391342163,0.007003903388977051,0.0035126805305480957,0.9626057630646981,-0.23293612075365824,0.1379666532870662,-0.009804146084446923
1681410596164524300,1.480524169921875,-0.016659626737236977,-0.006021685898303986,-0.0014564695302397013,0.2609928250312805,0.45137327909469604,-0.8533140420913696,0.00443384051322937,0.01574409008026123,0.00008845329284667969,0.9625804213956306,-0.23305626891764655,0.1379410825035367,-0.009795787436445918
1681410596174501400,1.49050146484375,-0.015033034607768059,-0.005088142119348049,-0.007481505163013935,0.2608957290649414,0.4515487253665924,-0.8532509207725525,0.0040426552295684814,0.019001871347427368,-0.00015777349472045898,0.9625638818142541,-0.23314989440187545,0.13789726166180793,-0.009809416400062212
1681410596184478200,1.500478271484375,-0.007659007329493761,-0.0025267135351896286,-0.006606657058000565,0.2608043849468231,0.45169132947921753,-0.8532034158706665,0.0010670125484466553,0.016768842935562134,0.0027243494987487793,0.9625513635917086,-0.2332242160513164,0.13785777069229582,-0.009831726475364235
1681410596194454500,1.51045458984375,-0.006142603699117899,-0.0028640292584896088,-0.007501878309994936,0.26073870062828064,0.4517851769924164,-0.8531737923622131,-0.0017054378986358643,0.01591208577156067,0.00687563419342041,0.9625433297815231,-0.23327058824169683,0.13783302331411065,-0.009863685475370408
1681410596204431400,1.520431396484375,-0.007835574448108673,0.0006265756674110889,-0.011504343710839748,0.26065948605537415,0.45185738801956177,-0.8531597256660461,-0.00342676043510437,0.012406617403030396,0.010920405387878418,0.9625392193017729,-0.23330343725293576,0.13780290208706947,-0.009905363623601511
1681410596214408400,1.530408447265625,-0.011311233043670654,-0.0007937401533126831,-0.011083080433309078,0.2606014609336853,0.45196396112442017,-0.8531210422515869,-0.005123496055603027,0.008927851915359497,0.01246863603591919,0.9625287307959586,-0.23335472028005874,0.13778627809379143,-0.00995276942602649
1681410596224384300,1.54038427734375,-0.01320633850991726,0.0025352109223604202,-0.009011141024529934,0.2605573236942291,0.4521239995956421,-0.8530496954917908,-0.0027447938919067383,0.0030762851238250732,0.013221323490142822,0.9625098027394653,-0.23343661556937903,0.13777694467278326,-0.009994136622111587
1681410596234361300,1.550361328125,-0.014225663617253304,0.00415153568610549,-0.006409965455532074,0.26056286692619324,0.4523046314716339,-0.852952241897583,-0.004398256540298462,0.00014910101890563965,0.010682404041290283,0.9624842177695694,-0.2335325296128951,0.1377912491779026,-0.010022004736887786
1681410596244338200,1.560338134765625,-0.008132883347570896,0.0036276918835937977,-0.0037864858750253916,0.2605888843536377,0.4524688720703125,-0.852857232093811,-0.00566023588180542,0.0023957490921020508,0.00967186689376831,0.962459339050355,-0.23362052313324394,0.1378145137076317,-0.010043753323089915
1681410596254314500,1.570314453125,-0.005729081109166145,0.003194394987076521,-0.002719939686357975,0.26061591506004333,0.45260146260261536,-0.8527786135673523,-0.0012469589710235596,0.004994481801986694,0.00811314582824707,0.9624386405222132,-0.23369103040591682,0.13783762083579476,-0.010065814530596764
1681410596264291300,1.580291259765625,-0.011469258926808834,-0.0021005012094974518,-0.00359159242361784,0.26059845089912415,0.45273035764694214,-0.8527154922485352,-0.0007106959819793701,0.005292803049087524,0.0031519532203674316,0.9624219977162018,-0.23375937128662364,0.1378362097179031,-0.010084613748957638
1681410596274267400,1.590267333984375,-0.014494775794446468,-0.0048160189762711525,-0.0005962185095995665,0.26055628061294556,0.4529050886631012,-0.8526355624198914,0.000033348798751831055,0.004751861095428467,0.002797424793243408,0.9624012505496164,-0.23385498170609476,0.13781891013564931,-0.010087238941329704
1681410596284244200,1.600244140625,-0.01323616597801447,-0.005425616167485714,-0.0030513866804540157,0.2604929208755493,0.4530937075614929,-0.8525547385215759,0.001439511775970459,0.004135996103286743,0.00007677078247070312,0.9623803298662682,-0.23395955112864714,0.13778812304904725,-0.01007914378099006
1681410596294221300,1.61022119140625,-0.014093637466430664,-0.011245956644415855,-0.0030833114869892597,0.2603969871997833,0.45327308773994446,-0.8524886965751648,-0.0015773177146911621,0.005726665258407593,0.0018417835235595703,0.9623632162730897,-0.23405764034239362,0.137741340574124,-0.010077486562633629
1681410596304197400,1.620197265625,-0.014475801028311253,-0.009873894974589348,-0.006490826141089201,0.26030614972114563,0.45343345403671265,-0.8524311184883118,-0.0031497180461883545,0.008114516735076904,0.004988551139831543,0.9623482670379794,-0.23414578032099784,0.13769599804517363,-0.010072481151284908
1681410596314174500,1.630174560546875,-0.009409204125404358,-0.00806017592549324,-0.0012687998823821545,0.26020193099975586,0.45356613397598267,-0.8523923754692078,-0.002587735652923584,0.006990015506744385,0.006628274917602539,0.9623382136653675,-0.23421812497266464,0.13764332930437406,-0.010069560366705206
1681410596324151300,1.6401513671875,-0.0020040180534124374,-0.008572300896048546,-0.003614778397604823,0.26010680198669434,0.4536452889442444,-0.8523792624473572,-0.0018975138664245605,0.005049288272857666,0.006416797637939453,0.9623349076539055,-0.23426079776194902,0.13759445025765457,-0.010068036580461607
1681410596334127400,1.65012744140625,-0.001165654743090272,-0.010457552969455719,-0.003587081329897046,0.2600160837173462,0.4536941945552826,-0.8523809313774109,-0.002127230167388916,0.006465226411819458,0.008341073989868164,0.9623352540575312,-0.23428515214467388,0.1375499582066402,-0.010078013455064953
1681410596344104200,1.660104248046875,-0.0059995586052536964,-0.008166968822479248,-0.003674433333799243,0.2599131166934967,0.4537509083747864,-0.8523821830749512,-0.0009866654872894287,0.006103336811065674,0.011149942874908447,0.9623354326849811,-0.234313173815743,0.13750001129054362,-0.010091506537208549
1681410596354081300,1.670081298828125,-0.00902584195137024,-0.008352750912308693,-0.0027920613065361977,0.25984126329421997,0.4538414776325226,-0.8523558378219604,-0.0020287036895751953,0.0018166005611419678,0.009048402309417725,0.9623283803690231,-0.23436131548195888,0.1374658770208739,-0.010098448826771302
1681410596364057300,1.680057373046875,-0.004114173352718353,-0.005877343006432056,-0.003241336904466152,0.25976642966270447,0.4539211690425873,-0.8523362278938293,-0.0029609501361846924,0.003735780715942383,0.008220076560974121,0.9623234031737307,-0.23440418293876336,0.13742841851972787,-0.010099508667930792
1681410596374034400,1.690034423828125,-0.00496335607022047,-0.005623809993267059,-0.0011976435780525208,0.259695440530777,0.4539927840232849,-0.8523197174072266,-0.0013488233089447021,0.006776958703994751,0.008401930332183838,0.9623191095362065,-0.2344429067144233,0.13739238093494616,-0.010098820831718845
1681410596384011300,1.70001123046875,-0.010502730496227741,-0.005405430682003498,0.002451685955747962,0.2596225142478943,0.45409324765205383,-0.8522884249687195,-0.0017031729221343994,0.007836192846298218,0.008355379104614258,0.9623110625758342,-0.23449848519280644,0.13735449026856128,-0.010091669327399393
1681410596393987300,1.7099873046875,-0.00919768214225769,-0.011566601693630219,0.0016930680721998215,0.25955188274383545,0.45421189069747925,-0.8522466421127319,-0.0028074681758880615,0.006176352500915527,0.006742000579833984,0.9623002476017726,-0.23456521537985592,0.13731653356081816,-0.010077351465633917
1681410596403964200,1.719964111328125,-0.010098096914589405,-0.01054874062538147,0.00029144634027034044,0.25946739315986633,0.4543246924877167,-0.8522123098373413,-0.0024330317974090576,0.007467389106750488,0.004540860652923584,0.9622916366127681,-0.23462903472781008,0.13727004168585938,-0.010058939618270176
1681410596413941500,1.72994140625,-0.012464415282011032,-0.009844707325100899,0.002121187746524811,0.25938308238983154,0.4544563591480255,-0.8521677851676941,-0.0010364651679992676,0.008754819631576538,0.005060911178588867,0.9622802783773333,-0.23470352715115242,0.13722379536780738,-0.010039067022579253
1681410596423917300,1.739917236328125,-0.011116854846477509,-0.01087668165564537,0.001389883691444993,0.2593193054199219,0.4545954167842865,-0.8521129488945007,-0.003215789794921875,0.007517099380493164,0.005723297595977783,0.9622661883990428,-0.23478342799722624,0.13718695410383405,-0.010012241980880729
1681410596433894400,1.749894287109375,-0.007370586972683668,-0.007899906486272812,-0.0019165638368576765,0.2592616677284241,0.454704225063324,-0.8520724773406982,-0.004424571990966797,0.005836665630340576,0.007498562335968018,0.9622558940789279,-0.23484440521325597,0.13715634218504272,-0.010000945756328402
1681410596443871200,1.759871337890625,-0.0024730339646339417,-0.008802985772490501,-0.0005900433752685785,0.25917521119117737,0.45478564500808716,-0.8520553112030029,-0.0036056935787200928,0.006380826234817505,0.0058487653732299805,0.9622515076093636,-0.23488879933275345,0.13711157871775054,-0.009997163741238607
1681410596453847300,1.769847412109375,-0.003747689537703991,-0.006848223507404327,0.00046533410204574466,0.25911033153533936,0.4548589289188385,-0.8520359396934509,-0.00148087739944458,0.009603440761566162,0.006409168243408203,0.962246511572517,-0.234930571108924,0.13707542083859356,-0.009982440512696323
1681410596463824400,1.779824462890625,-0.008434852585196495,-0.0056612528860569,0.0020829380955547094,0.25906240940093994,0.45494207739830017,-0.8520060777664185,-0.0023179352283477783,0.00779607892036438,0.007539033889770508,0.9622388963527808,-0.23497761637000714,0.13704914554765127,-0.00997039106876421
1681410596473801500,1.789801513671875,0.0002746159443631768,-0.004572926089167595,-0.0033233454450964928,0.25900113582611084,0.4550129473209381,-0.8519868850708008,-0.0050490498542785645,0.00787779688835144,0.009503424167633057,0.9622338200898806,-0.23501557543423693,0.13701913983023303,-0.009973315390468711
1681410596483777300,1.79977734375,0.0033444417640566826,-0.002901259809732437,-0.004426160361617804,0.25894659757614136,0.4550444185733795,-0.8519866466522217,-0.004140019416809082,0.010516613721847534,0.008343517780303955,0.9622335739277217,-0.2350296785143377,0.136995377674772,-0.009991306634508989
1681410596493754400,1.80975439453125,0.0055018020793795586,-0.0045900242403149605,-0.00251644104719162,0.25889119505882263,0.4550502598285675,-0.8520004153251648,-0.0021314918994903564,0.010693907737731934,0.00728917121887207,0.9622370510532108,-0.2350293660573547,0.13697079835186787,-0.01001058897701068
1681410596503731200,1.819731201171875,0.010966874659061432,-0.0011161966249346733,-0.006665112916380167,0.25882184505462646,0.4550364017486572,-0.8520288467407227,-0.0008566975593566895,0.008403658866882324,0.006753087043762207,0.9622441584632573,-0.23501628971477054,0.13694125828234113,-0.010041878135797704
1681410596513707500,1.82970751953125,0.012422258965671062,-0.004127752035856247,-0.008344319649040699,0.2587524652481079,0.4549964368343353,-0.8520712852478027,-0.004281580448150635,0.009206533432006836,0.00616985559463501,0.9622546983465367,-0.23498731837252712,0.1369135746505078,-0.010083517749558806
1681410596523684400,1.839684326171875,0.00618034228682518,-0.0031905854120850563,-0.00559726869687438,0.2586803734302521,0.45497557520866394,-0.8521043062210083,-0.0042247474193573,0.01050916314125061,0.006248652935028076,0.9622629585179028,-0.23497015986801534,0.13688268392297,-0.01011597333294585
1681410596533661400,1.849661376953125,0.0035943128168582916,-0.00447193905711174,-0.004333714954555035,0.25862613320350647,0.45499345660209656,-0.8521112203598022,-0.000691533088684082,0.006691783666610718,0.0074152350425720215,0.9622643988720744,-0.2349759636435016,0.13686015045996455,-0.010139699148535334
1681410596543637200,1.85963720703125,-0.0007972397143021226,-0.00483199767768383,-0.003089486388489604,0.25856009125709534,0.4550362229347229,-0.852108359336853,-0.0025938451290130615,0.0021477341651916504,0.007183551788330078,0.9622634341590615,-0.2349958568428129,0.1368311236441504,-0.010159917342010598
1681410596553614300,1.8696142578125,0.0038975137285888195,-0.003817015327513218,-0.003411662532016635,0.2585006356239319,0.45508232712745667,-0.8521018028259277,-0.004365444183349609,0.003246009349822998,0.008168816566467285,0.962261726857215,-0.23501899405669513,0.13680335293378265,-0.010170711630917343
1681410596563591400,1.87959130859375,0.00617238599807024,-0.003944047726690769,0.0014619221910834312,0.25845569372177124,0.4550967514514923,-0.8521077632904053,-0.004244208335876465,0.0047422051429748535,0.007213413715362549,0.9622632227515077,-0.23502561906167965,0.13678112034557408,-0.01017590968613372
1681410596573567500,1.8895673828125,0.008430846966803074,-0.003666972741484642,0.00011820771032944322,0.25842422246932983,0.4551050662994385,-0.8521128296852112,-0.0024732649326324463,0.0063360631465911865,0.006821811199188232,0.9622644415803572,-0.2350290767414364,0.13676587093725343,-0.010180942964160099
1681410596583544300,1.89954443359375,0.005237183533608913,-0.005479786545038223,-0.0036118156276643276,0.25838181376457214,0.4550836682319641,-0.8521371483802795,-0.0009507536888122559,0.007776528596878052,0.006464600563049316,0.9622706187445766,-0.23501519699672513,0.13674535465256943,-0.010191367799926783
1681410596593521400,1.909521484375,0.0007385385688394308,-0.004693567752838135,-0.002324660075828433,0.25830894708633423,0.45510339736938477,-0.852148711681366,-0.0003590881824493408,0.0057426393032073975,0.007071256637573242,0.9622735101878177,-0.2350234699056048,0.13670999398760214,-0.010202935207782659
1681410596603497200,1.919497314453125,0.0014839572831988335,-0.0009590163826942444,-0.0035925908014178276,0.2582433521747589,0.4551604092121124,-0.8521381616592407,-0.0022008419036865234,0.005395680665969849,0.007869422435760498,0.9622706181638345,-0.23505204822775244,0.1366801650831029,-0.010217467963117708
1681410596613474300,1.929474365234375,-0.00168090988881886,-0.002763841301202774,-0.005212908145040274,0.2582050859928131,0.4552239775657654,-0.8521157503128052,-0.0027576088905334473,0.00737684965133667,0.0067331790924072266,0.9622645815835272,-0.23508366135505604,0.13666669155706387,-0.01023882433459368
1681410596623451400,1.939451416015625,0.0012296588392928243,-0.004157739691436291,-0.0063514094799757,0.258145809173584,0.4552711844444275,-0.8521084785461426,-0.0009894371032714844,0.006612420082092285,0.008129715919494629,0.9622623927597439,-0.2351052573489254,0.1366428463995613,-0.010265046413204623
1681410596633427500,1.949427490234375,0.001141408341936767,-0.0005545364692807198,-0.007357269059866667,0.25808045268058777,0.4553092122077942,-0.8521080017089844,-0.002175241708755493,0.008405447006225586,0.00968557596206665,0.962261869037052,-0.23512015633454472,0.13661815831534438,-0.010302068098022027
1681410596643404500,1.959404541015625,0.007055223919451237,-0.002846718765795231,-0.00847073644399643,0.2580081522464752,0.4553242325782776,-0.8521218299865723,-0.00039395689964294434,0.007078200578689575,0.007837891578674316,0.9622649959748539,-0.23512111997552748,0.1365911018002933,-0.010346858007570871
1681410596653381400,1.96938134765625,0.0074186790734529495,-0.001550186425447464,-0.005628777202218771,0.25793543457984924,0.4553183913230896,-0.8521469831466675,-0.0030373036861419678,0.008823573589324951,0.005742073059082031,0.9622711187055264,-0.2351107254076992,0.13656295468992813,-0.01039031368294779
1681410596663357200,1.979357177734375,0.012426220811903477,-0.0024500684812664986,-0.003211159724742174,0.25789061188697815,0.4552863538265228,-0.8521776795387268,-0.001588672399520874,0.008031636476516724,0.007893681526184082,0.9622787879983133,-0.2350882964749306,0.13654538898990698,-0.010419186548407252
1681410596673334300,1.989334228515625,0.01066124439239502,-0.0006496114656329155,0.00015416042879223824,0.2578732669353485,0.4552154541015625,-0.8522207736968994,-0.0014492571353912354,0.007415890693664551,0.007112860679626465,0.962289735908252,-0.2350460615797956,0.13653918268225124,-0.010438892046797226
1681410596683311400,1.999311279296875,0.011093474924564362,0.0017312546260654926,-0.00016382097965106368,0.2578664720058441,0.45515525341033936,-0.8522549867630005,-0.003929644823074341,0.007048815488815308,0.007726848125457764,0.9622984364584501,-0.23501046061498157,0.13653783053993754,-0.010454452824831031
1681410596693287400,2.009287353515625,0.008784580044448376,-0.0010871151462197304,-0.002709236927330494,0.25784534215927124,0.4551112949848175,-0.852284848690033,-0.003420233726501465,0.004956543445587158,0.006978511810302734,0.9623060192404229,-0.23498389614383758,0.13652888410849193,-0.010468367905548904
1681410596703264500,2.019264404296875,0.007467913907021284,-0.0029159076511859894,-0.0011888385051861405,0.25781697034835815,0.4551008343696594,-0.8522990345954895,-0.002613663673400879,0.0037157833576202393,0.006122946739196777,0.9623096958645062,-0.23497637837489654,0.13651582994424305,-0.010477709523353808
1681410596713241300,2.029241455078125,0.00482579180970788,-0.007400404661893845,0.0018074840772897005,0.257784903049469,0.455101877450943,-0.8523082137107849,-0.0007505118846893311,0.004431933164596558,0.0066356658935546875,0.9623120804028047,-0.23497661706650677,0.1364986517002821,-0.010477031161400651
1681410596723217400,2.039217529296875,0.005358424037694931,-0.00929737463593483,0.001315331901423633,0.25773224234580994,0.45508700609207153,-0.8523320555686951,0.0007364451885223389,0.006110012531280518,0.004675865173339844,0.962318391884404,-0.23496948509089605,0.13646724214392417,-0.010464397399543846
1681410596733194200,2.0491943359375,0.009506297297775745,-0.0034586600959300995,-0.00033902376890182495,0.2576667070388794,0.45507705211639404,-0.8523572087287903,-0.0007086396217346191,0.006638765335083008,0.005738615989685059,0.9623249028463611,-0.23496315092040615,0.13643211405319575,-0.010464057383140143
1681410596743171300,2.05917138671875,0.013318612240254879,-0.0052813272923231125,0.0004181129625067115,0.2576388418674469,0.45502522587776184,-0.8523932695388794,-0.001733630895614624,0.006858408451080322,0.00669020414352417,0.9623342304786094,-0.23493354154927776,0.1364169762071512,-0.010468085267290867
1681410596753147400,2.0691474609375,0.01134148146957159,-0.0026013879105448723,-0.002508434932678938,0.2576049566268921,0.4549579918384552,-0.8524394035339355,-0.003927558660507202,0.006071180105209351,0.006415963172912598,0.9623460631994043,-0.23489423085079947,0.13640013673256937,-0.010479834798116852
1681410596763124500,2.07912451171875,0.008474854752421379,-0.004436306655406952,0.0013962920056656003,0.25756046175956726,0.454913467168808,-0.8524766564369202,-0.005286872386932373,0.0029265880584716797,0.006559967994689941,0.9623556598213439,-0.23486724939377293,0.1363783729031299,-0.010492158630498107
1681410596773101300,2.089101318359375,0.007276665419340134,-0.0030408622696995735,0.00007474824087694287,0.25752025842666626,0.4548778533935547,-0.8525077700614929,-0.005719661712646484,0.0024586915969848633,0.005751848220825195,0.9623637333076206,-0.23484631440437923,0.13635730072418403,-0.010497017829703987
1681410596783077400,2.099077392578125,0.005802872125059366,-0.0019500311464071274,-0.0010395182762295008,0.2574923038482666,0.4548431634902954,-0.8525347113609314,-0.007278621196746826,0.006185978651046753,0.004130840301513672,0.9623705134977808,-0.23482544607864114,0.13634389446487194,-0.010506493389311821
1681410596793054500,2.109054443359375,0.006474355235695839,-0.004269005730748177,0.00027327024145051837,0.25746527314186096,0.45482704043388367,-0.8525514602661133,-0.007373690605163574,0.005256056785583496,0.003567814826965332,0.9623747779682149,-0.23481496275724362,0.13633120196945103,-0.010514992106826153
1681410596803031600,2.119031494140625,0.008360140025615692,-0.0022958703339099884,-0.004096976947039366,0.2574479579925537,0.45481276512145996,-0.8525643348693848,-0.005937248468399048,0.00412595272064209,0.004496157169342041,0.9623780476231818,-0.23480566321175408,0.13632364211841264,-0.010523206927379876
1681410596813006600,2.129006591796875,0.009254729375243187,-0.0028575845062732697,-0.0037822413723915815,0.2574115991592407,0.4547908306121826,-0.8525869846343994,-0.009395211935043335,0.005826354026794434,0.0049918293952941895,0.9623836542665453,-0.23478953372224945,0.13630985170152787,-0.010548044924138328
1681410596822983700,2.138983642578125,0.007045370060950518,-0.0030791591852903366,-0.0037601368967443705,0.25736984610557556,0.45477166771888733,-0.8526098132133484,-0.006439000368118286,0.006791561841964722,0.005396127700805664,0.9623893370462043,-0.2347747153829144,0.13629348472780406,-0.01057387066592706
1681410596832959700,2.148959716796875,0.008500122465193272,0.0010026153177022934,-0.00008370977593585849,0.2573547959327698,0.4547443687915802,-0.8526289463043213,-0.005645751953125,0.005125105381011963,0.0069258809089660645,0.9623941720193155,-0.23475709516041532,0.13628876612978988,-0.010590190694167983
1681410596842936800,2.158936767578125,0.006760811433196068,-0.0017388425767421722,0.00027342006796970963,0.25734758377075195,0.45470356941223145,-0.852652907371521,-0.006798237562179565,0.0043419599533081055,0.0073618292808532715,0.9624002905438152,-0.2347331267354562,0.13628614327455402,-0.010599388149578047
1681410596852914000,2.168913818359375,0.011604768224060535,-0.001993761397898197,0.0022563766688108444,0.25732436776161194,0.45465657114982605,-0.8526849746704102,-0.003921598196029663,0.004572033882141113,0.006386816501617432,0.9624086161712238,-0.23470645760878206,0.13627324933839807,-0.010602012290040742
1681410596862890800,2.178890869140625,0.013687360100448132,-0.005945625714957714,0.00007338338764384389,0.2572658658027649,0.4545820355415344,-0.8527423143386841,-0.0009181797504425049,0.008354485034942627,0.004857242107391357,0.9624234265585787,-0.2346645978085687,0.1362401029205229,-0.010601203394964728
1681410596872866600,2.188866455078125,0.013282060623168945,-0.006345153786242008,0.002664589323103428,0.2571808695793152,0.4544837474822998,-0.8528203368186951,0.00223386287689209,0.009307235479354858,0.005225181579589844,0.962443638845213,-0.2346090643797987,0.1361926022706926,-0.010601741443698026
1681410596882843600,2.19884375,0.004004406742751598,-0.006743030622601509,0.0006746752187609673,0.25710293650627136,0.4544171690940857,-0.8528792858123779,0.0028458833694458008,0.005238711833953857,0.0074509382247924805,0.9624589784391158,-0.23457161508765884,0.13614882186797436,-0.010598862266446818
1681410596892820700,2.20882080078125,0.0031254300847649574,-0.002858862280845642,-0.0024548720102757215,0.25701871514320374,0.45443373918533325,-0.8528959155082703,-0.00175437331199646,0.002170354127883911,0.008550882339477539,0.9624633211243282,-0.23457853033710685,0.1361064460028573,-0.010606695841380723
1681410596902796800,2.218796875,0.005380062386393547,0.0012400089763104916,-0.004381668753921986,0.2569768726825714,0.4544554352760315,-0.8528969287872314,-0.0029637515544891357,0.001889258623123169,0.00969630479812622,0.962463414023655,-0.23458736660970503,0.13608928394327258,-0.010625119541627669
1681410596912774000,2.22877392578125,0.006449454464018345,-0.0007325420156121254,-0.0026047411374747753,0.2569545805454254,0.45444202423095703,-0.8529107570648193,-0.0020259320735931396,0.005351155996322632,0.009191334247589111,0.9624666261455125,-0.2345766562506317,0.1360823660629423,-0.010646610060571845
1681410596922749700,2.238749755859375,0.011108389124274254,0.0008823988027870655,-0.003235910553485155,0.25692248344421387,0.45441102981567383,-0.8529369831085205,0.0004476010799407959,0.006801247596740723,0.006135284900665283,0.9624732697868097,-0.23455540947519068,0.13607079276548334,-0.01067237252899075
1681410596932726800,2.248726806640625,0.008866672404110432,0.0005817818455398083,-0.007790382020175457,0.25689685344696045,0.454365611076355,-0.8529689311981201,-0.0010221302509307861,0.007594317197799683,0.006853878498077393,0.9624811900959191,-0.23452510829243198,0.13606439404701534,-0.010706741727180226
1681410596942703600,2.25870361328125,0.00960490107536316,0.00045208632946014404,-0.002961005549877882,0.25688520073890686,0.45433661341667175,-0.8529878854751587,-0.003238290548324585,0.004327446222305298,0.007269561290740967,0.962485782825601,-0.23450474884807243,0.1360646532389182,-0.010736227602322203
1681410596952679700,2.2686796875,0.0023885334376245737,0.0005791187286376953,-0.003154084552079439,0.25688984990119934,0.4543381631374359,-0.8529856204986572,-0.0038075149059295654,0.0015182793140411377,0.007297813892364502,0.962484937470718,-0.23450270322679603,0.13607228909679644,-0.010757247674123319
1681410596962656800,2.27865673828125,-0.0027425792068243027,-0.0006267605349421501,-0.00002407166175544262,0.25689512491226196,0.45437514781951904,-0.8529643416404724,-0.0033092498779296875,-0.0013873875141143799,0.0065135955810546875,0.9624792838216208,-0.23452168728529005,0.13607868432891643,-0.010768079989853662
1681410596972633900,2.2886337890625,-0.006366209127008915,-0.0036351215094327927,-0.0030963607132434845,0.25687381625175476,0.4544428884983063,-0.8529346585273743,-0.0011211931705474854,0.00037595629692077637,0.005354762077331543,0.962471626810759,-0.2345592426586292,0.13606844667552717,-0.0107653341732221
1681410596982609700,2.298609619140625,-0.012405459769070148,-0.00322605948895216,0.0008451175526715815,0.2568245828151703,0.4545523226261139,-0.852891206741333,-0.0004158318042755127,0.0016092956066131592,0.006608247756958008,0.9624604117329625,-0.2346203773176811,0.13604296288627266,-0.010756394683075621
1681410596992586800,2.308586669921875,-0.015508707612752914,-0.001496921293437481,-0.002578709041699767,0.2567935883998871,0.4547154903411865,-0.8528135418891907,-0.0018954575061798096,0.0007289350032806396,0.006988406181335449,0.962440371141039,-0.23471145210430974,0.13602854370800874,-0.01074751502462305
1681410597002563800,2.318563720703125,-0.015539067797362804,0.0009406697936356068,0.0002892492339015007,0.25679153203964233,0.45488449931144714,-0.852724015712738,-0.0034192800521850586,0.0017959177494049072,0.009477615356445312,0.9624171458888714,-0.23480550387397556,0.13603073883831399,-0.010743165521817562
1681410597012539600,2.32853955078125,-0.0075895655900239944,-0.0021613258868455887,-0.0011703793425112963,0.25677525997161865,0.45502030849456787,-0.8526564836502075,-0.0036624372005462646,0.003246992826461792,0.009974658489227295,0.962399611901653,-0.23488025002063,0.13602586664389388,-0.010744220320102154
1681410597022516700,2.338516845703125,0.00808473490178585,0.000775341410189867,-0.0015930230729281902,0.25674673914909363,0.4550623297691345,-0.8526425957679749,-0.0014061033725738525,0.007568985223770142,0.007549881935119629,0.9623959757727534,-0.2349027167685374,0.13601250735674217,-0.01074711636220611
1681410597032493800,2.348493896484375,0.004833548329770565,0.0010075690224766731,-0.0005823535029776394,0.2567535638809204,0.4550188183784485,-0.8526638150215149,-0.0010467469692230225,0.007688790559768677,0.004794001579284668,0.9624013502596557,-0.23487691147928025,0.13601816383062468,-0.010760006626680106
1681410597042469600,2.3584697265625,0.005029823165386915,-0.002415391616523266,-0.002472398802638054,0.25673291087150574,0.45499223470687866,-0.8526841402053833,-0.002582460641860962,0.008157879114151001,0.0037920475006103516,0.9624064482434908,-0.23486071369816633,0.13600868448805473,-0.010768866417153028
1681410597052446700,2.36844677734375,-0.006028354167938232,-0.0015408117324113846,-0.003911271691322327,0.25670307874679565,0.4550040662288666,-0.8526868224143982,-0.003117203712463379,0.006894826889038086,0.006480216979980469,0.9624069926969676,-0.2348650000357532,0.13599637542630488,-0.010782019281403417
1681410597062423800,2.378423828125,-0.011514732614159584,0.0029540718533098698,-0.00333789293654263,0.2567048668861389,0.4551086127758026,-0.8526304960250854,-0.0026459693908691406,-0.0009459257125854492,0.004486024379730225,0.9623923031837696,-0.23492231287529264,0.13600095102916235,-0.010785842860869324
1681410597072400000,2.38839990234375,-0.011779449880123138,0.00023610331118106842,-0.0035988828167319298,0.2566961646080017,0.45523133873939514,-0.8525676131248474,-0.005154937505722046,-0.0003667473793029785,0.0064067840576171875,0.9623757684749173,-0.23498797860833254,0.1360031324939889,-0.010800724933398525
1681410597082376700,2.398376708984375,-0.006954068783670664,0.0066085150465369225,-0.0057661631144583225,0.25670528411865234,0.45535463094711304,-0.8524990081787109,-0.005804955959320068,0.0011426806449890137,0.006368696689605713,0.962357721243371,-0.23505305231219598,0.1360167474859838,-0.010823632039618053
1681410597092353800,2.408353759765625,-0.007657043170183897,0.0018905652686953545,-0.007141569163650274,0.25671064853668213,0.4554651081562042,-0.8524383902549744,-0.0055356621742248535,0.0018256604671478271,0.005178928375244141,0.9623415809468584,-0.23510960619048663,0.13603047427952705,-0.01085646317562911
1681410597102329900,2.418329833984375,-0.010807296261191368,0.006666145753115416,-0.004744990728795528,0.2567170262336731,0.4555860757827759,-0.852371871471405,-0.00644230842590332,0.0011401176452636719,0.004318952560424805,0.9623240470943547,-0.23517208961471017,0.13604471740015942,-0.01088817702036765
1681410597112307000,2.428306884765625,-0.012105587869882584,0.006966390181332827,-0.005711851175874472,0.25673994421958923,0.4557235836982727,-0.8522914052009583,-0.007914841175079346,0.0006974339485168457,0.005901694297790527,0.9623027047884464,-0.23524403064960364,0.13606816271206604,-0.010919664687814594
1681410597122283800,2.43828369140625,-0.018064675852656364,0.006095270160585642,-0.0039043636061251163,0.25676149129867554,0.45589566230773926,-0.8521928787231445,-0.007676959037780762,-0.001198887825012207,0.005742132663726807,0.9622768549004294,-0.23533624612552786,0.13608972109098585,-0.010942836030257764
1681410597132259800,2.448259765625,-0.032494448125362396,0.004966463893651962,-0.00454876571893692,0.2567746937274933,0.45616406202316284,-0.8520452380180359,-0.009963750839233398,-0.0025964677333831787,0.005121469497680664,0.9622382301186734,-0.23548228630117465,0.13610832294965236,-0.010961679609751829
1681410597142236700,2.458236572265625,-0.042773451656103134,0.005548897199332714,-0.005394053179770708,0.25679701566696167,0.456499308347702,-0.8518589735031128,-0.010886311531066895,-0.005373120307922363,0.005225121974945068,0.962189874177286,-0.23566725164745478,0.1361302875959265,-0.010967503855706306
1681410597152213800,2.4682138671875,-0.04851865768432617,0.0055271657183766365,-0.00021891517098993063,0.2568318843841553,0.4568951725959778,-0.8516362309455872,-0.012187659740447998,-0.007600009441375732,0.0034612417221069336,0.9621321344519703,-0.2358887189789174,0.13615583283371854,-0.01095412967927832
1681410597162189800,2.47818994140625,-0.056775256991386414,0.00913255289196968,-0.000797087443061173,0.25687217712402344,0.45734885334968567,-0.8513805270195007,-0.013891160488128662,-0.007016122341156006,0.003724336624145508,0.9620659435910847,-0.23614306507298188,0.13618442911518241,-0.01093538319580375
1681410597172167000,2.4881669921875,-0.0614425428211689,0.006338897161185741,0.0024983244948089123,0.25691118836402893,0.45786553621292114,-0.8510909676551819,-0.012099117040634155,-0.0066325366497039795,0.00291597843170166,0.9619910204576251,-0.23643364412003573,0.13621176251333209,-0.010907500451652143
1681410597182143700,2.498143798828125,-0.06150113418698311,0.00344270933419466,0.004296490922570229,0.25693824887275696,0.4583899974822998,-0.8508003950119019,-0.011058062314987183,-0.004364639520645142,0.0005350112915039062,0.9619159202983015,-0.23673104579487092,0.136228497201578,-0.010861432483446381
1681410597192119800,2.508119873046875,-0.06132360175251961,-0.003195858560502529,0.00285746855661273,0.25692665576934814,0.45890364050865173,-0.8505269885063171,-0.006423056125640869,0.0008743107318878174,-0.001233816146850586,0.9618455074915943,-0.23702313279108136,0.13622238514242352,-0.010807208061436748
1681410597202096600,2.5180966796875,-0.05816882103681564,-0.003368963487446308,0.002050796989351511,0.2568758428096771,0.45939508080482483,-0.8502770066261292,-0.0006196796894073486,0.005753964185714722,-0.0033453702926635742,0.9617811675177491,-0.23730229788842314,0.1361951002869948,-0.010754075648033998
1681410597212073700,2.52807373046875,-0.06047997996211052,-0.0030615823343396187,0.0005510046612471342,0.25681987404823303,0.4598800539970398,-0.8500317335128784,0.00044333934783935547,0.008824259042739868,-0.0008135437965393066,0.9617179054466465,-0.23757778390017995,0.13616513211493553,-0.01070181509719753
1681410597222049800,2.5380498046875,-0.060569461435079575,-0.00644006859511137,-0.0016282600117847323,0.25673729181289673,0.4603712260723114,-0.8497907519340515,-0.0003590583801269531,0.01048460602760315,0.001707315444946289,0.9616558961582119,-0.23785559002697637,0.13612247411442982,-0.010654934995353424
1681410597232027000,2.54802685546875,-0.06066114082932472,-0.009668085724115372,-0.004334331024438143,0.2566121816635132,0.4608549475669861,-0.8495663404464722,0.0008188784122467041,0.010748535394668579,0.004977166652679443,0.9615978901696359,-0.2381269855140623,0.13606020283485615,-0.010620841335742674
1681410597242003700,2.558003662109375,-0.06258074939250946,-0.003934833221137524,0.00021168467355892062,0.25647154450416565,0.4613676071166992,-0.849330484867096,0.003950238227844238,0.011639684438705444,0.009654641151428223,0.96153680025747,-0.23841237083802172,0.1359937159034749,-0.010600050734536848
1681410597251979800,2.567979736328125,-0.09065286070108414,0.004806992597877979,-0.0026868998538702726,0.25645580887794495,0.4619196355342865,-0.8490351438522339,0.004362761974334717,0.010843545198440552,0.011556625366210938,0.9614604919678388,-0.23872443181883105,0.13598919748638572,-0.010557534204536265
1681410597261956600,2.57795654296875,-0.1295965313911438,0.010722139850258827,-0.0163292083889246,0.25640377402305603,0.4628552198410034,-0.8485412001609802,-0.000010281801223754883,-0.0009258091449737549,0.018371641635894775,0.9613322651034322,-0.23924684212299685,0.13597921865992516,-0.010530244288967866
1681410597271933700,2.58793359375,-0.08762414753437042,0.0112478481605649,-0.020539917051792145,0.2563813328742981,0.46385642886161804,-0.8480011224746704,-0.01028752326965332,-0.0004926621913909912,0.029840171337127686,0.9611915159087571,-0.23979736137252855,0.13600244042438048,-0.010566134218605588
1681410597281909800,2.59790966796875,-0.02924659103155136,0.019811242818832397,-0.018981700763106346,0.2564065754413605,0.4643944203853607,-0.847698986530304,-0.005338430404663086,0.009711533784866333,0.01356208324432373,0.9611121731475989,-0.2400866532665077,0.1360474537037513,-0.010636043629058718
1681410597291886800,2.607886962890625,0.03501255437731743,0.018563177436590195,-0.013814768753945827,0.2564983665943146,0.46441131830215454,-0.8476619720458984,0.0069752037525177,0.03308635950088501,0.019079267978668213,0.9611012740235693,-0.24008138995812164,0.1361247696050938,-0.010748466128441693
1681410597301863700,2.61786376953125,0.04951133579015732,0.013331664726138115,-0.017156235873699188,0.2565735876560211,0.46409207582473755,-0.8478140234947205,0.01501762866973877,0.041843682527542114,0.005437374114990234,0.9611394648769719,-0.23988791674340604,0.13618656283084435,-0.01086958020519922
1681410597311839700,2.62783984375,0.0330471433699131,0.006456715054810047,-0.017198046669363976,0.25659695267677307,0.4638144373893738,-0.8479588031768799,0.017923951148986816,0.02054542303085327,-0.004137694835662842,0.9611755574398778,-0.23971588099709687,0.1362236616874039,-0.010997909327916933
1681410597321816600,2.637816650390625,0.007231258787214756,0.00015274621546268463,-0.01280356664210558,0.256585955619812,0.4637300372123718,-0.8480083346366882,0.010488659143447876,0.006652772426605225,0.0012066364288330078,0.9611874754247515,-0.23965668429064485,0.1362369688714198,-0.011083721926932353
1681410597331793700,2.647793701171875,-0.01303483173251152,-0.008583540096879005,-0.012936508283019066,0.25650691986083984,0.4638400971889496,-0.84797203540802,0.006234228610992432,-0.004947155714035034,0.0005600452423095703,0.9611775101283646,-0.23970937965700076,0.13621079848074155,-0.011135535732120925
1681410597341770800,2.657770751953125,-0.0038514528423547745,-0.010730313137173653,-0.010843263939023018,0.2564115524291992,0.4639667868614197,-0.8479315638542175,0.008313238620758057,-0.0014117658138275146,0.0008552074432373047,0.9611665303740605,-0.2397730682756199,0.136172975507659,-0.011173628639064006
1681410597351746800,2.667746826171875,-0.0003684708208311349,-0.00996374897658825,-0.0029988058377057314,0.2562931478023529,0.46406590938568115,-0.8479131460189819,0.00748559832572937,0.0036465823650360107,0.003690183162689209,0.961161530553231,-0.23982358077534857,0.13611786768441336,-0.011194389853653152
1681410597361723600,2.6777236328125,-0.006688418332487345,-0.010586662217974663,-0.008078252896666527,0.25616157054901123,0.4641914367675781,-0.8478841781616211,0.003131091594696045,0.003612607717514038,0.00782686471939087,0.961153717895279,-0.23988894245244521,0.1360558864825166,-0.01121286271796048
1681410597371700700,2.68770068359375,0.007069372106343508,-0.001954931765794754,0.00008768122643232346,0.2561191916465759,0.4643402099609375,-0.8478155136108398,0.00018274784088134766,0.002304166555404663,0.01090151071548462,0.9611356401517248,-0.23996894142858868,0.13604100146381737,-0.01122755800067216
1681410597381676800,2.6976767578125,0.005826740991324186,-0.002362128347158432,0.00555648235604167,0.25617000460624695,0.4644247591495514,-0.8477538228034973,-0.0042626261711120605,-0.0068441033363342285,0.00476682186126709,0.9611197314184186,-0.2400181686172225,0.13606748433374072,-0.011216404101697913
1681410597391654000,2.70765380859375,0.015870319679379463,-0.0008265497162938118,0.0035471273586153984,0.25625312328338623,0.4643722474575043,-0.8477574586868286,-0.005947887897491455,-0.0032515227794647217,0.008066415786743164,0.9611209238250489,-0.2399931988318791,0.1361048207952726,-0.011194590265303664
1681410597401630700,2.717630615234375,0.007791088428348303,0.0006967778317630291,0.006531732156872749,0.2563348412513733,0.4642815887928009,-0.8477824330329895,-0.006685733795166016,0.0010963082313537598,0.009327292442321777,0.9611276032112137,-0.2399460074385727,0.13614218412207096,-0.011179963400963803
1681410597411606800,2.727606689453125,0.00048826809506863356,-0.0014292234554886818,0.016017628833651543,0.2564120590686798,0.4642157256603241,-0.8477951288223267,-0.007113903760910034,-0.005277037620544434,0.007188558578491211,0.9611315940270773,-0.23991886841474716,0.13616666605580507,-0.011120634226998742
1681410597421583600,2.73758349609375,-0.008933196775615215,-0.003297964110970497,0.015150504186749458,0.2565084397792816,0.4642133414745331,-0.8477672934532166,-0.0057759881019592285,-0.007883906364440918,0.0076947808265686035,0.9611253380728803,-0.2399313105535265,0.13619588184535056,-0.011032707292782168
1681410597431560700,2.747560791015625,-0.005327476188540459,-0.006125655956566334,0.013545449823141098,0.25656625628471375,0.464265376329422,-0.84772127866745,-0.007863253355026245,-0.004487484693527222,0.002842247486114502,0.9611143150350108,-0.23997252817754172,0.13620769573619496,-0.010951389141810786
1681410597441536800,2.757536865234375,0.0020854324102401733,-0.009248478338122368,0.009412489831447601,0.2565910518169403,0.46426689624786377,-0.8477129340171814,-0.00845259428024292,0.0024690330028533936,-0.0010723471641540527,0.9611128958084496,-0.23998333038032213,0.13620396453034556,-0.010883514670117053
1681410597451513900,2.767513916015625,0.011744717136025429,-0.012068767100572586,0.007176766637712717,0.25655224919319153,0.4642077386379242,-0.84775710105896,-0.004827976226806641,0.010493278503417969,-0.005651593208312988,0.9611248946727271,-0.23995657964027967,0.1361700810627637,-0.010836641666328164
1681410597461490700,2.77749072265625,0.012452851980924606,-0.018072864040732384,0.003272305941209197,0.25643932819366455,0.4640843868255615,-0.8478587865829468,-0.001449674367904663,0.01575884222984314,-0.005702495574951172,0.9611517874028549,-0.23989177781746074,0.1360975121258398,-0.010799491933393779
1681410597471466800,2.787466796875,0.006332108750939369,-0.014299856498837471,-0.0015018096892163157,0.2562841475009918,0.46400684118270874,-0.8479481339454651,-0.0006994009017944336,0.013623863458633423,-0.0026529431343078613,0.9611752323764391,-0.2398491640421289,0.13600844650097998,-0.01078123754013606
1681410597481443600,2.797443603515625,0.00468041654676199,-0.012499293312430382,-0.001559333992190659,0.2561420202255249,0.4639829099178314,-0.8480042219161987,-0.008232474327087402,0.009268522262573242,0.002621591091156006,0.9611898205048546,-0.23983419363757066,0.13593182519993638,-0.010779411696929992
1681410597491420700,2.807420654296875,0.008694666437804699,-0.010975005105137825,-0.000850234180688858,0.2560259699821472,0.46392911672592163,-0.8480686545372009,-0.010893493890762329,0.007338672876358032,0.008179247379302979,0.9612066177292142,-0.23980318557690536,0.13586794848198241,-0.010776264602014536
1681410597501396700,2.817396728515625,0.012092326767742634,-0.012642411515116692,-0.003980247303843498,0.2559047043323517,0.4638434946537018,-0.8481521010398865,-0.007400006055831909,0.006005227565765381,0.008644163608551025,0.9612282723811644,-0.23975294005621559,0.13580305078772248,-0.01078354605765655
1681410597511373800,2.827373779296875,0.016717171296477318,-0.0077399034053087234,-0.002501260954886675,0.25578081607818604,0.4637346863746643,-0.8482489585876465,-0.0026985108852386475,0.008006125688552856,0.007642388343811035,0.9612533922679906,-0.23968936547046177,0.13573694825076293,-0.01079392700752896
1681410597521351000,2.837350830078125,0.013523243367671967,-0.012062214314937592,-0.005463494919240475,0.25563088059425354,0.46361684799194336,-0.8483586311340332,0.0013729631900787354,0.009558290243148804,0.008438646793365479,0.9612816837813979,-0.23961911086251952,0.13565905913713752,-0.010813560814780791
1681410597531326700,2.84732666015625,0.021090049296617508,-0.012177368625998497,-0.00747772678732872,0.2554742991924286,0.46352243423461914,-0.8484573364257812,-0.00005742907524108887,0.008508294820785522,0.0085679292678833,0.9613070231150019,-0.23956022888510417,0.13558104783747738,-0.010844287188164624
1681410597541303600,2.857303466796875,0.018379483371973038,-0.012084690853953362,-0.008174941875040531,0.2553223669528961,0.46340638399124146,-0.848566472530365,0.0012084543704986572,0.007754623889923096,0.007227420806884766,0.9613349209805403,-0.239487567626041,0.13550817562074635,-0.010888094805330381
1681410597551280600,2.86728076171875,0.028174491599202156,-0.01086384616792202,-0.008287044242024422,0.2551737427711487,0.46326494216918945,-0.8486884236335754,0.002455681562423706,0.006476998329162598,0.006357550621032715,0.9613660810732589,-0.23940007988262074,0.1354378049309598,-0.010937477770714589
1681410597561256700,2.877256591796875,0.03325207531452179,-0.004864810034632683,-0.008843645453453064,0.2550230622291565,0.4630677402019501,-0.8488413095474243,0.0025758445262908936,0.00749814510345459,0.005854308605194092,0.961405153264638,-0.23927998043298543,0.13536780699032006,-0.010998702060195362
1681410597571233800,2.88723388671875,0.0295834019780159,-0.007515345700085163,-0.009514645673334599,0.25488632917404175,0.46286341547966003,-0.8489937782287598,-0.00024759769439697266,0.011807084083557129,0.005533754825592041,0.9614440020723947,-0.23915518088818746,0.1353066984318723,-0.011066640795622314
1681410597581211000,2.8972109375,0.014728023670613766,-0.0039682816714048386,-0.008933543227612972,0.2547808885574341,0.4627470374107361,-0.8490888476371765,-0.0030718445777893066,0.004324585199356079,0.007612466812133789,0.9614681116893902,-0.23908171671209358,0.13526083886742038,-0.01111979354117804
1681410597591186700,2.907186767578125,0.01141558401286602,-0.0042030662298202515,-0.006783973425626755,0.2547154724597931,0.46269944310188293,-0.8491344451904297,-0.0029911696910858154,-0.002952009439468384,0.009656965732574463,0.9614795059388372,-0.23904869468272402,0.13523497766935896,-0.01116059488868648
1681410597601163500,2.91716357421875,0.006009100936353207,-0.003544200211763382,-0.0011657688301056623,0.2546818256378174,0.4627051055431366,-0.8491414785385132,-0.004636019468307495,-0.003384917974472046,0.008305907249450684,0.9614811298111695,-0.23904910575881635,0.13522130155185058,-0.01117683242503064
1681410597611140600,2.927140625,0.006916107144206762,0.0018899799324572086,-0.00035806529922410846,0.2546826899051666,0.4626930058002472,-0.8491477966308594,-0.004346936941146851,-0.003906905651092529,0.010128021240234375,0.9614827013649534,-0.23904197827073212,0.13522221736821063,-0.011179978974065145
1681410597621116700,2.93711669921875,0.005320873577147722,-0.004800945520401001,-0.0002339620259590447,0.2546766400337219,0.4626879096031189,-0.8491523861885071,-0.0030286312103271484,-0.004557907581329346,0.010010600090026855,0.9614838466129204,-0.23903830046295077,0.13522022723458849,-0.011185410873991745
1681410597631093800,2.94709375,0.0007887393003329635,-0.0040483903139829636,-0.0016020778566598892,0.2546575367450714,0.46270155906677246,-0.8491506576538086,-0.004459083080291748,-0.004022270441055298,0.00846773386001587,0.9614834040882495,-0.23904516191739067,0.13521122880113873,-0.01118862904388307
1681410597641070800,2.95707080078125,0.0018494762480258942,-0.006850302219390869,0.0003721234970726073,0.2546273469924927,0.462729811668396,-0.8491443395614624,-0.0013619065284729004,-0.002890855073928833,0.005546987056732178,0.9614818392469495,-0.239061145789202,0.13519467756282905,-0.011183563088046349
1681410597651046700,2.967046630859375,0.004892836790531874,-0.008130110800266266,-0.003693841164931655,0.2545550465583801,0.462757408618927,-0.8491509556770325,0.0005261898040771484,0.0018423199653625488,0.002639174461364746,0.9614834378035895,-0.23907497389132468,0.13515798050878594,-0.0111874565856755
1681410597661023700,2.977023681640625,0.008274518884718418,-0.008013997226953506,-0.00390396430157125,0.25445836782455444,0.46274319291114807,-0.8491876721382141,0.0011874139308929443,0.0060679614543914795,0.0005701780319213867,0.9614927663039652,-0.239063422542292,0.1351104980895571,-0.0112044679214884
1681410597671000800,2.987000732421875,0.0105093102902174,-0.008568625897169113,-0.005615511443465948,0.2543579638004303,0.46268394589424133,-0.8492500185966492,0.0013793706893920898,0.00814133882522583,0.0016244053840637207,0.9615086841340822,-0.23902579419687836,0.13506168249049266,-0.01122889867614579
1681410597680976600,2.9969765625,0.010442465543746948,-0.008516959846019745,-0.007256817538291216,0.2542437016963959,0.4626152813434601,-0.8493216037750244,0.0008833110332489014,0.00715714693069458,0.002336859703063965,0.9615268827153629,-0.2389816037047795,0.1350073341430571,-0.011261687017623957
1681410597690953700,3.00695361328125,0.0038646571338176727,-0.007538675330579281,-0.002760502975434065,0.25415393710136414,0.4625820517539978,-0.8493666052818298,-0.00496259331703186,0.003848731517791748,0.0032210350036621094,0.9615384362920806,-0.2389601161024072,0.13496207836663837,-0.011274924655579844
1681410597700930800,3.016930908203125,0.0014622195158153772,-0.010563494637608528,-0.002240121131762862,0.2540680766105652,0.4625760614871979,-0.8493955731391907,-0.00615847110748291,-0.00002104043960571289,0.006973147392272949,0.9615460220389055,-0.23895522694727345,0.1349170578662136,-0.011277935830619961
1681410597710906600,3.02690673828125,0.003821546910330653,-0.006634852848947048,0.001213149749673903,0.25398188829421997,0.4625539779663086,-0.8494333624839783,-0.004348069429397583,-0.0010823309421539307,0.006339609622955322,0.9615559072438205,-0.238942324923008,0.13486982522913774,-0.011274428616993898
1681410597720884000,3.036884033203125,0.0033765328116714954,-0.008811719715595245,0.002898930571973324,0.25392836332321167,0.4625197649002075,-0.8494679927825928,-0.005911976099014282,-0.0012159347534179688,0.006816685199737549,0.9615651039512847,-0.23892522498075727,0.13483594959769105,-0.011256086452317729
1681410597730860800,3.04686083984375,0.008971534669399261,-0.00922275148332119,0.0013009508838877082,0.25386422872543335,0.46247175335884094,-0.8495132923126221,-0.0034674406051635742,0.0003274083137512207,0.004847824573516846,0.9615769649708346,-0.23889902482045364,0.13479838328627103,-0.01124704164484031
1681410597740836900,3.0568369140625,0.008849561214447021,-0.010991889983415604,-0.0013164037372916937,0.25378260016441345,0.4624099135398865,-0.8495713472366333,-0.0016615688800811768,0.0017473101615905762,0.002494990825653076,0.9615921345571116,-0.23886450213527177,0.13475188112444117,-0.011240906986940321
1681410597750813700,3.066813720703125,0.009516816586256027,-0.014459965750575066,-0.002603043569251895,0.25366634130477905,0.4623814821243286,-0.8496215343475342,-0.001621633768081665,0.00324055552482605,0.0018128156661987305,0.9616051950688287,-0.23884728897019328,0.13468925067335422,-0.011240307605569556
1681410597760790800,3.076790771484375,0.005342312157154083,-0.0146101675927639,-0.003594538662582636,0.2535264790058136,0.46234583854675293,-0.8496826887130737,0.00004413723945617676,0.004725813865661621,0.002911508083343506,0.9616210900713115,-0.23882595674266585,0.13461359182639213,-0.01123845116496264
1681410597770767600,3.086767578125,0.0035019011702388525,-0.014030983671545982,-0.002450327854603529,0.2533784806728363,0.4623396694660187,-0.8497301936149597,0.003091275691986084,0.0024736523628234863,0.003935575485229492,0.9616334027122918,-0.23882045624137488,0.13453511567972146,-0.01123946504183364
1681410597780744000,3.096743896484375,0.0005239543970674276,-0.018746642395853996,-0.0055036419071257114,0.2532055675983429,0.46233582496643066,-0.8497838377952576,0.0010821819305419922,0.004583239555358887,0.0018682479858398438,0.9616473033643104,-0.23881540210704694,0.13444438367664097,-0.011244212274016256
1681410597790720800,3.106720703125,0.0029136089142411947,-0.014211919158697128,-0.004290172830224037,0.2530404329299927,0.46233728528022766,-0.8498322367668152,0.0014914870262145996,0.00607714056968689,0.005044698715209961,0.9616598570383648,-0.2388137227087419,0.1343573561099852,-0.011246696643344635
1681410597800697900,3.11669775390625,0.0037714128848165274,-0.0132015161216259,-0.005100039765238762,0.2528840899467468,0.4623291492462158,-0.8498831987380981,0.0005949735641479492,0.005658000707626343,0.00794905424118042,0.9616730610316279,-0.23880647700902513,0.13427537048467353,-0.011251645043481012
1681410597810674200,3.126674072265625,0.004616600461304188,-0.008438877761363983,-0.0049270507879555225,0.25275856256484985,0.46231314539909363,-0.8499292135238647,-0.002163410186767578,0.004148125648498535,0.008986890316009521,0.9616848438180987,-0.23879404642153387,0.13421175678573247,-0.011265499846620435
1681410597820651000,3.136651123046875,0.013795984908938408,-0.006633521057665348,-0.007867447100579739,0.25267767906188965,0.46226829290390015,-0.8499776721000671,-0.003318488597869873,0.0031248629093170166,0.01181250810623169,0.9616971131336357,-0.2387638702547106,0.13417516774872656,-0.011295839013609404
1681410597830628000,3.146628173828125,0.013905439525842667,-0.004853304475545883,-0.001695704646408558,0.2526145875453949,0.46217450499534607,-0.8500474095344543,-0.0029197633266448975,0.0028676986694335938,0.011149823665618896,0.9617149101806096,-0.23870697736828805,0.13414643878733912,-0.011324887969696969
1681410597840604200,3.156604248046875,0.015202932059764862,-0.0004923781380057335,0.0005155180115252733,0.2526091933250427,0.46207675337791443,-0.8501021862030029,-0.003585726022720337,0.0035147666931152344,0.013157665729522705,0.9617290799079944,-0.23865183243854435,0.1341425273882055,-0.011331026206755763
1681410597850581200,3.166581298828125,0.0186911728233099,0.0009007756598293781,0.0002434261841699481,0.25262251496315,0.4619453549385071,-0.8501695990562439,-0.005536884069442749,0.001723557710647583,0.011180400848388672,0.9617465703494327,-0.23857849484850038,0.13414727077763386,-0.011335542599140906
1681410597860558000,3.17655810546875,0.023077666759490967,-0.0021514734253287315,-0.000994411064311862,0.25263136625289917,0.46178317070007324,-0.8502551317214966,-0.0028907358646392822,0.004556030035018921,0.007573306560516357,0.9617686548164447,-0.2384869162918052,0.13415079723649373,-0.011348003578822954
1681410597870534100,3.1865341796875,0.0235927551984787,-0.005573849193751812,-0.0012372080236673355,0.2526140511035919,0.46161311864852905,-0.8503525257110596,-0.00023362040519714355,0.005580604076385498,0.005214095115661621,0.9617937283638308,-0.23839059431723172,0.13414040466255805,-0.011361049729666858
1681410597880511000,3.196510986328125,0.018566571176052094,-0.009197346866130829,-0.004172011278569698,0.2525530159473419,0.4614734351634979,-0.8504465222358704,-0.0013475120067596436,0.006498456001281738,0.0019205808639526367,0.9618180200010583,-0.23830937071469757,0.1341095730832458,-0.011382266915873664
1681410597890488000,3.206488037109375,0.01518828421831131,-0.011138258501887321,-0.008948424831032753,0.25243815779685974,0.4613635540008545,-0.8505402207374573,-0.002575427293777466,0.007890075445175171,0.0016938447952270508,0.9618419224714718,-0.2382418661713156,0.1340548327064358,-0.01141896681619141
1681410597900464000,3.216464111328125,0.007270706817507744,-0.013093551620841026,-0.01091144047677517,0.25228849053382874,0.4613247513771057,-0.8506057262420654,-0.00100669264793396,0.006082594394683838,0.0013778209686279297,0.9618584739924105,-0.23821283316780453,0.13398431198748878,-0.011459084689752208
1681410597910441200,3.226441162109375,0.0008933015633374453,-0.012996824458241463,-0.008748920634388924,0.25211986899375916,0.4613506495952606,-0.850641667842865,-0.0011279881000518799,0.0007466375827789307,0.003946781158447266,0.9618673430157629,-0.2382196421120105,0.13390511676115133,-0.01149792260570504
1681410597920418000,3.23641796875,-0.004872708581387997,-0.014380602166056633,-0.005647136829793453,0.25197523832321167,0.46142128109931946,-0.8506461381912231,-0.0043555498123168945,-0.001841723918914795,0.004790544509887695,0.9618682993107118,-0.23825481557510178,0.13383407280274162,-0.011513455370932997
1681410597930394000,3.24639404296875,-0.001954083563759923,-0.010425008833408356,-0.004044678993523121,0.2518310546875,0.4614756107330322,-0.8506593704223633,-0.0035704970359802246,-0.0032083094120025635,0.005398869514465332,0.961871598285487,-0.2382818832942816,0.13376117500338944,-0.01152228387874148
1681410597940371000,3.256370849609375,0.003493146039545536,-0.008905142545700073,-0.001754893222823739,0.25172609090805054,0.4615115821361542,-0.8506709337234497,-0.0017565488815307617,-0.002771228551864624,0.006829440593719482,0.9618744699152023,-0.23829882659895177,0.13370937588149953,-0.011534224181783372
1681410597950348000,3.26634814453125,0.008697794750332832,-0.0015081074088811874,-0.002885588211938739,0.25166988372802734,0.46149250864982605,-0.850697934627533,-0.0034551024436950684,-0.001134723424911499,0.006886959075927734,0.9618813028334241,-0.23828611933565497,0.13368160845744684,-0.011544500458545253
1681410597960324000,3.276323974609375,0.020587477833032608,0.0013225660659372807,-0.0001835450530052185,0.2516461908817291,0.46139758825302124,-0.8507564067840576,-0.005308210849761963,0.0019051432609558105,0.008150875568389893,0.9618963355469466,-0.23823104164129122,0.13367038004668239,-0.011560038033159402
1681410597970301200,3.28630126953125,0.023211989551782608,0.005234963726252317,0.000012380362022668123,0.2516634464263916,0.4612438678741455,-0.8508346676826477,-0.006714075803756714,0.004515528678894043,0.0073136091232299805,0.9619164202287325,-0.23814301425970136,0.13368087986381044,-0.011581715275961597
1681410597980278000,3.296278076171875,0.023200804367661476,0.003470619674772024,-0.0011721937917172909,0.2516792118549347,0.4610719680786133,-0.8509231805801392,-0.006394177675247192,0.005633413791656494,0.0045487284660339355,0.9619391021157835,-0.2380440450256442,0.1336916426563528,-0.011609649465108582
1681410597990255000,3.306255126953125,0.023235725238919258,-0.0005194889381527901,-0.004947407636791468,0.25168320536613464,0.4608877897262573,-0.8510217666625977,-0.0057573020458221436,0.004963099956512451,0.0018854737281799316,0.9619643179343887,-0.23793738916431595,0.1336971464098203,-0.011642879738826953
1681410598000231000,3.31623095703125,0.020347528159618378,-0.004632208496332169,-0.006076587829738855,0.25161945819854736,0.46071237325668335,-0.8511356115341187,-0.004640638828277588,0.005794644355773926,0.0017399191856384277,0.9619934403876711,-0.23783368132697175,0.13366879651744523,-0.011683722726033238
1681410598010208300,3.326208251953125,0.01547317672520876,-0.0068892911076545715,-0.007150690536946058,0.2515307664871216,0.4605724811553955,-0.8512375354766846,-0.004368871450424194,0.0038593709468841553,0.0009263157844543457,0.962019416291594,-0.23774914229337527,0.1336285496190535,-0.011726137265873345
1681410598020185300,3.336185302734375,0.007049597799777985,-0.015017259865999222,-0.009322764351963997,0.2513939440250397,0.4605080783367157,-0.8513127565383911,-0.0048576295375823975,0.0033134520053863525,0.0005743503570556641,0.9620384881662116,-0.23770606951902157,0.13356434982609897,-0.011766965462082451
1681410598030161200,3.3461611328125,0.0015676473267376423,-0.01335054636001587,-0.007740963716059923,0.25124043226242065,0.4605010747909546,-0.851361870765686,-0.002995133399963379,0.001321554183959961,0.002378225326538086,0.9620508690879965,-0.2376955661753053,0.13349109204157836,-0.011800852352656344
1681410598040138000,3.356137939453125,-0.00081961031537503,-0.013662934303283691,-0.006826967000961304,0.2510887086391449,0.4605439603328705,-0.8513834476470947,-0.003102809190750122,-0.0029633045196533203,0.003116905689239502,0.9620561575226302,-0.23771424193688986,0.13341746847564534,-0.011824058551328733
1681410598050115000,3.366114990234375,0.005327797494828701,-0.014199880883097649,-0.0030871396884322166,0.25091928243637085,0.46055302023887634,-0.8514285087585449,-0.0003089010715484619,0.001498490571975708,0.004947245121002197,0.9620676039559128,-0.23771392777135028,0.13333357053967546,-0.011847291838444492
1681410598060091100,3.376091064453125,0.009149167686700821,-0.01041446253657341,-0.003245331346988678,0.25077536702156067,0.4605180323123932,-0.8514898419380188,-0.0018586814403533936,0.004646271467208862,0.007236361503601074,0.962083412105403,-0.23769125727183607,0.13325898148531942,-0.011858097405599803
1681410598070068200,3.386068115234375,0.018242530524730682,-0.008649000898003578,-0.00032357749296352267,0.2506594955921173,0.46041420102119446,-0.8515800833702087,-0.004107922315597534,0.004124492406845093,0.006960391998291016,0.9621068300579784,-0.23763184805430282,0.1331955773851937,-0.01186133053411099
1681410598080045300,3.39604541015625,0.018956258893013,-0.005607936531305313,0.00018428737530484796,0.25056329369544983,0.4602816104888916,-0.8516800403594971,-0.0014787912368774414,0.0023191869258880615,0.007518172264099121,0.9621326785644931,-0.23755649196014278,0.1331423800778325,-0.01186660542599996
1681410598090021000,3.406021240234375,0.024309711530804634,-0.003854352980852127,0.001416448736563325,0.2505076825618744,0.4601140022277832,-0.8517869710922241,0.000499427318572998,0.00514182448387146,0.009074628353118896,0.9621603788080881,-0.23746210522818023,0.133109999961176,-0.011872712316234983
1681410598099998200,3.415998291015625,0.027270879596471786,-0.006525769829750061,-0.0011060974793508649,0.25043827295303345,0.4598977267742157,-0.8519241809844971,-0.00046879053115844727,0.007234930992126465,0.008036911487579346,0.9621958188257729,-0.23733939106549418,0.13307116879941427,-0.011887538309627034
1681410598109975000,3.42597509765625,0.02724711038172245,-0.007545173168182373,-0.0008000002708286047,0.2503620386123657,0.4596841335296631,-0.8520618081092834,0.001850515604019165,0.007006019353866577,0.006740272045135498,0.9622314353251187,-0.2372181258276006,0.1330287370648956,-0.011902180751052628
1681410598119951000,3.435951171875,0.027742192149162292,-0.00873001292347908,-0.002437844406813383,0.25026679039001465,0.45945265889167786,-0.8522146344184875,0.004555046558380127,0.008351415395736694,0.005779147148132324,0.9622709122051628,-0.23708626551676615,0.1329765901513274,-0.011920196157048833
1681410598129928200,3.44592822265625,0.028840914368629456,-0.012677030637860298,-0.0039337254129350185,0.2501620352268219,0.4592306613922119,-0.8523650169372559,0.006017804145812988,0.006635516881942749,0.00586855411529541,0.96230968666766,-0.23695843879709236,0.1329216874051358,-0.011946410641518513
1681410598139905300,3.4559052734375,0.02737431228160858,-0.013266654685139656,-0.003785120788961649,0.2500411868095398,0.4590229392051697,-0.8525124192237854,0.0028580427169799805,0.005714118480682373,0.005741238594055176,0.9623476657277062,-0.2368387798262937,0.13285778894314915,-0.011969305451218493
1681410598149881000,3.465881103515625,0.023929044604301453,-0.01670927181839943,-0.002820756984874606,0.2498861700296402,0.4588460922241211,-0.8526530265808105,0.0011056959629058838,0.004059880971908569,0.007957041263580322,0.9623838925951932,-0.2367358024849526,0.1327766915385539,-0.011992543035187228
1681410598159858200,3.475858154296875,0.021300505846738815,-0.01725468598306179,-0.004968330264091492,0.2497316151857376,0.4586820900440216,-0.8527865409851074,0.0019621700048446655,0.000027745962142944336,0.006778299808502197,0.9624183715127764,-0.23664130845995685,0.13269374879519324,-0.012005912673630478
1681410598169835000,3.4858349609375,0.01802987791597843,-0.016272779554128647,-0.004961139522492886,0.2495907098054886,0.45856717228889465,-0.8528895974159241,0.0006535053253173828,-0.0027259886264801025,0.006652474403381348,0.9624450266826368,-0.23657413981841308,0.1326193058269825,-0.012019226261154755
1681410598179812000,3.49581201171875,0.014276685193181038,-0.015235478058457375,-0.0055084191262722015,0.24944663047790527,0.4584764242172241,-0.8529805541038513,0.001255333423614502,-0.0033066272735595703,0.008040428161621094,0.9624684408694503,-0.2365198990654507,0.1325446077539608,-0.012035709362249411
1681410598189788200,3.5057880859375,0.006931852549314499,-0.013427192345261574,0.0005928995087742805,0.2493320256471634,0.45842254161834717,-0.8530430197715759,0.0014309734106063843,-0.004732877016067505,0.008575916290283203,0.9624846594298982,-0.23648813746107958,0.13248343725772727,-0.012039777076433965
1681410598199765200,3.51576513671875,0.0012886145850643516,-0.014510564506053925,0.0021617677994072437,0.24924859404563904,0.4584309160709381,-0.8530628681182861,-0.0005455315113067627,-0.00690796971321106,0.008717834949493408,0.9624900119755214,-0.23649490429639303,0.13243388059831043,-0.012017129126572634
1681410598209742000,3.5257421875,-0.0019883052445948124,-0.015014329925179482,0.005710280034691095,0.24917782843112946,0.45846691727638245,-0.8530641794204712,-0.000840991735458374,-0.009080201387405396,0.008475005626678467,0.9624907375809958,-0.23651835685692532,0.13238950616927386,-0.011985362975675122
1681410598219718100,3.53571826171875,0.0009531561518087983,-0.010587889701128006,0.004838894121348858,0.24910865724086761,0.45848244428634644,-0.8530760407447815,-0.0021908730268478394,-0.006013453006744385,0.0073271989822387695,0.9624943353113047,-0.2365314710505559,0.13234365231148973,-0.011946341912046179
1681410598229695000,3.545695068359375,0.001020733849145472,-0.007201679982244968,0.00305960257537663,0.24906329810619354,0.45849233865737915,-0.8530839681625366,-0.0033967196941375732,-0.004619568586349487,0.0049700140953063965,0.9624967111622932,-0.23654001478838385,0.13231341508411137,-0.011920096422418239
1681410598239672000,3.555672119140625,-0.0009350915788672864,-0.0032548755407333374,0.001840141136199236,0.24905763566493988,0.4584929347038269,-0.8530852794647217,-0.003955662250518799,-0.004208177328109741,0.0044373273849487305,0.9624973062161855,-0.2365432929445113,0.13230504084517272,-0.011898138897289273
1681410598249648000,3.565648193359375,-0.0022895089350640774,-0.002596648409962654,0.0007108609424903989,0.24905215203762054,0.45850634574890137,-0.8530796766281128,-0.007185027003288269,-0.0032449960708618164,0.0005254149436950684,0.9624960149312254,-0.23655234144008822,0.1322994396029469,-0.011885772848071708
1681410598259625200,3.575625244140625,-0.012933630496263504,-0.0021529654040932655,-0.00007610314060002565,0.2490546852350235,0.45857468247413635,-0.8530422449111938,-0.007492750883102417,-0.0038474202156066895,0.0013576745986938477,0.9624864314102689,-0.2365916834697814,0.13229991035928418,-0.011874995524534592
1681410598269602000,3.58560205078125,-0.027374189347028732,-0.0006349105387926102,-0.0016651947516947985,0.24906258285045624,0.45874661207199097,-0.852947473526001,-0.009118065237998962,-0.006857454776763916,0.0038264989852905273,0.9624620578778691,-0.23668886964073083,0.13230506593160632,-0.011860788502911664
1681410598279578000,3.595578125,-0.03542252629995346,0.00046284496784210205,0.000010998803190886974,0.2490733116865158,0.45900800824165344,-0.8528037071228027,-0.013248652219772339,-0.011513382196426392,0.00404888391494751,0.9624248540827074,-0.2368356149505835,0.13231416241835148,-0.011846971582641412
1681410598289555200,3.60555517578125,-0.043339405208826065,0.0018214834854006767,-0.0008157629054039717,0.2490890473127365,0.45933055877685547,-0.8526254296302795,-0.01295924186706543,-0.013193964958190918,0.006662964820861816,0.9623789533320317,-0.23701833516056517,0.1323238044178254,-0.01181815380758435
1681410598299532300,3.6155322265625,-0.041549231857061386,0.007104129530489445,-0.0019526664400473237,0.24911069869995117,0.45969679951667786,-0.8524216413497925,-0.011271893978118896,-0.009455621242523193,0.007176399230957031,0.9623261733909233,-0.23722433526343176,0.13233963641041993,-0.011797054475435581
1681410598309508000,3.625508056640625,-0.04405679926276207,0.007580036763101816,-0.006464560516178608,0.24914824962615967,0.460050106048584,-0.8522200584411621,-0.010622799396514893,-0.006284147500991821,0.006196558475494385,0.9622738601653287,-0.23742104477251552,0.13236771045004045,-0.011792812402393209
1681410598319485200,3.635485107421875,-0.04295824468135834,0.00831373780965805,-0.009215339086949825,0.2491658329963684,0.46042779088020325,-0.8520109057426453,-0.009145036339759827,-0.005563199520111084,0.0027220845222473145,0.9622193206530376,-0.2376285386915983,0.1323903933836169,-0.011806980366587599
1681410598329462000,3.6454619140625,-0.045529790222644806,0.00725965853780508,-0.010488330386579037,0.24916096031665802,0.4608204662799835,-0.8518000841140747,-0.009231701493263245,-0.0014850199222564697,0.0013210177421569824,0.9621642372987803,-0.23784122346115133,0.13240662819502297,-0.011841693763569373
1681410598339439000,3.655439208984375,-0.043176088482141495,0.005769886076450348,-0.01427055150270462,0.24913956224918365,0.46121644973754883,-0.8515920042991638,-0.006845206022262573,0.0032154321670532227,0.00045680999755859375,0.9621097260488913,-0.2380551712103773,0.1324150069245591,-0.011879536331719683
1681410598349415200,3.665415283203125,-0.04470667243003845,0.0042314305901527405,-0.016139190644025803,0.24907605350017548,0.46159496903419495,-0.8514054417610168,-0.0024787038564682007,0.006178557872772217,0.001246809959411621,0.9620604971691745,-0.23825702907492222,0.13240419350118968,-0.011931733863493183
1681410598359392300,3.675392333984375,-0.042320214211940765,0.0048604691401124,-0.01655544340610504,0.24899764358997345,0.46197566390037537,-0.8512218594551086,-0.0028885751962661743,0.008391886949539185,0.0010022521018981934,0.9620120136721007,-0.23845820352729113,0.1323886027132133,-0.011996261292299843
1681410598369369000,3.685369140625,-0.03613172844052315,0.002400933764874935,-0.015805914998054504,0.24891544878482819,0.4623260200023651,-0.8510556817054749,-0.0014636069536209106,0.00988781452178955,0.0021635890007019043,0.9619680811499483,-0.23864335461813696,0.13236883429830734,-0.01205510928057467
1681410598379345200,3.69534521484375,-0.036303501576185226,0.004733596462756395,-0.01819530315697193,0.24883787333965302,0.46265169978141785,-0.8509013652801514,-0.0020269006490707397,0.008921265602111816,0.004984676837921143,0.9619271337895215,-0.2388141673643537,0.1323522423985259,-0.012119367839547717
1681410598389322000,3.705322021484375,-0.026450904086232185,0.00427585281431675,-0.02154923789203167,0.24875174462795258,0.46294966340065,-0.8507644534111023,-0.002444326877593994,0.011583507061004639,0.00628209114074707,0.961890494751045,-0.23896679714505029,0.1323353143573892,-0.012203403074983698
1681410598399299000,3.715299072265625,-0.025918804109096527,0.004340567626059055,-0.018344122916460037,0.2486637979745865,0.4631979167461395,-0.8506550192832947,-0.0007999837398529053,0.014203876256942749,0.0062642693519592285,0.9618609259163317,-0.2390914877661218,0.13231682080906582,-0.012290200583650646
1681410598409275100,3.725275146484375,-0.019942039623856544,0.005925680976361036,-0.01737608015537262,0.2485976219177246,0.4634312391281128,-0.8505473136901855,0.00028853118419647217,0.011773347854614258,0.005866587162017822,0.9618320013362618,-0.23920901368205402,0.13230790027754608,-0.012370610885458379
1681410598419252200,3.735252197265625,-0.017716702073812485,0.004811947233974934,-0.018321236595511436,0.24852202832698822,0.46363499760627747,-0.8504583835601807,-0.0010396689176559448,0.010043680667877197,0.0066321492195129395,0.9618078936885531,-0.2393103247969416,0.13229277929256578,-0.012449212076267816
1681410598429229000,3.74522900390625,-0.01421494409441948,0.007563417311757803,-0.0174078568816185,0.24849523603916168,0.46384313702583313,-0.8503527045249939,0.000024706125259399414,0.008477509021759033,0.008098125457763672,0.9617793817508898,-0.23941441455469795,0.13230414671159654,-0.01252965621378637
1681410598439205000,3.755205078125,-0.011143254116177559,0.008002039976418018,-0.0146405640989542,0.24847348034381866,0.4640098512172699,-0.8502681255340576,0.0005042403936386108,0.010202914476394653,0.007540524005889893,0.9617563393817626,-0.2394955003602782,0.1323172203059919,-0.012610622011352981
1681410598449182000,3.765181884765625,-0.009406274184584618,0.0051453206688165665,-0.01665574498474598,0.2484515756368637,0.46415844559669495,-0.8501933813095093,-0.000053688883781433105,0.011137664318084717,0.006534993648529053,0.9617358546763798,-0.2395665442776283,0.13232977938753362,-0.01269168559905459
1681410598459159000,3.775158935546875,-0.0009406176977790892,0.0034179948270320892,-0.013255155645310879,0.2484150230884552,0.46425318717956543,-0.850152313709259,0.0018291622400283813,0.009745955467224121,0.005547881126403809,0.9617240265167943,-0.23960813331082778,0.13233211542130155,-0.012768607431516426
1681410598469136000,3.785135986328125,0.008477617986500263,-0.0016591614112257957,-0.013203307054936886,0.2483511120080948,0.4643048644065857,-0.850142776966095,0.0010538548231124878,0.008427798748016357,0.004744887351989746,0.9617206084350687,-0.23962586747677947,0.13231801401037405,-0.012842529604666891
1681410598479112200,3.7951123046875,0.0190208051353693,-0.004708214662969112,-0.012895978055894375,0.24826547503471375,0.4642718732357025,-0.8501858115196228,0.0032452046871185303,0.008811742067337036,0.0010495185852050781,0.9617308585249894,-0.23959662132712353,0.13228965243330618,-0.012914636602619458
1681410598489089000,3.805089111328125,0.02144441567361355,-0.009926039725542068,-0.010739017277956009,0.2481563836336136,0.4641530215740204,-0.8502825498580933,0.006009310483932495,0.008747458457946777,0.0002917647361755371,0.9617551825635263,-0.23952060603844577,0.13224446833347012,-0.012978457091370224
1681410598499066000,3.815066162109375,0.021431365981698036,-0.016033466905355453,-0.010883361101150513,0.2480064481496811,0.4640347957611084,-0.8503908514976501,0.006693318486213684,0.008346915245056152,-0.0004391670227050781,0.9617826561163236,-0.23944618773171122,0.13217451816594258,-0.013029802121805137
1681410598509042000,3.8250419921875,0.021764561533927917,-0.013728020712733269,-0.00724340183660388,0.24784770607948303,0.46389928460121155,-0.8505110144615173,0.007172495126724243,0.004988133907318115,0.0021224617958068848,0.9618131388870176,-0.23936284295404195,0.13209816768114674,-0.013075974105828156
1681410598519019000,3.83501904296875,0.02245298959314823,-0.012918420135974884,-0.003006046637892723,0.24772322177886963,0.46377140283584595,-0.850616991519928,0.0038027316331863403,0.0013165771961212158,0.004547715187072754,0.961840305834248,-0.23928678749345678,0.13203536059963258,-0.013102786571191686
1681410598528996400,3.844996337890625,0.02500898949801922,-0.011124514043331146,-0.0011300991754978895,0.24760562181472778,0.46361422538757324,-0.8507369160652161,0.0010516494512557983,0.002023071050643921,0.005995213985443115,0.9618713362126374,-0.23919652165811991,0.13197181989856507,-0.013115163149573181
1681410598538972200,3.85497216796875,0.0327228382229805,-0.0052900612354278564,0.00496640894562006,0.24754002690315247,0.4634106457233429,-0.8508669137954712,-0.002178668975830078,0.0016620755195617676,0.008063077926635742,0.9619051525963638,-0.2390828233316526,0.1319315658876932,-0.013115271232097306
1681410598548949000,3.864948974609375,0.02978913113474846,-0.00734341237694025,0.006322973407804966,0.24751174449920654,0.46316349506378174,-0.851009726524353,-0.0036609768867492676,0.0001544952392578125,0.006359517574310303,0.9619423705499568,-0.23894649395648582,0.13190798748214771,-0.01310757374750359
1681410598558926000,3.874926025390625,0.03588191419839859,-0.008946634829044342,0.005533879157155752,0.24748758971691132,0.46288686990737915,-0.8511672616004944,-0.0021109431982040405,-0.00004190206527709961,0.00485384464263916,0.9619834790905109,-0.23879460011608608,0.1318845050344263,-0.013094611901033485
1681410598568902000,3.88490185546875,0.03061690926551819,-0.009045012295246124,0.0038924729451537132,0.2474675178527832,0.46262651681900024,-0.8513146042823792,-0.0020145773887634277,-0.002238243818283081,0.006038784980773926,0.9620219823500475,-0.23865153052744054,0.13186410195217427,-0.013083524279412222
1681410598578879200,3.894879150390625,0.027964133769273758,-0.00694564264267683,0.003602721029892564,0.2474462240934372,0.4624018371105194,-0.8514428734779358,-0.004633054137229919,-0.0034936368465423584,0.006136536598205566,0.9620554801338137,-0.23852829209732024,0.13184392370226947,-0.013072056367213545
1681410598588856300,3.904856201171875,0.030355485156178474,-0.003260892815887928,0.0032591563649475574,0.24746030569076538,0.4621661305427551,-0.851566731929779,-0.007347956299781799,-0.004081904888153076,0.004581928253173828,0.9620878750905312,-0.23839980788206566,0.13184140316441437,-0.013057316756508465
1681410598598833200,3.914833251953125,0.0390658900141716,-0.009894028306007385,0.0006788197788409889,0.24743279814720154,0.4618805944919586,-0.8517296314239502,-0.009151503443717957,0.00017091631889343262,-0.0010382533073425293,0.9621300952310232,-0.23824000259137432,0.13182137560019064,-0.013066288788428797
1681410598608809200,3.924809326171875,0.04611553996801376,-0.020141445100307465,-0.005285728722810745,0.24729913473129272,0.46153005957603455,-0.8519584536552429,0.00009168684482574463,0.010866910219192505,-0.005219221115112305,0.9621891985443812,-0.23804084860448405,0.1317472105082513,-0.01309093720682963
1681410598618786000,3.9347861328125,0.047939274460077286,-0.027253950014710426,-0.011398215778172016,0.24705925583839417,0.4611786901950836,-0.8522182703018188,0.01107373833656311,0.013079851865768433,-0.005218803882598877,0.9622561096923544,-0.2378376249808916,0.1316211408794932,-0.013133423642228146
1681410598628763100,3.94476318359375,0.04126988723874092,-0.029389647766947746,-0.01587294228374958,0.24673885107040405,0.4608478248119354,-0.8524900078773499,0.010387048125267029,0.01188477873802185,-0.0006440281867980957,0.9623257096672522,-0.23764165540406196,0.13145889306927233,-0.013199897540058118
1681410598638739200,3.9547392578125,0.032619673758745193,-0.02814062498509884,-0.01684100180864334,0.2464175522327423,0.460591584444046,-0.8527213931083679,0.00614599883556366,0.006998836994171143,0.0038750171661376953,0.9623850798735364,-0.23748835036777502,0.1312957741315656,-0.013256729259588358
1681410598648716300,3.96471630859375,0.029119180515408516,-0.027409903705120087,-0.015445588156580925,0.24610643088817596,0.4603874087333679,-0.8529214859008789,-0.0005772113800048828,0.004273325204849243,0.009553015232086182,0.9624362311007613,-0.23736314512853435,0.13114108178827188,-0.013320136405657596
1681410598658693000,3.974693115234375,0.029953548684716225,-0.021975459530949593,-0.01590658165514469,0.24582724273204803,0.46018776297569275,-0.8531097769737244,-0.005806446075439453,0.0007651150226593018,0.01325082778930664,0.9624841410209868,-0.23723968637330364,0.1310055417224025,-0.013392098388247163
1681410598668669200,3.984669189453125,0.03293086215853691,-0.01353217288851738,-0.015213876962661743,0.24558791518211365,0.4599688649177551,-0.85329669713974,-0.006528422236442566,0.002906620502471924,0.015253543853759766,0.9625316645009269,-0.23710565203308606,0.13089136575492116,-0.01346711955722294
