seconds_elapsed,rotationRateX,rotationRateY,rotationRateZ,gravityX,gravityY,gravityZ,accelerationX,accelerationY,accelerationZ,quaternionW,quaternionX,quaternionY,quaternionZ
4.0,-0.00210714983196874,-0.024576733367524348,-0.0003810411259392971,0.08112978959381213,-0.37531557758794387,-0.9233396804482774,-0.008529336282841981,-0.0011986378920644108,0.0013958121236630143,0.9806062105567253,0.19173383579188297,0.039601559944820244,-0.009030012293200667
4.01,0.006313370363789523,-0.025788113135014307,-0.003172274308261513,0.08088237764728204,-0.37532390235460744,-0.9233579976812668,-0.00833845323241445,0.0021179191606040685,0.0015212352320759903,0.9806104962645389,0.19173753340808106,0.03946777853840162,-0.009067965863588264
4.02,0.016368120989136002,-0.02866691151574963,-0.004360294000070365,0.08063370389129271,-0.3753938704594052,-0.9233513092603255,-0.00707281739040907,0.006552907086995819,0.0017426115531608286,0.9806083069134864,0.1917743143865513,0.039331282549386275,-0.009116272239336072
4.029999999999999,0.02359050276578585,-0.027779245914512293,2.82541240911793e-05,0.08037651552604241,-0.37559442346474187,-0.9232921563327854,-0.005678877859988819,0.008874699139684314,0.004362943514949772,0.9805927948772066,0.19188044989365752,0.03918919902015809,-0.009170343106291796
4.039999999999999,0.025914856449186927,-0.026406877611953275,0.004543515085815142,0.08013913331383184,-0.37579134086453225,-0.9232326629304131,-0.004160586646355423,0.009924867959028241,0.0024653537584137914,0.9805773606386459,0.19198363124099,0.039063256844990346,-0.009193595396415684
4.049999999999999,0.02423678968102139,-0.02673138711929896,0.007489233018917534,0.07989091787447343,-0.37598192489265264,-0.9231766020295371,-0.002949940470464978,0.0101653023668604,-0.000421886732145442,0.980562908081218,0.19208282775171648,0.038934393369742935,-0.009203506503266767
4.059999999999999,0.014874774890691047,-0.03433460655826832,0.0042073522620080595,0.07956999763955291,-0.3761538898099858,-0.9231342600049349,-0.0031161913950117966,0.009291859348124673,-1.7655193902581104e-05,0.980552104059865,0.1921713561455292,0.038768968515232406,-0.009210556216103519
4.0699999999999985,0.007489293481484533,-0.03317972913811737,0.0031323563926701223,0.07921090585120844,-0.3762457086542466,-0.9231277123069648,-0.0009034483768001304,0.006818163686084145,0.0032127819377361223,0.9805503017373928,0.1922173235283792,0.03858278932579724,-0.009224388753459666
4.079999999999998,0.0024680826968389905,-0.02840952827283291,0.0023950981658177237,0.07885510656681674,-0.376294453863298,-0.9231383432801835,0.000976350397368178,0.004008342551836744,0.006768680662340161,0.9805528584981331,0.1922404995425881,0.03839826419366761,-0.009238556688465583
4.089999999999998,0.0035755483223742293,-0.023968257920842354,-0.0007215865530555629,0.07857705586962331,-0.3763061900589943,-0.9231572560009509,-0.002501186484419551,0.002558426766970756,0.0068485343722467515,0.9805576539154316,0.19224435301906836,0.03825546660869036,-0.009242596667555603
4.099999999999998,0.002433474540444529,-0.024130341619042175,-0.004431140384199719,0.07833800546791057,-0.3762628122094623,-0.9231952474852126,-0.0033314207817399665,0.003456848251447485,0.00590127556693385,0.9805670882040276,0.19222032280009654,0.03812767422615101,-0.009271973640202753
4.109999999999998,0.0019304915520719876,-0.024973899316314038,-0.008026771321070747,0.07812728008879409,-0.3762090980748182,-0.9232350028812345,-0.0028173949684832137,0.005619716461539783,0.004858362209909243,0.9805768007151632,0.1921917683888863,0.03801081916910756,-0.009319405279464652
4.119999999999997,0.008197432099848969,-0.02027942491061247,-0.01006604508166774,0.07796390580852505,-0.3762125869874346,-0.9232473726623286,-0.0015071249149113343,0.0087898693342722,0.005286864113967411,0.980579224806311,0.1921951025129647,0.037912346911119825,-0.0093961485206097
4.129999999999997,0.01162734542731653,-0.016284189054904533,-0.010954037534841957,0.0778355519812958,-0.37620631421817496,-0.9232607547287238,-0.0013028302001022694,0.009395357461852744,0.004078376905927312,0.9805819225049341,0.1921933912324053,0.037832676122905556,-0.009468269523746584
4.139999999999997,0.013611275516719179,-0.01244732436793968,-0.011507309240117284,0.0777365453210365,-0.3762115408508552,-0.9232669674761103,-0.0015965828221021438,0.00897610015624743,0.002725193123371033,0.9805827900129669,0.192197988822812,0.03776824572084003,-0.009539023413207325
4.149999999999997,0.014856096245763629,-0.00792804392516303,-0.01286121548060208,0.07769686389586769,-0.3762861560047632,-0.9232398887565996,-0.0018918320522576977,0.009121782081345698,0.003956660336727057,0.9805751289970542,0.19224004544818263,0.037733415608827425,-0.009612890204618363
4.159999999999997,0.01521252600276234,-0.0016509008111317992,-0.012643086603187961,0.07770646278064162,-0.37637505432542656,-0.9232028456667268,-0.003095903613728821,0.0052405316026039985,0.006183264885805147,0.9805649788702966,0.1922900243501594,0.037724201972572535,-0.00968432284624684
4.169999999999996,0.014066116360951996,0.0035834855082034246,-0.011342144473727276,0.07774356033046505,-0.3764671027394169,-0.9231622016918742,-0.0046499549344303625,0.0001990109936189407,0.008300579896168867,0.9805539677046777,0.1923417405112609,0.03772995740396265,-0.009750982320421426
4.179999999999996,0.00793751573278815,0.0003250767321460956,-0.008428124956057263,0.07780177542955656,-0.3765432492388586,-0.9231262397678993,-0.00587544571358686,-0.0016026338183480716,0.00780785792347297,0.980544301872821,0.19238459100832603,0.0377497737976023,-0.00980099603737392
4.189999999999996,0.011338965977578445,-0.0012723195450343033,-0.007752149984707353,0.07782368798966756,-0.3765938134404814,-0.9231037659744196,-0.0031522407440578576,0.00121012326183344,0.0071364647384279415,0.9805381471512333,0.19241344215143283,0.03775150890362158,-0.009848830850284738
4.199999999999996,0.01947422843218536,-0.0019455601522074656,-0.007804804705477759,0.07782798780874241,-0.3766584264553367,-0.9230770376699681,0.0005719868293573712,0.005444081928636141,0.006375845687871589,0.9805309187463002,0.19244952291863307,0.0377445235252285,-0.009895160964829824
4.2099999999999955,0.02843148006053973,-0.0020013598333002407,-0.006217423183201547,0.07783116450332628,-0.3768488695434329,-0.9229990525436466,4.10228964039742e-05,0.005908583067417147,0.005597540647293664,0.9805105094273863,0.19255226842337284,0.03773722726672633,-0.009939281910936636
4.219999999999995,0.029746118309883707,-0.007383417217947464,-0.006276218049575363,0.07779587700728763,-0.3770409247016261,-0.9229235864698507,-8.455205905239554e-05,0.00827048097966741,-0.0004308324936835228,0.980490914926948,0.19265513790917393,0.037712077121923135,-0.009974226897372002
4.229999999999995,0.02676570753141056,-0.01361158079820829,-0.00708987977297824,0.07773341841959538,-0.3772310341356379,-0.9228511629691339,-5.161836381589814e-06,0.010414761607531391,-0.007511698695768393,0.9804721339606903,0.19275666759869461,0.03767329573007016,-0.010007902701735554
4.239999999999995,0.021167624581450526,-0.010887116688842631,-0.007612806879257757,0.07762990575224178,-0.37740738280969893,-0.9227877678410262,9.835083097193607e-05,0.006764744486485599,-0.0068646243456449325,0.980455416955671,0.1928511654668909,0.03761034249585381,-0.01005794785213108
4.249999999999995,0.016355022895644177,-0.012133414137323504,-0.00381180208057272,0.07749990897924132,-0.37758365455354115,-0.9227265792202906,-0.001056450279045969,0.0013051341381021464,-0.0043655006866729195,0.9804394438214378,0.19294473517421754,0.03753710615890019,-0.010091458331436912
4.2599999999999945,0.012119910411869573,-0.014500500150563455,0.0013775327660953377,0.07735505042462376,-0.3777452374458684,-0.9226726172914191,-0.0027078487665303298,-0.0037635424446261167,-0.0006719092060839426,0.9804254502920219,0.19302992812610315,0.03745855224985917,-0.010113496355827353
4.269999999999994,0.008822474597350357,-0.012121348501093362,0.0022838421047842944,0.07720288875715697,-0.37782955033385435,-0.9226508501738531,-0.003601138164806954,-0.001913139208178529,0.0043508630844591775,0.9804199015977516,0.19307342905877875,0.03737955144129961,-0.010119403210309904
4.279999999999994,0.00819724561860776,-0.01179406225781556,0.0035725883129712134,0.07708195096666791,-0.3778553370688661,-0.9226504123012093,-0.0037199255767417835,-0.003270869019061388,0.005399627985724322,0.9804198786829172,0.19308571509348627,0.03731900811319471,-0.010113011724578574
4.289999999999994,0.009312209408523257,-0.013526178922405825,0.004537902998963052,0.07696427295672945,-0.3778591653980844,-0.9226586689823822,-0.0033141981835927443,-0.005398445249401224,0.004164156806472445,0.9804221004756738,0.19308617986294035,0.03726124953750024,-0.01010110775188635
4.299999999999994,0.012310182709096012,-0.020718198114882083,0.002595172443470037,0.07677382986863326,-0.37791141979386056,-0.9226531184395838,-0.002250897549511466,-0.002463675038067099,0.0018140966322451914,0.9804207019554909,0.19311186344027098,0.037165238192619694,-0.010094393898882172
4.309999999999993,0.016377444918589466,-0.02195901467094858,0.0014954696710723638,0.0765844201135496,-0.3779590164331921,-0.922649343960143,0.0005643778647905036,0.0004269493608482797,0.00023016466581235147,0.9804195710709607,0.1931359954967307,0.03706495455355345,-0.010112063138253517
4.319999999999993,0.020684529077374468,-0.020106558462845675,0.0013607534750182657,0.07639530545139356,-0.3780276185760229,-0.9226369003046367,0.0032686419774639445,0.002548429689449339,-0.001038409689919652,0.9804161512380507,0.19317163256249195,0.0369629067839166,-0.010139279417377392
4.329999999999993,0.023014850807759793,-0.01896538302243628,0.004208024359441084,0.07620465112184917,-0.37823386423701383,-0.922568112103595,-0.0002149104742408675,0.0003085907098220493,-0.0028834004308294736,0.9803984909318415,0.19327949906841796,0.03686404092555902,-0.010145285096957224
4.339999999999993,0.02491192298252451,-0.01751075278073614,0.004381108013947203,0.07600880054180492,-0.3784649444114235,-0.9224894917139027,-0.0030149214959389247,0.0016219085514928072,-0.004699055600296589,0.9803784279153802,0.19340037240114083,0.036763076398979605,-0.010148239495688315
4.3499999999999925,0.026378130271393584,-0.015926597444386324,0.0035271732031262244,0.07581306351558091,-0.378715247690205,-0.9224029076793249,-0.005208930760288363,0.004014467697835496,-0.0061110580906064225,0.9803563946406734,0.1935313283312706,0.036662770435880905,-0.010147975324940777
4.359999999999992,0.026669758599121983,-0.014619747680603501,0.005521549728271705,0.07563590832036232,-0.3789990131918818,-0.9223008916620251,-0.0060061811776461254,0.0008573832044350199,-0.00512701785222214,0.9803304407242197,0.19367990063428414,0.03657375947443293,-0.010138300121184825
4.369999999999992,0.030641623845786732,-0.014332961916553961,0.004635429289354189,0.07547674998057831,-0.3793255783652098,-0.922179642992504,-0.006802050672726678,2.77193308360299e-05,-0.0024003993559285806,0.980299572296981,0.1938514805567083,0.03649329089791658,-0.010131556365262992
4.379999999999992,0.0357922648124769,-0.0156961640708393,0.0017725246739330666,0.07532398417040345,-0.3796703284196783,-0.9220502737300975,-0.007150868710208745,0.00038487229420057923,0.0007247766084822509,0.9802665783435797,0.1940330462514395,0.03641464957061985,-0.010131916619115208
4.389999999999992,0.03485915938337299,-0.02403894663685166,-0.003232224023276536,0.07514558171913323,-0.37997364083467705,-0.9219398593681901,-0.004577198146701362,-0.00021509199260109034,-7.579689600368275e-05,0.9802380973758988,0.19419371314445674,0.036315934926778995,-0.010167804991651064
4.3999999999999915,0.03237873342032148,-0.027090774949305774,-0.005784328604336147,0.0749607664231746,-0.3802345681814849,-0.9218473224266245,-0.0008604671618280299,-0.0005382486716836948,-0.0003221860727642511,0.9802139272307407,0.19433243788497906,0.03621075538270924,-0.010220068440643713
4.409999999999991,0.02986981203083045,-0.027177953026558246,-0.006956327116343588,0.07476446730746096,-0.3804718207217474,-0.9217653881539638,0.0031627315123630936,-0.0008819262790987865,-5.664841255689768e-05,0.9801923036444142,0.19445892427666323,0.03609740947052602,-0.010284069905191847
4.419999999999991,0.033505960228641996,-0.028345326338114797,-0.008588525554837858,0.07451462349973534,-0.38071824499864165,-0.9216838744682917,0.004630527952898309,-0.002503021773555046,0.0014958780549684711,0.98017071135504,0.19459028224597022,0.03595379470499327,-0.010362543506927632
4.429999999999991,0.03569209055265367,-0.027423842189905272,-0.007947200134424471,0.07425592765356064,-0.3809770189486893,-0.9215977959683672,0.003327815250247562,-0.0024062542914463714,0.004218798222157143,0.9801480622432786,0.19472766378884912,0.03580805250481612,-0.010428745022506835
4.439999999999991,0.03618907933697172,-0.025402469681254872,-0.0065964821238724426,0.07399434395465142,-0.3812467107846736,-0.9215073062039787,0.0005492225373323865,-0.001272152389590692,0.007429271261278523,0.9801243356584922,0.1948706018690674,0.03566195127873448,-0.01048913730475295
4.44999999999999,0.030692784421424604,-0.024622152568912394,-0.010208434043651213,0.0737511508866006,-0.38154176178115773,-0.9214046608089372,-0.0007097198628769398,-0.00017528583910285628,0.008991154358093102,0.9800973786775894,0.195027621964738,0.035522750911268296,-0.01056165391471238
4.45999999999999,0.02956893313035287,-0.0218351457597506,-0.011154006079189429,0.07355216682245708,-0.38180650349846373,-0.9213109225709377,-0.0016067738061367885,-0.0006457238304329327,0.009443581566960537,0.9800725794922334,0.1951692815314592,0.035404390532002464,-0.01064308679365753
4.46999999999999,0.031139642314771652,-0.01783277238161469,-0.010332733893616804,0.0733929201253981,-0.38205634897581403,-0.9212200868784047,-0.002230736007838046,-0.00205217190631179,0.008820129958562507,0.9800484737855438,0.19530351889839012,0.035305726810903985,-0.010727584321387141
4.47999999999999,0.032425470338039795,-0.014129474435456596,-0.008706760998380166,0.07332964000927629,-0.3823380939176072,-0.9211082056111508,-0.00248208230977761,-0.003120277229164188,0.005166108386014602,0.9800191931523962,0.1954549283922759,0.03525993333706621,-0.01079227382898792
4.4899999999999896,0.027838868390092177,-0.016000540242791277,-0.011711784289751073,0.0732663446958841,-0.38257926462919184,-0.9210130947690355,-0.0021649292343723977,-0.00013212989222256746,0.0062744190399553635,0.9799940257156088,0.1955854960559078,0.03521015360947097,-0.010877208264421382
4.499999999999989,0.019503390237443057,-0.019906216093123777,-0.01637696238208344,0.07320669813404039,-0.3827860124717606,-0.9209319357517435,-0.0016510086643594778,0.0044327424627598425,0.01016029497606651,0.9799723252392945,0.19569819555238527,0.035160123684308243,-0.01097301327763353
4.509999999999989,0.011378003909753024,-0.010690158017176408,-0.009885545277105286,0.07317807319189286,-0.382921961123594,-0.9208776990192536,-0.0025662981277037346,0.0002652759893072929,0.011648791967735701,0.9799576099967423,0.1957729493789477,0.0351296926928841,-0.011050681812293814
4.519999999999989,0.004091121207116074,-0.006238308702677118,-0.00823179647238875,0.07316539428786974,-0.3830128163244476,-0.9208409363126245,-0.006229115738495409,0.000342632591546946,0.009561509732192238,0.9799476094528643,0.19582302669697055,0.03511231565189681,-0.011104248528004198
4.529999999999989,-0.00258126101574018,-0.004913038871831937,-0.010112425473419754,0.07316364952653893,-0.3830609428599768,-0.9208210657036245,-0.010960879888085978,0.002769584277125708,0.005548173094208527,0.9799420608166106,0.19585002990118777,0.03510323905574604,-0.011144677486460707
4.5399999999999885,-0.008702235451866637,-0.003388012370368943,-0.015074563035463529,0.07316552283473346,-0.3829909861973463,-0.9208500078196462,-0.008871943017485952,0.001035118946006406,0.005526367390356543,0.979948716279075,0.19581523038439827,0.03509118198050956,-0.011210589587036723
4.549999999999988,-0.003815471823491139,-0.002585314864454124,-0.01565310360784678,0.07316582368136998,-0.38295602972508447,-0.9208645061647026,-0.007035129726225407,-0.0011719761522010314,0.006650238897659751,0.9799515269875707,0.19579936158700062,0.03507635334829608,-0.011285969118846493
4.559999999999988,0.008484949341505597,-0.0026635618573599583,-0.013533250521475937,0.07316587290700026,-0.38295946821189736,-0.9208630501820341,-0.005622645580972908,-0.003034068949654393,0.008173391093978619,0.9799501741529809,0.19580410899290343,0.0350601278552439,-0.01136725834209936
4.569999999999988,0.02009392942831427,-0.00658994397344108,-0.014195235141088348,0.07317399057584328,-0.38310701353350657,-0.9208010426896258,-0.006706612075295656,0.001680780160583786,0.005949526474952763,0.9799335254884046,0.19588531305226903,0.035048713306199575,-0.011443347534358715
4.579999999999988,0.023924929435696848,-0.011567483788857715,-0.015361019940340129,0.07312888833535362,-0.3833083694183076,-0.9207208106592516,-0.005604660973323874,0.006861585160857402,0.0019272290864743038,0.9799120308375663,0.19599499539722703,0.03500767379691954,-0.011530890983693
4.589999999999987,0.02172313727857006,-0.01700579340289152,-0.0164247327026632,0.07304088013108274,-0.38354120967158717,-0.9206308390249144,-0.0032043087558681032,0.011481819642162668,-0.0031900344812578803,0.979887927884082,0.1961212315936461,0.03494323427075584,-0.011625391124095809
4.599999999999987,0.013116496296726092,-0.019502081731879412,-0.012610412105481087,0.07289157074276059,-0.3837082522137105,-0.920573069980558,-0.003268163969276572,0.006583940404444315,-0.006566926546320936,0.9798721890759382,0.19621147819597923,0.03484986578828842,-0.011708622376442171
4.609999999999987,0.011091893737256433,-0.022020334069926113,-0.01098538526291238,0.07268238636871228,-0.3838261150979261,-0.9205404723050075,-0.0037977476271920728,0.004087965622765176,-0.008802311099935263,0.9798629574520362,0.1962747592816662,0.034727093394206404,-0.011786524245474108
4.619999999999987,0.013327224062001236,-0.024481721340125835,-0.01052003472096852,0.07243239519311659,-0.38391299197156425,-0.9205239636965642,-0.004606044269412375,0.003238593284032711,-0.009998785254592305,0.979857903926093,0.19632095842629904,0.03458455105192892,-0.011859406163326942
4.629999999999987,0.010049169546515501,-0.0260902080366542,-0.005200688790842694,0.07220842715410516,-0.384050964847429,-0.9204839991394171,-0.004757616195973046,0.0014582872405290554,-0.00862793750864414,0.9798470077215312,0.19639409236361619,0.03445795588794347,-0.01191831121842923
4.639999999999986,0.009980582460258507,-0.028355877905038678,-0.004837594157069282,0.07194436756886528,-0.3841726818879779,-0.9204538618523579,-0.004472152052049438,0.0024753640381228437,-0.005081515239912808,0.9798386307914032,0.19645803417470833,0.03431168247223039,-0.011973394039607968
4.649999999999986,0.01201898236901428,-0.030683833503586215,-0.007733399201316801,0.07165399275022141,-0.38427843813586116,-0.9204323709976113,-0.003785505789819972,0.0050923166136810465,-9.848092763028478e-05,0.9798324544913619,0.1965131547145573,0.03415235002966424,-0.012026747090348613
4.659999999999986,0.010644031765871795,-0.027540779173731593,-0.00542486743254335,0.07140631464535566,-0.38433311098242817,-0.9204288027915263,-0.002086440036567664,0.0016758385808899514,0.0026789313953611807,0.9798306668278465,0.19654202670797322,0.03401213055697333,-0.01209424186560411
4.669999999999986,0.00969643413660074,-0.024205138070617183,-0.0034942394382935756,0.0711652697983814,-0.3843454284854197,-0.9204423388071205,-0.0029900745365554512,-0.0008541534757309472,0.005271507209673345,0.979833519667983,0.19654777180839544,0.033879247325103584,-0.012142657500572274
4.6799999999999855,0.009183209714135231,-0.02119970385566975,-0.0021814839766998956,0.07093072460898557,-0.38432990812451856,-0.9204669398754242,-0.005655046360816607,-0.002515421814906594,0.007504137898189679,0.9798393998124713,0.1965382875995344,0.03375256204390417,-0.01217712135189988
4.689999999999985,0.010250885708500208,-0.02504874609685476,-0.0056298024147786035,0.0707172279442855,-0.3843765753621353,-0.9204638868785707,-0.0052284049190408355,-0.0013623802370543762,0.006577414580589226,0.9798381407958969,0.19656233813975926,0.033634905280779274,-0.01221928205183718
4.699999999999985,0.008244419235472812,-0.025717233681824665,-0.009311387950683855,0.0704824964053383,-0.3843872537925361,-0.9204774244143693,-0.004102127630775412,0.0010088112794440294,0.004743784598310613,0.9798408416939692,0.19656768754231088,0.033502689962778075,-0.012280483720054204
4.709999999999985,0.003964704864922334,-0.02371665843034202,-0.012897841950793966,0.07023782884517771,-0.38437008364215924,-0.9205033003900597,-0.0025873663208007855,0.003922670983813835,0.0022941300616870315,0.9798464803457809,0.1965586308479529,0.03336252801662819,-0.012356415964787891
4.719999999999985,0.001714487874326286,-0.018691199619781093,-0.012005556643487444,0.07010036642930625,-0.3843567026520431,-0.920519357578199,-0.0036171177609204295,0.0002452180734805942,0.001325663556299518,0.9798496582526346,0.19655259469794223,0.0332775320192935,-0.012430285936177041
4.729999999999984,0.001026105861462926,-0.0168765169479475,-0.012722473528114576,0.06997382244666572,-0.38433877814585815,-0.9205364711196434,-0.004945063552257372,-0.0006882400845198073,0.0009045727164756566,0.9798530462060303,0.1965444142300705,0.03319718392411708,-0.012508876455552976
4.739999999999984,0.0014310047776571605,-0.017472405917054023,-0.01441712708262876,0.06985789458058914,-0.38431923412597563,-0.9205534440631046,-0.006340739070915985,0.000453535242161018,0.0010074135481981277,0.9798563492847077,0.19653559357227557,0.033121603588846346,-0.012590771059732928
4.749999999999984,-0.0010959445671256801,-0.015038455731018977,-0.010357179455132346,0.06977613310282789,-0.3843369165694629,-0.9205522546610763,-0.004584294581482233,-0.0007162614760281059,0.0026707526380257926,0.9798549945163724,0.19654662430053166,0.03306513721770407,-0.012663799041383025
4.759999999999984,0.0028918432066888195,-0.011675369701559727,-0.007936525223150304,0.0696719447749286,-0.38439643711011845,-0.9205352863195445,-0.0029445267647166713,-0.0013379356531586302,0.003912146367631721,0.9798499347553555,0.1965790735403619,0.03300039906454221,-0.012720237653080979
4.769999999999984,0.011778307734478825,-0.007907612954528041,-0.006659795920942018,0.06955016282724755,-0.38449137056207805,-0.9205048550206184,-0.0013904382585539616,-0.001447359244127363,0.0047243864905108296,0.9798417080524966,0.19662966286630726,0.03292940079315031,-0.012762475519080094
4.779999999999983,0.010630876533961213,-0.011839032831995711,-0.0009665716633558176,0.06944735712313925,-0.38460615531390513,-0.9204646506204966,0.00038715429086481857,-0.0002667812206297304,0.003801112662861616,0.9798310638361859,0.1966906466198019,0.032870284333106306,-0.012793450917560591
4.789999999999983,0.008768929694100711,-0.015434101318192927,0.00022705086674783444,0.06930788621976984,-0.3847060366383589,-0.9204334216186467,0.0008053672479171242,8.543292845335628e-05,0.00405749937389719,0.9798227811436574,0.19674302017090342,0.03279430795355699,-0.012815361162056204
4.799999999999983,0.0062998658105152,-0.018497300474598678,-0.002370267890356831,0.06913759391639954,-0.38479280875086497,-0.9204099780235945,0.00013424561997965243,-0.0002274802087121814,0.005269191968011001,0.9798165388896939,0.19678786994365552,0.032704016886510485,-0.012830366482605493
4.809999999999983,0.003777031446489221,-0.015324360669812841,-0.0044902845019201155,0.06897293874699338,-0.38486720463959706,-0.9203912254228109,0.0010194982179086755,0.00037468443610958716,0.00538238155624985,0.9798113293318084,0.19682682766857287,0.03261273526185357,-0.012864821966853608
4.8199999999999825,4.186022491997187e-05,-0.01126831447993773,-0.00527441857597759,0.06883426091193443,-0.38490107961892456,-0.9203874392574586,0.0009779007254794986,0.0010340353639775638,0.002753545418225833,0.9798100125406389,0.19684429372336895,0.032536239659190364,-0.012892411316328956
4.829999999999982,-0.004729616806148177,-0.0067020236922984405,-0.004938108833355043,0.06871956942403419,-0.38489900346247796,-0.9203968627164244,0.0001531838474161818,0.0017392783960198754,-0.002076940918029107,0.979812123874592,0.1968427233474614,0.032473206276236004,-0.012914585307689592
4.839999999999982,-0.008923375529859726,-0.010109784605310482,-0.005901252678229611,0.06864748553468607,-0.38487567098045317,-0.9204120080148672,5.272234717718858e-05,0.0023249296419498204,-0.0012092184004498133,0.9798154858588339,0.19683085156381377,0.03242854124987269,-0.012954043008307707
4.849999999999982,-0.008296585304807152,-0.010180219748785944,-0.0070614489109041894,0.0685818921895617,-0.3848256280691101,-0.920437829012064,0.0005084538396119357,0.00189246120498421,0.0007087942182520183,0.9798214812459138,0.1968050642604946,0.032385999644396146,-0.012999913732360877
4.859999999999982,-0.003444469776931147,-0.0073796736891961244,-0.008374784367640449,0.06852206386641868,-0.38475295504976376,-0.9204726738166162,0.001433722764502205,0.0005595966902328677,0.0035232526400450267,0.9798296983993389,0.19676749784261316,0.03234534620815166,-0.013051451216875154
4.8699999999999815,-0.0019212146017309904,-0.009036672398940624,-0.008775128417639307,0.06846076505938573,-0.3847297617102121,-0.9204869069942214,0.0012615915117998617,-0.0003872069710192322,0.004653937854870602,0.979832666176179,0.19675613180167156,0.032304295303670745,-0.013100369084790441
4.879999999999981,-0.0011845912006099085,-0.008031161453821798,-0.009846551830760254,0.06841954010739543,-0.38470467674891934,-0.9205004587126999,-0.00023731349373628933,-0.0007857517725659168,0.005879203175508513,0.9798353840014957,0.19674418510455946,0.03227217005478072,-0.013155945349430043
4.889999999999981,-0.0011209120359725736,-0.004537876226877906,-0.011429180879344218,0.06839757301589071,-0.38467830668203634,-0.920513133919714,-0.0029286684148612367,-0.0006999669344235525,0.007188744244455346,0.9798378090431983,0.19673194786138884,0.03224870260969885,-0.013217426391004558
4.899999999999981,0.0016713626242255612,0.0012481557837998522,-0.0072328329989317834,0.06842040953483385,-0.38467678028276675,-0.9205120634578884,-0.004169447654930387,-0.001675851475267348,0.008354873639723995,0.9798367679815884,0.1967330405002992,0.03225036877664249,-0.013267263828617072
4.909999999999981,0.00841992569568933,0.002223635345919745,-0.004320123361305276,0.06845735362348276,-0.38471425485498667,-0.9204936547126813,-0.004661931527991244,-0.0021114360767357913,0.0076446636945067,0.9798316438890006,0.1967543972525191,0.03226276000679566,-0.013298837531052326
4.91999999999998,0.01876145114932473,-0.001314027219632933,-0.0026460684884809797,0.06850687744089932,-0.3847896499214363,-0.9204584715036231,-0.004420794022428632,-0.0019799195287950643,0.005161897552701279,0.979822558528149,0.19679546571311146,0.03228487604678359,-0.013313263357963078
4.92999999999998,0.016585458591835096,-0.002511790368287186,-0.003414755636068272,0.06849104224063468,-0.38496480359196894,-0.9203863878877707,-0.0017252513940971756,0.003260297653985108,0.0025014649583838338,0.9798038008787615,0.19688916873158385,0.032271691934961,-0.013335387296469853
4.93999999999998,0.012946721792204453,-0.001928852229514031,-0.001766427511889,0.06848523394846222,-0.3851160610523574,-0.9203235286518753,-0.0002665258496375342,0.003909911184823308,0.00025239616836093414,0.9797875210346934,0.19697005605190557,0.032265006356148034,-0.013351095318271956
4.94999999999998,0.007863768227312063,0.00037146691936402196,0.0022056174150559844,0.06848908827004009,-0.38524360692938564,-0.920269844651261,-1.533682778068933e-05,0.0001111810046377178,-0.0015922454550254934,0.9797737042488974,0.19703822452877776,0.032264617999106876,-0.013360460099370145
4.9599999999999795,-0.0032183851177792887,0.0007393875945147294,0.0018892447106042937,0.06848030666100506,-0.3852464019787625,-0.9202693292520852,-0.0017522518735037147,-0.003458592625700868,-0.00214082840860216,0.9797738190703004,0.1970389985112036,0.03226392234754561,-0.013341565060702875
4.969999999999979,-0.009477191654356471,0.0015635003841678993,0.0018889880067595201,0.06846249927375261,-0.38521740581028074,-0.9202827976478875,-0.0015275629480094887,-0.006424674809191967,-0.0009262016136145925,0.979777460860518,0.19702286529690488,0.03225815296435914,-0.013325554373920814
4.979999999999979,-0.010931455853368998,0.0028420267615650134,0.002203614882469212,0.06843570129650184,-0.38515674236631,-0.9203101953209486,0.000651082369882634,-0.008789419118722908,0.002044760817871238,0.9797846158691845,0.1969898908008785,0.032247329630177554,-0.013312416793987399
4.989999999999979,0.0014743342492945007,0.0037811437288842818,0.002978432892110794,0.06843295930663282,-0.385182411161472,-0.9202996581842681,-0.00018163980830451776,-0.006065465703605813,0.0051294880332265515,0.9797821995395002,0.19700291178469423,0.032249450631643084,-0.013294428199411982
4.999999999999979,0.01065224206807931,0.005640226471515864,0.0022238840690638187,0.06844046101912957,-0.38525071678009826,-0.9202705142036511,-0.0015131509109938403,-0.0018625106041953447,0.006680887631682389,0.9797750015278704,0.19703876572220633,0.032256350503958114,-0.013277916557827861
5.0099999999999785,0.01649468725825137,0.008441347894883475,-9.647848536426624e-05,0.06845838600777494,-0.38536243946299037,-0.9202224234959335,-0.003347818348486263,0.003841531013415912,0.006663245121431461,0.9797629340675762,0.19709787101394313,0.03226810892630377,-0.013262927547974177
5.019999999999978,0.01289560695073387,0.002675681366842368,-0.0009676305139513369,0.06851148032256729,-0.3854852914132566,-0.9201669813046564,-0.0038499824576160237,0.005815775084205594,0.003801980867223852,0.9797487523774872,0.197163799834657,0.03229465570832306,-0.013263552358103696
5.029999999999978,0.007394010964073602,0.0010243395722969873,-0.0014562279885914963,0.06854031396864604,-0.38557465187370393,-0.9201273837001264,-0.004419184929849154,0.006039368802368627,0.0007474530513731648,0.9797385623848714,0.1972118252204897,0.03230789074106002,-0.013269343623231136
5.039999999999978,-1.5454352755408032e-05,0.003779582106164829,-0.0015568437263231414,0.0685433122042364,-0.3856287093180345,-0.920104507905936,-0.005071739755634724,0.004459372982652452,-0.002482632875977209,0.9797325876259816,0.19724097032432808,0.032306993632391874,-0.013280412966448801
5.049999999999978,0.003462989544102032,0.0038447895881869717,-0.0004919752514249255,0.06858113113685596,-0.3856854218601339,-0.9200779244668138,-0.006548284315748678,0.0033914075204359625,-0.0038885132517376526,0.979725921458603,0.19727125252329353,0.03232783356318292,-0.013271819327036933
5.059999999999977,0.0027898829658088947,0.0020732791852497005,-0.00011302050470954103,0.06860378777930852,-0.38575316807411214,-0.9200478495832262,-0.006929200069782916,0.003025901092829433,-0.002540479575465118,0.979718394388633,0.19730721605499443,0.0323410164572226,-0.01326258911400174
5.069999999999977,-0.002555145317586504,-0.0016348653883845334,-0.0004949601299135869,0.06860946745069525,-0.38583278259519177,-0.9200140689198997,-0.006112729961641639,0.0034100371921721197,0.001749625018349625,0.9797099496990083,0.19734929467322637,0.032345553814827156,-0.013253012819666465
5.079999999999977,-0.005436603995394744,-0.0055203177550796016,0.0007608266730542559,0.06856021263762441,-0.3858155075859765,-0.920024973568055,-0.0034853298795522983,0.004163541566781961,0.004159593187616328,0.9797126984920747,0.19733963115079503,0.03232016862881065,-0.013254446142949631
5.089999999999977,-0.008882033152771822,-0.007538542946476027,0.002848386770841229,0.06847092759179194,-0.3857496683034885,-0.920059199747778,-0.001744644375699772,0.00432586253176349,0.005995192279433901,0.9797214587968012,0.1973035433763172,0.03227552489299652,-0.01325085401762114
5.0999999999999766,-0.01301599101173866,-0.007480971551945277,0.005816776793361566,0.06833864130703729,-0.3856324329102335,-0.9201181544416468,-0.00103382798854362,0.0038229635308357746,0.007241685605080594,0.9797366015856398,0.1972394655824582,0.032210282497146955,-0.01324140605542188
5.109999999999976,-0.02176796552336155,-0.0066700845774731125,0.007626172414661673,0.06823189162896358,-0.385422874848229,-0.9202138609838159,-0.0017475489213603845,0.0018779781295293753,0.0071455476035467425,0.9797614818048928,0.19712575709056768,0.03216343278129044,-0.013207054135689298
5.119999999999976,-0.023306048293846058,-0.0074677080444939935,0.007897514455995179,0.06809885738030588,-0.38521153367625116,-0.9203122174358837,-0.002676444273592719,0.0024184315227304687,0.005976453320899239,0.9797870220733366,0.19701090067098623,0.03210269964257095,-0.013174997859716667
5.129999999999976,-0.016461251299455793,-0.010124986411940911,0.006455320873691573,0.0679349795320726,-0.3850013362741079,-0.9204123303172214,-0.0038016288064134564,0.00584195505081984,0.0036303624636658573,0.9798129797752083,0.1968964432367175,0.03202550627342628,-0.01314641553780089
5.139999999999976,-0.008182638543378093,-0.008874107904992325,0.006225245591232769,0.06780590492156519,-0.3848954633363735,-0.920466119025619,-0.0038364135410589367,0.006248599102289662,0.0035079842211732937,0.9798270486862038,0.19683801977195334,0.0319646028223722,-0.013123321785166548
5.1499999999999755,-0.00428730093658472,-0.006508898225508273,0.004480618110337659,0.06770007073701156,-0.3848196683515751,-0.9205055937351744,-0.0047125513385460616,0.007382063706508028,0.002198618247490688,0.9798374105973843,0.19679590055964147,0.03191510994384631,-0.013101980714496678
5.159999999999975,-0.005587993361297805,-0.003009786486801817,0.0009092317688760522,0.06761992981951385,-0.38477453054460153,-0.9205303332973628,-0.00662173487177924,0.009498783026152195,-0.0005981813285618424,0.9798439517077585,0.19677042220437962,0.03187826685707858,-0.013082451931523147
5.169999999999975,-0.010521528572648174,-0.0020398076207609594,-0.0018285863354154481,0.06762454587017863,-0.3846990280072961,-0.9205615642590586,-0.007819092708220541,0.007776691321192918,0.0031402871960018184,0.9798517711956115,0.19673060725327035,0.031879277567171606,-0.013090529148781756
5.179999999999975,-0.02164335635071036,0.0019616809215746243,-0.003872937985892975,0.06765340586639973,-0.38454665928804704,-0.9206230836970514,-0.008102079491983322,0.0038541410068952974,0.007491110928740351,0.9798672942068578,0.19665027099407217,0.03189240416764743,-0.013101332483674876
5.189999999999975,-0.040014888575749606,0.009746420649922061,-0.005127820932200646,0.0677068744434131,-0.3843034463966291,-0.9207206939568395,-0.0073232788672270045,-0.002509278784652582,0.012227111571715018,0.9798920165457704,0.19652195482293303,0.03191807113370351,-0.013113930617909218
5.199999999999974,-0.04850418653437508,0.011482196718937026,-0.007345617209280326,0.06783064661711449,-0.3838758488978503,-0.9208899025233308,-0.005611492879874766,-0.0065583813341354045,0.013793126954661668,0.9799350187538257,0.19629659884379128,0.03197900196829778,-0.013133085179466946
5.209999999999974,-0.05204553146879231,0.013317175594175393,-0.00850745193233781,0.06795867754417914,-0.38340472401713177,-0.9210767075602131,-0.003692832607909955,-0.0074441889055537665,0.015974972765949585,0.9799824537695513,0.19604815765298939,0.03204254680766966,-0.013150876564086865
5.219999999999974,-0.05010419966037136,0.015664299502629993,-0.00830142110876613,0.06808744859003273,-0.38289164212386134,-0.9212806636097463,-0.001578409259541501,-0.004567076390328387,0.019122493573907436,0.9800341937164244,0.19577741578912158,0.03210705381214043,-0.013166560021063237
5.229999999999974,-0.052052003448975266,0.02315898683827463,-0.008207919885402266,0.06828403752489179,-0.38237578529526445,-0.9214802666046434,-0.001965035200693486,-0.0009266523432295312,0.02119261644990994,0.9800848917273673,0.19550600030561152,0.03220599467048875,-0.01318328308979326
5.239999999999974,-0.056219246141115765,0.0320245633955343,-0.006446168565709039,0.06851797122804634,-0.38183835179978576,-0.9216857375408304,-0.003941899570576457,0.0012091129055146485,0.02330748591766239,0.9801372995674967,0.1952230903155429,0.03232691417333488,-0.013185765002596033
5.249999999999973,-0.06291232143205468,0.042242557721227335,-0.0025561644804767336,0.06879422518631201,-0.38127371217957634,-0.9218989938613689,-0.007750139479219197,0.0013752498475514486,0.025560731822379883,0.980191958814509,0.19492562596191715,0.032473155140112266,-0.013170072931434467
5.259999999999973,-0.06883533360968155,0.0543541283609335,-0.0004557542930025383,0.06923161897241,-0.38064020755665773,-0.9221277954836851,-0.009694032964544711,0.0006926871217289096,0.02685019476549886,0.9802510449853546,0.1945919612214036,0.03271049311390818,-0.013111000588191302
5.269999999999973,-0.07482249460771917,0.06724817597221475,0.0023927618738707034,0.06974422359571311,-0.3800191122209568,-0.9223452904437763,-0.012267961189702335,-0.0007562096658314352,0.029440168024470144,0.9803075877834371,0.1942649229867064,0.032990691325789766,-0.01302892380065165
5.279999999999973,-0.08096104307829378,0.08099768819844233,0.006375297549122062,0.07034088712320423,-0.37942026812308055,-0.9225466562071655,-0.015828297397814956,-0.0031312472826527564,0.033812964934739655,0.9803604207299593,0.19394971647924736,0.03331885623227378,-0.012920617530027363
5.2899999999999725,-0.09117981507045277,0.090667529363122,0.004652132645378315,0.07110251783211319,-0.3786894115448483,-0.9227882210418126,-0.015333002614668354,-0.004231399435156398,0.03233414910160724,0.9804236373275859,0.19356564945521318,0.033734868386606935,-0.012795434780274617
5.299999999999972,-0.11085559937296453,0.1045150462588396,0.007312394143750549,0.07195004012243392,-0.3778375855860398,-0.9230715078807928,-0.015140268783591735,-0.004718861287496142,0.035325555652842414,0.9804978012202361,0.1931174304810274,0.03420002058473262,-0.012644693287051935
5.309999999999972,-0.14281773467576253,0.1243818072402744,0.01643170214362604,0.07289628427238395,-0.37683662805428136,-0.9234067661101929,-0.01576171170012138,-0.004511981268455252,0.04490721681835566,0.9805856182113264,0.19259000925080197,0.034722310447150136,-0.0124613347939382
5.319999999999972,-0.18741250952541097,0.1525866431332728,0.029877730732923907,0.0741289669140311,-0.3752689351481068,-0.9239457290306453,-0.020569046738323743,-0.011049079110641156,0.05420542825085789,0.9807268051469172,0.19176080606969215,0.03541561417763906,-0.012157033763927417
5.329999999999972,-0.2342584368225039,0.18535428054385308,0.04330475339249295,0.07553197994810101,-0.37338705589928367,-0.9245935776001772,-0.02652211329614153,-0.021183973329678696,0.06957250131265677,0.9808964927035527,0.1907643179865819,0.0362099051142747,-0.01178148556400404
5.339999999999971,-0.2827669199390855,0.22346507059923465,0.05621106135205392,0.07713729108647355,-0.3711364099112541,-0.9253683937281388,-0.03357775020062867,-0.0355126202710063,0.09334622940736065,0.9810994080039663,0.18957148775169633,0.037124000902239135,-0.011321447481892953
5.349999999999971,-0.3188553906990812,0.2644104595974741,0.08505574332409242,0.07918240396311456,-0.36833218385141897,-0.9263122280658113,-0.03776987332659422,-0.04285770739709754,0.10694171726127949,0.9813474047452543,0.18808172464142503,0.03830311431410487,-0.010643286382621093
5.359999999999971,-0.3513319383690842,0.30889908051215104,0.11874580401996167,0.08144296833909569,-0.36535407671104586,-0.9272948010559222,-0.04273791173910502,-0.04547143139638759,0.1185126371708623,0.9816061792770809,0.18649599127653174,0.03961790615807612,-0.009819859886924557
5.369999999999971,-0.38028275419328145,0.35805032756224076,0.1572587249370331,0.08395261105123525,-0.3622005292080009,-0.9283105767232994,-0.049175680957918216,-0.04227091928590253,0.12852151068639178,0.9818744415331437,0.18481231895767875,0.04109109057816939,-0.00881839857631609
5.379999999999971,-0.4400769772452023,0.3969483416026047,0.21111615016076846,0.08682158902891321,-0.3585121168667948,-0.9294720320431634,-0.05209295537917078,-0.040317094294954836,0.12762794177194892,0.9821812757313721,0.1828299533164374,0.04281771101432377,-0.007406710776684647
5.38999999999997,-0.5176992087686069,0.43475715804442766,0.26719085188297215,0.08982639888455365,-0.35432786443701547,-0.9307884778445646,-0.05060227662886086,-0.04026662959315387,0.13014021840108012,0.9825270575784438,0.18057556615783868,0.044648777369669594,-0.00577047542100425
5.39999999999997,-0.616888127288356,0.47245440057879307,0.32428932084078543,0.09297760718915041,-0.3494972477103133,-0.932310064922133,-0.04318761725344249,-0.042813557340025614,0.1391928646003108,0.9829241064623049,0.17796733717972882,0.046595710383282626,-0.003865737051534517
5.40999999999997,-0.7577343955825206,0.5112836449621839,0.41942492337344317,0.09630094726608983,-0.3432266935493377,-0.9342863256162741,-0.04465485604996312,-0.05780256293516452,0.155100094313902,0.9834316075105186,0.17457045125962065,0.04871299472651483,-0.0013699006098895242
5.41999999999997,-0.9124730969479566,0.5846525080644135,0.5246208892405919,0.09983553464328994,-0.3359779757266762,-0.9365417476194188,-0.04996952183434962,-0.07124912376685824,0.18307050036055428,0.9840031741502191,0.1706327939940672,0.05100327497328127,0.0016280564383827183
5.4299999999999695,-1.081362324266868,0.709654268408004,0.6388001047782046,0.10365938054141666,-0.32749311962953104,-0.9391429328032507,-0.05962946674796549,-0.08038356250715525,0.22803665355244174,0.98465311014163,0.1660105568813467,0.05352571675105877,0.005284339629367343
5.439999999999969,-1.0691405539197725,0.814591544068678,0.7307715636492893,0.10903160201251422,-0.31787582513488766,-0.9418039743816589,-0.07863632715462807,-0.0676273784808469,0.25123048940810466,0.9852913154196437,0.16074890419871193,0.05688418257021346,0.00961552876816644
5.449999999999969,-0.9329064001150532,0.8448184360992493,0.8375011976294726,0.11437165773968477,-0.3092840265229215,-0.9440498886139478,-0.07652569721421694,-0.006143672219498478,0.2318880787620972,0.98580210633064,0.15598237523560257,0.06027608083931813,0.0143859706671938
5.459999999999969,-0.6375149174768935,0.7633149396378938,0.970959558789529,0.11938650873235027,-0.30247642454390866,-0.9456444802665404,-0.04016078083774276,0.12664582870994948,0.1507738735846006,0.9861183451393232,0.152093771653095,0.06357078926566659,0.019714203121313955
5.469999999999969,-0.4422636784421004,0.6899977738047374,1.0111795495787796,0.12308944558629123,-0.2991235694665609,-0.9462359489912513,0.022554093092123133,0.19728342932827822,0.0936151192463898,0.9861334358846586,0.1499548983903696,0.0662557247441907,0.02532868221358868
5.4799999999999685,-0.3610685771950044,0.6389409771673338,1.0401048939914639,0.1263590632904047,-0.296512282865629,-0.9466300566713041,0.07104311246249513,0.19885715327334344,0.04450225425589863,0.9860719509796274,0.14818160507633646,0.0687310909176903,0.031029394788821666
5.489999999999968,-0.4412307056955853,0.6216092883382491,1.0694323762703237,0.12919878045631136,-0.29439891369503113,-0.9469080992187837,0.09177068284591428,0.10302273018344507,0.003451272298272981,0.9859481203816151,0.14664461424945813,0.07099368171633902,0.03681071279814455
5.499999999999968,-0.5814804791934826,0.6541539108531265,1.0780678156019037,0.13211704061261922,-0.2905975742439332,-0.9476730452028306,0.07056220943826376,0.01655302988577101,0.00879625574103921,0.9858928455657548,0.1441898856328511,0.07325516070271282,0.042802282731021934
5.509999999999968,-0.7179740741915361,0.7122625841814942,1.0597666247528592,0.1354826974505443,-0.2859372893549927,-0.9486110006535041,0.0342772074562577,-0.054358323176190534,0.030149750096542846,0.9858549332225095,0.14126661320228226,0.07569582300220513,0.04879119588384578
5.519999999999968,-0.8353367873369958,0.8013503998839391,1.0019326075159793,0.13956230101317824,-0.2802387385322532,-0.9497263142015318,-0.017570122744241266,-0.10187647318040152,0.06762371435093482,0.9858305612093204,0.13777632497229422,0.07842946555257874,0.054730300538102135
5.529999999999967,-0.9187559035426546,0.8292321741193162,0.9373191419092067,0.14478623518242403,-0.27311365423208017,-0.9509992467307816,-0.028101420152787392,-0.08580331175453221,0.05596453554452863,0.9858181122680547,0.13351385358222015,0.0815978029802795,0.06037514345140517
5.539999999999967,-0.9812286664311408,0.8247587404104048,0.8700619763485818,0.15022777453936406,-0.2654184860360811,-0.9523349030256035,-0.010947139880556456,-0.04187743125329716,0.04670768207085998,0.9858138278724541,0.1289539575218442,0.08478959942274279,0.06578582891693
5.549999999999967,-1.016536898222316,0.7804049079604212,0.799967779196853,0.15576385619171815,-0.25710315839927494,-0.9537386352993902,0.04295263501480215,0.033794863177434936,0.053135408865404465,0.9858204417114624,0.12407713195254892,0.08791779166625499,0.07087265119872503
5.559999999999967,-0.9747144592579655,0.7044744330117311,0.7482514243731576,0.16074308365981088,-0.24887482617937948,-0.9550767639609652,0.06933492742262717,0.06037666365951617,0.046196078382979455,0.9858099653158897,0.11927540511391783,0.0906553608406845,0.07553558451754766
5.5699999999999665,-0.9092372327721128,0.648620079371342,0.7010518171281964,0.16548975179506895,-0.2409891834826624,-0.956298193139377,0.08551201881651785,0.0749519109686048,0.02672083660991914,0.9857731013926865,0.11466679233902298,0.09323274994841657,0.07995996171734294
5.579999999999966,-0.822846443729784,0.6356871957102115,0.6568986764471195,0.16997855504983117,-0.23367380595440596,-0.9573347570070309,0.09117279935985449,0.08149067835417363,-0.010973335650003545,0.9856950218878042,0.11037277437100285,0.09563436535847794,0.08408160865925922
5.589999999999966,-0.785905505391193,0.6581513245805959,0.6198830571499891,0.17473581061975457,-0.22724343803400288,-0.9580151334661424,0.07062355027375732,0.0620445221065624,-0.031244272175547434,0.9855280018125402,0.10652604460085685,0.09814890744218908,0.08794384545647034
5.599999999999966,-0.7731182621018414,0.6756267095928953,0.5651002777872695,0.17974633119127253,-0.2208530671276383,-0.9585851098019101,0.04526558328993355,0.04033265476411852,-0.06069611611079677,0.9853406049520238,0.1026983237621802,0.10075273297928061,0.09160633892055955
5.609999999999966,-0.7893685069600715,0.6741950660181784,0.47664218907957695,0.1851321021623013,-0.21428346449448651,-0.959059205450386,0.01875857959917268,0.021938820012088408,-0.1114367202788143,0.985142077233158,0.09877787007817578,0.10348366887109939,0.09498638031205349
5.6199999999999655,-0.8159427261996627,0.651296086937602,0.4142063819924243,0.1905388626235566,-0.2073424341513297,-0.9595105788204985,0.018028824656562036,0.0036770469228132457,-0.1070759902066565,0.9849744587834183,0.09470447672288326,0.10612558060337221,0.09785862067152604
5.629999999999965,-0.8255707132214916,0.6296164428319591,0.3674253745487559,0.19590482163487247,-0.20028829727110237,-0.9599342499686977,0.02605861177577908,-0.009929595898992342,-0.08821430792820918,0.9848128149150854,0.09058766003125619,0.10870706727028803,0.10054055303237258
5.639999999999965,-0.8009255499073962,0.6167935788584459,0.3413403211392141,0.2011894537867625,-0.19314119039479846,-0.9603141053297989,0.042209858738521275,-0.015036650328058853,-0.05974049913178643,0.984652600673965,0.08643834011490456,0.11120514996635464,0.10302993426317615
5.649999999999965,-0.7483320382911137,0.600268325296504,0.3185376177972743,0.20640903772806368,-0.1864493022724156,-0.960516863464902,0.04124464796140385,-0.00838622067449435,-0.04465947369094292,0.9844621345093668,0.08253442752485561,0.11365759527332565,0.10530903405519326
5.659999999999965,-0.691922549234515,0.58778421423592,0.3062799069384087,0.21156697138238037,-0.1801257329593015,-0.9606094591361186,0.033125649216681805,-0.0029139893643200694,-0.033693058800806766,0.9842484004014784,0.07882213672462554,0.11608335328041376,0.10750842089703427
5.669999999999964,-0.6376671166060344,0.5841786438584595,0.3128522482130633,0.21663018531211775,-0.1743457306235191,-0.9605531976792402,0.01722217284703258,-0.003608812409469553,-0.026014975707860426,0.9840008280849227,0.07538976875345924,0.11847396658124115,0.10962762120052147
5.679999999999964,-0.5584438016300015,0.5798483905257233,0.324938403184677,0.22163268678381445,-0.1695040632476869,-0.960271481324267,0.006126728022983714,-0.013475296594699001,-0.02837305487569405,0.9836863709601642,0.07241824575003086,0.1208801000084128,0.11177831133584487
5.689999999999964,-0.5093736882021714,0.5798318455893793,0.3285617210278801,0.22664477402181002,-0.16509590564843327,-0.959874634152887,-0.0036581613609474113,-0.018082975013290634,-0.0406400471808579,0.9833401798479688,0.0696585089739806,0.12331047245413658,0.11391975347286477
5.699999999999964,-0.5280850570516358,0.5884773495958546,0.3137042495159747,0.23169758895766587,-0.16119076573896585,-0.9593355662610188,-0.012638793770008889,-0.009118676793495177,-0.06855204459529873,0.9829565111118611,0.06714363179924261,0.12578239724397308,0.1160317457847485
5.7099999999999635,-0.534388818257644,0.5552697466127082,0.27997206379009126,0.23661368199419383,-0.15695793072816508,-0.9588297053363366,-0.01180245080124711,-0.0003632974570746718,-0.08315335067783847,0.9825959441746076,0.0644806743300426,0.12814171405366778,0.11797477036899753
5.719999999999963,-0.5532974979200971,0.5100565759023423,0.2467461114546791,0.24129804712965558,-0.15244686227116674,-0.9583937605464079,-0.003437501078424876,-0.009050849002727401,-0.08251734887309604,0.9822631919278348,0.06169850862781473,0.13035151588799895,0.11981173343181414
5.729999999999963,-0.6024009080779315,0.4572348534728881,0.2219745608653326,0.2455710829821473,-0.14750636002542997,-0.9580850906697331,0.0161729484178696,-0.05267385226348517,-0.056536940390047766,0.9819771755168489,0.058735380052499626,0.13230553330328013,0.12150235774708655
5.739999999999963,-0.6200916098981487,0.43978080847625667,0.1704626601418891,0.24959706286989844,-0.14204810364615386,-0.9578608933993338,0.020005066990782396,-0.05642409164473289,-0.04171726534801352,0.9817392736669569,0.05555184934226789,0.1340747746396187,0.12295268192273229
5.749999999999963,-0.6115747582956865,0.42799251112329106,0.12793431494216637,0.25353467014603775,-0.13652070670639593,-0.9576351738384548,0.014642705443432446,-0.04377267871349749,-0.028984027801928283,0.9815186519480248,0.05235613830448888,0.13578087363091182,0.12425086984264938
5.7599999999999625,-0.5622156928523633,0.4128531955543673,0.11539366184101807,0.2573947126276164,-0.13107092537837275,-0.9573702983081486,-0.0030205198897206575,-0.014176584757339315,-0.015811098850260386,0.9813132797487774,0.04922916724587391,0.137435070804048,0.1253366663198823
5.769999999999962,-0.5312400841807293,0.410273681740791,0.12902430929948946,0.26114128010054033,-0.12620739202764175,-0.9570039265944624,-0.01506199050349003,-0.0061207927140914265,-0.011044373161702353,0.9810785062393714,0.04639702578194557,0.13906680210767622,0.1264370249162411
5.779999999999962,-0.49507619727565716,0.4169992382004282,0.14275185360356848,0.2649389449614528,-0.12166266386961662,-0.9565526664576487,-0.025022204346577825,-0.006026341185823113,-0.01923954804313186,0.9808198912473329,0.043717306917171225,0.14074411099949236,0.1275470159061432
5.789999999999962,-0.43937106142594895,0.43779093653110596,0.14462618199879623,0.26889792426175324,-0.1175280077867645,-0.9559670540555905,-0.03313228790150648,-0.01299268458884059,-0.05121729167945892,0.980523955141393,0.0412269452285373,0.142529019190354,0.1286708487476755
5.799999999999962,-0.41271781541285235,0.4086190952664881,0.14110102229998545,0.2726923627373268,-0.11390164984473847,-0.955327264779102,-0.032981057888387594,-0.015071182108279374,-0.05669059071254283,0.9802173439346152,0.03900217780292699,0.14425984317387533,0.12975751810492686
5.809999999999961,-0.40496228138791823,0.3792941222092307,0.12975812783858243,0.2763474754076068,-0.11034579932073978,-0.9546970024672287,-0.026778053660981092,-0.02280356880073501,-0.044389872063240396,0.9799190152563799,0.036826282153366814,0.14591997846203766,0.13079335912118883
5.819999999999961,-0.424365404643348,0.3744902118357027,0.10388696807248247,0.2797776561450204,-0.10669231367061814,-0.9541146730544189,-0.01135926972117238,-0.04541766662826929,-0.0061374471114553145,0.9796442358777445,0.03462586163779769,0.14745136556119548,0.1317357659403938
5.829999999999961,-0.4556208370059825,0.38369801920530083,0.10547947128308789,0.28327007371008994,-0.10276061687366272,-0.9535104673214946,-0.013657532993245333,-0.05165689987147212,0.001718251898831972,0.9793645175788701,0.03227939789718093,0.14899087845187495,0.1326647326255131
5.839999999999961,-0.4912136732243084,0.40663434956476746,0.09877968445440867,0.28691958351619984,-0.09856336250535229,-0.9528633209512262,-0.020572406754287696,-0.048997476903432646,0.005164130901702434,0.9790756227402843,0.029789140900804038,0.1505891854740565,0.13357531999020691
5.849999999999961,-0.5303039453106677,0.4532472690838359,0.058507691261485834,0.2908926371786103,-0.09391196919107894,-0.9521303440309598,-0.02847327788990356,-0.03490292997736914,0.014895184510828306,0.978768527209988,0.027050509910861113,0.1523167193082148,0.1344513571487555
5.85999999999996,-0.5028839120341364,0.4624157019998727,0.08115948580391029,0.2951509494686193,-0.08922642085656929,-0.9512629199328886,-0.03665133277106644,-0.040439973455789584,0.022529716713638497,0.9784387292506609,0.02428431778561801,0.15418314989485876,0.13523627942175231
5.86999999999996,-0.4599486577991801,0.47435599887490276,0.11896908606066174,0.29954276669890156,-0.0848448233059813,-0.950296164817345,-0.03853427837027782,-0.04480057440743638,0.01598787566109768,0.9780703187565956,0.021643353057529364,0.1561407800178837,0.13611088577231403
5.87999999999996,-0.41908935955899873,0.5144676620469875,0.15593927640153488,0.3040828164824007,-0.08119626386254467,-0.9491741075730452,-0.02548423718641602,-0.03504091653165113,-0.022608237082197793,0.9776244334727519,0.01931220462763301,0.15823205561673123,0.1372486740991894
5.88999999999996,-0.43678243650783743,0.4494711761472292,0.16776063035498806,0.3083360136835701,-0.07761576092415672,-0.9480965490707348,-0.01089638437924662,-0.014023050913143296,-0.0547158150780634,0.9771822833149901,0.01702135275178036,0.16017807147844307,0.13842762478883203
5.8999999999999595,-0.470718830852786,0.3600257935950164,0.16496294684966542,0.31212597581114854,-0.07388757893617078,-0.9471583438310681,0.011496754620119218,0.002792162397232403,-0.07739272098545105,0.9767727538390744,0.014683530404403296,0.16187202262139355,0.13961972039091153
5.909999999999959,-0.5075381550550436,0.2768183233835021,0.1424071263436923,0.3149720893524769,-0.06975912251071296,-0.9465301118817746,0.051846483884897016,0.0024088293044186517,-0.08125865091146196,0.9764399475593061,0.012206777769041038,0.1630456417358334,0.14081802497425197
5.919999999999959,-0.5075639143469683,0.18486325554711142,0.1383255907025534,0.3170040198093011,-0.06539818705124388,-0.9461599055902529,0.05890197069303927,0.0020412255886977904,-0.07489243076923792,0.9761833429435104,0.009683589395881296,0.16377555364886737,0.14193461006784144
5.929999999999959,-0.512031654403433,0.1347087314642559,0.1261638415001987,0.31865505441097114,-0.06089956645004596,-0.9459080301558546,0.04895850011223957,0.0057812735294380645,-0.07370206968301322,0.9759666526660503,0.0071302290761998365,0.16429474307203845,0.14297885034472213
5.939999999999959,-0.5523204282564564,0.1951374763019138,0.08136192053079042,0.3198983576425484,-0.05621206397196424,-0.9457794077949127,0.018776930063011996,0.019800632602309843,-0.09234469935211534,0.9757988077223365,0.004532451467841097,0.16458385229825895,0.14389670859460812
5.949999999999958,-0.51925578983978,0.12802649121862364,0.07695128611474417,0.3209560231729649,-0.051479177193511735,-0.9456869736557019,-0.004844129499243262,0.030519475474612437,-0.14376981281907314,0.9756474559037513,0.0019344920654353562,0.16476937360716246,0.144759406647377
5.959999999999958,-0.45539422837840154,0.054034961548161446,0.08819415629927603,0.32182823803919464,-0.047053136624005856,-0.9456257475446728,-0.013506076094086304,0.03422430214611471,-0.1757684439210957,0.9755086172472176,-0.0004900931940200086,0.16488039457861184,0.14558784469165387
5.969999999999958,-0.3647374110812143,0.05428260991797648,0.11081394141365801,0.3223542709095725,-0.04345434060572442,-0.9456192058335171,0.01182899986651793,0.02215062020893268,-0.1338065385967379,0.9753902734860985,-0.0024656461555658113,0.16487328557365238,0.14636738953256231
5.979999999999958,-0.284410359567698,0.05697563536248956,0.11676980709562064,0.3228316276096668,-0.040866637071418944,-0.9455720910491666,0.008383293159165152,0.04573328075733932,-0.12100497883315678,0.9752558025930628,-0.003936602473467117,0.1649165389271482,0.14717979300309797
5.989999999999958,-0.21470755351611304,0.058166263893523036,0.11771883231434145,0.32330009413059546,-0.03881238612536591,-0.9454998019125682,-0.0019719291261548403,0.06586859920427614,-0.11359214990243913,0.9751169367142044,-0.005136964349693254,0.1649952827758844,0.14797550794670086
5.999999999999957,-0.16543155654380812,0.05343573202694723,0.11819923390386419,0.3237825474052991,-0.037401483359305834,-0.9453916077317263,-0.008483145322311944,0.04909151355032576,-0.097968735746058,0.9749788237126469,-0.006004557939326168,0.16512995314069057,0.1487010292391303
6.009999999999957,-0.14220088084790602,0.03721104036104367,0.12163550161445276,0.32413197628822077,-0.03637152515816765,-0.9453121451132871,-0.0073422445903385675,0.04140782267263888,-0.0798362914387728,0.9748498875258631,-0.0066683794877624245,0.16522484771018534,0.14941066912351122
6.019999999999957,-0.13172321350554742,0.02399183794333725,0.12368836786223196,0.3244083330029151,-0.035470691961438504,-0.9452517411179336,-0.00404621047022365,0.032761730324926394,-0.05484818183372679,0.9747264110362444,-0.007260771811406989,0.1652916045272374,0.15011400680220557
6.029999999999957,-0.13485070149973646,0.028703624384621464,0.11943754057938313,0.32459319790978686,-0.034609709677543087,-0.945220180267345,-0.0011657079390116655,0.013853648526813846,-0.012949170211720012,0.9746104070940355,-0.007825308456457448,0.16531357085839257,0.15081313522258435
6.0399999999999565,-0.13087014050810572,0.04705865960895633,0.11533266611987165,0.32491005397779377,-0.033751363643636026,-0.9451422298391491,-0.0037136548976025945,-0.000195292398042295,0.006881049462009009,0.9744864871913624,-0.008394345923721565,0.1654032406668511,0.1514829879833449
6.049999999999956,-0.12137446138620982,0.06236707718724167,0.10866168246731275,0.3253388454307788,-0.03290923966529894,-0.9450245103375872,-0.0074920803223685545,-0.010509023466773295,0.018064774294177167,0.974357329957463,-0.008958694807369784,0.1655517359624656,0.1521187309659149
6.059999999999956,-0.10242941313169354,0.05668786091246652,0.09449500234718741,0.3259704377311673,-0.032111307013333326,-0.9448342853065296,-0.00993031483362645,-0.014463470514880495,0.02423832587527627,0.9742202456449498,-0.009505548317451382,0.1658083008126719,0.152682852005579
6.069999999999956,-0.07278860749321991,0.0249765685047892,0.07814120272599903,0.32630045024104837,-0.03156700446185835,-0.9447387997332342,-0.0060438449184924345,-0.008539598562063839,0.021586919415917342,0.9741204644171453,-0.009886613209019558,0.1659300841519535,0.15316221319432935
6.079999999999956,-0.03794730784704567,-0.011605754656283773,0.0592252250119063,0.3264080873544374,-0.03120839073824501,-0.944713601276151,0.003411157605427228,0.0017761392330563673,0.017452119381215842,0.974051440424807,-0.010142662464748462,0.16595276722900068,0.15355984327962702
6.0899999999999554,0.002039012397652619,-0.037550963845050064,0.03479929249979022,0.32614537102780317,-0.03115729021217796,-0.9448060238172595,0.023324686425716765,0.015620695650455185,0.01742273924266534,0.9740378963667231,-0.010186881752848754,0.16581077541732644,0.1537961815194416
6.099999999999955,0.032523398216118396,-0.046958784533743525,0.022736045665053047,0.32569457693083165,-0.03142754307162348,-0.9449524361046145,0.028911175455177074,0.023671822952301278,0.012153674713928395,0.9740570294829146,-0.010034372477478152,0.16559901223518816,0.1539129289682177
6.109999999999955,0.06076370650330851,-0.0474398622960715,0.015074374879843089,0.3252048100531458,-0.03190136856787428,-0.9451052112412698,0.02623195929138144,0.02814491744942595,0.003899960563004926,0.9740868770178917,-0.009766954258686638,0.16538418892170828,0.15397205211252302
6.119999999999955,0.09193859851019276,-0.03754659751813022,0.008163725364917966,0.3247899200647876,-0.03266962324762872,-0.9452216159434362,0.012924396119469973,0.027593704907317326,-0.008122710378726892,0.9741158733832447,-0.00934924697454443,0.16523228555193062,0.15397751971117224
6.129999999999955,0.11790962511999692,-0.025438040803829866,0.006627219320561549,0.32451947852617186,-0.03374591597461271,-0.9452763977683559,0.004026106153054267,0.023346777337833566,-0.013222489003348114,0.9741378670654367,-0.008779895474699317,0.16518015908964037,0.15392756166232746
6.139999999999954,0.1392289530337087,-0.016184037025640224,0.005105360057422031,0.3243332377777093,-0.03498029684649157,-0.9452955784607009,-0.0026781551555903477,0.019665015660699874,-0.015350627206842953,0.9741549329901479,-0.008133838839211718,0.16518439662617762,0.15385090191323295
6.149999999999954,0.151466831947698,-0.018536160253303104,-0.002364317025900422,0.32425532561866083,-0.0363769788566858,-0.9452695680910643,-0.007279571934080348,0.021914332753687055,-0.015691299609155638,0.9741640405577341,-0.007411467591712302,0.16525771016898005,0.15375061792864175
6.159999999999954,0.1551666515751962,-0.019103417739383753,-0.00884042773976735,0.3242019486198879,-0.03771396847891871,-0.9452353150804309,-0.007900297590457987,0.020591213648891254,-0.015801538517816464,0.9741823725932971,-0.006708828794359061,0.16533922997918102,0.15357884755711582
6.169999999999954,0.1535346994207207,-0.01658240772261032,-0.0139427056552513,0.3242512725016668,-0.03890665794612372,-0.9451704640015568,-0.007582229515409633,0.016153356483695345,-0.016344743431098617,0.9741987952604977,-0.006080343644397822,0.16546219727980765,0.15336924208445737
6.1799999999999535,0.1444275472069484,-0.005943003390053088,-0.015672686569035952,0.32461231548735386,-0.039691596380930304,-0.9450138594011654,-0.008917610819303829,0.005651977300679302,-0.018602307774259468,0.9741978182401378,-0.005674512589514239,0.1657129990015857,0.1531196562036512
6.189999999999953,0.1287624992213855,0.00974063250032574,-0.01683128687305751,0.32487903090400216,-0.04048387834309579,-0.944888507987831,-0.010350849264957319,-0.0008523184611368582,-0.018065085567895198,0.9742010158353679,-0.005261349219608818,0.16591547887284622,0.15289454826679758
6.199999999999953,0.1111104221203348,0.023970366678998857,-0.01738283856500921,0.3251174535922888,-0.041186749870659435,-0.944776287226604,-0.011932492327298705,-0.007006682656097595,-0.015011206218243481,0.974205679259184,-0.004892591880739829,0.16609603645923918,0.1526813976628595
6.209999999999953,0.0950562799215188,0.026681368244156622,-0.0165764834599308,0.32537985550309645,-0.04157166762414352,-0.9446690824571209,-0.013900020985861242,-0.01710626448851081,-0.006876965040244895,0.9742100187234228,-0.004686497912786913,0.16626324771300482,0.15247794865766762
6.219999999999953,0.08803521339051561,0.019347529711476137,-0.015599303134758529,0.32554819795432144,-0.04208700581943176,-0.9445882170192221,-0.01244247574318143,-0.022104411275535436,-0.002032848036937218,0.974217154199659,-0.004411729049771631,0.16639222759802352,0.15229975374377036
6.2299999999999525,0.08249043582355801,0.0032723357335492555,-0.014396622883755754,0.32559612593890913,-0.042602516110020375,-0.9445486710827262,-0.00786575789863581,-0.02252570490169998,0.0007750971977277179,0.974232833681732,-0.004129323329242631,0.1664590200147807,0.15213458662386176
6.239999999999952,0.06971767117921265,-0.030248681820333814,-0.012621440644384061,0.3253422836004826,-0.04293777929534273,-0.9446209086056645,0.00315694669579061,-0.013593626379338485,0.0008371849918668813,0.9742753031790636,-0.003914743368898911,0.16635561808720598,0.15198115895341135
6.249999999999952,0.04863484680641485,-0.052695510910689525,-0.009410297226915387,0.3248393011997073,-0.04328156874348086,-0.9447781945166989,0.009076707787687488,-0.006436927930520488,0.0046468255611608715,0.9743326899337338,-0.0036833863795583976,0.16612421276812547,0.15187193511671454
6.259999999999952,0.02280514318512268,-0.064459619105412,-0.00557431709804041,0.3242038681217545,-0.043560915245284465,-0.9449836836237909,0.011042019143149699,-0.003731633370161894,0.007901429523139021,0.9743974117382682,-0.003479136300934332,0.16581923102897653,0.1517949112481237
6.269999999999952,-0.00835315045190203,-0.052850896917937235,-0.0015473836243684643,0.3234455177035992,-0.04358686361148494,-0.9452422950718057,0.005852821656140899,-0.015001966264110989,0.0034913173595915127,0.9744672694477947,-0.0034011561567584736,0.16543045944170956,0.15177218740508314
6.279999999999951,-0.02711206092100095,-0.0327105452357476,0.0004765402334078949,0.32296138517918105,-0.04345714772101028,-0.9454138362592364,-0.0016150265852302656,-0.023468473964264193,0.003433651309125821,0.9745088739447894,-0.0034296753053267032,0.16517049519581717,0.15178757093801712
6.289999999999951,-0.03722066002508512,-0.011916001070156076,0.001347569844160633,0.3226339608751273,-0.0432959957877377,-0.945533051112069,-0.009444716710865624,-0.027549342087072107,0.004023658081460944,0.9745333139307552,-0.003490639140916997,0.16498872449327354,0.1518270054829199
6.299999999999951,-0.03358613868741031,-0.0022838960500470157,0.0009500408591422266,0.3224758221712796,-0.043262616567153064,-0.94558851959563,-0.015021361039368034,-0.019066822256078517,0.00014090388085940923,0.9745363479657198,-0.003506753382329603,0.1649043105795196,0.15189881412260076
6.309999999999951,-0.0252663327276565,-0.0007720865851178561,0.0006900115771266207,0.3224266919765661,-0.043212856705379075,-0.9456075730291656,-0.014437808592000792,-0.008978681000787334,-0.0017216400875163644,0.9745330773624996,-0.0035365485807869706,0.16487482197610984,0.15195111032596675
6.3199999999999505,-0.014707434202152063,-0.0029544800208621577,0.0002271894560250854,0.3224433708333783,-0.04316911580968284,-0.9456039067104781,-0.010753696966440515,0.0013074651418178856,-0.003767414825572412,0.9745263664786777,-0.003566035388940166,0.16487978117570784,0.15198803483474663
6.32999999999995,-0.003167954840202821,-0.006079515480485834,-0.0012966220562773553,0.32253852454087123,-0.043178147978011276,-0.945571039034015,-0.005144703088757142,0.009618972989968387,-0.01005251544237116,0.9745166018305712,-0.0035705978154636003,0.16492951287365662,0.1519963339849242
6.33999999999995,0.010180025487345512,0.0021746399848475272,-0.0037014125285312373,0.3226417976949133,-0.04327426917438197,-0.9455314000407585,-0.0034831294161018263,0.010864812640775625,-0.011834262976892591,0.9745095356079307,-0.003527485870030676,0.16499048988669998,0.15197666919348654
6.34999999999995,0.02244116888583041,0.01501748409259252,-0.006275717298203671,0.3227663596016833,-0.04349439713764363,-0.9454787420586862,-0.004183766643473463,0.00961254526215052,-0.011172436821453578,0.974501311435375,-0.0034216620031387417,0.16507241175071619,0.15194311062703092
6.35999999999995,0.026722115876848574,0.0260749536948719,-0.007924647697531931,0.32296599063437054,-0.04407755467143566,-0.9453835456119171,-0.007529915800104987,0.010956957180767848,-0.008557567658244785,0.9744831452585113,-0.003139026255959157,0.16522211301855697,0.15190284806881763
6.3699999999999495,0.02464205191532084,0.02485895189314429,-0.008696420914957542,0.3231477064398954,-0.04454953382743412,-0.9452993376531719,-0.008324727966321903,0.010089514167081544,-0.006957673200636969,0.974467919477323,-0.0029104964930815164,0.16535368078836893,0.15186209446300172
6.379999999999949,0.01784951897786003,0.01688495462500269,-0.008286376517922769,0.32327661437526034,-0.0449265044804419,-0.9452374768280369,-0.006825604998080353,0.006975980220783288,-0.004316953021128049,0.974458037997621,-0.0027256908101636027,0.16545041563893953,0.15182387115820228
6.389999999999949,0.00298725958106252,0.003678428089557099,-0.004407887144085919,0.323207729293101,-0.04510644569559774,-0.9452524630502277,-0.0003017020529784186,-0.001633458232784499,0.004974544383163122,0.9744659057257785,-0.0026256450477609764,0.165429390422019,0.1517978400358657
6.399999999999949,-0.01708547373481738,-0.006800053800479967,-0.0009454044207440832,0.3231069608805295,-0.04497961044426604,-0.9452929321237563,0.0027301477451732977,-0.007302279202135888,0.008072750288636632,0.9744772051867228,-0.002680037579499432,0.16536731286349257,0.15179204147009656
6.409999999999949,-0.03920231980054622,-0.014950387822202172,0.0023459842822439597,0.3229662056812699,-0.04464075841722579,-0.9453570515536839,0.0036939873715558617,-0.01310729874474676,0.008542046792972812,0.9744917399888599,-0.002840441060768759,0.16526760204728316,0.151804521398092
6.419999999999948,-0.05947161150886669,-0.018239708725507994,0.005748320392937758,0.3227094377764611,-0.04398596606521044,-0.9454753951336814,0.0026617617605621305,-0.025931223162170645,0.010284294237861527,0.9745138105281577,-0.003156545545098893,0.16508270090002342,0.15185774094291735
6.429999999999948,-0.07321745077320942,-0.017399808094151214,0.00734877119685228,0.3224775888058803,-0.043262165716491226,-0.9455878068966797,0.000667318323051194,-0.030237842292999906,0.008825512937998641,0.9745302943513025,-0.003513532490855559,0.16490502264696613,0.15193677885072546
6.439999999999948,-0.08228054371320605,-0.014586245337425282,0.008196772549851019,0.3222558610443145,-0.042484999966991684,-0.9456987098526485,-0.001490662409312004,-0.028036799100914535,0.005552004590329262,0.974543971940025,-0.00390062243420312,0.1647282229150007,0.1520312270664075
6.449999999999948,-0.08391617747393093,-0.011882860573037151,0.00962144363455265,0.32202477524090695,-0.04161066042678905,-0.9458162151402278,-0.0021831269363527133,-0.01422567349651558,0.0009807158925555556,0.9745571382452081,-0.004337934140734493,0.16453872643831577,0.1521398998107615
6.459999999999948,-0.07783641448959744,-0.011699732857721539,0.008870179760821955,0.3218535756024226,-0.04084405210811802,-0.9459079110298122,-0.002068710124838927,-0.0045518086980510025,-0.00183566062758187,0.974563707585502,-0.004726105484355225,0.16438866001524072,0.1522484943505195
6.469999999999947,-0.06616902754517638,-0.01163358384169896,0.006697895146047092,0.3217336377566339,-0.04019652445458665,-0.9459765949470728,-0.001664736289100573,0.002246990851552706,-0.003246158316917272,0.9745651415925436,-0.0050579663450508565,0.16427452822506597,0.15235216880551256
6.479999999999947,-0.04562959481016167,-0.0057523452617556136,0.0028132058050810713,0.3217228143739406,-0.03988231184259436,-0.9459935634737859,-0.0018366020912075677,0.004906552192142345,-0.0019503654966022772,0.9745571651548414,-0.00522762267463348,0.16424337407267922,0.1524309464168193
6.489999999999947,-0.024940622760544554,-0.00030056014941104263,0.00014319764545876507,0.3217514016939396,-0.039762375812332905,-0.9459889020587062,-0.0025305386993368026,0.007157082964873985,-0.0010918224666527775,0.9745480301658557,-0.005298528856804914,0.1642482151055841,0.15248176436167543
6.499999999999947,-0.006762136721712809,0.0034864840136864536,-0.001675807341811717,0.3218007293257297,-0.039814219489643386,-0.945969914795885,-0.003234995810552172,0.009747663782311093,-0.00022364534750216026,0.974537702635927,-0.0052824672371772925,0.1642775841194464,0.1525166895304089
6.5099999999999465,-0.002465279017881675,-0.00047379594644134885,-0.0022788129110977023,0.32185264756738047,-0.04025192654411086,-0.9459337167396595,-0.002556153402346307,0.01529068442279933,0.0019020488305116997,0.9745241718988473,-0.005072135640118417,0.1643392844737014,0.15254345287433482
6.519999999999946,-0.0074066246441801264,-0.002592657627959981,-0.003476170645064748,0.321854321506057,-0.040461678827456556,-0.9459242411611204,-0.0014488044886694547,0.014627316408872718,0.004830859279140502,0.974520229632381,-0.004968964981258186,0.16435690184322654,0.15255334947705362
6.529999999999946,-0.017795498747041696,-0.0027925051211537067,-0.004695526312917188,0.32182744753355147,-0.040507530715115404,-0.9459314243247453,-0.0005598762974606841,0.00872669319584288,0.0073295615423749185,0.9745220894887567,-0.004943896628019932,0.16434671838836853,0.15255371277351779
6.539999999999946,-0.03131532381304253,0.0023377423377245517,-0.004260993768887425,0.321789644372419,-0.040309606783845486,-0.945952754267786,-0.0021866214515514166,-0.008187557645968482,0.004996192643277821,0.9745280352377481,-0.005039375183944657,0.1643113925211176,0.15255069002841617
6.549999999999946,-0.04425952835129745,0.0023463948900335116,-0.0031118334989782732,0.32178694636859406,-0.03992704088388404,-0.9459698259308755,-0.002620432564410374,-0.01705145648995486,0.0020806707007498845,0.9745314823664608,-0.005231599406377374,0.16427930840758548,0.152556517193935
6.559999999999945,-0.055486605929530745,-0.0007377127492078455,-0.0014769797893879227,0.32179098552882096,-0.03941625322970532,-0.9459898706491198,-0.0022875212086523383,-0.01986288526522213,-0.001118011142457975,0.9745342625971581,-0.005490073451860859,0.1642403679355739,0.15257145456778456
6.569999999999945,-0.05834778747341289,-0.005602836368633252,0.0007292704556158536,0.3217210056335492,-0.03874154940444648,-0.9460414932120907,-0.001263415993400054,-0.012772791887222017,-0.004111406118787902,0.9745411939258799,-0.005828866440099873,0.16415000220312517,0.15261192424761016
6.579999999999945,-0.05927614190681328,-0.004854345210040254,0.0013377302461357599,0.3216487685578318,-0.03807236271813924,-0.9460931903230423,-0.00041257751157034936,-0.010389088027058076,-0.004349122074882196,0.974547313908576,-0.00616554952139323,0.16405889625086587,0.15265740250490278
6.589999999999945,-0.058579942193291656,-0.0012469188036239628,0.0008833210705797731,0.321588133763906,-0.03740599199705914,-0.9461404673346093,-9.438292365072267e-05,-0.009911591150517221,-0.0032267287112437487,0.9745520577858218,-0.006502000250228976,0.16397398519713144,0.15270431073195498
6.599999999999945,-0.054487291585339326,0.000503965541067557,-0.0006131855680685178,0.3216086311255268,-0.036737835495984375,-0.9461596167072647,-0.0025203269472828037,-0.0047843466220205515,-0.003288775850386157,0.9745510000244479,-0.006844457833443702,0.163930747119557,0.15274249697926306
6.609999999999944,-0.0472908899844309,-0.003296570291320443,-0.0017956794338036975,0.32160256745976734,-0.03623286692293351,-0.9461812021942174,-0.003267200544269605,-0.0008313799690916812,-0.0021202842110691275,0.97455111785321,-0.007102480863374632,0.16388692243140668,0.1527770788378177
6.619999999999944,-0.03834508535128981,-0.010625182016244726,-0.002694038180288577,0.32156044749344903,-0.03586829891861263,-0.9462094641076035,-0.002849075320927474,0.0026151110557429847,-0.00011184371727018967,0.9745531297434382,-0.007287106688972945,0.16383578120642506,0.15281047383664492
6.629999999999944,-0.029707232658211243,-0.020071230867429887,-0.0029071588498593773,0.3213799807291187,-0.03581129467578212,-0.9462729436834999,-0.0011358999458199247,0.007217130017905003,0.002753142988258777,0.9745632587690588,-0.0073075622588175924,0.1637379887535161,0.15284987448900628
6.639999999999944,-0.029141462292285324,-0.0214766153405614,-0.0019194000311770218,0.32117392804404793,-0.03569762340162215,-0.9463471800388933,0.0008699700003896495,0.008104075877636698,0.00328751461542759,0.9745774221419903,-0.007352860776337051,0.16362255762289615,0.15288079355030404
6.6499999999999435,-0.034358352747206916,-0.018275381688889845,-0.0002676170703406088,0.3209594857034724,-0.03554122112569927,-0.9464258240347497,0.0024257239213573197,0.006372019806714973,0.002477505222009569,0.9745929762780784,-0.007418554032353054,0.16349940077632547,0.15290993476618003
6.659999999999943,-0.04651573141836779,-0.01635408483937472,0.0010226947242745724,0.3207936434139946,-0.03532092404669301,-0.946490289624683,-0.0004533029815843724,0.0017468119626752486,0.0019735952293578564,0.9746013494889711,-0.007524059441627456,0.16339595475121207,0.15296231278814462
6.669999999999943,-0.053959862915360965,-0.01609513098543729,0.0015726308524527108,0.32062912194553733,-0.03495775504962883,-0.9465594532302948,-0.0016786380855704055,-0.0048150461758044525,0.001864547234843022,0.9746100601024817,-0.007702008121165072,0.1632817067366647,0.1530198160555886
6.679999999999943,-0.057577051166445785,-0.016465473859776675,0.0016562950923256783,0.3204650525391159,-0.03450214031461946,-0.9466317546317501,-0.0018972497684527306,-0.012153973240739763,0.0018105678657626923,0.974619012540936,-0.007926802831072185,0.16316025678514803,0.15308068409589898
6.689999999999943,-0.05409299775300168,-0.013888569939545754,0.0016451351561071231,0.32029827855138265,-0.03400954946460361,-0.9467060129650496,-0.002166907031632929,-0.01639175319743135,0.0003420924749031138,0.9746282301881369,-0.008170129702443615,0.1630344033655686,0.1531432453359818
6.6999999999999424,-0.051875828644895004,-0.009922441471844814,0.005205697871404953,0.32020287409487724,-0.03352116565364006,-0.9467557112575931,-0.002034834664185248,-0.013740512748331803,-0.00023586262004168037,0.9746312821441999,-0.008417016811848485,0.16294561845195193,0.15320493418021863
6.709999999999942,-0.04996066752298128,-0.006663695610615481,0.009285757370631375,0.32014477927419366,-0.0330342602492753,-0.9467925187001575,-0.0015269042162032549,-0.006133737970901311,6.590121210313718e-05,0.9746318467215294,-0.008665326722000865,0.16287619388035895,0.15326140724381773
6.719999999999942,-0.04402321472241873,-0.016226067910466248,-0.0006624337166878849,0.3200244514356651,-0.032537848445243656,-0.9468503236387322,-2.6215853744191234e-05,0.006432334104704151,0.0029452849356531603,0.9746437466496162,-0.008906982132451923,0.1627743016518892,0.15328009595206954
6.729999999999942,-0.04216027765870615,-0.023953761466230933,-0.0032350774377269244,0.31985063806449276,-0.03209766492034132,-0.9469240738783882,0.0011586028556379649,0.00913738871131643,0.0036490905681021433,0.9746587101183066,-0.009117244799255457,0.16264933349467725,0.15330550584572758
6.739999999999942,-0.04264148581898225,-0.03155054332244242,-0.000806040447897873,0.319623087108032,-0.03170946895120269,-0.9470140354486082,0.0022046703708265584,0.005364230177091649,0.002646742833242872,0.9746768637627535,-0.009298133656405885,0.1625008263502301,0.1533371424653334
6.749999999999941,-0.04052249920172166,-0.048353115508598776,0.0035066908081577168,0.3192300888545182,-0.03145604950362951,-0.9471549795889603,0.0038257658652827518,0.000888592116030369,-0.0009169038771817259,0.9747054688972298,-0.00940074536731119,0.1622778592153775,0.15338499764597793
6.759999999999941,-0.03524318331153142,-0.06398589896799128,0.006553670463146661,0.31868791054698575,-0.03126830760528912,-0.9473436767141433,0.005857831137277173,-0.0003922535848586463,-0.0011332163260586918,0.9747441240314881,-0.00946057291652731,0.16198330449242668,0.15344671540947613
6.769999999999941,-0.028350320172827966,-0.07515522883628996,0.01154002746093168,0.31804186048137184,-0.031139679645714593,-0.9475651099218013,0.007780841420758968,0.000605919509361843,0.0009669293324161702,0.9747886247685862,-0.009484986145304308,0.16163992304552552,0.15352459298919213
6.779999999999941,-0.02609592577042773,-0.05181662600892081,0.04261045792787413,0.31735517037170763,-0.031154343743420323,-0.947794740077696,0.0061128709263310035,0.0029853936103154026,0.0038455526679147603,0.9748250690258615,-0.009445045762741614,0.16128658343674987,0.15366721999429309
6.7899999999999405,-0.02884883265405484,-0.06280213128956189,0.039321639598309505,0.31660762072022697,-0.03104172782744494,-0.9480483166046162,0.005618985056443167,0.004148526132826338,0.004803701111599721,0.9796365371763764,0.0004663746226391454,0.16070234231422176,0.09303076028893346
6.79999999999994,-0.0344743151312698,-0.09419245379289291,0.014899457740375228,0.31588431872988615,-0.030872049393535397,-0.9482940169938853,0.005902065948841558,0.004445526329668496,0.004475237240527419,0.986988560674607,0.015640127157612725,0.16002373849695445,-5.24747379249831e-06
6.80999999999994,-0.03446983457752737,-0.09411766508902648,0.014909236733301343,0.31582012221386224,-0.031004777395624607,-0.948296998936306,0.005897637025752113,0.004429338160645527,0.004460193251723439,0.9869872477538961,0.015714085115044456,0.15998514901127034,-6.288666031877326e-05
6.81999999999994,-0.03446535402378495,-0.09404287638516005,0.014919015726227457,0.31575592569783834,-0.031137505397713813,-0.9482999808787268,0.005893208102662667,0.004413149991622559,0.004445149262919459,0.9869859348331852,0.01578804307247619,0.15994655952558623,-0.0001205258468450482
6.82999999999994,-0.03446087347004252,-0.09396808768129361,0.014928794719153574,0.31569172918181443,-0.03127023339980302,-0.9483029628211475,0.005888779179573222,0.004396961822599591,0.004430105274115478,0.9869846219124743,0.01586200102990792,0.15990797003990212,-0.00017816503337132316
6.8399999999999395,-0.0344563929163001,-0.09389329897742718,0.014938573712079689,0.3156275326657905,-0.03140296140189223,-0.9483059447635682,0.005884350256483777,0.0043807736535766235,0.004415061285311498,0.9869833089917633,0.01593595898733965,0.159869380554218,-0.00023580421989759812
6.849999999999939,-0.03445191236255767,-0.09381851027356075,0.014948352705005805,0.31556333614976656,-0.03153568940398143,-0.948308926705989,0.005879921333394331,0.004364585484553656,0.004400017296507517,0.9869819960710524,0.01600991694477138,0.15983079106853393,-0.000293443406423873
6.859999999999939,-0.03444743180881525,-0.09374372156969432,0.01495813169793192,0.31549913963374265,-0.03166841740607064,-0.9483119086484098,0.005875492410304886,0.004348397315530688,0.0043849733077035375,0.9869806831503416,0.016083874902203112,0.15979220158284982,-0.000351082592950148
6.869999999999939,-0.03444295125507282,-0.09366893286582789,0.014967910690858035,0.31543494311771875,-0.03180114540815984,-0.9483148905908305,0.00587106348721544,0.00433220914650772,0.004369929318899557,0.9869793702296307,0.016157832859634843,0.1597536120971657,-0.00040872177947642293
6.879999999999939,-0.0344384707013304,-0.09359414416196146,0.014977689683784151,0.31537074660169484,-0.03193387341024905,-0.9483178725332512,0.005866634564125995,0.004316020977484751,0.004354885330095576,0.9869780573089197,0.016231790817066574,0.1597150226114816,-0.0004663609660026979
6.889999999999938,-0.034433990147587974,-0.09351935545809503,0.014987468676710266,0.31530655008567093,-0.03206660141233826,-0.9483208544756719,0.00586220564103655,0.004299832808461784,0.004339841341291596,0.9869767443882088,0.016305748774498304,0.1596764331257975,-0.0005240001525289729
6.899999999999938,-0.03442950959384555,-0.0934445667542286,0.014997247669636381,0.315242353569647,-0.03219932941442746,-0.9483238364180927,0.005857776717947104,0.004283644639438816,0.0043247973524876155,0.9869754314674979,0.016379706731930035,0.1596378436401134,-0.0005816393390552479
6.909999999999938,-0.034425029040103125,-0.09336977805036217,0.015007026662562498,0.31517815705362306,-0.03233205741651667,-0.9483268183605135,0.005853347794857659,0.004267456470415848,0.004309753363683635,0.986974118546787,0.016453664689361765,0.1595992541544293,-0.0006392785255815228
6.919999999999938,-0.034420548486360704,-0.09329498934649574,0.015016805655488612,0.31511396053759916,-0.032464785418605875,-0.9483298003029341,0.005848918871768214,0.00425126830139288,0.004294709374879655,0.986972805626076,0.016527622646793496,0.1595606646687452,-0.0006969177121077977
6.9299999999999375,-0.034416067932618276,-0.09322020064262931,0.015026584648414729,0.31504976402157525,-0.032597513420695085,-0.9483327822453549,0.005844489948678768,0.004235080132369912,0.004279665386075674,0.9869714927053651,0.016601580604225227,0.15952207518306108,-0.0007545568986340726
6.939999999999937,-0.034411587378875855,-0.09314541193876288,0.015036363641340844,0.31498556750555134,-0.032730241422784294,-0.9483357641877757,0.005840061025589323,0.0042188919633469445,0.0042646213972716935,0.9869701797846543,0.01667553856165696,0.15948348569737697,-0.0008121960851603476
6.949999999999937,-0.034407106825133434,-0.09307062323489645,0.015046142634266959,0.31492137098952744,-0.032862969424873496,-0.9483387461301964,0.005835632102499877,0.004202703794323977,0.004249577408467714,0.9869688668639434,0.01674949651908869,0.1594448962116929,-0.0008698352716866225
6.959999999999937,-0.034402626271391006,-0.09299583453103002,0.015055921627193075,0.3148571744735035,-0.032995697426962706,-0.9483417280726172,0.005831203179410432,0.004186515625301008,0.004234533419663733,0.9869675539432324,0.016823454476520422,0.15940630672600878,-0.0009274744582128975
6.969999999999937,-0.034398145717648584,-0.0929210458271636,0.01506570062011919,0.31479297795747957,-0.03312842542905191,-0.9483447100150378,0.005826774256320987,0.00417032745627804,0.004219489430859752,0.9869662410225215,0.016897412433952153,0.15936771724032467,-0.0009851136447391723
6.9799999999999365,-0.034393665163906156,-0.09284625712329717,0.015075479613045305,0.31472878144145566,-0.03326115343114112,-0.9483476919574586,0.005822345333231541,0.004154139287255072,0.004204445442055772,0.9869649281018106,0.016971370391383883,0.15932912775464056,-0.0010427528312654472
6.989999999999936,-0.034389184610163735,-0.09277146841943074,0.015085258605971421,0.31466458492543176,-0.03339388143323033,-0.9483506738998794,0.005817916410142096,0.004137951118232105,0.004189401453251792,0.9869636151810997,0.017045328348815614,0.15929053826895645,-0.0011003920177917223
6.999999999999936,-0.03438470405642131,-0.0926966797155643,0.015095037598897536,0.31460038840940785,-0.03352660943531953,-0.9483536558423001,0.00581348748705265,0.004121762949209137,0.004174357464447812,0.9869623022603887,0.017119286306247344,0.15925194878327234,-0.001158031204317997
7.009999999999936,-0.034380223502678886,-0.09262189101169786,0.015104816591823653,0.3145361918933839,-0.03365933743740874,-0.9483566377847209,0.005809058563963205,0.004105574780186169,0.004159313475643831,0.9869609893396778,0.017193244263679075,0.15921335929758826,-0.0012156703908442722
7.019999999999936,-0.03437574294893646,-0.09254710230783143,0.015114595584749767,0.31447199537736,-0.03379206543949794,-0.9483596197271416,0.00580462964087376,0.0040893866111632,0.0041442694868398505,0.986959676418967,0.017267202221110806,0.15917476981190415,-0.001273309577370547
7.029999999999935,-0.03437126239519404,-0.092472313603965,0.015124374577675882,0.3144077988613361,-0.03392479344158715,-0.9483626016695623,0.005800200717784314,0.0040731984421402325,0.004129225498035871,0.986958363498256,0.017341160178542536,0.15913618032622004,-0.001330948763896822
7.039999999999935,-0.03436678184145161,-0.09239752490009857,0.015134153570601999,0.31434360234531217,-0.03405752144367635,-0.9483655836119831,0.005795771794694869,0.004057010273117265,0.00411418150923189,0.9869570505775451,0.017415118135974267,0.15909759084053593,-0.001388587950423097
7.049999999999935,-0.03436230128770919,-0.09232273619623214,0.015143932563528114,0.31427940582928826,-0.03419024944576556,-0.9483685655544039,0.005791342871605424,0.004040822104094297,0.004099137520427909,0.9869557376568342,0.017489076093405997,0.15905900135485182,-0.001446227136949372
7.059999999999935,-0.03435782073396676,-0.09224794749236571,0.015153711556454228,0.31421520931326435,-0.03432297744785477,-0.9483715474968245,0.005786913948515978,0.004024633935071329,0.004084093531623929,0.9869544247361233,0.017563034050837728,0.15902041186916774,-0.0015038663234756468
7.069999999999935,-0.03435334018022434,-0.09217315878849928,0.015163490549380345,0.3141510127972404,-0.034455705449943974,-0.9483745294392453,0.005782485025426533,0.004008445766048361,0.004069049542819949,0.9869531118154123,0.01763699200826946,0.15898182238348363,-0.001561505510001922
7.079999999999934,-0.03434885962648191,-0.09209837008463286,0.01517326954230646,0.3140868162812165,-0.034588433452033183,-0.948377511381666,0.005778056102337087,0.0039922575970253935,0.004054005554015968,0.9869517988947014,0.017710949965701193,0.15894323289779952,-0.0016191446965281968
7.089999999999934,-0.03434437907273949,-0.09202358138076643,0.015183048535232575,0.3140226197651926,-0.03472116145412239,-0.9483804933240868,0.005773627179247642,0.003976069428002426,0.004038961565211988,0.9869504859739905,0.017784907923132923,0.1589046434121154,-0.0016767838830544716
7.099999999999934,-0.03433989851899706,-0.0919487926769,0.015192827528158691,0.31395842324916867,-0.034853889456211595,-0.9483834752665076,0.005769198256158197,0.003959881258979457,0.004023917576408007,0.9869491730532797,0.017858865880564654,0.1588660539264313,-0.0017344230695807467
7.109999999999934,-0.03433541796525464,-0.09187400397303357,0.015202606521084806,0.31389422673314477,-0.034986617458300805,-0.9483864572089282,0.005764769333068751,0.003943693089956489,0.0040088735876040275,0.9869478601325687,0.017932823837996385,0.15882746444074722,-0.0017920622561070215
7.1199999999999335,-0.03433093741151221,-0.09179921526916714,0.015212385514010923,0.3138300302171208,-0.03511934546039001,-0.948389439151349,0.005760340409979306,0.003927504920933521,0.003993829598800047,0.9869465472118578,0.018006781795428115,0.1587888749550631,-0.0018497014426332966
7.129999999999933,-0.03432645685776979,-0.0917244265653007,0.015222164506937037,0.3137658337010969,-0.035252073462479216,-0.9483924210937698,0.005755911486889861,0.0039113167519105535,0.003978785609996066,0.9869452342911469,0.018080739752859846,0.158750285469379,-0.0019073406291595714
7.139999999999933,-0.03432197630402736,-0.09164963786143428,0.015231943499863152,0.313701637185073,-0.03538480146456842,-0.9483954030361905,0.005751482563800415,0.0038951285828875857,0.003963741621192086,0.986943921370436,0.018154697710291576,0.1587116959836949,-0.0019649798156858465
7.149999999999933,-0.03431749575028494,-0.09157484915756785,0.015241722492789269,0.3136374406690491,-0.03551752946665763,-0.9483983849786113,0.00574705364071097,0.0038789404138646175,0.003948697632388106,0.986942608449725,0.018228655667723307,0.15867310649801078,-0.0020226190022121214
7.159999999999933,-0.034313015196542514,-0.09150006045370142,0.015251501485715383,0.3135732441530252,-0.03565025746874684,-0.9484013669210319,0.005742624717621524,0.0038627522448416497,0.003933653643584125,0.9869412955290141,0.018302613625155038,0.1586345170123267,-0.002080258188738396
7.169999999999932,-0.03430853464280009,-0.09142527174983499,0.015261280478641498,0.31350904763700127,-0.03578298547083604,-0.9484043488634527,0.005738195794532079,0.003846564075818682,0.003918609654780145,0.9869399826083032,0.01837657158258677,0.1585959275266426,-0.0021378973752646715
7.179999999999932,-0.034304054089057665,-0.09135048304596854,0.015271059471567615,0.3134448511209773,-0.03591571347292525,-0.9484073308058735,0.005733766871442634,0.0038303759067957136,0.0039035656659761643,0.9869386696875924,0.0184505295400185,0.15855733804095848,-0.0021955365617909463
7.189999999999932,-0.03429957353531524,-0.09127569434210211,0.01528083846449373,0.3133806546049534,-0.03604844147501446,-0.9484103127482942,0.005729337948353188,0.003814187737772746,0.003888521677172184,0.9869373567668814,0.018524487497450233,0.15851874855527437,-0.002253175748317221
7.199999999999932,-0.034295092981572815,-0.09120090563823569,0.015290617457419846,0.3133164580889295,-0.03618116947710366,-0.948413294690715,0.005724909025263743,0.003797999568749778,0.0038734776883682038,0.9869360438461705,0.018598445454881964,0.15848015906959026,-0.002310814934843496
7.209999999999932,-0.034290612427830394,-0.09112611693436926,0.015300396450345961,0.3132522615729056,-0.03631389747919287,-0.9484162766331357,0.005720480102174297,0.00378181139972681,0.003858433699564223,0.9869347309254596,0.018672403412313694,0.15844156958390615,-0.002368454121369771
7.219999999999931,-0.034286131874087966,-0.09105132823050283,0.015310175443272076,0.3131880650568817,-0.03644662548128207,-0.9484192585755564,0.005716051179084852,0.003765623230703842,0.0038433897107602428,0.9869334180047487,0.018746361369745425,0.15840298009822207,-0.002426093307896046
7.229999999999931,-0.034281651320345545,-0.0909765395266364,0.015319954436198192,0.3131238685408577,-0.03657935348337128,-0.9484222405179772,0.005711622255995407,0.003749435061680874,0.0038283457219562625,0.9869321050840377,0.018820319327177155,0.15836439061253796,-0.002483732494422321
7.239999999999931,-0.03427717076660312,-0.09090175082276997,0.015329733429124307,0.3130596720248338,-0.036712081485460485,-0.948425222460398,0.005707193332905961,0.0037332468926579063,0.003813301733152282,0.9869307921633268,0.018894277284608886,0.15832580112685385,-0.002541371680948596
7.249999999999931,-0.034272690212860696,-0.09082696211890354,0.015339512422050422,0.3129954755088099,-0.036844809487549694,-0.9484282044028186,0.005702764409816516,0.003717058723634938,0.0037982577443483015,0.9869294792426159,0.018968235242040617,0.15828721164116974,-0.0025990108674748707
7.2599999999999305,-0.03426820965911827,-0.09075217341503711,0.015349291414976539,0.312931278992786,-0.036977537489638904,-0.9484311863452394,0.005698335486727071,0.0037008705546119703,0.0037832137555443212,0.986928166321905,0.019042193199472347,0.15824862215548563,-0.002656650054001146
7.26999999999993,-0.03426372910537585,-0.09067738471117068,0.015359070407902653,0.3128670824767621,-0.037110265491728106,-0.9484341682876601,0.005693906563637625,0.0036846823855890025,0.003768169766740341,0.9869268534011941,0.019116151156904078,0.15821003266980155,-0.002714289240527421
7.27999999999993,-0.03425924855163342,-0.09060259600730425,0.01536884940082877,0.3128028859607382,-0.037242993493817315,-0.9484371502300809,0.00568947764054818,0.0036684942165660346,0.0037531257779363607,0.9869255404804832,0.01919010911433581,0.15817144318411744,-0.0027719284270536957
7.28999999999993,-0.034254767997891,-0.09052780730343782,0.015378628393754885,0.3127386894447142,-0.037375721495906525,-0.9484401321725017,0.005685048717458734,0.0036523060475430664,0.00373808178913238,0.9869242275597723,0.01926406707176754,0.15813285369843333,-0.0028295676135799705
7.29999999999993,-0.03425028744414857,-0.09045301859957139,0.015388407386681,0.3126744929286903,-0.03750844949799573,-0.9484431141149223,0.005680619794369289,0.0036361178785200986,0.0037230378003283997,0.9869229146390613,0.01933802502919927,0.15809426421274922,-0.0028872068001062454
7.309999999999929,-0.03424580689040615,-0.09037822989570496,0.015398186379607116,0.3126102964126664,-0.03764117750008494,-0.9484460960573431,0.005676190871279844,0.0036199297094971308,0.0037079938115244194,0.9869216017183504,0.019411982986631,0.1580556747270651,-0.0029448459866325207
7.319999999999929,-0.03424132633666372,-0.09030344119183853,0.01540796537253323,0.3125460998966425,-0.03777390550217414,-0.9484490779997639,0.005671761948190398,0.0036037415404741625,0.0036929498227204387,0.9869202887976395,0.01948594094406273,0.15801708524138103,-0.0030024851731587955
7.329999999999929,-0.0342368457829213,-0.0902286524879721,0.015417744365459346,0.3124819033806186,-0.03790663350426335,-0.9484520599421846,0.005667333025100953,0.0035875533714511947,0.0036779058339164584,0.9869189758769286,0.01955989890149446,0.15797849575569692,-0.0030601243596850704
7.339999999999929,-0.03423236522917887,-0.09015386378410567,0.015427523358385462,0.31241770686459464,-0.03803936150635255,-0.9484550418846054,0.005662904102011508,0.003571365202428227,0.003662861845112478,0.9869176629562177,0.019633856858926192,0.1579399062700128,-0.003117763546211345
7.349999999999929,-0.03422788467543645,-0.09007907508023924,0.015437302351311577,0.31235351034857073,-0.03817208950844176,-0.948458023827026,0.005658475178922062,0.003555177033405259,0.0036478178563084974,0.9869163500355068,0.019707814816357926,0.1579013167843287,-0.0031754027327376205
7.359999999999928,-0.03422340412169402,-0.0900042863763728,0.015447081344237694,0.3122893138325468,-0.03830481751053097,-0.9484610057694468,0.005654046255832617,0.003538988864382291,0.003632773867504517,0.9869150371147959,0.019781772773789657,0.1578627272986446,-0.0032330419192638953
7.369999999999928,-0.0342189235679516,-0.08992949767250637,0.015456860337163808,0.3122251173165229,-0.03843754551262017,-0.9484639877118676,0.005649617332743171,0.003522800695359323,0.003617729878700537,0.986913724194085,0.019855730731221388,0.1578241378129605,-0.00329068110579017
7.379999999999928,-0.03421444301420917,-0.08985470896863994,0.015466639330089923,0.312160920800499,-0.03857027351470938,-0.9484669696542883,0.005645188409653726,0.0035066125263363552,0.0036026858898965566,0.986912411273374,0.019929688688653118,0.1577855483272764,-0.003348320292316445
7.389999999999928,-0.03420996246046675,-0.08977992026477351,0.01547641832301604,0.31209672428447505,-0.03870300151679859,-0.948469951596709,0.005640759486564281,0.003490424357313387,0.0035876419010925763,0.9869110983526631,0.02000364664608485,0.1577469588415923,-0.0034059594788427203
7.3999999999999275,-0.034205481906724323,-0.08970513156090708,0.015486197315942155,0.31203252776845114,-0.03883572951888779,-0.9484729335391298,0.005636330563474835,0.003474236188290419,0.0035725979122885956,0.9869097854319522,0.02007760460351658,0.15770836935590818,-0.003463598665368995
7.409999999999927,-0.0342010013529819,-0.08963034285704065,0.01549597630886827,0.31196833125242723,-0.038968457520976996,-0.9484759154815505,0.00563190164038539,0.0034580480192674514,0.0035575539234846154,0.9869084725112413,0.02015156256094831,0.15766977987022407,-0.00352123785189527
7.419999999999927,-0.034196520799239474,-0.08955555415317422,0.015505755301794386,0.3119041347364033,-0.039101185523066205,-0.9484788974239713,0.0056274727172959445,0.0034418598502444836,0.003542509934680635,0.9869071595905304,0.02022552051838004,0.15763119038453996,-0.003578877038421545
7.429999999999927,-0.03419204024549705,-0.08948076544930779,0.0155155342947205,0.3118399382203794,-0.039233913525155414,-0.9484818793663921,0.005623043794206499,0.0034256716812215158,0.0035274659458766544,0.9869058466698195,0.02029947847581177,0.15759260089885588,-0.0036365162249478197
7.439999999999927,-0.034187559691754625,-0.08940597674544136,0.015525313287646617,0.3117757417043555,-0.03936664152724462,-0.9484848613088127,0.0056186148711170536,0.0034094835121985475,0.003512421957072674,0.9869045337491086,0.020373436433243505,0.15755401141317177,-0.003694155411474095
7.4499999999999265,-0.034183079138012204,-0.08933118804157493,0.015535092280572732,0.31171154518833155,-0.039499369529333826,-0.9484878432512335,0.005614185948027608,0.0033932953431755797,0.003497377968268694,0.9869032208283977,0.020447394390675236,0.15751542192748766,-0.00375179459800037
7.459999999999926,-0.034178598584269776,-0.0892563993377085,0.015544871273498847,0.31164734867230764,-0.039632097531423036,-0.9484908251936542,0.005609757024938163,0.0033771071741526115,0.003482333979464713,0.9869019079076867,0.020521352348106967,0.15747683244180355,-0.0038094337845266447
7.469999999999926,-0.034174118030527355,-0.08918161063384207,0.015554650266424963,0.31158315215628374,-0.03976482553351224,-0.948493807136075,0.0056053281018487175,0.0033609190051296436,0.003467289990660733,0.9869005949869758,0.020595310305538697,0.15743824295611944,-0.0038670729710529195
7.479999999999926,-0.03416963747678493,-0.08910682192997564,0.015564429259351078,0.31151895564025983,-0.03989755353560145,-0.9484967890784958,0.005600899178759272,0.003344730836106676,0.0034522460018567526,0.9868992820662649,0.020669268262970428,0.15739965347043536,-0.003924712157579195
7.489999999999926,-0.034165156923042506,-0.08903203322610921,0.015574208252277193,0.3114547591242359,-0.04003028153769066,-0.9484997710209164,0.0055964702556698265,0.003328542667083708,0.003437202013052772,0.986897969145554,0.02074322622040216,0.15736106398475125,-0.003982351344105469
7.499999999999925,-0.03416067636930008,-0.08895724452224278,0.01558398724520331,0.31139056260821196,-0.04016300953977986,-0.9485027529633372,0.005592041332580381,0.00331235449806074,0.003422158024248792,0.9868966562248431,0.02081718417783389,0.15732247449906714,-0.0040399905306317445
7.509999999999925,-0.034156195815557656,-0.08888245581837635,0.015593766238129424,0.31132636609218806,-0.04029573754186906,-0.948505734905758,0.0055876124094909356,0.003296166329037772,0.0034071140354448113,0.9868953433041322,0.02089114213526562,0.15728388501338303,-0.00409762971715802
7.519999999999925,-0.03415171526181523,-0.08880766711450991,0.01560354523105554,0.31126216957616415,-0.04042846554395827,-0.9485087168481787,0.0055831834864014905,0.003279978160014804,0.003392070046640831,0.9868940303834213,0.02096510009269735,0.15724529552769892,-0.004155268903684294
7.529999999999925,-0.03414723470807281,-0.08873287841064348,0.015613324223981656,0.31119797306014024,-0.04056119354604748,-0.9485116987905994,0.005578754563312045,0.003263789990991836,0.0033770260578368507,0.9868927174627103,0.02103905805012908,0.15720670604201484,-0.0042129080902105695
7.5399999999999245,-0.034142754154330386,-0.08865808970677705,0.01562310321690777,0.31113377654411634,-0.04069392154813668,-0.9485146807330201,0.0055743256402225995,0.003247601821968868,0.00336198206903287,0.9868914045419994,0.02111301600756081,0.15716811655633073,-0.004270547276736844
7.549999999999924,-0.03413827360058796,-0.08858330100291062,0.015632882209833887,0.31106958002809243,-0.04082664955022589,-0.9485176626754409,0.0055698967171331545,0.0032314136529459003,0.0033469380802288898,0.9868900916212885,0.021186973964992542,0.15712952707064662,-0.004328186463263119
7.559999999999924,-0.03413379304684554,-0.08850851229904419,0.015642661202760002,0.31100538351206847,-0.0409593775523151,-0.9485206446178617,0.0055654677940437085,0.0032152254839229325,0.0033318940914249095,0.9868887787005776,0.021260931922424273,0.1570909375849625,-0.0043858256497893945
7.569999999999924,-0.03412931249310311,-0.08843372359517776,0.015652440195686117,0.31094118699604456,-0.041092105554404304,-0.9485236265602824,0.0055610388709542635,0.0031990373148999647,0.0033168501026209288,0.9868874657798667,0.021334889879856003,0.1570523480992784,-0.004443464836315669
7.579999999999924,-0.03412483193936069,-0.08835893489131133,0.01566221918861223,0.31087699048002065,-0.04122483355649351,-0.9485266085027031,0.0055566099478648176,0.0031828491458769964,0.0033018061138169485,0.9868861528591558,0.021408847837287734,0.1570137586135943,-0.004501104022841944
7.5899999999999235,-0.03412035138561826,-0.0882841461874449,0.01567199818153835,0.31081279396399675,-0.041357561558582716,-0.9485295904451239,0.0055521810247753725,0.0031666609768540286,0.0032867621250129682,0.9868848399384449,0.021482805794719464,0.1569751691279102,-0.0045587432093682195
7.599999999999923,-0.03411587083187584,-0.08820935748357847,0.015681777174464465,0.31074859744797284,-0.041490289560671925,-0.9485325723875446,0.0055477521016859275,0.0031504728078310604,0.0032717181362089875,0.986883527017734,0.0215567637521512,0.1569365796422261,-0.004616382395894494
7.609999999999923,-0.03411139027813341,-0.08813456877971204,0.01569155616739058,0.3106844009319489,-0.04162301756276113,-0.9485355543299654,0.0055433231785964815,0.0031342846388080926,0.0032566741474050077,0.986882214097023,0.02163072170958293,0.156897990156542,-0.004674021582420769
7.619999999999923,-0.03410690972439099,-0.08805978007584561,0.015701335160316694,0.31062020441592497,-0.04175574556485034,-0.9485385362723862,0.0055388942555070365,0.0031180964697851248,0.003241630158601027,0.9868809011763121,0.02170467966701466,0.15685940067085788,-0.004731660768947044
7.629999999999923,-0.03410242917064856,-0.08798499137197918,0.01571111415324281,0.31055600789990107,-0.041888473566939546,-0.9485415182148068,0.0055344653324175905,0.003101908300762157,0.0032265861697970467,0.9868795882556012,0.02177863762444639,0.15682081118517377,-0.004789299955473319
7.639999999999922,-0.03409794861690614,-0.08791020266811275,0.015720893146168924,0.31049181138387716,-0.04202120156902875,-0.9485445001572276,0.0055300364093281455,0.003085720131739189,0.0032115421809930664,0.9868782753348903,0.02185259558187812,0.1567822216994897,-0.004846939141999594
7.649999999999922,-0.03409346806316371,-0.08783541396424632,0.015730672139095042,0.31042761486785325,-0.04215392957111796,-0.9485474820996483,0.0055256074862387,0.003069531962716221,0.0031964981921890857,0.9868769624141794,0.02192655353930985,0.15674363221380558,-0.0049045783285258686
7.659999999999922,-0.03408898750942129,-0.0877606252603799,0.015740451132021157,0.3103634183518293,-0.04228665757320717,-0.9485504640420691,0.0055211785631492545,0.003053343793693253,0.0031814542033851054,0.9868756494934685,0.022000511496741582,0.15670504272812147,-0.004962217515052144
7.669999999999922,-0.03408450695567886,-0.08768583655651346,0.015750230124947272,0.3102992218358054,-0.04241938557529637,-0.9485534459844898,0.0055167496400598095,0.003037155624670285,0.003166410214581125,0.9868743365727576,0.022074469454173313,0.15666645324243736,-0.005019856701578418
7.679999999999922,-0.03408002640193644,-0.08761104785264703,0.015760009117873387,0.3102350253197815,-0.04255211357738558,-0.9485564279269105,0.005512320716970364,0.003020967455647317,0.0031513662257771444,0.9868730236520467,0.022148427411605043,0.15662786375675325,-0.0050774958881046935
7.689999999999921,-0.034075545848194014,-0.0875362591487806,0.0157697881107995,0.31017082880375757,-0.04268484157947478,-0.9485594098693313,0.0055078917938809185,0.003004779286624349,0.003136322236973164,0.9868717107313357,0.022222385369036774,0.15658927427106917,-0.005135135074630969
7.699999999999921,-0.03407106529445159,-0.08746147044491416,0.01577956710372562,0.31010663228773366,-0.04281756958156399,-0.9485623918117521,0.005503462870791473,0.0029885911176013814,0.003121278248169184,0.9868703978106248,0.022296343326468508,0.15655068478538506,-0.005192774261157243
7.709999999999921,-0.034066584740709165,-0.08738668174104773,0.015789346096651734,0.31004243577170976,-0.042950297583653194,-0.9485653737541728,0.0054990339477020275,0.0029724029485784136,0.003106234259365203,0.9868690848899139,0.02237030128390024,0.15651209529970095,-0.0052504134476835185
7.719999999999921,-0.03406210418696674,-0.0873118930371813,0.01579912508957785,0.3099782392556858,-0.0430830255857424,-0.9485683556965935,0.005494605024612582,0.0029562147795554453,0.0030911902705612233,0.986867771969203,0.02244425924133197,0.15647350581401684,-0.005308052634209794
7.7299999999999205,-0.034057623633224315,-0.08723710433331487,0.015808904082503964,0.3099140427396619,-0.04321575358783161,-0.9485713376390142,0.005490176101523137,0.0029400266105324775,0.0030761462817572426,0.9868664590484921,0.0225182171987637,0.15643491632833273,-0.005365691820736068
7.73999999999992,-0.034053143079481894,-0.08716231562944844,0.01581868307543008,0.309849846223638,-0.043348481589920815,-0.948574319581435,0.0054857471784336915,0.0029238384415095093,0.0030611022929532624,0.9868651461277812,0.02259217515619543,0.15639632684264865,-0.0054233310072623435
7.74999999999992,-0.034048662525739466,-0.08708752692558201,0.015828462068356197,0.3097856497076141,-0.043481209592010024,-0.9485773015238558,0.005481318255344246,0.0029076502724865415,0.003046058304149282,0.9868638332070703,0.02266613311362716,0.15635773735696454,-0.005480970193788618
7.75999999999992,-0.034044181971997045,-0.08701273822171558,0.015838241061282312,0.30972145319159017,-0.043613937594099234,-0.9485802834662765,0.0054768893322548005,0.0028914621034635737,0.0030310143153453014,0.9868625202863593,0.022740091071058892,0.15631914787128043,-0.005538609380314893
7.76999999999992,-0.03403970141825462,-0.08693794951784915,0.015848020054208427,0.3096572566755662,-0.043746665596188436,-0.9485832654086972,0.005472460409165355,0.002875273934440606,0.003015970326541321,0.9868612073656484,0.022814049028490622,0.15628055838559632,-0.0055962485668411685
7.779999999999919,-0.034035220864512196,-0.08686316081398272,0.01585779904713454,0.3095930601595423,-0.043879393598277645,-0.948586247351118,0.00546803148607591,0.002859085765417638,0.003000926337737341,0.9868598944449375,0.022888006985922353,0.1562419688999122,-0.005653887753367443
7.789999999999919,-0.03403074031076977,-0.0867883721101163,0.015867578040060656,0.3095288636435184,-0.04401212160036685,-0.9485892292935387,0.0054636025629864644,0.00284289759639467,0.00298588234893336,0.9868585815242266,0.022961964943354084,0.15620337941422813,-0.005711526939893718
7.799999999999919,-0.03402625975702735,-0.08671358340624986,0.01587735703298677,0.3094646671274945,-0.04414484960245606,-0.9485922112359595,0.005459173639897019,0.002826709427371702,0.00297083836012938,0.9868572686035156,0.023035922900785814,0.15616478992854402,-0.005769166126419993
7.809999999999919,-0.03402177920328492,-0.08663879470238343,0.01588713602591289,0.3094004706114706,-0.04427757760454526,-0.9485951931783803,0.005454744716807574,0.0028105212583487338,0.0029557943713253996,0.9868559556828048,0.023109880858217545,0.1561262004428599,-0.005826805312946268
7.819999999999919,-0.0340172986495425,-0.086564005998517,0.015896915018839004,0.3093362740954467,-0.04441030560663447,-0.9485981751208009,0.005450315793718128,0.002794333089325766,0.002940750382521419,0.9868546427620939,0.023183838815649276,0.1560876109571758,-0.005884444499472543
7.829999999999918,-0.03401281809580007,-0.08648921729465057,0.01590669401176512,0.3092720775794227,-0.04454303360872368,-0.9486011570632217,0.005445886870628683,0.002778144920302798,0.002925706393717439,0.986853329841383,0.023257796773081006,0.1560490214714917,-0.0059420836859988176
7.839999999999918,-0.03400833754205765,-0.08641442859078415,0.015916473004691234,0.3092078810633988,-0.04467576161081288,-0.9486041390056424,0.005441457947539238,0.0027619567512798303,0.0029106624049134583,0.986852016920672,0.023331754730512737,0.15601043198580758,-0.005999722872525093
7.849999999999918,-0.03400385698831522,-0.08633963988691772,0.01592625199761735,0.3091436845473749,-0.04480848961290209,-0.9486071209480632,0.005437029024449792,0.0027457685822568625,0.0028956184161094776,0.9868507039999611,0.023405712687944467,0.1559718425001235,-0.006057362059051367
7.859999999999918,-0.0339993764345728,-0.08626485118305127,0.015936030990543467,0.309079488031351,-0.0449412176149913,-0.9486101028904839,0.005432600101360347,0.0027295804132338943,0.0028805744273054977,0.9868493910792502,0.023479670645376198,0.1559332530144394,-0.0061150012455776425
7.8699999999999175,-0.03399489588083037,-0.08619006247918484,0.015945809983469582,0.3090152915153271,-0.0450739456170805,-0.9486130848329046,0.005428171178270901,0.0027133922442109265,0.002865530438501517,0.9868480781585393,0.023553628602807932,0.15589466352875528,-0.006172640432103918
7.879999999999917,-0.03399041532708795,-0.08611527377531841,0.015955588976395697,0.3089510949993031,-0.04520667361916971,-0.9486160667753254,0.005423742255181456,0.002697204075187958,0.0028504864496975368,0.9868467652378283,0.023627586560239663,0.15585607404307117,-0.006230279618630192
7.889999999999917,-0.03398593477334552,-0.08604048507145198,0.01596536796932181,0.3088868984832792,-0.045339401621258914,-0.9486190487177462,0.005419313332092011,0.0026810159061649904,0.0028354424608935565,0.9868454523171175,0.023701544517671393,0.15581748455738706,-0.0062879188051564675
7.899999999999917,-0.0339814542196031,-0.08596569636758555,0.015975146962247926,0.3088227019672553,-0.04547212962334812,-0.9486220306601669,0.005414884409002565,0.0026648277371420226,0.0028203984720895758,0.9868441393964066,0.023775502475103124,0.15577889507170298,-0.006345557991682743
7.909999999999917,-0.03397697366586067,-0.08589090766371912,0.01598492595517404,0.3087585054512314,-0.045604857625437326,-0.9486250126025876,0.00541045548591312,0.0026486395681190548,0.0028053544832855955,0.9868428264756957,0.023849460432534855,0.15574030558601887,-0.006403197178209017
7.919999999999916,-0.03397249311211825,-0.0858161189598527,0.01599470494810016,0.3086943089352075,-0.045737585627526535,-0.9486279945450083,0.005406026562823674,0.002632451399096087,0.002790310494481615,0.9868415135549847,0.023923418389966585,0.15570171610033476,-0.0064608363647352925
7.929999999999916,-0.033968012558375824,-0.08574133025598626,0.016004483941026274,0.3086301124191836,-0.045870313629615744,-0.9486309764874291,0.005401597639734229,0.0026162632300731187,0.0027752665056776345,0.9868402006342738,0.023997376347398316,0.15566312661465065,-0.006518475551261567
7.939999999999916,-0.0339635320046334,-0.08566654155211983,0.01601426293395239,0.3085659159031596,-0.04600304163170495,-0.9486339584298499,0.005397168716644784,0.002600075061050151,0.0027602225168736547,0.9868388877135629,0.02407133430483005,0.15562453712896654,-0.006576114737787842
7.949999999999916,-0.033959051450890974,-0.0855917528482534,0.016024041926878504,0.3085017193871357,-0.046135769633794156,-0.9486369403722706,0.005392739793555338,0.0025838868920271827,0.002745178528069674,0.986837574792852,0.02414529226226178,0.15558594764328246,-0.0066337539243141175
7.959999999999916,-0.03395457089714855,-0.08551696414438698,0.01603382091980462,0.3084375228711118,-0.046268497635883366,-0.9486399223146913,0.005388310870465893,0.002567698723004215,0.0027301345392656932,0.986836261872141,0.02421925021969351,0.15554735815759835,-0.006691393110840392
7.969999999999915,-0.033950090343406125,-0.08544217544052055,0.016043599912730737,0.3083733263550879,-0.04640122563797257,-0.9486429042571121,0.005383881947376448,0.002551510553981247,0.0027150905504617134,0.9868349489514302,0.02429320817712524,0.15550876867191424,-0.006749032297366667
7.979999999999915,-0.033945609789663704,-0.08536738673665412,0.01605337890565685,0.308309129839064,-0.04653395364006177,-0.9486458861995328,0.005379453024287002,0.0025353223849582792,0.0027000465616577327,0.9868336360307193,0.024367166134556972,0.15547017918623013,-0.006806671483892942
7.989999999999915,-0.033941129235921276,-0.08529259803278769,0.016063157898582966,0.30824493332304004,-0.04666668164215099,-0.9486488681419536,0.005375024101197557,0.0025191342159353114,0.0026850025728537524,0.9868323231100083,0.024441124091988703,0.15543158970054602,-0.006864310670419217
7.999999999999915,-0.033936648682178855,-0.08521780932892126,0.01607293689150908,0.30818073680701613,-0.04679940964424019,-0.9486518500843742,0.005370595178108111,0.002502946046912343,0.002669958584049772,0.9868310101892974,0.024515082049420434,0.1553930002148619,-0.006921949856945492
8.009999999999915,-0.03393216812843643,-0.08514302062505483,0.016082715884435196,0.3081165402909922,-0.04693213764632939,-0.948654832026795,0.005366166255018666,0.0024867578778893754,0.0026549145952457914,0.9868296972685865,0.024589040006852164,0.15535441072917783,-0.006979589043471767
8.019999999999914,-0.033927687574694006,-0.0850682319211884,0.016092494877361314,0.3080523437749683,-0.0470648656484186,-0.9486578139692158,0.005361737331929221,0.0024705697088664076,0.002639870606441811,0.9868283843478756,0.024662997964283895,0.15531582124349372,-0.007037228229998042
8.029999999999914,-0.03392320702095158,-0.08499344321732197,0.01610227387028743,0.3079881472589444,-0.04719759365050781,-0.9486607959116365,0.005357308408839775,0.0024543815398434393,0.002624826617637831,0.9868270714271646,0.024736955921715625,0.1552772317578096,-0.007094867416524317
8.039999999999914,-0.033918726467209157,-0.08491865451345554,0.016112052863213544,0.30792395074292045,-0.04733032165259701,-0.9486637778540573,0.00535287948575033,0.0024381933708204715,0.00260978262883385,0.9868257585064537,0.024810913879147356,0.1552386422721255,-0.0071525066030505915
8.049999999999914,-0.03391424591346673,-0.08484386580958911,0.01612183185613966,0.30785975422689654,-0.04746304965468622,-0.948666759796478,0.005348450562660884,0.0024220052017975037,0.00259473864002987,0.9868244455857429,0.024884871836579087,0.1552000527864414,-0.007210145789576867
8.059999999999913,-0.03390976535972431,-0.08476907710572266,0.016131610849065774,0.30779555771087264,-0.04759577765677543,-0.9486697417388987,0.005344021639571439,0.0024058170327745355,0.0025796946512258896,0.986823132665032,0.024958829794010817,0.1551614633007573,-0.007267784976103141
8.069999999999913,-0.03390528480598188,-0.08469428840185624,0.016141389841991892,0.30773136119484873,-0.047728505658864634,-0.9486727236813195,0.005339592716481994,0.0023896288637515676,0.002564650662421909,0.986821819744321,0.025032787751442548,0.1551228738150732,-0.0073254241626294165
8.079999999999913,-0.03390080425223946,-0.0846194996979898,0.016151168834918007,0.3076671646788248,-0.047861233660953836,-0.9486757056237403,0.005335163793392548,0.0023734406947286,0.002549606673617929,0.9868205068236101,0.02510674570887428,0.1550842843293891,-0.007383063349155692
8.089999999999913,-0.03389632369849703,-0.08454471099412338,0.01616094782784412,0.3076029681628009,-0.047993961663043046,-0.948678687566161,0.005330734870303103,0.002357252525705632,0.0025345626848139484,0.9868191939028992,0.02518070366630601,0.15504569484370498,-0.007440702535681966
8.099999999999913,-0.03389184314475461,-0.08446992229025695,0.016170726820770236,0.30753877164677695,-0.048126689665132255,-0.9486816695085817,0.005326305947213658,0.0023410643566826638,0.002519518696009968,0.9868178809821883,0.02525466162373774,0.15500710535802087,-0.0074983417222082415
8.109999999999912,-0.03388736259101219,-0.08439513358639052,0.01618050581369635,0.30747457513075305,-0.04825941766722146,-0.9486846514510024,0.005321877024124212,0.002324876187659696,0.002504474707205988,0.9868165680614773,0.02532861958116947,0.1549685158723368,-0.007555980908734516
8.119999999999912,-0.03388288203726976,-0.08432034488252409,0.016190284806622466,0.30741037861472914,-0.04839214566931067,-0.9486876333934232,0.005317448101034767,0.002308688018636728,0.002489430718402007,0.9868152551407664,0.0254025775386012,0.15492992638665268,-0.007613620095260791
8.129999999999912,-0.03387840148352734,-0.08424555617865766,0.016200063799548584,0.30734618209870523,-0.048524873671399876,-0.948690615335844,0.005313019177945321,0.00229249984961376,0.002474386729598027,0.9868139422200556,0.025476535496032935,0.15489133690096857,-0.0076712592817870665
8.139999999999912,-0.03387392092978491,-0.08417076747479123,0.0162098427924747,0.3072819855826813,-0.04865760167348908,-0.9486935972782646,0.005308590254855876,0.002276311680590792,0.0024593427407940465,0.9868126292993447,0.025550493453464666,0.15485274741528446,-0.007728898468313341
8.149999999999912,-0.03386944037604249,-0.0840959787709248,0.016219621785400814,0.30721778906665737,-0.04879032967557829,-0.9486965792206854,0.005304161331766431,0.0022601235115678243,0.002444298751990066,0.9868113163786337,0.025624451410896396,0.15481415792960035,-0.007786537654839616
8.159999999999911,-0.03386495982230006,-0.08402119006705837,0.01622940077832693,0.30715359255063346,-0.0489230576776675,-0.9486995611631062,0.005299732408676985,0.0022439353425448565,0.0024292547631860856,0.9868100034579228,0.025698409368328127,0.15477556844391627,-0.007844176841365891
8.169999999999911,-0.03386047926855764,-0.08394640136319194,0.016239179771253043,0.30708939603460955,-0.0490557856797567,-0.9487025431055269,0.00529530348558754,0.0022277471735218882,0.0024142107743821053,0.9868086905372119,0.025772367325759857,0.15473697895823216,-0.007901816027892167
