time,seconds_elapsed,rotationRateX,rotationRateY,rotationRateZ,gravityX,gravityY,gravityZ,accelerationX,accelerationY,accelerationZ,quaternionW,quaternionX,quaternionY,quaternionZ
1681249102708921300,1.80792138671875,0.039475083351135254,0.08526956290006638,-0.1251935511827469,-0.06994720548391342,-0.35357725620269775,-0.9327864646911621,-0.018172331154346466,0.055511921644210815,0.01451253890991211,0.9830531107202454,0.17983628981150104,-0.035576513019471054,2.7314933194599465e-17
1681249102723954400,1.822954345703125,-0.040561698377132416,0.13690373301506042,-0.1440436691045761,-0.06769770383834839,-0.3536963164806366,-0.9329072833061218,-0.023427806794643402,0.021054595708847046,0.033493220806121826,0.9830834426459754,0.1798613676169971,-0.03458695523418531,-0.0008507202117111801
1681249102738988300,1.83798828125,-0.1327192187309265,0.17513740062713623,-0.168276846408844,-0.06468672305345535,-0.3525226414203644,-0.9335649013519287,-0.031260572373867035,0.0004412233829498291,0.041688740253448486,0.9832493033950167,0.17920329200195173,-0.033222482436612084,-0.0018003113877331919
1681249102754022400,1.8530224609375,-0.053094372153282166,0.24036140739917755,-0.22467167675495148,-0.06081178039312363,-0.3511180579662323,-0.9343543648719788,-0.03443361073732376,-0.01887717843055725,0.041471123695373535,0.9834472259434981,0.17841810122028523,-0.031461113208150204,-0.0029955150780120844
1681249102769055500,1.868055419921875,0.09745918214321136,0.28288301825523376,-0.23698534071445465,-0.05586286261677742,-0.3516342043876648,-0.9344692230224609,-0.032073572278022766,-0.0016068816184997559,0.019582808017730713,0.9834713675011032,0.17864300583348758,-0.02919005816246546,-0.004344729451174793
1681249102784089300,1.88308935546875,0.18852996826171875,0.35229113698005676,-0.22237522900104523,-0.05014415085315704,-0.35395291447639465,-0.9339180588722229,-0.016460493206977844,0.07171100378036499,0.024097561836242676,0.9833247157309924,0.1798261561890809,-0.02652421426802511,-0.00561565043373104
1681249102799123500,1.89812353515625,0.15638896822929382,0.3966902792453766,-0.21255749464035034,-0.0437362901866436,-0.356559693813324,-0.9332482814788818,-0.024729926139116287,0.06452158093452454,0.02707463502883911,0.9831479970195235,0.18117670981305625,-0.023470384034048268,-0.006660435714914487
1681249102814156300,1.91315625,0.09916115552186966,0.4414529502391815,-0.22817905247211456,-0.03669923543930054,-0.35841208696365356,-0.9328418970108032,-0.02721986174583435,0.009061992168426514,0.06718027591705322,0.9830370954471125,0.18214113920269448,-0.020091549319086945,-0.007692502591461395
1681249102829190400,1.9281904296875,0.11629710346460342,0.5435673594474792,-0.23866818845272064,-0.028617920354008675,-0.35975006222724915,-0.9326097369194031,-0.034217800945043564,-0.018927425146102905,0.07779717445373535,0.9829692594801035,0.18284750331837388,-0.016183971205772894,-0.008747103940210136
1681249102844224500,1.943224609375,0.3758389353752136,0.6588433384895325,-0.22672070562839508,-0.0188992191106081,-0.3631887137889862,-0.9315239191055298,-0.05667758733034134,-0.038209110498428345,0.06886833906173706,0.9826849446140598,0.184682448528219,-0.011421060820276165,-0.00960402731131133
1681249102859257300,1.95825732421875,0.550352931022644,0.7102639675140381,-0.19478461146354675,-0.008076799102127552,-0.3697320222854614,-0.9291033744812012,-0.06392944604158401,0.012874573469161987,0.04098081588745117,0.9820637219230416,0.18817989891108025,-0.00605409363351514,-0.01013448423455155
1681249102874291500,1.97329150390625,0.5568413138389587,0.7087656259536743,-0.2324020266532898,0.0029240786097943783,-0.3775791823863983,-0.9259727001190186,-0.008463037200272083,0.09109532833099365,-0.00585097074508667,0.9812608684441297,0.19238841149617025,-0.0005982830101486016,-0.010650906531525317
1681249102889325300,1.9883251953125,0.40820151567459106,0.6706611514091492,-0.2894144654273987,0.014079920016229153,-0.3842995762825012,-0.9231010675430298,0.008915058337152004,0.06148448586463928,-0.02306586503982544,0.980518292091552,0.19602507536894445,0.004860410561666265,-0.011601773300872314
1681249102904358400,2.0033583984375,0.24559473991394043,0.7257214784622192,-0.2915481626987457,0.025315118953585625,-0.38870272040367126,-0.9210153818130493,0.0075522903352975845,-0.031051456928253174,-0.012761414051055908,0.9799723428272014,0.198457605896163,0.010338114511274138,-0.012730646471614726
1681249102919392300,2.018392333984375,0.21654780209064484,0.9186818599700928,-0.34888362884521484,0.038360681384801865,-0.391409695148468,-0.919416606426239,-0.025390729308128357,-0.04018530249595642,-0.001405477523803711,0.9795481252062314,0.20002890754002353,0.016736768339028714,-0.01392734411470007
1681249102934425300,2.03342529296875,0.42117881774902344,0.8916065692901611,-0.2714967131614685,0.05307400971651077,-0.39555102586746216,-0.9169092774391174,-0.09524931013584137,-0.05578884482383728,0.05741226673126221,0.9788958280053094,0.20240211089604507,0.02405734503281191,-0.01475957881186154
1681249102949459200,2.048459228515625,0.5297750234603882,0.8735663294792175,-0.42000922560691833,0.0669715404510498,-0.40175899863243103,-0.9132932424545288,-0.0403754785656929,-0.03328448534011841,0.08339828252792358,0.9779489314043214,0.20591974396810914,0.030829276688181022,-0.016201994429512527
1681249102964493600,2.06349365234375,0.4087139070034027,0.9302029609680176,-0.29362624883651733,0.08158618956804276,-0.4080091118812561,-0.9093251824378967,0.016878768801689148,0.06071895360946655,0.039635300636291504,0.9769123329157238,0.2095054311968019,0.038011668373699445,-0.017465074885999476
1681249102979526400,2.0785263671875,0.23740632832050323,0.8530208468437195,-0.31147900223731995,0.09563684463500977,-0.41189754009246826,-0.9061975479125977,-0.00873805582523346,0.03305220603942871,0.005425512790679932,0.9760947271339563,0.21184011752749737,0.04499982164502416,-0.018383369564431564
1681249102994560500,2.093560546875,0.14272387325763702,0.7901862263679504,-0.24026741087436676,0.10847382992506027,-0.4140145480632782,-0.9037839770317078,0.051911287009716034,-0.03299179673194885,0.05719590187072754,0.975461395000053,0.21322471657223235,0.05141250565244367,-0.01916288835247306
1681249103009594400,2.108594482421875,0.11925118416547775,0.8224714398384094,-0.27879002690315247,0.12084116786718369,-0.41520020365715027,-0.9016685485839844,0.033165790140628815,-0.03374400734901428,0.07102590799331665,0.974906714976123,0.2141128280897766,0.05763169513012047,-0.019779550868363815
1681249103024627500,2.12362744140625,0.20316660404205322,0.7865299582481384,-0.2829592227935791,0.1337050497531891,-0.41660788655281067,-0.8992001414299011,0.008934110403060913,-0.06042775511741638,-0.0047304630279541016,0.9742561014257429,0.21516435861858524,0.0640643185368767,-0.020623642928354807
1681249103039661300,2.138661376953125,0.2415143996477127,0.6645784974098206,-0.24319395422935486,0.1451963186264038,-0.41924044489860535,-0.8961894512176514,0.02600729465484619,0.007893890142440796,-0.03883856534957886,0.9734641517211333,0.21687606755728334,0.06978572132510887,-0.021506574997379395
1681249103054695400,2.1536953125,0.22810125350952148,0.5403047204017639,-0.1900830715894699,0.15464767813682556,-0.42192286252975464,-0.8933449387550354,0.07977308332920074,0.05249220132827759,-0.051265597343444824,0.9727164504185419,0.21858280999183158,0.07449216517383885,-0.022252835296473445
1681249103069728300,2.168728271484375,0.21669508516788483,0.4183518886566162,-0.13356253504753113,0.1620962917804718,-0.42449283599853516,-0.890803337097168,0.079053595662117,0.030022501945495605,-0.047306954860687256,0.972051220722104,0.220180818077581,0.07822227663496677,-0.022763517396998823
1681249103084762400,2.183762451171875,0.19001074135303497,0.34660395979881287,-0.11469670385122299,0.16791629791259766,-0.4269067943096161,-0.8885689377784729,0.06287288665771484,0.01107412576675415,-0.032588839530944824,0.9714670567560176,0.2216569969620914,0.0811400817028899,-0.023158467321493747
1681249103099796200,2.198796142578125,0.14178673923015594,0.2924616038799286,-0.0658564642071724,0.17279480397701263,-0.4288814663887024,-0.8866807222366333,0.053309932351112366,-0.0013402104377746582,-0.0399855375289917,0.9709749955082272,0.2228667085731612,0.08360669430042907,-0.023410383966933807
1681249103114829300,2.213829345703125,0.0704542025923729,0.22705599665641785,-0.012107216753065586,0.1764933317899704,-0.43017345666885376,-0.8853253126144409,0.0498250275850296,-0.011263459920883179,-0.04797846078872681,0.9706285012525426,0.2236492163237729,0.08554745598163609,-0.023303750695045228
1681249103129863400,2.228863525390625,0.03035689704120159,0.18268239498138428,0.044789087027311325,0.17909325659275055,-0.43084651231765747,-0.8844754695892334,0.04759129881858826,-0.006317883729934692,-0.04830944538116455,0.9704194635550941,0.22404144727410263,0.08699247272873462,-0.02288611261978353
1681249103144897500,2.2438974609375,0.020978843793272972,0.1086886003613472,0.09800145030021667,0.18055187165737152,-0.4313214421272278,-0.8839473128318787,0.03890003263950348,0.0036174356937408447,-0.06012916564941406,0.9703015576364449,0.22426490626331955,0.08792944580473827,-0.022107153205131805
1681249103159930400,2.258930419921875,0.012984832748770714,0.05140933394432068,0.11558842658996582,0.18090616166591644,-0.4318542182445526,-0.883614718914032,0.03788961470127106,0.023437321186065674,-0.05570101737976074,0.9702359131414657,0.2244818370818553,0.08832072417212922,-0.02120948337483591
1681249103174964500,2.273964599609375,-0.006875159218907356,0.025525270029902458,0.11701162159442902,0.18062420189380646,-0.43214938044548035,-0.8835280537605286,0.02472856640815735,0.026097625494003296,-0.05868685245513916,0.9702333581421737,0.22455184808839046,0.08838795404202347,-0.0202855697929394
1681249103189998300,2.288998291015625,0.0025982374791055918,0.005984325893223286,0.10307317227125168,0.18011723458766937,-0.4323660433292389,-0.883525550365448,0.013181090354919434,0.02123311161994934,-0.05142617225646973,0.970249722581235,0.22458251318261127,0.08831712304561984,-0.019453673930903196
1681249103205031400,2.304031494140625,0.011923030018806458,-0.005859816446900368,0.100135438144207,0.17944452166557312,-0.4327453672885895,-0.883476734161377,0.00196722149848938,0.02106308937072754,-0.03339332342147827,0.9702514312585034,0.2247078317487501,0.08813638373134011,-0.01872568808270724
1681249103220065300,2.319065185546875,-0.002834238111972809,-0.0059618158265948296,0.09277845919132233,0.17879243195056915,-0.4329937696456909,-0.8834872245788574,-0.006902173161506653,0.019541501998901367,-0.022228658199310303,0.9702670452460156,0.22476677651993784,0.08795616261539584,-0.018042044675805998
1681249103235099400,2.334099365234375,-0.053126756101846695,-0.014144377782940865,0.09150014072656631,0.1781793236732483,-0.43260279297828674,-0.883802592754364,-0.010912477970123291,0.007019758224487305,-0.02556014060974121,0.9703600018280832,0.22448264596292655,0.0877853026891002,-0.017401427086010675
1681249103250132200,2.34913232421875,-0.09595507383346558,-0.03205413371324539,0.09681740403175354,0.17730925977230072,-0.43167367577552795,-0.8844316601753235,-0.00656341016292572,0.0024438202381134033,-0.031400859355926514,0.9705337388858234,0.22389889030612634,0.08748411830525424,-0.016741209092258912
1681249103265166600,2.36416650390625,-0.1417079120874405,-0.04756811261177063,0.10952441394329071,0.17619329690933228,-0.42997413873672485,-0.8854818940162659,0.0024718493223190308,-0.006991952657699585,-0.039505839347839355,0.9708163944849474,0.2228868133409138,0.08706611524984663,-0.01602354169217263
1681249103280199400,2.379199462890625,-0.17645438015460968,-0.07360903173685074,0.13732221722602844,0.1746000051498413,-0.4280293583869934,-0.8867388367652893,0.0043550580739974976,-0.005396664142608643,-0.03695189952850342,0.9711542815187502,0.22171847453999866,0.0864378476261052,-0.01513413146114667
1681249103295233500,2.394233642578125,-0.16834260523319244,-0.10023877769708633,0.1526591032743454,0.17247241735458374,-0.42574843764305115,-0.8882519602775574,0.009107157588005066,-0.002962648868560791,-0.02579522132873535,0.9715591122013615,0.2203476757804336,0.08556239245752703,-0.01410175704245232
1681249103310267400,2.409267333984375,-0.1156584694981575,-0.12355102598667145,0.16809611022472382,0.1699671894311905,-0.4241834580898285,-0.8894827365875244,0.013657063245773315,-0.0018420815467834473,-0.01904076337814331,0.9718909166962891,0.2193580438264811,0.08450246929524181,-0.013021693640562219
1681249103325300500,2.424300537109375,-0.0741717517375946,-0.14638976752758026,0.17399847507476807,0.16702190041542053,-0.4233238101005554,-0.8904497027397156,0.007370799779891968,0.03045564889907837,-0.01575446128845215,0.9721537913181554,0.2187449041985645,0.08322148628690346,-0.011917367772684647
1681249103340334300,2.439334228515625,-0.09048035740852356,-0.1569920778274536,0.16301506757736206,0.16392360627651215,-0.4226545989513397,-0.8913428783416748,0.00561678409576416,0.02861151099205017,-0.00950545072555542,0.9723955986318761,0.21824229086103492,0.08184652201499323,-0.010880587457134386
1681249103355367400,2.454367431640625,-0.10108447819948196,-0.14248822629451752,0.15285271406173706,0.16106949746608734,-0.4216790497303009,-0.8923247456550598,-0.005307793617248535,0.0037712454795837402,-0.00449526309967041,0.972658139909322,0.21758858885818158,0.08057820982658281,-0.009925581995056441
1681249103370400500,2.469400390625,-0.1153402253985405,-0.13212187588214874,0.14428745210170746,0.15839052200317383,-0.420500785112381,-0.8933597207069397,-0.009251117706298828,0.000807642936706543,-0.004619956016540527,0.9729331663502295,0.2168343350488651,0.07939153863877839,-0.009005047909301863
1681249103385434600,2.4844345703125,-0.07677152752876282,-0.11766864359378815,0.12394542992115021,0.15624578297138214,-0.4194088280200958,-0.8942502737045288,-0.005199030041694641,0.004720568656921387,-0.000021517276763916016,0.9731689398948157,0.21614861482374845,0.07845153507745029,-0.008217920547630693
1681249103400468500,2.499468505859375,-0.027608400210738182,-0.12407700717449188,0.11187171936035156,0.15408548712730408,-0.41874292492866516,-0.8949369192123413,-0.002153754234313965,0.01362195611000061,-0.001959383487701416,0.9733506917211872,0.2157044697841479,0.07747989609748843,-0.007545665217988452
1681249103415501600,2.51450146484375,-0.005156141705811024,-0.11491865664720535,0.09170173853635788,0.15231719613075256,-0.41767001152038574,-0.8957406282424927,0.004421070218086243,0.04186120629310608,0.00027865171432495117,0.9735604731764073,0.21506515244536414,0.07665947207080394,-0.007095351289196081
1681249103430535700,2.52953564453125,-0.024147622287273407,-0.11709259450435638,0.0768791139125824,0.15038137137889862,-0.4174449145793915,-0.8961725234985352,0.004953101277351379,0.03814178705215454,-0.0035466551780700684,0.9736742980028888,0.21488610016707652,0.07574757445521037,-0.006688282720902238
1681249103445569500,2.544569580078125,-0.09041239321231842,-0.10192190110683441,0.059350188821554184,0.14854760468006134,-0.4169183075428009,-0.8967233300209045,0.007580310106277466,0.019899755716323853,0.005823731422424316,0.973818046819918,0.2145516551798618,0.07487265060558566,-0.006345639056694603
1681249103460602600,2.5596025390625,-0.1350177824497223,-0.07631027698516846,0.036186810582876205,0.1470300853252411,-0.4154818058013916,-0.8976397514343262,0.0064580440521240234,0.006149411201477051,0.006312906742095947,0.9740549977848374,0.21373673606880642,0.07414004589669443,-0.006075517027851897
1681249103475636500,2.574636474609375,-0.09154237806797028,-0.08149731904268265,0.011140315793454647,0.1459687501192093,-0.4137782156467438,-0.8985993266105652,0.009533554315567017,-0.0033056437969207764,0.008416891098022461,0.9743017619408381,0.21279789085665696,0.07360301373178414,-0.005981405957708946
1681249103490670300,2.58967041015625,-0.02459769695997238,-0.08505849540233612,-0.0005877132061868906,0.14500826597213745,-0.4125044047832489,-0.8993401527404785,0.010844990611076355,0.01472291350364685,0.009722292423248291,0.9744913201399167,0.212106378121727,0.07308077906760276,-0.006070306136724048
1681249103505703400,2.604703369140625,0.018391048535704613,-0.09263651818037033,-0.018876440823078156,0.14418169856071472,-0.41128018498420715,-0.9000334739685059,0.007917910814285278,0.0480445921421051,0.0017638802528381348,0.9746673334300752,0.21145809654067294,0.0725860741110961,-0.0063538409593052346
1681249103520737500,2.619737548828125,0.006008202210068703,-0.08530430495738983,-0.03137731924653053,0.14332658052444458,-0.41094663739204407,-0.9003223776817322,0.00662153959274292,0.04276719689369202,0.002815723419189453,0.9747390053525486,0.21129537350240682,0.07206301599207952,-0.00672356285366825
1681249103535771600,2.634771728515625,-0.05497227609157562,-0.08302091062068939,-0.03787463158369064,0.14272312819957733,-0.41042765974998474,-0.9006549119949341,0.0025252699851989746,0.01011320948600769,-0.0023449063301086426,0.9748212447674606,0.21103991008807785,0.07165683982652553,-0.007150106684196254
1681249103550804700,2.6498046875,-0.10925345867872238,-0.06310712546110153,-0.0322503000497818,0.14205585420131683,-0.40939730405807495,-0.9012291431427002,0.0035282373428344727,-0.005123108625411987,0.004714310169219971,0.9749657971235427,0.21050291505388222,0.07123162639431806,-0.007503603037094054
1681249103565838600,2.664838623046875,-0.1158200204372406,-0.056386902928352356,-0.02196916937828064,0.14179983735084534,-0.40783244371414185,-0.9019786715507507,0.001815885305404663,-0.014851391315460205,0.010316133499145508,0.9751558524084785,0.20967807005253394,0.07103359307076271,-0.007779033853855613
1681249103580871700,2.67987158203125,-0.11325705051422119,-0.06046633422374725,-0.015989840030670166,0.14130641520023346,-0.40583667159080505,-0.9029557704925537,0.0025076568126678467,-0.005616694688796997,0.012208759784698486,0.9754045726146504,0.20861456614463783,0.07072539658471011,-0.007992421056667908
1681249103595905500,2.694905517578125,-0.10281750559806824,-0.05691980570554733,0.002519396599382162,0.14084464311599731,-0.4032103419303894,-0.9042036533355713,0.0022980570793151855,0.0065427422523498535,0.018354713916778564,0.9757230240518676,0.20721058956711993,0.0704410663036703,-0.008162461314033219
1681249103610939400,2.709939453125,-0.10456299781799316,-0.05155779421329498,0.025036688894033432,0.14012710750102997,-0.40152445435523987,-0.9050649404525757,-0.0010737627744674683,-0.0012314319610595703,0.01733916997909546,0.9759441054840471,0.20629311121171978,0.07007625055032243,-0.00811004562330934
1681249103625972500,2.724972412109375,-0.07765202224254608,-0.06587734818458557,0.03644566982984543,0.1392585188150406,-0.4005719721317291,-0.9056208729743958,-0.0007850080728530884,-0.0009936988353729248,0.007213950157165527,0.9760879802602175,0.2057581257130978,0.06966457839142673,-0.007924358924411677
1681249103641006600,2.740006591796875,-0.026310695335268974,-0.07427189499139786,0.047976624220609665,0.13812445104122162,-0.4003359079360962,-0.905898928642273,0.006101623177528381,0.001287907361984253,0.007720887660980225,0.976161062013808,0.20560160736663066,0.0691268298231286,-0.007700827850302213
1681249103656040400,2.75504052734375,0.008743269369006157,-0.08293116092681885,0.05678369849920273,0.1368890106678009,-0.40100380778312683,-0.9057910442352295,0.004880383610725403,0.01787075400352478,0.008299589157104492,0.9761355963670834,0.20592452282899132,0.06855348907332633,-0.007415355719804613
1681249103671073500,2.770073486328125,0.0029831710271537304,-0.07964881509542465,0.0507308654487133,0.13552729785442352,-0.40132296085357666,-0.9058544635772705,0.003632843494415283,0.01815935969352722,0.011185884475708008,0.9761537438682869,0.20606118300576173,0.0679085460583857,-0.007155480986109006
1681249103686107600,2.785107666015625,-0.05403484031558037,-0.06822678446769714,0.048106852918863297,0.13441689312458038,-0.4012773633003235,-0.9060400724411011,-0.004671409726142883,-0.0075514912605285645,0.00635141134262085,0.9762031350675143,0.2060062348881569,0.06738988077315267,-0.006903820974401797
1681249103701141500,2.8001416015625,-0.08961792290210724,-0.07267266511917114,0.03803824260830879,0.13321948051452637,-0.400471031665802,-0.9065735340118408,-0.002161771059036255,-0.013667851686477661,0.0012696385383605957,0.9763413746378959,0.20554321691957156,0.06682239322677389,-0.0066568760241722405
1681249103716174600,2.815174560546875,-0.10753300786018372,-0.0711008682847023,0.0318828783929348,0.13222545385360718,-0.3992910385131836,-0.9072392582893372,0.007895991206169128,-0.014710545539855957,0.006024718284606934,0.9765130039842875,0.2048884901150844,0.06634051640907221,-0.006493042106393682
1681249103731208400,2.83020849609375,-0.12232143431901932,-0.0629768967628479,0.04775771498680115,0.13123933970928192,-0.39774301648139954,-0.9080621004104614,0.005052149295806885,-0.008720725774765015,0.012172877788543701,0.9767251639416858,0.2040321513167079,0.0658774481492407,-0.006251494516857291
1681249103746242600,2.84524267578125,-0.09793540090322495,-0.05906790494918823,0.05108000710606575,0.13037820160388947,-0.3960716128349304,-0.9089162945747375,0.002769961953163147,0.006911367177963257,0.015697360038757324,0.9769455639178113,0.20310841483969527,0.0654892032881648,-0.005956008943022976
1681249103761275600,2.860275634765625,-0.06954578310251236,-0.07551159709692001,0.05440443009138107,0.12921464443206787,-0.3951103091239929,-0.9095006585121155,0.008144959807395935,0.01188570261001587,0.014740586280822754,0.977097087114186,0.20256043390366593,0.06495338778032511,-0.0056356430302999805
1681249103776309500,2.8753095703125,-0.03520698472857475,-0.07183963060379028,0.06627094745635986,0.12790976464748383,-0.3949664235115051,-0.9097475409507751,0.00812232494354248,0.02484908699989319,0.010440349578857422,0.9771622114893742,0.2024458391460538,0.0643576153571557,-0.0052708133100356274
1681249103791343400,2.89034326171875,-0.017862243577837944,-0.08200544863939285,0.07879552990198135,0.12655796110630035,-0.3950287997722626,-0.9099095463752747,0.003614768385887146,0.027627557516098022,0.0035833120346069336,0.9772059825262405,0.2024371460548702,0.06375293380570106,-0.004837205008209123
1681249103806376400,2.90537646484375,-0.04443499818444252,-0.0928700789809227,0.08720392733812332,0.12508036196231842,-0.39527612924575806,-0.9100064039230347,0.012828558683395386,0.029415994882583618,0.009859979152679443,0.9772329665431159,0.20252407851398022,0.06309343614553137,-0.004360938628390828
1681249103821410600,2.92041064453125,-0.10662082582712173,-0.0854816734790802,0.1020374670624733,0.1233891174197197,-0.39450615644454956,-0.910571277141571,0.012688755989074707,0.01141887903213501,0.01428532600402832,0.9773800144631037,0.20205769994998046,0.06234622456803275,-0.003754395822658291
1681249103836444700,2.935444580078125,-0.14938761293888092,-0.10761413723230362,0.08809927850961685,0.12176844477653503,-0.3929097056388855,-0.9114792346954346,0.017239108681678772,-0.013782918453216553,0.020671188831329346,0.9776142832846398,0.2011519806075934,0.061630031077211746,-0.003150964868125927
1681249103851477500,2.9504775390625,-0.20882175862789154,-0.11792296171188354,0.08342356979846954,0.11982165277004242,-0.3904958665370941,-0.9127736687660217,0.021505236625671387,-0.019065409898757935,0.031883835792541504,0.9779468401015641,0.1998144414830087,0.060723600044891905,-0.002634308261865449
1681249103866511600,2.96551171875,-0.2221199870109558,-0.08719515055418015,0.09330416470766068,0.11809071153402328,-0.38732650876045227,-0.914348304271698,-0.00021657347679138184,-0.01593288779258728,0.03579306602478027,0.9783506211874577,0.19807577943176446,0.05993198367015366,-0.002074260501931676
1681249103881545500,2.98054541015625,-0.18819743394851685,-0.07235521823167801,0.11020857840776443,0.1164870411157608,-0.3845357596874237,-0.915730893611908,-0.0108809694647789,-0.010163486003875732,0.028020381927490234,0.9787051281450372,0.1965334957866722,0.05923802883622131,-0.0013583325406181072
1681249103896578600,2.99557861328125,-0.16388975083827972,-0.07070432603359222,0.10941202938556671,0.11510036885738373,-0.38233861327171326,-0.9168255925178528,-0.004092693328857422,0.021788567304611206,0.003312408924102783,0.9789855219831861,0.1953079626655218,0.0586686931414527,-0.0005856508325181164
1681249103911612400,3.0106123046875,-0.17049770057201385,-0.0594165176153183,0.09232278913259506,0.11375405639410019,-0.3803318738937378,-0.9178277254104614,0.00030537694692611694,0.022101163864135742,-0.0022314786911010742,0.9792415548846618,0.19418871581990768,0.05811099234890743,0.00014248349887707788
1681249103926646500,3.025646484375,-0.176598459482193,-0.0523759201169014,0.06048762425780296,0.11291562765836716,-0.3786672055721283,-0.9186192154884338,-0.005005478858947754,0.008992403745651245,-0.016195237636566162,0.9794433615596302,0.19326679585128084,0.057778432507868516,0.0006875877332706978
1681249103941679400,3.040679443359375,-0.14226455986499786,-0.03492129594087601,0.019946854561567307,0.11230716109275818,-0.3770228624343872,-0.9193698167800903,-0.0043970271944999695,0.011178016662597656,-0.021761715412139893,0.9796346238293189,0.1923725424586036,0.05751429386066878,0.0009846139517361077
1681249103956713500,3.05571337890625,-0.1345980167388916,-0.03158462047576904,-0.019950490444898605,0.11188706755638123,-0.3758135735988617,-0.9199159741401672,-0.0007725805044174194,0.010228127241134644,-0.02635776996612549,0.9797739782023566,0.19172675357823896,0.057296177367128845,0.001010662393942325
1681249103971746600,3.07074658203125,-0.09601292014122009,-0.02211947925388813,-0.045133076608181,0.11168358474969864,-0.37420037388801575,-0.9205980896949768,0.002543702721595764,0.007027983665466309,-0.020228266716003418,0.9799482846902432,0.190883555502732,0.057135006521276864,0.0007730423674297195
1681249103986780700,3.08578076171875,-0.0631958544254303,-0.029907094314694405,-0.05137499421834946,0.11161826550960541,-0.3728622794151306,-0.9211487770080566,0.0017850399017333984,-0.0007950663566589355,-0.01804482936859131,0.9800889868092171,0.1901950568440842,0.057021379727290024,0.0004042815873487383
1681249104001814500,3.100814453125,-0.0505361407995224,-0.027888154610991478,-0.06025796756148338,0.11154253780841827,-0.3718933165073395,-0.9215495586395264,0.0009299814701080322,0.0011198818683624268,-0.014088809490203857,0.9801912207121436,0.18970626034832444,0.056892389006238345,-0.00003083856941190198
1681249104016847600,3.11584765625,-0.038101308047771454,-0.03227757662534714,-0.06573635339736938,0.1114148274064064,-0.3709399998188019,-0.9219492077827454,-0.0056409090757369995,-0.010545104742050171,-0.015169322490692139,0.9802930999915397,0.18922814581703512,0.05672846840644671,-0.0005120083082234743
1681249104031881500,3.130881591796875,-0.04040637984871864,-0.03781561553478241,-0.07610590010881424,0.11130162328481674,-0.37013423442840576,-0.9222866296768188,-0.007023081183433533,-0.006986826658248901,-0.016647636890411377,0.9803786438004635,0.1888326552094874,0.05655899499097518,-0.0010675198194137782
1681249104046915600,3.14591552734375,0.008418682962656021,-0.02416825108230114,-0.08308444917201996,0.11130405962467194,-0.3695431649684906,-0.9225233197212219,-0.006506703794002533,-0.0004215836524963379,-0.0239335298538208,0.9804380821697137,0.18855612256671722,0.05643516923489042,-0.0017015647843825713
1681249104061948400,3.160948486328125,0.04634145647287369,-0.03913841396570206,-0.07706810534000397,0.11135715991258621,-0.36982202529907227,-0.9224051833152771,-0.005552724003791809,0.0009101629257202148,-0.0323067307472229,0.9804066985617248,0.18874095378936093,0.056340684217407754,-0.002340747252536288
1681249104076982500,3.175982421875,0.04542064294219017,-0.05273624509572983,-0.07657009363174438,0.11114935576915741,-0.3703064024448395,-0.9222358465194702,0.0010179877281188965,0.012533456087112427,-0.02106243371963501,0.9803617436886803,0.18903335211439765,0.05611109687108647,-0.002991555759118568
1681249104092016400,3.191016357421875,0.02044711634516716,-0.05375170707702637,-0.07093004882335663,0.11081621050834656,-0.3706536293029785,-0.9221364855766296,-0.00006792694330215454,-0.002439171075820923,-0.012265920639038086,0.9803342095151142,0.18925144599434512,0.05581802249559553,-0.0036342530439393023
1681249104107049500,3.206049560546875,-0.006234562024474144,-0.055839091539382935,-0.061843082308769226,0.11032432317733765,-0.3706561326980591,-0.9221944212913513,-0.005603276193141937,-0.011286765336990356,0.0005941390991210938,0.9803467283544931,0.18928056693586423,0.05545849737194967,-0.004192749934562694
1681249104122083300,3.221083251953125,-0.018356844782829285,-0.0428047850728035,-0.05269991606473923,0.10993017256259918,-0.3703025281429291,-0.9223835468292236,-0.008581310510635376,-0.017926931381225586,-0.0008799433708190918,0.9803927349760964,0.18911741207356197,0.055161900002255376,-0.004678374607399737
1681249104137117700,3.23611767578125,0.017674125730991364,-0.045735858380794525,-0.04225393384695053,0.10949762910604477,-0.3700076937675476,-0.922553300857544,-0.010803796350955963,-0.011340081691741943,-0.006447494029998779,0.9804340912700694,0.18898029803939473,0.05486158940477676,-0.005083283027792127
1681249104152150500,3.251150634765625,0.04970433562994003,-0.050497591495513916,-0.025114893913269043,0.10899049043655396,-0.3702651262283325,-0.9225100874900818,-0.008557155728340149,-0.00024890899658203125,-0.0055599212646484375,0.9804213012831744,0.18913113733409812,0.05453782165189219,-0.005420595547619862
1681249104167184600,3.2661845703125,0.06491392105817795,-0.06747683882713318,-0.026335954666137695,0.10831361263990402,-0.37088045477867126,-0.9223425984382629,-0.002646505832672119,0.014953792095184326,-0.011220574378967285,0.980376937449544,0.18946743836128505,0.05413670969708865,-0.005712984642589147
1681249104182218500,3.281218505859375,0.05899866297841072,-0.07182870805263519,-0.016107019037008286,0.1074189767241478,-0.37176206707954407,-0.9220922589302063,0.0033903345465660095,0.006207138299942017,-0.008953213691711426,0.9803112272190585,0.18994272365946496,0.05362493857976026,-0.006003697605786203
1681249104197251600,3.29625146484375,0.04483810067176819,-0.06860282272100449,0.0003609047271311283,0.10642679035663605,-0.3727128505706787,-0.9218234419822693,-0.004925332963466644,-0.00869596004486084,-0.0016841888427734375,0.9802416916694255,0.1904466660082004,0.053088057950560666,-0.006165850924402748
1681249104212285400,3.311285400390625,0.016362305730581284,-0.07897663861513138,0.00044266367331147194,0.10531000047922134,-0.373332142829895,-0.9217011332511902,-0.004357874393463135,-0.012181282043457031,0.0059906840324401855,0.9802098667216814,0.19077066604354087,0.05249759502606345,-0.00627109736423008
1681249104227319600,3.326319580078125,0.01068151742219925,-0.0721333771944046,0.008418031968176365,0.10415520519018173,-0.3735050857067108,-0.921762228012085,-0.0006395876407623291,-0.016570717096328735,0.011972248554229736,0.9802248520980946,0.19085670928799153,0.05189017288387205,-0.006358510600796451
1681249104242352400,3.341352294921875,0.009022047743201256,-0.07426390796899796,0.0177508145570755,0.10304669290781021,-0.3734947443008423,-0.9218910336494446,-0.003757767379283905,-0.012781620025634766,0.008713603019714355,0.980257745207081,0.19084150565881408,0.051322527181831286,-0.006361515326784188
1681249104257386500,3.356386474609375,0.0016968105919659138,-0.07746183127164841,0.01245245523750782,0.10194690525531769,-0.3732609450817108,-0.922107994556427,-0.005023099482059479,-0.0006405115127563477,0.0010265111923217773,0.9803128927707553,0.1907090159639357,0.05075515583958815,-0.006384168044039979
1681249104272420600,3.371420654296875,0.005002379417419434,-0.07235068827867508,0.021588962525129318,0.10091874748468399,-0.3732813000679016,-0.9222128391265869,-0.010373115539550781,-0.0012457668781280518,-0.0075814127922058105,0.9803398153187675,0.19070950985175594,0.05023415228568617,-0.006359594740166239
1681249104287453700,3.38645361328125,0.02971012331545353,-0.07281994074583054,0.02243930846452713,0.09978098422288895,-0.3737910985946655,-0.9221301674842834,-0.01295848935842514,0.009960412979125977,-0.010624349117279053,0.980319114556356,0.19096714140971688,0.049663658255175894,-0.006306106737429291
1681249104302487600,3.401487548828125,0.03754216060042381,-0.07429613173007965,0.030423197895288467,0.09864801168441772,-0.37448346614837646,-0.9219710826873779,-0.011962838470935822,0.014177560806274414,-0.008387744426727295,0.9802789758007892,0.19132092432300699,0.04909937147555053,-0.006235190737819815
1681249104317521700,3.416521728515625,0.03795979544520378,-0.0787595883011818,0.024397529661655426,0.09753187000751495,-0.3753560781478882,-0.9217349886894226,-0.010846711695194244,0.018727540969848633,-0.003527402877807617,0.9802193212091478,0.19176903652942173,0.048550492276515346,-0.006131358327302003
1681249104332554500,3.431554443359375,0.03907288983464241,-0.07990820705890656,0.022947441786527634,0.09631256014108658,-0.37597206234931946,-0.9216121435165405,-0.006804518401622772,0.01208031177520752,0.0007290244102478027,0.9801883298809211,0.19208334768291543,0.047936623004181333,-0.006087785908048597
1681249104347588600,3.446588623046875,0.030872220173478127,-0.06985025107860565,0.018671467900276184,0.09511604905128479,-0.3764500617980957,-0.9215412735939026,-0.01104014366865158,0.010177969932556152,0.005861401557922363,0.9801703952822584,0.19232560065389578,0.047331077721598995,-0.006060055288656887
1681249104362622500,3.46162255859375,0.024390246719121933,-0.06128472089767456,0.010674795135855675,0.09404858201742172,-0.37674492597579956,-0.9215303063392639,-0.013955213129520416,0.00908428430557251,0.0038057565689086914,0.9801677399551645,0.19247239050810905,0.04678904755079982,-0.006043346369466038
1681249104377655600,3.476655517578125,0.018632225692272186,-0.06542966514825821,0.004509310703724623,0.09303119033575058,-0.376729816198349,-0.9216398000717163,-0.01038961112499237,0.0024621188640594482,0.001779019832611084,0.9801953970852045,0.19245835497647545,0.04625894312865079,-0.00609373496030013
1681249104392689400,3.491689453125,0.0010395426070317626,-0.07296481728553772,-0.0039022834971547127,0.09195040166378021,-0.3766396641731262,-0.9217850565910339,-0.006211280822753906,0.00740736722946167,0.002488851547241211,0.980231718144853,0.19240607990706532,0.045687808130602414,-0.006187766926243878
1681249104407722500,3.506722412109375,-0.02210891991853714,-0.07599975168704987,-0.0011746740201488137,0.09086590260267258,-0.37616321444511414,-0.9220870733261108,-0.003234684467315674,0.003696054220199585,0.010237157344818115,0.980308016344993,0.19214995650500724,0.04510924693731138,-0.006307553907865923
1681249104422756400,3.52175634765625,-0.01386936567723751,-0.06974585354328156,-0.008209413848817348,0.08987167477607727,-0.37584760785102844,-0.9223132133483887,-0.0057957470417022705,0.0035940706729888916,0.011241495609283447,0.9803649039963103,0.19198004909989694,0.04457636281053615,-0.006431575288647601
1681249104437790500,3.53679052734375,-0.007048158440738916,-0.06385280936956406,-0.013623087666928768,0.08891800791025162,-0.3755384385585785,-0.9225315451622009,-0.011891655623912811,0.00578734278678894,0.012650012969970703,0.98041947072057,0.19181585242299143,0.04405561916263178,-0.006600172050697684
1681249104452823300,3.5518232421875,-0.01571301929652691,-0.057938992977142334,-0.01914648339152336,0.08813975006341934,-0.3753635883331299,-0.9226773977279663,-0.013036005198955536,0.009381413459777832,0.011804044246673584,0.9804553301358653,0.19172591905547928,0.04361727261530722,-0.006807042933442913
1681249104467857400,3.566857421875,0.0042564282193779945,-0.04576728492975235,-0.017846859991550446,0.08748268336057663,-0.37520328164100647,-0.92280513048172,-0.00943399965763092,0.007924109697341919,0.001723647117614746,0.9804863759878228,0.19164441309690206,0.04324184517182476,-0.007009340107018166
1681249104482891300,3.581891357421875,0.02161288820207119,-0.043467648327350616,-0.013130935840308666,0.08697177469730377,-0.37537387013435364,-0.9227840304374695,-0.005398295819759369,0.010978609323501587,0.0006802082061767578,0.9804797097683958,0.1917386321514019,0.042945021400303166,-0.007192946640912145
1681249104497924400,3.59692431640625,0.01369530986994505,-0.04288388043642044,-0.013731478713452816,0.08641458302736282,-0.3756251335144043,-0.9227341413497925,-0.004658006131649017,0.018187910318374634,0.007695138454437256,0.980465728516698,0.19187410999342114,0.042629344900212765,-0.007352108338349513
1681249104512958500,3.61195849609375,0.024627426639199257,-0.032509803771972656,-0.024270139634609222,0.08597739040851593,-0.3758834898471832,-0.9226697683334351,-0.005441509187221527,0.008405953645706177,0.007905423641204834,0.9804479050956587,0.19201564737348406,0.042368679239186906,-0.007543202818619317
1681249104527992600,3.62699267578125,0.0073267328552901745,-0.03125012665987015,-0.022041339427232742,0.0855204239487648,-0.37606608867645264,-0.9226378202438354,-0.0010020062327384949,0.000989675521850586,0.006683290004730225,0.9804380700448233,0.19211761331722352,0.0420940663041694,-0.007753515797070002
1681249104543025400,3.642025390625,-0.018565529957413673,-0.031666383147239685,-0.026132486760616302,0.08512955904006958,-0.3759082853794098,-0.9227383136749268,0.002074405550956726,0.0036852657794952393,0.002160370349884033,0.9804618440852755,0.1920406580268805,0.0418478397135913,-0.00799085501337688
1681249104558059500,3.6570595703125,-0.024269595742225647,-0.026442324742674828,-0.017963774502277374,0.0847678855061531,-0.3753991425037384,-0.9229788184165955,0.0028938502073287964,-0.009076714515686035,0.004613399505615234,0.9805216073293853,0.19177574907817888,0.04162504794175177,-0.008184996795713387
1681249104573093400,3.67209326171875,-0.02027655765414238,-0.026108095422387123,-0.013748256489634514,0.08451986312866211,-0.37495750188827515,-0.9231810569763184,0.0027603879570961,-0.008160322904586792,0.006326258182525635,0.9805720027427739,0.19154544559373718,0.0414704699418231,-0.008327794478258429
1681249104588126500,3.68712646484375,-0.009655073285102844,-0.029365675523877144,-0.01252320222556591,0.08419550210237503,-0.37461191415786743,-0.923350989818573,0.0026117414236068726,0.00040522217750549316,0.012157201766967773,0.980614182905795,0.19136481136359343,0.04127963808485877,-0.008456891365866671
1681249104603160300,3.702160400390625,0.0014601621078327298,-0.014486594125628471,-0.0028913477435708046,0.08393871784210205,-0.3745609521865845,-0.923395037651062,0.0033110156655311584,-0.0005460083484649658,0.012765824794769287,0.9806247515540816,0.1913388705077633,0.04113281708992729,-0.008537220623314815
1681249104618194400,3.7171943359375,0.00890087429434061,-0.02512858621776104,-0.005667160265147686,0.08373528718948364,-0.3746574819087982,-0.923374354839325,0.0029956549406051636,0.005715072154998779,0.0045359134674072266,0.9806188309457726,0.19139091733725075,0.04101633947833237,-0.008601505126789288
1681249104633227300,3.732227294921875,-0.0022913794964551926,-0.017015798017382622,-0.003712666453793645,0.08351399749517441,-0.37472108006477356,-0.9233685731887817,0.004437655210494995,0.007182508707046509,0.004499614238739014,0.9806168897413926,0.19142501805663278,0.04089217708172736,-0.008658423774065173
1681249104648261400,3.747261474609375,-0.006570280529558659,-0.00846465490758419,0.000534808961674571,0.08342325687408447,-0.3748416304588318,-0.9233278632164001,-0.0031925588846206665,0.006387501955032349,0.0009799003601074219,0.980606204277575,0.19148922948547464,0.0408405224905889,-0.008685381321692467
1681249104663295500,3.76229541015625,-0.005185330286622047,-0.006137051619589329,-0.005437329411506653,0.08338094502687454,-0.37482544779777527,-0.9233382344245911,-0.003897927701473236,0.00400620698928833,0.0010055303573608398,0.980608662599028,0.19148128700219708,0.04081412830918133,-0.00870990332642493
1681249104678328600,3.77732861328125,-0.016964277252554893,0.008141486905515194,-0.009820627048611641,0.0835302397608757,-0.3747621774673462,-0.92335045337677,-0.004230320453643799,-0.001077204942703247,0.007701098918914795,0.9806112439407444,0.19145188568981092,0.04087727512120615,-0.00877715798294238
1681249104693362400,3.792362548828125,-0.005598332732915878,0.013165007345378399,-0.008203554898500443,0.08373439311981201,-0.3746128976345062,-0.9233925342559814,-0.005670435726642609,-0.004888594150543213,0.00931483507156372,0.9806214514099366,0.19137690275231792,0.040970922653032135,-0.008831946565899881
1681249104708396500,3.807396484375,-0.0002903868444263935,0.009069331921637058,-0.004398430697619915,0.08401848375797272,-0.3745042085647583,-0.9234107732772827,-0.003848820924758911,-0.00112152099609375,0.00519794225692749,0.9806256099589732,0.1913238248190293,0.041107177219028936,-0.008877567457060564
1681249104723429400,3.822429443359375,0.004236241336911917,-0.002913561649620533,-0.0024050544016063213,0.08408956229686737,-0.37447917461395264,-0.9234144687652588,0.0011002421379089355,0.004514425992965698,-0.0013291239738464355,0.9806262591938714,0.191312701035063,0.041136455137540925,-0.008913640893615342
1681249104738463500,3.83746337890625,-0.014060793444514275,-0.004440617747604847,0.000561440596356988,0.0839957445859909,-0.374356210231781,-0.9234728813171387,0.0021706223487854004,0.0024078786373138428,-0.006153523921966553,0.9806409814479957,0.19124738422448664,0.041085319525895996,-0.008930442304182848
1681249104753497300,3.852497314453125,-0.003373581450432539,0.000019910745322704315,0.003066942561417818,0.08388589322566986,-0.374182790517807,-0.9235531687736511,-0.0008933469653129578,0.003043144941329956,-0.008880913257598877,0.9806616575196136,0.1911536528382313,0.041033040438703615,-0.008911246045969249
1681249104768530400,3.867530517578125,0.006899828556925058,-0.0010927580296993256,0.005724244751036167,0.08377259224653244,-0.3743346929550171,-0.9235018491744995,-0.003389298915863037,0.0006163120269775391,-0.007711470127105713,0.9806488367477344,0.19123203884040207,0.040980108910885334,-0.00888553174479137
1681249104783564300,3.882564208984375,0.01249672845005989,-0.005559944547712803,0.0004826111253350973,0.0836513489484787,-0.37457630038261414,-0.9234148859977722,-0.0047329142689704895,0.009082376956939697,-0.003785371780395508,0.9806268609685008,0.19135815059824007,0.04092194706489919,-0.008865651829948158
1681249104798598400,3.897598388671875,0.02062288485467434,-0.00948304682970047,-0.003935573156923056,0.0835520401597023,-0.37477028369903564,-0.923345148563385,-0.003321349620819092,0.006102561950683594,-0.005976080894470215,0.9806088661966017,0.19146088192215246,0.04086743533201177,-0.008884592622703384
1681249104813631200,3.91263134765625,0.02370794303715229,-0.016031228005886078,-0.0015933229587972164,0.08344027400016785,-0.3750196099281311,-0.9232540726661682,-0.0026602670550346375,0.0038799643516540527,-0.006952226161956787,0.9805852354407238,0.1915941101477691,0.04080037595457168,-0.00893499581510682
1681249104828665600,3.92766552734375,0.016939518973231316,-0.017447495833039284,-0.000613013282418251,0.08321701735258102,-0.3751562535762787,-0.9232186675071716,-0.002986311912536621,0.001788794994354248,-0.005492210388183594,0.9805758117600822,0.19166606379193393,0.04067898596222632,-0.008972262190016943
1681249104843699500,3.942699462890625,0.014017978683114052,-0.0161670483648777,0.006909085437655449,0.08295363932847977,-0.37536776065826416,-0.9231563806533813,-0.005011767148971558,-0.0023789405822753906,-0.001343071460723877,0.9805598380614192,0.19177618034726526,0.04054250433218755,-0.00898166787349053
1681249104858732500,3.957732666015625,0.017445361241698265,-0.03194814175367355,0.0045585790649056435,0.08252213895320892,-0.3754465878009796,-0.9231629967689514,-0.00038408488035202026,0.0017892420291900635,-0.006493926048278809,0.9805615481698201,0.1918139414415986,0.04032245811978267,-0.008979632727130586
1681249104873766400,3.972766357421875,0.0062240781262516975,-0.034911178052425385,0.007456365041434765,0.0819803923368454,-0.37551307678222656,-0.9231842756271362,0.0016377642750740051,0.0035799741744995117,-0.0009795427322387695,0.9805667461188722,0.1918453568171283,0.04004039024633429,-0.0090068338822009
1681249104888800300,3.98780029296875,-0.004967589862644672,-0.03139500319957733,0.0033068936318159103,0.08143485337495804,-0.37538641691207886,-0.9232840538024902,-0.005552917718887329,-0.00002568960189819336,-0.0004677772521972656,0.9805921447071997,0.1917734040342207,0.039761066198025496,-0.009010836211745348
1681249104903833300,4.002833251953125,-0.0014428431168198586,-0.022993262857198715,-0.0012375246733427048,0.08105894178152084,-0.3752991259098053,-0.9233525991439819,-0.009220577776432037,-0.0014710426330566406,0.001828610897064209,0.9806094772003865,0.19172464648925483,0.03956451631727482,-0.00903446573377082
1681249104918867500,4.017867431640625,0.01482789870351553,-0.02885621227324009,-0.005296181887388229,0.08068855106830597,-0.37535110116004944,-0.9233639240264893,-0.007370084524154663,0.006057769060134888,0.0011838078498840332,0.9806116149612624,0.1917516802641252,0.0393615828332683,-0.009104741257332735
1681249104933901300,4.0329013671875,0.025685980916023254,-0.027521701529622078,0.0013015330769121647,0.08030189573764801,-0.37565261125564575,-0.9232749938964844,-0.005274444818496704,0.009548336267471313,0.00512319803237915,0.9805882942658993,0.19191124370143223,0.03914797537119941,-0.009186031050210344
1681249104948934400,4.047934326171875,0.026170676574110985,-0.025160809978842735,0.008167162537574768,0.07995720952749252,-0.37594640254974365,-0.9231853485107422,-0.002915598452091217,0.01034572720527649,-0.0005053877830505371,0.9805651398396329,0.19206454067310202,0.03896856474899135,-0.009202050262536595
1681249104963968500,4.062968505859375,0.01209565531462431,-0.036591626703739166,0.0032331240363419056,0.07947473227977753,-0.3762049376964569,-0.9231216907501221,-0.0031655430793762207,0.009032577276229858,0.0001023411750793457,0.9805488968797961,0.19219763585110464,0.038719862050242394,-0.009212648927489863
1681249104979002400,4.07800244140625,0.002246859949082136,-0.029296698048710823,0.0030176742002367973,0.07891064882278442,-0.3762921094894409,-0.9231345653533936,0.0016710087656974792,0.004297971725463867,0.006752729415893555,0.9805519005854297,0.1922397297880822,0.0384267888479714,-0.009237749678970697
1681249104994035500,4.093035400390625,0.003911708481609821,-0.022620154544711113,-0.0016676251543685794,0.0784926563501358,-0.37630975246429443,-0.9231629967689514,-0.003556758165359497,0.002118319272994995,0.006872773170471191,0.9805591095165855,0.19224552270346978,0.03821212182416835,-0.009243822962966478
1681249105009069600,4.108069580078125,0.0007207088638097048,-0.025880130007863045,-0.007633105851709843,0.07815881818532944,-0.37620842456817627,-0.9232326149940491,-0.003070332109928131,0.005007743835449219,0.004775643348693848,0.9805763327637788,0.19219112476293204,0.038029828449964796,-0.009304590611307194
1681249105024103400,4.123103515625,0.010142386890947819,-0.01882248744368553,-0.010698936879634857,0.07791320234537125,-0.3762136697769165,-0.923251211643219,-0.0011004805564880371,0.009773731231689453,0.0054198503494262695,0.9805799771267865,0.192196137263582,0.037881785891990434,-0.009419965905410431
1681249105039136500,4.138136474609375,0.013379300013184547,-0.013289503753185272,-0.01125500537455082,0.07774394005537033,-0.3761976361274719,-0.9232720136642456,-0.0015415623784065247,0.008948951959609985,0.002495706081390381,0.9805842176627341,0.19219015146388982,0.03777473640064945,-0.009525258149075505
1681249105054170400,4.15317041015625,0.015250755473971367,-0.006495246663689613,-0.013290459290146828,0.07768428325653076,-0.3763098120689392,-0.923231303691864,-0.0019854381680488586,0.009167969226837158,0.004347085952758789,0.9805727001407886,0.19225337912340398,0.037722373034740686,-0.009636309007188365
1681249105069204200,4.168204345703125,0.015166601166129112,0.004168583080172539,-0.011865401640534401,0.0777331069111824,-0.3764534294605255,-0.9231686592102051,-0.004429899156093597,0.0005225241184234619,0.008389055728912354,0.9805557033539284,0.19233404604334317,0.037726399064723935,-0.00974200158584661
1681249105084237300,4.1832373046875,0.005953500978648663,-0.0007297694683074951,-0.0074847680516541,0.07782062143087387,-0.37656790018081665,-0.9231145977973938,-0.006272174417972565,-0.0021858811378479004,0.007648348808288574,0.9805411727485432,0.19239846301982713,0.0377561889680042,-0.009817187001406913
1681249105099271400,4.198271484375,0.01792595349252224,-0.0019359150901436806,-0.008079186081886292,0.07782743871212006,-0.37662550806999207,-0.9230905175209045,0.0006637647747993469,0.005363792181015015,0.006510376930236816,0.9805344465289639,0.19243176319759905,0.03774578469491109,-0.009887534590356331
1681249105114305500,4.213305419921875,0.03139222785830498,-0.00201980397105217,-0.00569272693246603,0.07783221453428268,-0.37691181898117065,-0.9229732751846313,-0.0001344829797744751,0.006062120199203491,0.005340278148651123,0.9805037632904532,0.19258623012719794,0.03773481554690552,-0.009953865736360099
1681249105129338600,4.228338623046875,0.027695760130882263,-0.014064216986298561,-0.007003001868724823,0.07775061577558517,-0.37720173597335815,-0.9228616952896118,-0.000022359192371368408,0.011021167039871216,-0.007619202136993408,0.9804749112853768,0.19274096794066062,0.03768375463531539,-0.009999588315787362
1681249105144372500,4.24337255859375,0.019279638305306435,-0.00996827520430088,-0.007789167109876871,0.07759499549865723,-0.3774668574333191,-0.922766387462616,0.0001332610845565796,0.005533754825592041,-0.006646394729614258,0.980449779047777,0.19288303542663868,0.037589111148747766,-0.010074825872335316
1681249105159406300,4.25840625,0.012645439244806767,-0.014879677444696426,0.0012330897152423859,0.07737930119037628,-0.3777318000793457,-0.9226760864257812,-0.0025654807686805725,-0.00405845046043396,-0.0014724135398864746,0.9804263346151711,0.19302299516495808,0.03747114300372339,-0.010112554950894278
1681249105174439400,4.273439453125,0.007688337005674839,-0.011303050443530083,0.0025955629535019398,0.07715055346488953,-0.37785854935646057,-0.9226433634757996,-0.00390838086605072,-0.0012767016887664795,0.0060784220695495605,0.9804179931503667,0.19308839100066194,0.03735237948351185,-0.010121434845220875
1681249105189473300,4.288473388671875,0.008854535408318043,-0.01242823712527752,0.004834482446312904,0.07699334621429443,-0.3778511881828308,-0.9226595163345337,-0.0034765228629112244,-0.005846470594406128,0.004522919654846191,0.9804223139753492,0.1930822589789304,0.03727590673817254,-0.010102132696291542
1681249105204507400,4.30350732421875,0.013361669145524502,-0.023240672424435616,0.0019137938506901264,0.07670703530311584,-0.3779297471046448,-0.9226511716842651,-0.0018779635429382324,-0.0014343559741973877,0.0009898543357849121,0.9804202114491202,0.19312087150355062,0.03713156390110228,-0.010092039132957954
1681249105219540500,4.31854052734375,0.02034442499279976,-0.020273109897971153,0.000945202074944973,0.07642313092947006,-0.3779975175857544,-0.9226469397544861,0.003777056932449341,0.0028753280639648438,-0.0007691383361816406,0.9804187287114521,0.19315588974089964,0.036977335985607505,-0.010138402904864596
1681249105234574300,4.33357421875,0.023847758769989014,-0.018557501956820488,0.005225701257586479,0.0761365070939064,-0.378307580947876,-0.9225435256958008,-0.0014600083231925964,-0.0004919767379760742,-0.0035428404808044434,0.9803921787520831,0.19331805291721582,0.036828704105091384,-0.01014743165821334
1681249105249608400,4.3486083984375,0.026337547227740288,-0.01610845886170864,0.0032496354542672634,0.07583771646022797,-0.37867575883865356,-0.9224171042442322,-0.00509798526763916,0.004453808069229126,-0.006247997283935547,0.9803600063917425,0.19351065298636894,0.03667515721518392,-0.010149321727807213
1681249105264641500,4.3636416015625,0.026775958016514778,-0.014143845066428185,0.006247822195291519,0.07557139545679092,-0.37910234928131104,-0.9222637414932251,-0.006296508014202118,-0.0002923011779785156,-0.004768669605255127,0.9803209893419486,0.19373400474736413,0.036541345228804055,-0.010134776797473382
1681249105279675400,4.37867529296875,0.03591587394475937,-0.014590989798307419,0.0024355072528123856,0.07534761726856232,-0.3796301484107971,-0.9220649003982544,-0.007491804659366608,0.00046434998512268066,0.0008308291435241699,0.9802703512373941,0.1940117625951527,0.036427726368898135,-0.010127162461171445
1681249105294709500,4.39370947265625,0.03451302647590637,-0.027133679017424583,-0.005088721867650747,0.07507940381765366,-0.38008615374565125,-0.9218989014625549,-0.003622502088546753,-0.00043764710426330566,-0.00037276744842529297,0.9802275324388152,0.19425331208909816,0.036279316999569045,-0.010181117685311094
1681249105309742300,4.408742431640625,0.029412541538476944,-0.027031147852540016,-0.006751067005097866,0.07479588687419891,-0.3804408311843872,-0.9217756390571594,0.0029781460762023926,-0.0006780624389648438,-0.0002518892288208008,0.9801950190224066,0.19444240511406818,0.03611547000903324,-0.010274201313333004
1681249105324776400,4.4237763671875,0.03487910330295563,-0.02878616936504841,-0.009204903617501259,0.0744202733039856,-0.38081130385398865,-0.9216530919075012,0.005184821784496307,-0.0031152069568634033,0.0020821690559387207,0.9801625573137305,0.19463988783848118,0.035899560496173336,-0.010392178020395755
1681249105339810300,4.438810302734375,0.03684297204017639,-0.02549530379474163,-0.006166769191622734,0.0740232765674591,-0.38121160864830017,-0.9215195178985596,0.0006989985704421997,-0.0014026463031768799,0.007243454456329346,0.9801275427231392,0.1948519212312208,0.03567851190838923,-0.010480510023494947
1681249105354844200,4.45384423828125,0.02857987768948078,-0.024322180077433586,-0.011596954427659512,0.07365766167640686,-0.38165518641471863,-0.9213652014732361,-0.0011936873197555542,0.00024637579917907715,0.00959157943725586,0.980087015771796,0.19508798423100848,0.03546923897313045,-0.01058953102751574
1681249105369878000,4.4688779296875,0.030995363369584084,-0.018248308449983597,-0.010515179485082626,0.07340002059936523,-0.38202473521232605,-0.9212326407432556,-0.002202533185482025,-0.0019323229789733887,0.00923013687133789,0.9800517592784624,0.19528652968857835,0.03531086516065394,-0.010720325703786384
1681249105384912100,4.483912109375,0.032928500324487686,-0.012680703774094582,-0.00807066261768341,0.07330488413572311,-0.38244831562042236,-0.9210644364356995,-0.002580411732196808,-0.0035381317138671875,0.0037366151809692383,0.9800077382484518,0.19551416144232553,0.03524201842923475,-0.010817581071902997
1681249105399945000,4.498945068359375,0.020360562950372696,-0.020878447219729424,-0.017061762511730194,0.0732097178697586,-0.38277167081832886,-0.9209376573562622,-0.0015544518828392029,0.004872381687164307,0.010003268718719482,0.9799738775967912,0.19569030953469552,0.03516333394587919,-0.010964819778164226
1681249105414979000,4.51397900390625,0.008144909515976906,-0.007023084908723831,-0.007302607875317335,0.07316668331623077,-0.38297605514526367,-0.9208561182022095,-0.0029304921627044678,-0.001392960548400879,0.012241065502166748,0.9799517547959826,0.19580269395573777,0.035117584189509304,-0.011081586152574553
1681249105430013200,4.52901318359375,-0.0019772332161664963,-0.0050635309889912605,-0.009622753597795963,0.0731634646654129,-0.3830678462982178,-0.9208182096481323,-0.011167019605636597,0.002940744161605835,0.0055503249168396,0.9799414040446555,0.1958534639745975,0.03510442886771154,-0.01113817317223897
1681249105445047000,4.544047119140625,-0.011179466731846333,-0.0027708159759640694,-0.01708279922604561,0.07316628098487854,-0.3829626739025116,-0.9208617210388184,-0.008026525378227234,0.0003331601619720459,0.005517542362213135,0.9799514098240278,0.19580114660534997,0.035086302338512614,-0.011237264999420826
1681249105460080000,4.559080078125,0.007417013868689537,-0.0023023653775453568,-0.013472353108227253,0.07316512614488602,-0.3829458951950073,-0.9208687543869019,-0.005522929131984711,-0.0034677982330322266,0.00837796926498413,0.9799517057000542,0.19579663885384865,0.03506117790457981,-0.01136025873085848
1681249105475114000,4.574114013671875,0.024869879707694054,-0.008205262944102287,-0.014467576518654823,0.07317733019590378,-0.38316771388053894,-0.9207755327224731,-0.007152557373046875,0.0036204755306243896,0.00503462553024292,0.979926676205036,0.1959187205133133,0.03504401734511693,-0.01147465073208253
1681249105490148000,4.589148193359375,0.022456256672739983,-0.016793157905340195,-0.016749639064073563,0.07305359840393066,-0.3835269808769226,-0.9206357598304749,-0.003198869526386261,0.011899024248123169,-0.002902388572692871,0.9798892685262112,0.19611354432813016,0.034951187460094804,-0.011618301430750311
1681249105505181200,4.60418115234375,0.009517928585410118,-0.02054581791162491,-0.01101558655500412,0.07282914221286774,-0.38377809524536133,-0.9205489158630371,-0.0032948628067970276,0.004536062479019165,-0.007978856563568115,0.9798656084404824,0.19624921167526543,0.034810827003358275,-0.01174342263102443
1681249105520215000,4.619215087890625,0.013584522530436516,-0.024355469271540642,-0.010937556624412537,0.07244997471570969,-0.3839021623134613,-0.9205271005630493,-0.004594147205352783,0.0033783316612243652,-0.010106384754180908,0.9798587591823836,0.19631521805499852,0.03459448765964883,-0.011854782634221772
1681249105535249000,4.634248779296875,0.0086563965305686,-0.026773618534207344,-0.0029406161047518253,0.0721132680773735,-0.38410958647727966,-0.9204670190811157,-0.0048220157623291016,0.0007018744945526123,-0.008045494556427002,0.9798423781646955,0.19642516535949353,0.034404168396760706,-0.011943338676289368
1681249105550282000,4.649281982421875,0.01211770623922348,-0.03090951032936573,-0.007899155840277672,0.07167177647352219,-0.38427451252937317,-0.9204326272010803,-0.003907501697540283,0.005337625741958618,-0.00029790401458740234,0.9798325828487447,0.19651108165467854,0.034162418034282875,-0.01202190084684224
1681249105565315800,4.66431591796875,0.01005061436444521,-0.026184262707829475,-0.004428524058312178,0.07129941880702972,-0.38435670733451843,-0.9204272627830505,-0.001353137195110321,0.00020131468772888184,0.0038776397705078125,0.9798298952869375,0.19655448762349104,0.033951612982797655,-0.012123372056936471
1681249105580350200,4.67935009765625,0.00911382120102644,-0.020949553698301315,-0.001957376953214407,0.07094459980726242,-0.38432687520980835,-0.9204671382904053,-0.0056827738881111145,-0.002590358257293701,0.007564365863800049,0.9798394816362535,0.19653672454928844,0.033760208584515304,-0.012174381318129668
1681249105595383000,4.694383056640625,0.010718854144215584,-0.026735803112387657,-0.0071412199176847935,0.07062365114688873,-0.384397029876709,-0.9204625487327576,-0.005041405558586121,-0.0008569955825805664,0.006171226501464844,0.9798375889618012,0.19657287962776362,0.033583335655086206,-0.012237761325420659
1681249105610417200,4.709417236328125,0.004095839336514473,-0.024009523913264275,-0.012949841096997261,0.07024583965539932,-0.3843708634376526,-0.9205023646354675,-0.0025273561477661133,0.004136979579925537,0.0023505687713623047,0.9798462951489142,0.19655898261284738,0.033367481274578205,-0.012352111091211232
1681249105625451000,4.724450927734375,0.0007129325531423092,-0.016454404219985008,-0.011608406901359558,0.07003918290138245,-0.3843507468700409,-0.9205265045166016,-0.00407545268535614,-0.001391589641571045,0.0008946061134338379,0.9798510727160098,0.19654990805119313,0.0332397009151086,-0.012463164926616596
1681249105640484000,4.739484130859375,0.0015613622963428497,-0.017597965896129608,-0.014626567251980305,0.06986211240291595,-0.3843183219432831,-0.9205535054206848,-0.006431348621845245,0.0005138814449310303,0.0009216070175170898,0.9798564191730254,0.19653502453104507,0.033124516514681866,-0.012587003771519596
1681249105655518000,4.75451806640625,-0.002237637061625719,-0.0139387808740139,-0.008522868156433105,0.0697391927242279,-0.3843449056148529,-0.9205517172813416,-0.003790721297264099,-0.0012447834014892578,0.003422260284423828,0.9798543824230419,0.19655160805680874,0.033039625336249955,-0.012696793568444114
1681249105670552000,4.769552001953125,0.011829712428152561,-0.007731486111879349,-0.006914851255714893,0.06955476850271225,-0.38448622822761536,-0.9205066561698914,-0.0014700740575790405,-0.001500248908996582,0.004765748977661133,0.9798421849113083,0.19662693080606175,0.03293204919901408,-0.012761087827278136
1681249105685585000,4.7845849609375,0.010104783810675144,-0.01364157348871231,0.0016437494195997715,0.06940022110939026,-0.3846587836742401,-0.9204462170600891,0.0012021735310554504,0.0002745091915130615,0.0033777952194213867,0.9798261835045864,0.19671860743256153,0.032843179667099716,-0.012807653016766387
1681249105700619000,4.799618896484375,0.006396011915057898,-0.018618222326040268,-0.0022894733119755983,0.0691438689827919,-0.38478997349739075,-0.920410692691803,0.00010050833225250244,-0.0002504289150238037,0.005264878273010254,0.9798167374277764,0.19678638525106298,0.03270749566131729,-0.01282905337198766
1681249105715653000,4.814653076171875,0.0026031374000012875,-0.013847967609763145,-0.005476744379848242,0.0688963234424591,-0.38490182161331177,-0.9203824996948242,0.0014314129948616028,0.0006548762321472168,0.005435049533843994,0.9798089052848419,0.19684495499472535,0.03257026122659138,-0.012880854366128233
1681249105730686200,4.829686279296875,-0.004598049912601709,-0.006595115177333355,-0.004907893016934395,0.06872183084487915,-0.38489973545074463,-0.9203963875770569,0.00015633553266525269,0.0017209053039550781,-0.00210416316986084,0.9798120184021861,0.19684309578989276,0.03247460751058354,-0.012913347437931526
1681249105745720000,4.844719970703125,-0.010902817361056805,-0.011718237772583961,-0.0063558537513017654,0.0686134621500969,-0.3848646581172943,-0.9204191565513611,0.000005304813385009766,0.0026013553142547607,-0.0007996559143066406,0.9798170727055466,0.19682524811671276,0.03240745948828379,-0.012972666927400824
1681249105760754200,4.859754150390625,-0.0034819189459085464,-0.007338936440646648,-0.00836494192481041,0.06852357089519501,-0.3847535252571106,-0.9204723238945007,0.001437954604625702,0.0005828738212585449,0.003495454788208008,0.9798296254366611,0.1967677772762857,0.03234635544303478,-0.013050248573003471
1681249105775788000,4.8747880859375,-0.0011918669333681464,-0.009830057621002197,-0.00896681658923626,0.06843141466379166,-0.384718656539917,-0.9204937219619751,0.0011791735887527466,-0.0008405447006225586,0.005195319652557373,0.9798340871732344,0.19675068964359188,0.032284639777824004,-0.013123791380336331
1681249105790821000,4.889821044921875,-0.0011708812089636922,-0.00464142020791769,-0.011504276655614376,0.0683971643447876,-0.38467833399772644,-0.9205131530761719,-0.0029064640402793884,-0.0006825029850006104,0.00716787576675415,0.9798378276735243,0.1967319283080607,0.032248672792795356,-0.01321653452475053
1681249105805855000,4.90485498046875,0.0030270065180957317,0.004057263024151325,-0.005195514298975468,0.06843149662017822,-0.3846760392189026,-0.9205115437507629,-0.0047718435525894165,-0.002149641513824463,0.008921027183532715,0.9798362625482099,0.1967335709743561,0.032251177697439445,-0.013291459807239371
1681249105820889000,4.91988916015625,0.018785569816827774,-0.001300751231610775,-0.0026375483721494675,0.06850705295801163,-0.3847877085208893,-0.9204592704772949,-0.004450671374797821,-0.0020380020141601562,0.005191385746002197,0.9798227664376418,0.196794427110319,0.032285022179273086,-0.01331301813657443
1681249105835922000,4.934921875,0.015514462254941463,-0.0031013144180178642,-0.003793093841522932,0.06848324835300446,-0.38505101203918457,-0.9203509092330933,-0.0003985390067100525,0.0058394670486450195,0.0011920332908630371,0.9797945685982035,0.19693528818598846,0.03226520287992332,-0.013346276422453745
1681249105850956000,4.9499560546875,0.0079124690964818,0.00036985008046031,0.002207007724791765,0.06848912686109543,-0.38524359464645386,-0.9202698469161987,-0.000007703900337219238,0.00012686848640441895,-0.0015898346900939941,0.9797737037443112,0.1970382211274878,0.03226462105616947,-0.013360543134208017
1681249105865990100,4.964990234375,-0.00874863937497139,0.0009229886345565319,0.001731367316097021,0.06847592443227768,-0.3852477967739105,-0.9202690720558167,-0.00261901319026947,-0.005239993333816528,-0.0024145841598510742,0.9797738763688716,0.19703938474657437,0.032263575201112206,-0.013332135993555433
1681249105881023200,4.980023193359375,-0.010934828780591488,0.0028449920937418938,0.0022043446078896523,0.06843563914299011,-0.3851566016674042,-0.9203102588653564,0.0006561353802680969,-0.008794903755187988,0.0020516514778137207,0.9797846324640531,0.19698981432194482,0.03224730452722964,-0.013312386323526196
1681249105896057000,4.99505712890625,0.007764396723359823,0.004255668260157108,0.003370809368789196,0.06843160092830658,-0.3851954936981201,-0.9202942848205566,-0.0006062984466552734,-0.004681944847106934,0.006689608097076416,0.9797809663179369,0.19700955073840515,0.032250538467366134,-0.013285325432180875
1681249105911091200,5.01009130859375,0.0165480338037014,0.008466924540698528,-0.00011766538955271244,0.06845854967832565,-0.38536345958709717,-0.9202219843864441,-0.003364570438861847,0.003893613815307617,0.006663084030151367,0.9797628238812932,0.19709841069605047,0.03226821629080475,-0.013262790685433033
1681249105926124000,5.0251240234375,0.011006848886609077,-0.0003191102296113968,-0.0014071679906919599,0.0685388520359993,-0.38554829359054565,-0.9201385378837585,-0.004101000726222992,0.0068097710609436035,0.0023224353790283203,0.9797414756633027,0.19719761413616707,0.03230832816914404,-0.01326394623742202
1681249105941158100,5.040158203125,-0.00013267440954223275,0.003823170904070139,-0.0015584354987367988,0.06854335963726044,-0.3856295645236969,-0.9201041460037231,-0.005082063376903534,0.004434376955032349,-0.00253373384475708,0.9797324931034288,0.1972414314089787,0.03230697943985241,-0.013280588086917773
1681249105956192000,5.05519189453125,0.0053598289377987385,0.003856194205582142,0.00007062009535729885,0.06860105693340302,-0.38571488857269287,-0.9200640916824341,-0.007321767508983612,0.0028412044048309326,-0.004603207111358643,0.9797224546844696,0.19728698421155072,0.03233883484783142,-0.013267193497318136
1681249105971225000,5.07022509765625,-0.0026754606515169144,-0.0017183348536491394,-0.000503557501360774,0.06860959529876709,-0.38583457469940186,-0.9200133085250854,-0.006094351410865784,0.0034186840057373047,0.0018461942672729492,0.979709759611024,0.19735024185306077,0.03234565594968349,-0.013252797259525441
1681249105986259000,5.085259033203125,-0.0069221374578773975,-0.007565837353467941,0.0014410829171538353,0.06853364408016205,-0.38580524921417236,-0.9200312495231628,-0.002081640064716339,0.0045642852783203125,0.005404233932495117,0.9797142796508916,0.19733392244562734,0.03230645609624357,-0.013255333265129659
1681249106001293000,5.10029296875,-0.01313710305839777,-0.007479284889996052,0.005903741344809532,0.06833476573228836,-0.38562899827957153,-0.9201198816299438,-0.0010130032896995544,0.00380823016166687,0.0072782039642333984,0.9797370452220315,0.19723758830334115,0.032208371098830936,-0.013241129259654325
1681249106016327200,5.1153271484375,-0.0265045203268528,-0.0062260013073682785,0.00857143010944128,0.06817543506622314,-0.38530975580215454,-0.9202654361724854,-0.0021506622433662415,0.0008186697959899902,0.007072746753692627,0.9797748924245615,0.19706438493104222,0.032138770958133056,-0.01318835395447905
1681249106031360300,5.1303603515625,-0.01621459797024727,-0.010220741853117943,0.006403351202607155,0.06792907416820526,-0.3849937617778778,-0.9204159379005432,-0.003842175006866455,0.005965322256088257,0.003545820713043213,0.9798139151650512,0.1968923187451894,0.032022724598307566,-0.013145385569364666
1681249106046394000,5.14539404296875,-0.003688207594677806,-0.008120574057102203,0.006125583313405514,0.06773698329925537,-0.3848404586315155,-0.9204941987991333,-0.003833189606666565,0.006407111883163452,0.003486812114715576,0.9798343977900522,0.19680763578059773,0.03193207971130138,-0.013110975588021581
1681249106061428000,5.160427978515625,-0.005643660202622414,-0.002860032021999359,0.0007563841063529253,0.06761649996042252,-0.3847725987434387,-0.9205313920974731,-0.0067034438252449036,0.00958937406539917,-0.0007178783416748047,0.9798442316532294,0.196769331785513,0.03187669005211999,-0.013081616141568246
1681249106076461000,5.1754609375,-0.01330440305173397,-0.00157186109572649,-0.003303338773548603,0.0676291361451149,-0.3846570551395416,-0.9205787777900696,-0.008455581963062286,0.006742537021636963,0.0053414106369018555,0.9798560725827109,0.19670851450612808,0.03188075377133613,-0.013095614111807692
1681249106091495000,5.190494873046875,-0.04092404618859291,0.01013166643679142,-0.005189921706914902,0.06770952045917511,-0.384291410446167,-0.9207255244255066,-0.007284738123416901,-0.0028241872787475586,0.012461483478546143,0.9798932399876888,0.1965156048014752,0.031919341322673295,-0.013114554065616697
1681249106106529000,5.205529052734375,-0.05291349068284035,0.012267788872122765,-0.008599567227065563,0.06790110468864441,-0.38363412022590637,-0.9209855198860168,-0.004638180136680603,-0.008730530738830566,0.014567732810974121,0.9799593211121518,0.19616920491258372,0.03201370606614469,-0.013143864573178548
1681249106121562000,5.22056201171875,-0.049995094537734985,0.01579621061682701,-0.008289841935038567,0.06809468567371368,-0.38286280632019043,-0.9212921261787415,-0.0014595761895179749,-0.004405379295349121,0.01929938793182373,0.9800371015620716,0.1957621997790959,0.03211067918138606,-0.013167441449724452
1681249106136596000,5.235595947265625,-0.0532715804874897,0.02752450481057167,-0.008159346878528595,0.06839630752801895,-0.38208702206611633,-0.9215918183326721,-0.0022647306323051453,0.0011359453201293945,0.022315144538879395,0.9801132273468706,0.19535409518553867,0.032262508880373936,-0.013192675873486716
1681249106151630000,5.250630126953125,-0.06333407014608383,0.04288642108440399,-0.0023110448382794857,0.06881163269281387,-0.3812381327152252,-0.921912431716919,-0.00799010694026947,0.001385718584060669,0.025702714920043945,0.9801954030409871,0.19490688193123504,0.03248237017759444,-0.013169084131735592
1681249106166663200,5.2656630859375,-0.0721602588891983,0.06128513067960739,0.0006655703764408827,0.06948545575141907,-0.3802788257598877,-0.9222579598426819,-0.010723873972892761,0.00027382373809814453,0.027543723583221436,0.9802846745885637,0.1944016253401846,0.03284836902601572,-0.013075895299464154
1681249106181697000,5.280697021484375,-0.0813889130949974,0.08195605874061584,0.0066528888419270515,0.07038247585296631,-0.3793785274028778,-0.9225606918334961,-0.016076460480690002,-0.003296792507171631,0.03411775827407837,0.9803641032998404,0.19392774590847517,0.033341730031298485,-0.012913068350275383
1681249106196731100,5.295731201171875,-0.09721160680055618,0.09603432565927505,0.0034195450134575367,0.07154610753059387,-0.3782648742198944,-0.9229283928871155,-0.014874987304210663,-0.004807174205780029,0.031235337257385254,0.9804603139133707,0.19334257599397744,0.033977065549471164,-0.012722965339104567
1681249106211765000,5.310764892578125,-0.14526249468326569,0.12590140104293823,0.017129231244325638,0.07296866178512573,-0.3767600655555725,-0.9234324097633362,-0.01580924540758133,-0.004496157169342041,0.04564011096954346,0.9805923352677984,0.19254966719234606,0.034762260011090916,-0.012447309838885822
1681249106226798000,5.325798095703125,-0.2138756364583969,0.16934049129486084,0.03788164630532265,0.0748574435710907,-0.3743327558040619,-0.9242680072784424,-0.023557402193546295,-0.015163213014602661,0.05958300828933716,0.9808112296362824,0.1912655338355193,0.03582581081235709,-0.011974789163397628
1681249106241832000,5.34083203125,-0.2868029773235321,0.22663600742816925,0.05728490650653839,0.07727085798978806,-0.3709491491317749,-0.9254328608512878,-0.034164801239967346,-0.036704808473587036,0.09532427787780762,0.9811162911910715,0.189472240548556,0.0372000565283497,-0.01128317087584101
1681249106256866000,5.355865966796875,-0.33936357498168945,0.2885797917842865,0.10282443463802338,0.08040547370910645,-0.3666577637195587,-0.9268748760223389,-0.040076516568660736,-0.04679453372955322,0.11437493562698364,0.9814952787697108,0.1871920270034589,0.039008886827381205,-0.010233867317891741
1681249106271899000,5.37089892578125,-0.382885217666626,0.3624686598777771,0.16072075068950653,0.08417820930480957,-0.36191704869270325,-0.9284018874168396,-0.04975438863039017,-0.041983217000961304,0.12942123413085938,0.9818985563189555,0.18466096931221443,0.041223518923749564,-0.00872837463721016
1681249106286933200,5.385933349609375,-0.4773625433444977,0.4194270074367523,0.24397090077400208,0.08854491263628006,-0.3562923073768616,-0.9301697015762329,-0.053617559373378754,-0.03923088312149048,0.12645882368087769,0.9823655916785801,0.181636241697098,0.04385702777964234,-0.006545065924422979
1681249106301967000,5.400967041015625,-0.6264801025390625,0.4760998785495758,0.3298109769821167,0.09328234195709229,-0.34903010725975037,-0.9324572086334229,-0.04247058928012848,-0.043059855699539185,0.14006829261779785,0.9829625027178962,0.17771511073972365,0.04678398679117235,-0.0036815410387976083
1681249106317000200,5.416000244140625,-0.8449215292930603,0.5346548557281494,0.47895199060440063,0.0983060896396637,-0.3393717110157013,-0.9355013370513916,-0.04610577970743179,-0.06759557127952576,0.16508513689041138,0.9837432156212346,0.17248157599155553,0.04999435984522927,0.0001656324267264092
1681249106332034000,5.431033935546875,-1.098824381828308,0.7225786447525024,0.6506054997444153,0.10405474156141281,-0.3266158401966095,-0.9394118785858154,-0.060628242790699005,-0.08132800459861755,0.2326858639717102,0.9847203093341034,0.16553264735564005,0.05378652097296319,0.0056623757454385215
1681249106347068200,5.446068115234375,-1.0490509271621704,0.8768646717071533,0.7850269079208374,0.1123998761177063,-0.31196069717407227,-0.9434229135513306,-0.09082396328449249,-0.058354973793029785,0.26378124952316284,0.985677764875225,0.1575113293541521,0.058980639452454894,0.012290971065804015
1681249106362102000,5.46110205078125,-0.6049612760543823,0.7543328404426575,0.98566734790802,0.1199391707777977,-0.30172619223594666,-0.9458202123641968,-0.03615318238735199,0.1412799060344696,0.14183467626571655,0.9861531962619413,0.15166522779147562,0.06393388286520167,0.020301401395204956
1681249106377135000,5.476135009765625,-0.33008599281311035,0.6456396579742432,1.028769850730896,0.12526151537895203,-0.2973290979862213,-0.94652259349823,0.06303192675113678,0.23589706420898438,0.06036841869354248,0.9861198113848303,0.14877565052995254,0.06785660178358105,0.028794921024054992
1681249106392169000,5.4911689453125,-0.4506012201309204,0.6195833086967468,1.072860598564148,0.12953072786331177,-0.2941518723964691,-0.9469406008720398,0.09419362246990204,0.09182021021842957,-0.001347362995147705,0.9859336452619055,0.14646494842720978,0.07125816620716494,0.03748651725687012
1681249106407203000,5.506203125,-0.6734129190444946,0.6784370541572571,1.0817254781723022,0.13393372297286987,-0.2881009578704834,-0.948187530040741,0.05396299064159393,-0.03631627559661865,0.015921354293823242,0.9858641869712673,0.14259183201459474,0.07465789309636892,0.04653619208545184
1681249106422236000,5.52123583984375,-0.8498409390449524,0.8123602271080017,0.9947852492332458,0.1400664746761322,-0.2795344889163971,-0.9498641490936279,-0.023977622389793396,-0.10774895548820496,0.07225489616394043,0.9858275492188233,0.1373449812462038,0.07876729999081984,0.05546427875491457
1681249106437270000,5.53627001953125,-0.9680587649345398,0.8413026332855225,0.8962069749832153,0.1481628268957138,-0.2685200870037079,-0.9518113136291504,-0.031051650643348694,-0.07010304927825928,0.044310152530670166,0.9858113609234216,0.13077300393412528,0.08362278982567366,0.06388845414103717
1681249106452304000,5.551303955078125,-1.0211409330368042,0.7746213674545288,0.7908278107643127,0.15648573637008667,-0.25601887702941895,-0.9539216756820679,0.049980923533439636,0.043662190437316895,0.05397355556488037,0.9858213041263586,0.12344121580591168,0.08832569388239324,0.0715359499733284
1681249106467337000,5.5663369140625,-0.9408829212188721,0.6533575057983398,0.7172254920005798,0.1638454645872116,-0.24366886913776398,-0.9559184908866882,0.08343842625617981,0.07255670428276062,0.04052853584289551,0.9858017025863204,0.11623972802241135,0.0923530175848367,0.07845016702212945
1681249106482370800,5.581370849609375,-0.811003565788269,0.6339142918586731,0.6508459448814392,0.17059390246868134,-0.23267097771167755,-0.9574768543243408,0.09194880723953247,0.0823870450258255,-0.016140639781951904,0.9856843183619272,0.1097841290855776,0.09596359071316114,0.08464662446930378
1681249106497405000,5.596405029296875,-0.7672763466835022,0.6761413812637329,0.5969007015228271,0.1778101623058319,-0.22321482002735138,-0.9584146738052368,0.05479477345943451,0.04694518446922302,-0.04245501756668091,0.9854119750853313,0.10410771537586236,0.09977096952696983,0.09039122394279406
1681249106512439000,5.61143896484375,-0.7917068600654602,0.6739890575408936,0.4639133810997009,0.18590709567070007,-0.21333812177181244,-0.9591274261474609,0.014944314956665039,0.019292011857032776,-0.11873811483383179,0.9851135097923617,0.0982137305758789,0.10387664094499519,0.0954727563853432
1681249106527472000,5.62647216796875,-0.8342651128768921,0.634140133857727,0.37662774324417114,0.19404049217700958,-0.202809676527977,-0.9598002433776855,0.02036072313785553,-0.008127912878990173,-0.09825938940048218,0.9848693358082536,0.09205147040212287,0.10782578565510718,0.09966234114797909
1681249106542506000,5.641506103515625,-0.7972137331962585,0.614862322807312,0.33741164207458496,0.20198537409305573,-0.19206476211547852,-0.9603713154792786,0.04464240372180939,-0.01580582559108734,-0.055452048778533936,0.9846284707507841,0.08581340958354301,0.11158138707945024,0.10340486084552936
1681249106557539800,5.656539794921875,-0.7106960415840149,0.5890318155288696,0.3040057420730591,0.20981499552726746,-0.1821257323026657,-0.9606289267539978,0.038628578186035156,-0.0026735663414001465,-0.0363498330116272,0.9843340655001723,0.0800098064329956,0.11525615205208675,0.10677513413187287
1681249106572573000,5.671572998046875,-0.6291327476501465,0.5836114883422852,0.3138860762119293,0.2174266278743744,-0.17343653738498688,-0.9605443477630615,0.014720559120178223,-0.0037181079387664795,-0.024807214736938477,0.9839618850078817,0.07484985794196702,0.11885000958655316,0.1099609709943612
1681249106587606800,5.686606689453125,-0.5030243396759033,0.5768981575965881,0.3336033225059509,0.22493019700050354,-0.166421040892601,-0.9600575566291809,-0.0006107538938522339,-0.021124839782714844,-0.031168639659881592,0.9834703705648414,0.07051188489808498,0.12247167160810216,0.11320308889418905
1681249106602641000,5.701640869140625,-0.5311553478240967,0.5898959636688232,0.31126633286476135,0.23252668976783752,-0.16054998338222504,-0.9592471122741699,-0.014112398028373718,-0.00764775276184082,-0.07313203811645508,0.9828935560929295,0.06673097336438465,0.1261880077545408,0.1163782960857368
1681249106617675000,5.716675048828125,-0.536970853805542,0.5276195406913757,0.25498253107070923,0.23987728357315063,-0.15408955514431,-0.9584963917732239,-0.009957879781723022,0.005453586578369141,-0.09115570783615112,0.9823582909879222,0.06268373441069496,0.12970181463852581,0.11924960910199389
1681249106632708000,5.7317080078125,-0.6107878088951111,0.4482128620147705,0.21774356067180634,0.24630092084407806,-0.14666251838207245,-0.9580323696136475,0.019522428512573242,-0.06012469530105591,-0.05209946632385254,0.9819283236904011,0.05822927537688064,0.13263928100439354,0.12179111770094164
1681249106647742000,5.746741943359375,-0.6276562213897705,0.4329249858856201,0.13202013075351715,0.25227704644203186,-0.13829627633094788,-0.957721471786499,0.020397484302520752,-0.05341525375843048,-0.03327584266662598,0.9815855633737798,0.05337492318673368,0.13524192682243402,0.12389711120035186
1681249106662776000,5.761776123046875,-0.5534489154815674,0.4101642668247223,0.11316628754138947,0.25808030366897583,-0.1301029771566391,-0.9573232531547546,-0.006157726049423218,-0.008919954299926758,-0.013471424579620361,0.9812768031191496,0.0486737787094504,0.13772887657638253,0.12552951713462934
1681249106677809000,5.776808837890625,-0.5128526091575623,0.4103642702102661,0.14215372502803802,0.2636755704879761,-0.12298209965229034,-0.9567395448684692,-0.022434145212173462,-0.003803268074989319,-0.009034931659698486,0.980914329256139,0.04451202170310257,0.14017451786076013,0.12718838262803067
1681249106692843000,5.791843017578125,-0.4291045069694519,0.44162288308143616,0.14497162401676178,0.26962757110595703,-0.11676598340272903,-0.9558591246604919,-0.03462699055671692,-0.014276593923568726,-0.05711084604263306,0.980469413596867,0.040767967191723785,0.14285798090747057,0.12887797311586166
1681249106707876900,5.806876953125,-0.3989025950431824,0.3807944059371948,0.13783781230449677,0.27527621388435364,-0.11148680001497269,-0.9548788666725159,-0.03159341216087341,-0.015741080045700073,-0.056336283683776855,0.980004830144355,0.0375134837948417,0.14544171909259968,0.13049904105402282
1681249106722910000,5.821909912109375,-0.4280712306499481,0.3735727071762085,0.09894580394029617,0.280432790517807,-0.10599453002214432,-0.9540034532546997,-0.008414417505264282,-0.049736760556697845,0.0011684298515319824,0.9795917554314771,0.034205600658948884,0.14774384703768376,0.1319157573599932
1681249106737943800,5.83694384765625,-0.47926709055900574,0.3923887312412262,0.11108741909265518,0.2857053577899933,-0.09998489916324615,-0.953087329864502,-0.018157780170440674,-0.05330498516559601,0.0021901726722717285,0.97916947581275,0.030626108252651437,0.1500612248164462,0.13330758968867937
1681249106752978000,5.85197802734375,-0.5380361080169678,0.4624674320220947,0.05054178088903427,0.2916785180568695,-0.0929919108748436,-0.9519853591918945,-0.030036091804504395,-0.032114990055561066,0.016820013523101807,0.9787077828743798,0.02650880121259542,0.15265843022434353,0.13462463969413405
1681249106768012000,5.867011962890625,-0.4721575677394867,0.46237048506736755,0.1079222559928894,0.29818618297576904,-0.08593502640724182,-0.9506314396858215,-0.04243367910385132,-0.04771679639816284,0.02752053737640381,0.9782035509340589,0.02233990885911939,0.15551589910836333,0.1357709103979868
1681249106783045000,5.882045166015625,-0.4107329547405243,0.5226711630821228,0.16350029408931732,0.3050113320350647,-0.08045007288455963,-0.948944628238678,-0.022815287113189697,-0.033044904470443726,-0.03050178289413452,0.9775332425298117,0.018835446073003546,0.15865975619514652,0.13748137070110408
1681249106798079000,5.897078857421875,-0.4599633812904358,0.3843318819999695,0.17155182361602783,0.3112945854663849,-0.07509355992078781,-0.9473418593406677,-0.0002899765968322754,0.002904139459133148,-0.076263427734375,0.9768699712984827,0.015407025162257237,0.1615291917448292,0.13926967853692065
1681249106813113000,5.912113037109375,-0.5153182148933411,0.25923627614974976,0.13764099776744843,0.31557348370552063,-0.06888676434755325,-0.9463973641395569,0.06037253141403198,0.002327829599380493,-0.08207553625106812,0.9763696243573665,0.011683430746104772,0.16329363180994652,0.14107123117955017
1681249106828147000,5.92714697265625,-0.5005371570587158,0.11746824532747269,0.13894595205783844,0.31830033659935,-0.06223692372441292,-0.9459447264671326,0.05756938457489014,0.001781512051820755,-0.06838327646255493,0.9760145392874422,0.007871382131152098,0.16421225941926593,0.1427169828762648
1681249106843180000,5.942179931640625,-0.561103105545044,0.20831052958965302,0.07159540802240372,0.3201693892478943,-0.05519022047519684,-0.9457513689994812,0.012197554111480713,0.022856757044792175,-0.0964086651802063,0.9757622186719838,0.003966153707453444,0.16464687613324364,0.14409679541866552
1681249106858214000,5.9572138671875,-0.48065242171287537,0.053965963423252106,0.0818919837474823,0.3216816782951355,-0.04805580899119377,-0.9456275701522827,-0.020564764738082886,0.03758819028735161,-0.18745958805084229,0.9755415893908179,0.000060322098871254916,0.16488237524181004,0.14537065314565015
1681249106873247700,5.972247802734375,-0.34435954689979553,0.054338276386260986,0.11589842289686203,0.3224725127220154,-0.0426454022526741,-0.9456177353858948,0.01752382516860962,0.01943669468164444,-0.12437433004379272,0.9753636721431141,-0.0029097114904607442,0.16487168760957377,0.14654261583506187
1681249106888280800,5.98728076171875,-0.22810687124729156,0.0594526082277298,0.11758819967508316,0.32316890358924866,-0.03919604420661926,-0.9455292224884033,-0.00020137429237365723,0.070430688560009,-0.11784052848815918,0.9751544929303013,-0.004901044979547215,0.16495866269475196,0.1477782214194803
1681249106903315000,6.00231494140625,-0.15402445197105408,0.05234064161777496,0.11831044405698776,0.3238942325115204,-0.03707486763596535,-0.9453665614128113,-0.009990453720092773,0.04520771652460098,-0.09435200691223145,0.9749468513620415,-0.006205400771773721,0.1651611285410596,0.14886898316722957
1681249106918349000,6.01734912109375,-0.13089415431022644,0.022742800414562225,0.1248152107000351,0.32435932755470276,-0.03569892793893814,-0.9452601075172424,-0.0048097968101501465,0.03777403384447098,-0.06595510244369507,0.9747571622765882,-0.007111119982992512,0.16528578151884687,0.1499286763239744
1681249106933382100,6.032382080078125,-0.13559569418430328,0.029826009646058083,0.11842495948076248,0.324637234210968,-0.03440461680293083,-0.9452126622200012,-0.0004795491695404053,0.00934959203004837,-0.0029684901237487793,0.974582774026063,-0.00795978560601459,0.16531880341437616,0.15097967321081096
1681249106948416000,6.047416015625,-0.12626983225345612,0.06383457779884338,0.11232233047485352,0.3251756429672241,-0.03311542421579361,-0.945073664188385,-0.006862044334411621,-0.009487200528383255,0.01646953821182251,0.9743927523296215,-0.00881738871482574,0.16548544000605608,0.15197296297070734
1681249106963449900,6.062449951171875,-0.09778796881437302,0.055296480655670166,0.0910242348909378,0.3261251747608185,-0.0319158174097538,-0.9447876811027527,-0.01052767038345337,-0.015432290732860565,0.025750815868377686,0.9741866606577404,-0.009639524757240656,0.16587115794821558,0.15282105890580197
1681249106978484000,6.07748388671875,-0.04800831899046898,-0.005077646113932133,0.0653710663318634,0.3264741897583008,-0.03122124820947647,-0.9446903467178345,-0.0015993118286132812,-0.0017073079943656921,0.017459511756896973,0.9740548482632496,-0.010131536390941068,0.16598849397731832,0.15350037790122167
1681249106993516800,6.092516845703125,0.012102952226996422,-0.04408097267150879,0.028651662170886993,0.32607924938201904,-0.031144428998231888,-0.9448292851448059,0.02833661437034607,0.019105156883597374,0.017415344715118408,0.9740344875362839,-0.010198011065374006,0.1657750382692167,0.15385566420777888
1681249107008551000,6.107551025390625,0.053129054605960846,-0.04986269772052765,0.016766775399446487,0.32530641555786133,-0.031713224947452545,-0.9450767040252686,0.029490947723388672,0.028279908001422882,0.006844282150268555,0.9740797758816405,-0.009869249711986399,0.16542138967127407,0.15397071311149646
1681249107023584800,6.122584716796875,0.0999964252114296,-0.03498946875333786,0.006377518177032471,0.32468268275260925,-0.032868195325136185,-0.9452517032623291,0.00948476791381836,0.027451232075691223,-0.011230230331420898,0.9741233681225024,-0.00924128147119267,0.16519302283279336,0.15397893293057907
1681249107038619100,6.137619140625,0.13631528615951538,-0.01562402956187725,0.006883785128593445,0.32435178756713867,-0.03464776650071144,-0.9453017711639404,-0.0015826225280761719,0.01912948489189148,-0.01526951789855957,0.9741527646063808,-0.008305825274892422,0.1651669417026084,0.15387477811972014
1681249107053652000,6.15265185546875,0.15471214056015015,-0.019159909337759018,-0.004345167428255081,0.32423466444015503,-0.03674735873937607,-0.9452626705169678,-0.00849980115890503,0.022510819137096405,-0.015781641006469727,0.9741664557530253,-0.007219905177394132,0.16527715186092187,0.1537240240653447
1681249107068686000,6.16768603515625,0.1556420624256134,-0.01904432848095894,-0.013542394153773785,0.32416772842407227,-0.038725025951862335,-0.9452067017555237,-0.007273226976394653,0.01858333870768547,-0.01582235097885132,0.9741990213395741,-0.006174251523746263,0.1654041626431142,0.15342699537982443
1681249107083720000,6.182719970703125,0.14195042848587036,-0.0030491165816783905,-0.016143236309289932,0.32471051812171936,-0.03990509733557701,-0.9449712634086609,-0.00928083062171936,0.002795632928609848,-0.01921635866165161,0.9741975524934624,-0.005564127731542278,0.16578121633513987,0.15305176957527944
1681249107098753000,6.1977529296875,0.11471790075302124,0.02336118556559086,-0.01756403222680092,0.3250584900379181,-0.04110025614500046,-0.9448003768920898,-0.01149037480354309,-0.004737235605716705,-0.016839027404785156,0.9742047041510575,-0.00493890264443615,0.16605846291481474,0.15272711408482603
1681249107113787000,6.212786865234375,0.09058220684528351,0.027436887845396996,-0.016351763159036636,0.325452983379364,-0.04167893901467323,-0.9446392059326172,-0.014448344707489014,-0.01992088183760643,-0.0046100616455078125,0.9742112280736253,-0.0046290623013557994,0.16630984723599723,0.1524212501617129
1681249107128821000,6.227821044921875,0.08527356386184692,0.010576414875686169,-0.014783427119255066,0.3256514370441437,-0.04252946376800537,-0.9445329308509827,-0.010267555713653564,-0.024471964687108994,0.000761568546295166,0.9742235797690446,-0.004176079338667124,0.16648155083029792,0.1521680178240263
1681249107143854800,6.242854736328125,0.06607138365507126,-0.03981804847717285,-0.012114672921597958,0.32526981830596924,-0.04303348809480667,-0.9446415305137634,0.006303638219833374,-0.01104375347495079,0.0008549094200134277,0.9742874271007509,-0.003853486448089845,0.16632609956330097,0.15193735939895325
1681249107158888000,6.257887939453125,0.029385963454842567,-0.06691145151853561,-0.006424829829484224,0.32436403632164,-0.04355543479323387,-0.9449290633201599,0.012138009071350098,-0.0013512708246707916,0.008832871913909912,0.9743826573670499,-0.0034956061795293307,0.1659013419420959,0.1517997106613595
1681249107173922000,6.272922119140625,-0.017457975074648857,-0.049458689987659454,-0.0003706656862050295,0.32322391867637634,-0.043594446033239365,-0.9453178644180298,0.0043364763259887695,-0.0182952918112278,0.002202630043029785,0.9744876827028078,-0.0033783694295696884,0.16531685575205932,0.1517655472274133
1681249107188956000,6.287955810546875,-0.0379636250436306,-0.013884985819458961,0.0014288323000073433,0.3226662874221802,-0.04330281913280487,-0.9455217123031616,-0.008304744958877563,-0.029283329844474792,0.004817366600036621,0.9745326937165276,-0.003487345084683076,0.1650059802964924,0.15181232643653245
1681249107203989000,6.302989013671875,-0.0324997752904892,0.00059515330940485,0.0008312189020216465,0.32242855429649353,-0.04325263947248459,-0.9456050992012024,-0.016688227653503418,-0.016531385481357574,-0.0010196566581726074,0.9745372548429189,-0.003511569951119124,0.1648790791452885,0.1519202778231776
1681249107219023000,6.318023193359375,-0.016988566145300865,-0.002336720936000347,0.0005284175276756287,0.3224245607852936,-0.04316733032464981,-0.9456104040145874,-0.011862486600875854,-0.00033555924892425537,-0.0025249719619750977,0.9745282967607998,-0.0035651334854353415,0.16486995018063264,0.1519863942532284
1681249107234057000,6.333056884765625,0.0003595310263335705,-0.007034802809357643,-0.0017624336760491133,0.3225676119327545,-0.043180909007787704,-0.9455609917640686,-0.003430098295211792,0.01215970516204834,-0.011973798274993896,0.9745136168901671,-0.003571992496677049,0.16494471528063975,0.15199887093949888
1681249107249090800,6.3480908203125,0.02162385918200016,0.012906414456665516,-0.005960906855762005,0.3227282464504242,-0.04338306188583374,-0.9454969167709351,-0.003544926643371582,0.009355872869491577,-0.011671662330627441,0.9745047796849617,-0.003475622245885007,0.16504383108874154,0.15195079747286158
1681249107264124000,6.3631240234375,0.028059493750333786,0.029529333114624023,-0.008439777418971062,0.3230283558368683,-0.04425973445177078,-0.9453538060188293,-0.008575260639190674,0.01137695461511612,-0.007740676403045654,0.974477470102282,-0.0030507301861113726,0.16526888004549356,0.1518902699512662
1681249107279157800,6.37815771484375,0.02058757096529007,0.019317973405122757,-0.009000904858112335,0.32328930497169495,-0.044893354177474976,-0.9452347159385681,-0.008027493953704834,0.008562084287405014,-0.006028711795806885,0.9744565885377412,-0.0027441220924651157,0.16545428908344345,0.1518286668332303
1681249107294191900,6.39319189453125,-0.0017566168680787086,-0.0005369558930397034,-0.0031699142418801785,0.3231857419013977,-0.04516388103365898,-0.9452572464942932,0.0017806589603424072,-0.00438150018453598,0.007940292358398438,0.9744684170216265,-0.0025937114955717215,0.16542267939452826,0.1517895311761627
1681249107309225000,6.408224853515625,-0.03560422360897064,-0.014366485178470612,0.001742019783705473,0.3230117857456207,-0.044756993651390076,-0.9453360438346863,0.0038772225379943848,-0.010830864310264587,0.00823277235031128,0.9744878221448355,-0.0027843278843650136,0.16530042470943374,0.1517950741493026
1681249107324259000,6.423259033203125,-0.06607744097709656,-0.019311709329485893,0.006857153028249741,0.3226257562637329,-0.04377256706357002,-0.9455139636993408,0.0023253560066223145,-0.03011058270931244,0.01085209846496582,0.9745210033901961,-0.003259565046109424,0.1650224410022009,0.15187508536928176
1681249107339293000,6.43829296875,-0.08200133591890335,-0.015047721564769745,0.007953576743602753,0.32229530811309814,-0.042634252458810806,-0.9456786513328552,-0.0013724565505981445,-0.030394401401281357,0.006332337856292725,0.9745417244105855,-0.0038259719593014252,0.1647605705557463,0.15201267628934456
1681249107354327800,6.453327880859375,-0.08446049690246582,-0.010983206331729889,0.010095557197928429,0.3219478726387024,-0.04131969064474106,-0.9458553194999695,-0.0024135708808898926,-0.009629495441913605,-0.0005405545234680176,0.9745615198347087,-0.0044834662665114025,0.16447566426854693,0.15217606480534923
1681249107369361000,6.46836083984375,-0.0695357695221901,-0.012597613036632538,0.007334657944738865,0.3217354118824005,-0.04024802893400192,-0.945973813533783,-0.0016365647315979004,0.001811046153306961,-0.003458559513092041,0.9745664490584306,-0.005030156955481009,0.1642796348895952,0.15233925589334715
1681249107384395000,6.48339501953125,-0.03865641728043556,-0.003755653277039528,0.0014943461865186691,0.32171913981437683,-0.03977563604712486,-0.9459993243217468,-0.0018949508666992188,0.005809478461742401,-0.0015104413032531738,0.9745544571386624,-0.005285221329887737,0.16423279717709582,0.15245769156972094
1681249107399428900,6.498428955078125,-0.007437192369252443,0.004108661785721779,-0.0015810724580660462,0.3217925727367401,-0.039745453745126724,-0.9459756016731262,-0.0033416450023651123,0.008876830339431763,-0.0005576014518737793,0.9745398283755049,-0.005315511275923199,0.1642678907166237,0.15251248488885233
1681249107414462700,6.513462646484375,-0.0009774290956556797,-0.0018451008945703506,-0.002487612422555685,0.3218706250190735,-0.04040348902344704,-0.9459211826324463,-0.002321094274520874,0.017210036516189575,0.002638101577758789,0.9745194866829292,-0.004999305243606444,0.16436064912517634,0.15255272007421053
1681249107429495800,6.528495849609375,-0.01576191373169422,-0.0035641714930534363,-0.004760886542499065,0.32183313369750977,-0.04053730145096779,-0.9459282159805298,-0.0003151893615722656,0.011270850896835327,0.007680535316467285,0.97452119515869,-0.004929535217301431,0.16435203193007084,0.15255416743984038
1681249107444529700,6.54352978515625,-0.036087531596422195,0.004148609470576048,-0.004107613116502762,0.32177630066871643,-0.04023974388837814,-0.945960283279419,-0.0027608275413513184,-0.014157924801111221,0.004172563552856445,0.9745301339594014,-0.0050730770628895205,0.16429892324893208,0.15254962306433717
1681249107459563800,6.558563720703125,-0.05507566034793854,-0.000038945116102695465,-0.0017938589444383979,0.3218010365962982,-0.03951315954327583,-0.9459824562072754,-0.0024346113204956055,-0.02088122069835663,-0.0006880760192871094,0.9745332670647638,-0.005441413316369328,0.16425334697863977,0.1525656419914563
1681249107474596900,6.573596923828125,-0.05937693268060684,-0.007352784276008606,0.001522841863334179,0.32169583439826965,-0.03849886357784271,-0.946060061454773,-0.0008950531482696533,-0.01022253930568695,-0.005188107490539551,0.974543687072024,-0.005950727697321667,0.16411749833749562,0.1526264808831785
1681249107489631000,6.588630859375,-0.05914028361439705,-0.001486639492213726,0.001088213874027133,0.3215853273868561,-0.037497472018003464,-0.9461378455162048,0.0002377629280090332,-0.010613583028316498,-0.003218233585357666,0.9745522026082286,-0.006455112991279016,0.16397990509798663,0.15269908249770467
1681249107504664800,6.603664794921875,-0.052987419068813324,0.001145628746598959,-0.0011616245610639453,0.32161614298820496,-0.036492969840765,-0.9461666345596313,-0.0034093856811523438,-0.002905316650867462,-0.0033115148544311523,0.9745506123765969,-0.0069699615146379375,0.16391490125084418,0.15275649145578538
1681249107519699000,6.618698974609375,-0.03946889191865921,-0.009396227076649666,-0.002666310640051961,0.32158392667770386,-0.03587571531534195,-0.9462012052536011,-0.0030719637870788574,0.002016376703977585,-0.0004845857620239258,0.9745518119314867,-0.007284445367398311,0.1638485042528491,0.1528053477117322
1681249107534731800,6.633731689453125,-0.02648385427892208,-0.023596202954649925,-0.0029866888653486967,0.32131263613700867,-0.03579002246260643,-0.9462966322898865,-0.000496596097946167,0.008934460580348969,0.0038222670555114746,0.9745670386068667,-0.0073151956422424745,0.16370149564700404,0.15286457758889288
1681249107549766000,6.648765869140625,-0.032857973128557205,-0.01851249486207962,-0.0004268584307283163,0.3209799528121948,-0.03556840866804123,-0.9464178681373596,0.0027810335159301758,0.006942830979824066,0.002539694309234619,0.974591942914283,-0.0074055332842120234,0.16351216736951216,0.1529034706328544
1681249107564799700,6.6637998046875,-0.05113529786467552,-0.01562402956187725,0.0015129880048334599,0.32073062658309937,-0.03523721545934677,-0.9465147852897644,-0.0015472769737243652,-0.000010676681995391846,0.0017821192741394043,0.9746045311455713,-0.007564149436499866,0.1633566472820986,0.15298221541348322
1681249107579832800,6.678832763671875,-0.057983722537755966,-0.01676625944674015,0.0016575977206230164,0.3204845190048218,-0.03455963730812073,-0.9466230869293213,-0.001865774393081665,-0.011659324169158936,0.001981973648071289,0.9746179366236688,-0.00789840083468625,0.16317494685348255,0.15307338172068366
1681249107594866700,6.69386669921875,-0.052745819091796875,-0.012892158702015877,0.0016408199444413185,0.3202337920665741,-0.03381907939910889,-0.9467347264289856,-0.0022711753845214844,-0.018030375242233276,-0.0002257227897644043,0.9746317943750601,-0.008264216884788388,0.16298573963365148,0.15316743588579743
1681249107609900800,6.70890087890625,-0.05061326548457146,-0.005612675100564957,0.010379184037446976,0.3201580047607422,-0.03308882191777229,-0.9467861652374268,-0.0016918480396270752,-0.0075149014592170715,-0.0002505779266357422,0.9746305387753321,-0.008638765866097745,0.16288739307011843,0.1532593531284724
1681249107624935000,6.723934814453125,-0.04168693721294403,-0.019988683983683586,-0.004576862324029207,0.3199771046638489,-0.032342519611120224,-0.9468730688095093,0.000564277172088623,0.011376850306987762,0.004078269004821777,0.974648429050519,-0.009002069052625203,0.1627342089505642,0.15328744961200366
1681249107639968000,6.738968017578125,-0.042860161513090134,-0.02981654740869999,-0.0012511067325249314,0.3196636438369751,-0.0317356213927269,-0.9469994902610779,0.0020373761653900146,0.005826108157634735,0.003014504909515381,0.9746739117631582,-0.009287544308213248,0.16252383616661126,0.1533322038948116
1681249107655001900,6.754001953125,-0.03967449069023132,-0.05507742613554001,0.005232625640928745,0.31907281279563904,-0.0313546322286129,-0.9472113847732544,0.004474520683288574,-0.0009025372564792633,-0.0023430585861206055,0.9747169165379609,-0.009441810093023785,0.1621886288131666,0.153404149064951
1681249107670035700,6.76903564453125,-0.02856772392988205,-0.0774058997631073,0.00854373350739479,0.31810808181762695,-0.031138265505433083,-0.9475429654121399,0.00794169306755066,0.00037645362317562103,0.0006893277168273926,0.9747851102467056,-0.00948883781793897,0.1616739975439283,0.15351083867595694
1681249107685069800,6.78406982421875,-0.02517842687666416,-0.04231822490692139,0.055255576968193054,0.3170756995677948,-0.03116031177341938,-0.947888195514679,0.0054340362548828125,0.003953797742724419,0.005017101764678955,0.974839901197951,-0.009428790729115464,0.16114278042702393,0.15372526667825473
1681249107700089600,6.799089599609375,-0.03447472304105759,-0.09419926255941391,0.014898567460477352,0.3158901631832123,-0.030859965831041336,-0.9482937455177307,0.005902469158172607,0.004447000101208687,0.004476606845855713,0.9869886802029598,0.015633394022279687,0.16002725168523838,4.069696519153129e-17
1681249119982641400,19.081641357421876,-0.028971459716558456,-0.002339649945497513,0.026909666135907173,0.2370404601097107,-0.19388382136821747,-0.9519563317298889,0.00046262145042419434,-0.01543620228767395,-0.014001250267028809,0.9853760785443899,0.10647263802801443,0.11262951616299975,-0.0707956291787196
1681249119997674500,19.096674560546877,0.005068585276603699,-0.0019204681739211082,0.04213762283325195,0.23707343637943268,-0.19423964619636536,-0.9518755674362183,0.005632907152175903,0.0015669465065002441,-0.016294538974761963,0.9853750514975887,0.10662492967391107,0.112664665109842,-0.07052542330341889
1681249120012708600,19.11170849609375,-0.002134252805262804,0.013525333255529404,0.04794410988688469,0.23760764300823212,-0.19477036595344543,-0.9516339302062988,-0.012479424476623535,-0.0035633593797683716,-0.007869243621826172,0.9853378674151513,0.10688050972187171,0.11295839042609176,-0.07018720826386961
1681249120027742700,19.12674267578125,-0.04374529421329498,0.01031249575316906,0.040156494826078415,0.23771874606609344,-0.19461925327777863,-0.9516370892524719,-0.017915859818458557,-0.009222880005836487,-0.0029526948928833008,0.9853638384496246,0.10676735546546626,0.11305835958558874,-0.06983178468982251
1681249120042775600,19.141775634765626,-0.08085910975933075,0.00889542791992426,0.027946434915065765,0.23736168444156647,-0.19391348958015442,-0.9518702626228333,-0.009303778409957886,-0.012812554836273193,0.002819359302520752,0.9854465358032062,0.10635332389507583,0.11293291446642453,-0.06949938430576268
1681249120057809700,19.1568095703125,-0.08801741898059845,0.009854964911937714,0.024578068405389786,0.2373514473438263,-0.1929168999195099,-0.9520753026008606,-0.011063560843467712,-0.016876161098480225,0.0029481053352355957,0.9855191205917798,0.10581030991296114,0.11298909742291564,-0.06920695851856266
1681249120072843500,19.171843505859375,-0.0671270489692688,0.005711086094379425,0.021819300949573517,0.23738250136375427,-0.19192934036254883,-0.9522671103477478,-0.004869028925895691,-0.004359707236289978,0.00037807226181030273,0.985585395832073,0.10527837872572195,0.11306151024765812,-0.06895506982032519
1681249120087876600,19.186876708984375,-0.032683055847883224,0.002461763098835945,0.021095186471939087,0.2373667061328888,-0.1912698745727539,-0.952403724193573,-0.0033273696899414062,0.004471823573112488,0.0023763179779052734,0.9856335510906915,0.1049188657495721,0.11309361089877282,-0.06876263180586888
1681249120102876700,19.201876708984376,-0.01912090554833412,0.0173626821488142,0.021542863920331,0.23712551593780518,-0.19119302928447723,-0.9524792432785034,-0.004413709044456482,0.005676671862602234,0.007182002067565918,0.9880483825380797,0.09675287129349854,0.11999691185429351,3.8768975928515144e-17
1681249120117910500,19.21691064453125,-0.017461171373724937,0.024732980877161026,0.016455160453915596,0.23726508021354675,-0.19112375378608704,-0.952458381652832,-0.006018131971359253,0.0011212974786758423,0.011174201965332031,0.9880430401816065,0.09669494537265554,0.12008702029685635,0.0001924063384254866
1681249120132943600,19.231943603515624,-0.023582659661769867,0.03192990645766258,0.015423186123371124,0.2374478280544281,-0.1913040578365326,-0.952376663684845,-0.007680982351303101,-0.006251484155654907,0.01457148790359497,0.988022401107419,0.0967650415034329,0.1202006659052693,0.0003827215879496946
1681249120147977500,19.2469775390625,-0.04624781012535095,0.026690669357776642,0.013720892369747162,0.23775088787078857,-0.19100753962993622,-0.9523605704307556,-0.004260897636413574,-0.0035725384950637817,0.007353246212005615,0.988018260105214,0.09659283522318825,0.12037251252915356,0.0005672895169936043
1681249120163011800,19.26201171875,-0.056189656257629395,0.017639383673667908,0.016264745965600014,0.23794929683208466,-0.1903112232685089,-0.9524503946304321,0.005016401410102844,0.00009515881538391113,-0.004870772361755371,0.9880407758769849,0.09621765034280719,0.1204863635794497,0.0007357824701304725
1681249120178045700,19.277045654296874,-0.04753230884671211,0.02126261591911316,0.025998065248131752,0.23814763128757477,-0.18956561386585236,-0.9525495171546936,0.005199536681175232,-0.002649351954460144,-0.0052294135093688965,0.988065689592187,0.09581192597884793,0.12060397000159444,0.0009480025492117288
1681249120193078800,19.292078857421874,-0.01757749728858471,0.02649572677910328,0.027771199122071266,0.2383602112531662,-0.18920005857944489,-0.9525690078735352,0.0032932311296463013,0.0020052343606948853,-0.0005102157592773438,0.9880703527968046,0.09559567702857706,0.12073506837874956,0.0011991402206350567
1681249120208112600,19.307112548828126,-0.0011918134987354279,0.02673834003508091,0.028370143845677376,0.2385822981595993,-0.18920953571796417,-0.9525115489959717,0.003605201840400696,0.003693193197250366,0.0028655529022216797,0.988055475781811,0.0955727913074127,0.12087213470766967,0.0014358284453021603
1681249120223146800,19.322146728515627,-0.0005939339171163738,0.03484899550676346,0.03488876298069954,0.2388933300971985,-0.1894797384738922,-0.9523798823356628,0.004667460918426514,-0.002857297658920288,0.003740966320037842,0.9880217624899058,0.09567910962304038,0.12106021457402819,0.001708443745932082
1681249120238179600,19.3371796875,-0.007256363984197378,0.02318967878818512,0.03499821946024895,0.23919251561164856,-0.18957291543483734,-0.9522862434387207,0.0031933486461639404,-0.0016502290964126587,0.003128528594970703,0.9879975440565725,0.0956915372997848,0.12124362623306208,0.002007966657157923
1681249120253213700,19.352213623046875,-0.04559203237295151,0.02289806306362152,0.02369922585785389,0.23947086930274963,-0.1892852932214737,-0.9522734880447388,0.008576005697250366,-0.0027313232421875,0.0016356706619262695,0.9879937531761219,0.09551538308021035,0.12140869379672573,0.0022571832491391805
1681249120268247600,19.36724755859375,-0.07459013164043427,0.023356925696134567,0.0272460225969553,0.23972533643245697,-0.18851366639137268,-0.9523625373840332,0.005300313234329224,-0.007653325796127319,0.003143787384033203,0.9880156674920582,0.09509108362633295,0.12155832886038614,0.002511995590710661
1681249120283280600,19.38228076171875,-0.09478993713855743,0.029542116448283195,0.031858351081609726,0.2400285303592682,-0.18734751641750336,-0.9525162577629089,0.0030439794063568115,-0.013946428894996643,0.0038010478019714355,0.988053709613241,0.09445797399777113,0.12173563579971645,0.0028275114413918788
1681249120298314800,19.397314697265625,-0.0813639909029007,0.026485607028007507,0.035635512322187424,0.24038276076316833,-0.18621404469013214,-0.9526491761207581,0.004215642809867859,-0.011433050036430359,0.0036440491676330566,0.9880862912261741,0.09383737529256604,0.12194243050347321,0.0031785546212467217
1681249120313348900,19.412348876953125,-0.04306139424443245,0.03293205425143242,0.042737364768981934,0.24076570570468903,-0.18557599186897278,-0.9526769518852234,0.006060466170310974,-0.008836224675178528,0.012018442153930664,0.9880920249510509,0.09346861766424197,0.12216844943631709,0.003539384636777779
1681249120328381700,19.427381591796873,-0.012023582123219967,0.02560543082654476,0.06162610277533531,0.241086944937706,-0.18547041714191437,-0.952616274356842,0.0049152374267578125,-0.0010835230350494385,0.011973023414611816,0.9880750372453271,0.09336160565514343,0.12237427516153021,0.0039790733482866466
1681249120343415800,19.442415771484374,-0.029318416491150856,0.028023315593600273,0.06547995656728745,0.24138055741786957,-0.1856107860803604,-0.9525145888328552,0.004133343696594238,0.0061674416065216064,0.0108642578125,0.988047101716172,0.09336997378298842,0.1225754729474401,0.004498935848165665
1681249120358449700,19.45744970703125,-0.0706728845834732,0.029645446687936783,0.07099190354347229,0.2416384369134903,-0.18532274663448334,-0.9525052905082703,0.0012967437505722046,-0.0033979564905166626,0.010656535625457764,0.9880420118683786,0.09315309423897182,0.1227593167158327,0.005068503051909333
1681249120373482200,19.472482177734374,-0.10011253505945206,0.03394938260316849,0.07916807383298874,0.24193386733531952,-0.18462489545345306,-0.9525658488273621,-0.002523466944694519,-0.013617292046546936,-0.0007575154304504395,0.9880535963669093,0.09271252214612169,0.12296939875198126,0.005753526370986228
1681249120388516000,19.48751611328125,-0.11215407401323318,0.04191382974386215,0.08032628148794174,0.24230103194713593,-0.18348166346549988,-0.9526934027671814,-0.0035162419080734253,-0.011632472276687622,-0.0012403130531311035,0.9880813094629903,0.09203932749803923,0.1232155398639737,0.006480429523109307
1681249120403550200,19.50255029296875,-0.10406818240880966,0.037180863320827484,0.08584834635257721,0.2427424192428589,-0.18240594863891602,-0.9527875781059265,-0.004033923149108887,-0.009305477142333984,0.004240214824676514,0.988099934888863,0.0913968483261463,0.12350230798823812,0.00723672714416099
1681249120418583000,19.5175830078125,-0.09552609175443649,0.040674127638339996,0.09305912256240845,0.24313177168369293,-0.18128561973571777,-0.9529021382331848,-0.006620541214942932,-0.0057566165924072266,0.012258827686309814,0.9881227809940233,0.0907268843495651,0.12376416911788636,0.00802746009534118
1681249120433617200,19.5326171875,-0.09685878455638885,0.04001792520284653,0.09392544627189636,0.24349525570869446,-0.1803179681301117,-0.9529929161071777,-0.001063615083694458,0.0023394525051116943,0.009648799896240234,0.9881386214989248,0.0901291925745904,0.12401722773171513,0.008860473158788462
1681249120448651000,19.547651123046876,-0.09176267683506012,0.04431760311126709,0.0970112532377243,0.2438591718673706,-0.17947621643543243,-0.9530587792396545,-0.0044487714767456055,0.000017598271369934082,0.010080873966217041,0.9881474553333675,0.08959508500466824,0.12427124600989119,0.00969617268480006
1681249120463684000,19.56268408203125,-0.09932791441679001,0.036814942955970764,0.10040358453989029,0.24408981204032898,-0.1788250058889389,-0.9531221389770508,-0.0059916675090789795,0.010261163115501404,0.0013551712036132812,0.9881543711485805,0.0891522127866531,0.12446214152129659,0.01057636047034266
1681249120478718000,19.577718017578125,-0.14143452048301697,0.03678911179304123,0.0893876850605011,0.2443176805973053,-0.17757029831409454,-0.9532982707023621,-0.002023369073867798,0.009433701634407043,0.003896474838256836,0.9881893914160271,0.08840377697158099,0.12464197555223028,0.011436575509040982
1681249120493752000,19.592751953125,-0.185597226023674,0.047064654529094696,0.09237895160913467,0.24458903074264526,-0.1757439821958542,-0.9535671472549438,-0.006567180156707764,-0.016638830304145813,0.018737435340881348,0.9882470837610526,0.08736316985676194,0.12483635050507637,0.012300853016514644
1681249120508785000,19.607784912109373,-0.16711291670799255,0.06288063526153564,0.10156632214784622,0.24508196115493774,-0.17353224754333496,-0.9538455605506897,-0.007762029767036438,-0.019491419196128845,0.024020791053771973,0.988305529156903,0.08611781346578937,0.12514364137985765,0.013228090626763568
1681249120523819300,19.6228193359375,-0.12827017903327942,0.08231478184461594,0.11502354592084885,0.24580828845500946,-0.17195171117782593,-0.9539449214935303,-0.01196734607219696,-0.0035701394081115723,0.026607275009155273,0.9883169334914749,0.08518521211096958,0.1255827235017795,0.01422064208812026
1681249120538853000,19.63785302734375,-0.09920854866504669,0.08458433300256729,0.12498483061790466,0.24662241339683533,-0.1708672046661377,-0.9539296627044678,-0.008219093084335327,0.011016130447387695,0.018062353134155273,0.9882971593891455,0.08449554797801338,0.12607805240752498,0.01528330565423885
1681249120553886200,19.65288623046875,-0.13487493991851807,0.09623779356479645,0.12021803855895996,0.24751800298690796,-0.16967667639255524,-0.9539101719856262,0.0008798092603683472,0.004591837525367737,0.009086012840270996,0.988275089811709,0.08374992776780782,0.1266130013193042,0.016351938574464295
1681249120568920000,19.667920166015627,-0.1865917146205902,0.11197121441364288,0.12215442210435867,0.2486986368894577,-0.1679019182920456,-0.9539171457290649,-0.0030779093503952026,-0.010168150067329407,0.009428620338439941,0.9882578198290439,0.08269838326776473,0.12728864573897092,0.017469258527488412
1681249120583954200,19.6829541015625,-0.20992685854434967,0.12630514800548553,0.13216817378997803,0.2500286400318146,-0.1658778190612793,-0.9539235830307007,-0.007886916399002075,-0.026703357696533203,0.025517821311950684,0.9882368420172947,0.08150365665376669,0.1280443686843832,0.018696615492118693
1681249120598987000,19.697987060546875,-0.2193566858768463,0.1466658115386963,0.16752243041992188,0.25160256028175354,-0.1634833812713623,-0.9539231061935425,-0.009262502193450928,-0.024276003241539,0.033131539821624756,0.988209106551104,0.08009369332343215,0.12893190770816423,0.02010654471810918
1681249120614021000,19.713021240234376,-0.2349393218755722,0.14022016525268555,0.19653411209583282,0.2531057298183441,-0.16102789342403412,-0.953943133354187,-0.002846330404281616,0.0014057010412216187,0.03061854839324951,0.9881785214397049,0.07861521487688007,0.12980015806217116,0.02178795968224432
1681249120629055000,19.728054931640624,-0.27447763085365295,0.15011833608150482,0.20435528457164764,0.2546687722206116,-0.15815095603466034,-0.9540084004402161,0.004318654537200928,-0.0016390830278396606,0.03106534481048584,0.9881529896999014,0.07689959551767803,0.1306990340513409,0.023618466739651744
1681249120644089300,19.74308935546875,-0.3566209673881531,0.1721285581588745,0.20295526087284088,0.2564450800418854,-0.15455831587314606,-0.9541214108467102,-0.003469616174697876,-0.006971225142478943,0.027531445026397705,0.9881332362246351,0.07480078949046297,0.13169717212312174,0.025558749619782023
1681249120659122200,19.7581220703125,-0.42919203639030457,0.18764786422252655,0.18643353879451752,0.2585875988006592,-0.1496349275112152,-0.9543279409408569,-0.00870966911315918,-0.004188910126686096,0.02149718999862671,0.988133194970102,0.07201736250855426,0.13285149610195487,0.02750977210457421
1681249120674156300,19.77315625,-0.44636964797973633,0.19316114485263824,0.1575254648923874,0.2609328627586365,-0.14395593106746674,-0.9545630812644958,-0.007377594709396362,0.0023086071014404297,0.026020050048828125,0.9881404157061886,0.06886262720561889,0.13407604314406812,0.0293267901824076
1681249120689190100,19.788190185546874,-0.4002096652984619,0.197027787566185,0.14739826321601868,0.2634420394897461,-0.138421893119812,-0.9546924233436584,-0.012160331010818481,0.009103655815124512,0.024638772010803223,0.9881228005089142,0.0657993424826588,0.13536698867275584,0.030975899396835326
1681249120704223200,19.80322314453125,-0.33544397354125977,0.20327769219875336,0.1219211295247078,0.26604777574539185,-0.1336749792098999,-0.9546463489532471,-0.008982926607131958,0.025505423545837402,0.0020859241485595703,0.9880631197713193,0.06315193608544488,0.13670651868804304,0.03247387467178124
1681249120719257000,19.818257080078126,-0.2718161344528198,0.20401005446910858,0.10099401324987411,0.2687661945819855,-0.12979784607887268,-0.9544198513031006,-0.012128621339797974,0.02095690369606018,0.004438161849975586,0.9879652862318389,0.06098123306244804,0.13809910942912168,0.033682918941026124
1681249120734291200,19.833291259765623,-0.27828022837638855,0.22464023530483246,0.09592095762491226,0.2716192305088043,-0.12631839513778687,-0.9540789723396301,-0.014005094766616821,0.016180455684661865,0.021812736988067627,0.9878410637139574,0.059023196232532264,0.13955923857185504,0.034778506348825
1681249120749324000,19.848323974609375,-0.2724943161010742,0.2546210289001465,0.10878961533308029,0.2748343348503113,-0.12269576638936996,-0.9536308646202087,-0.02347630262374878,0.004119716584682465,0.03346484899520874,0.9876870902583131,0.056978784212740725,0.1412019282134896,0.03591079324960624
1681249120764358100,19.863358154296876,-0.22606661915779114,0.2780190110206604,0.1613212674856186,0.2784588932991028,-0.11959299445152283,-0.9529733061790466,-0.03039678931236267,-0.013646751642227173,0.008103370666503906,0.9874691389463703,0.05515066525132001,0.14307949669624234,0.037300361181345824
1681249120779392000,19.87839208984375,-0.1745298206806183,0.23502177000045776,0.17855803668498993,0.28188300132751465,-0.1174960732460022,-0.9522271752357483,-0.01642584800720215,0.016238749027252197,-0.011624753475189209,0.9872180540401589,0.05379796988029064,0.14488677699550362,0.0389111265906927
1681249120794425000,19.893425048828124,-0.18695247173309326,0.22948293387889862,0.1591380089521408,0.28507959842681885,-0.11562559008598328,-0.9515042304992676,0.015854209661483765,0.007578112185001373,-0.016818463802337646,0.9869733283938888,0.05256950559676825,0.14657531361268977,0.04044403173784611
1681249120809459200,19.908459228515625,-0.1589009016752243,0.1678222268819809,0.1718151867389679,0.2876323163509369,-0.11390584707260132,-0.9509432911872864,0.01508679986000061,-0.006196081638336182,-0.03129547834396362,0.986768236606187,0.05142721115760644,0.14793107823416268,0.041953218722705445
1681249120824493000,19.9234931640625,-0.15521828830242157,0.1727972775697708,0.1368665248155594,0.2897642254829407,-0.11235573887825012,-0.9504803419113159,0.017212092876434326,0.015553981065750122,-0.024907231330871582,0.9865906437946583,0.0503918330358499,0.1490653950567547,0.04334848790759677
1681249120839526100,19.938526123046874,-0.12882748246192932,0.15169891715049744,0.10635548830032349,0.29191097617149353,-0.11074025183916092,-0.9500129222869873,0.003483891487121582,0.01935536414384842,-0.02674788236618042,0.9864240611339241,0.04936724418742437,0.15018789397653257,0.04443159234182108
1681249120854560300,19.953560302734374,-0.04988718032836914,0.12544281780719757,0.12991434335708618,0.29371213912963867,-0.1099434420466423,-0.949550211429596,0.007053852081298828,0.027576498687267303,-0.022953450679779053,0.9862591371636708,0.0487682915518854,0.15115073347102512,0.0454748001314321
