,seconds_elapsed,rotationRateX,rotationRateY,rotationRateZ,gravityX,gravityY,gravityZ,accelerationX,accelerationY,accelerationZ,quaternionX,quaternionY,quaternionZ
0,4.0,-0.9771712144889197,-0.24954408551140425,-0.1474077531269674,0.9887793184994493,0.1329033335569731,-0.06819630031504108,-1.6311570917846658,1.3182036633672791,-0.9473229212290807,-0.14458938296706075,0.6670767049107218,0.058286340846674015
1,4.01,-0.7618578601366613,-0.3799765613977793,-0.5757273545197666,0.9880672659055563,0.13710353139467762,-0.0700977954387781,-1.7028399215370884,1.3538903778011444,-0.9808431893907252,-0.14890580497817368,0.6654109393663062,0.06011520403028957
2,4.02,-0.4456892912385936,-0.5405712425439468,-0.988084038084571,0.9866179943128378,0.14528973140591062,-0.07378107436413335,-1.667074435311149,1.38453003174073,-1.0442982954007316,-0.15361000063621255,0.6629522442651619,0.05963740383528306
3,4.029999999999999,-0.0333384786745789,-0.7263341178136876,-1.3817608349869155,0.9843164932878862,0.15719478538067913,-0.07968050944365199,-1.5759662212604626,1.4072832784476679,-1.1133954713145522,-0.15824558111817466,0.6596282613281025,0.05658424989229434
4,4.039999999999999,0.41943150364628295,-0.908851420311232,-1.756855173928076,0.9809644898619954,0.17271731664365134,-0.08816575385538562,-1.479057855381864,1.4388029474209592,-1.1584984030806564,-0.16256994794753096,0.6553457760622539,0.05075981113730424
5,4.049999999999999,0.8647791304083638,-1.0476056027814546,-2.1256415321220157,0.9764297081628587,0.19138638601101599,-0.09906532990198723,-1.3930486353137017,1.4347170265251223,-1.1609589295522686,-0.16640053280933206,0.6502058058042546,0.04221324788642715
6,4.059999999999999,1.2772551062353417,-1.133209954056899,-2.5108721294382508,0.9705558664971802,0.21284398968940824,-0.11192867377490645,-1.3377646079254737,1.3400437696630052,-1.1202678338383447,-0.16972061987664733,0.644374561119997,0.03103246997143414
7,4.0699999999999985,1.652161446685943,-1.1834936845855777,-2.9347150236660773,0.9630092662242988,0.23741196973293016,-0.12649055760025177,-1.3004681479724012,1.2090859621118035,-1.0426215201784481,-0.17282276188645299,0.6378659175697342,0.017140803306807124
8,4.079999999999998,2.0728975428431746,-1.2435327671749727,-3.373126636958745,0.9534040276473821,0.2651514608403106,-0.14281556891596023,-1.2326906100999893,1.115787560498077,-0.9610713089260006,-0.17578003319361707,0.6306162815828952,0.000408314128191865
9,4.089999999999998,2.6121120490481755,-1.3304277178307335,-3.7576069002388257,0.9413951885042507,0.295407337151112,-0.16161218173146633,-1.1065905500727573,1.0748001766740383,-0.8958443454146738,-0.17815242809138418,0.6224434194915465,-0.0193335946375211
10,4.099999999999998,3.1851181508739272,-1.4248355043236898,-4.07413941740518,0.9267750865110463,0.32699452646920024,-0.1835830678304724,-0.9375034442433765,1.0465299422736363,-0.824692942824931,-0.17937437182412472,0.6131958359163343,-0.04206078752491953
11,4.109999999999998,3.6110771789871405,-1.5236443211461275,-4.329949390773186,0.9094249209238824,0.35889477534267744,-0.20885102150276855,-0.767132686496096,0.9823844014325066,-0.7368422807492975,-0.17941316191569961,0.6027893529359499,-0.06732289450855633
12,4.119999999999997,3.7786628636021358,-1.6191561501524332,-4.522817131038804,0.8892860584407984,0.3904746031610329,-0.2369060375731065,-0.5780536062852906,0.8914281441866388,-0.6253999327080497,-0.17885925486949988,0.5912014591525541,-0.09421391183213086
13,4.129999999999997,3.69974746819128,-1.6846952005220597,-4.6252643609350095,0.866489526406732,0.4213068582105286,-0.2666336966527391,-0.3244955593271075,0.8329764342554916,-0.4258639783118295,-0.17847359065314908,0.5786086311932346,-0.12167767922319414
14,4.139999999999997,3.471523476714662,-1.788960165273294,-4.668270446279873,0.8413055577536563,0.4509045836497967,-0.2971074496033035,-0.007463103980111158,0.8943854382232834,-0.16200510638233892,-0.1787627260187706,0.5651922359234833,-0.1487619414065604
15,4.149999999999997,3.135634815568766,-1.9562315374511103,-4.7364494112012085,0.8135482756525074,0.47947480868668235,-0.3280066007269233,0.44770753574979183,1.1024335328059416,0.006687605532184435,-0.18024690575341948,0.5508641548922173,-0.17499828439833334
16,4.159999999999997,2.5269768707329154,-2.040543736489745,-4.770079407648077,0.7831506965065079,0.5077479032752257,-0.35806128552498506,1.0861533925050124,1.4367263493704494,0.05941183189040212,-0.18369644327338086,0.5358752851674728,-0.19991244896910665
17,4.169999999999996,1.5502591738453493,-2.0264688002107447,-4.790101320509051,0.7505263665980212,0.53687866206908,-0.3844762255462777,1.6531525862577454,1.7793042252148616,0.06363910134358318,-0.19024358229780824,0.5210553284274004,-0.22265647911346287
18,4.179999999999996,0.25338517536208005,-1.9802530926827144,-5.009231872972876,0.7154748952598463,0.5692085634509423,-0.40423103432839785,1.9764598005275704,1.9813138698227195,0.04111819609534912,-0.20148322504509822,0.5071441081655216,-0.24271205243046348
19,4.189999999999996,-0.9758337138602158,-1.818367170831263,-5.504580569458536,0.6767671415284813,0.6073275843841638,-0.41506130567291094,2.3477909848170793,2.0691473967721974,0.03771255901991555,-0.21853594400385162,0.4945449276719018,-0.2608162367981696
20,4.199999999999996,-1.4958524486168812,-1.5223034103455755,-5.918736284693904,0.6337163525468502,0.6502274076240734,-0.41786503751931975,2.8503578836990613,2.094270243957329,0.11222832495434715,-0.23991357847845876,0.48306322495965126,-0.2786217449091927
21,4.2099999999999955,-1.2350201461961565,-1.163080383354281,-6.041992560843916,0.5878116380976497,0.6926951970235489,-0.41676361220161284,3.0195731955813976,2.088796372420624,0.321064517220524,-0.26170743731885376,0.472218555527022,-0.2972992287534696
22,4.219999999999995,-0.5115791261871454,-0.8274551867648285,-6.088952900597496,0.5404444726367783,0.7306555228658601,-0.41614522152824146,2.7781117696621083,1.9673209197006072,0.5777583170380272,-0.28089235425035497,0.46143380585630067,-0.3176454962399482
23,4.229999999999995,0.48264722153163286,-0.5559018567955567,-5.9642394814380655,0.49242263165341943,0.7619964092989406,-0.41965342789947,2.519714875054747,1.5706763029153623,0.7850494628369722,-0.2959103042365993,0.45004032465625626,-0.3400087186292283
24,4.239999999999995,1.5571772736033744,-0.3111611927921903,-5.528514519261022,0.4460059652753984,0.7847190739799262,-0.42972764157316284,2.312010739709528,1.0483551234353587,0.9282923755385405,-0.3055480965681033,0.4378656438552442,-0.3637333047122658
25,4.249999999999995,2.3991984233939063,-0.10860162593270907,-4.9361566455678005,0.4036429480615287,0.7982253183798638,-0.4465355964439499,2.0596275829830755,0.6324581407306165,0.9968627768490606,-0.309641685149382,0.4252212329685439,-0.3876329169278119
26,4.2599999999999945,2.8025348512505164,0.036386846230896726,-4.365798707603637,0.36628733262669366,0.8041214668998998,-0.4677503699589586,1.802167134936901,0.26299911391573283,1.0451933321509315,-0.30952565855120656,0.4126494761633143,-0.4106103241370585
27,4.269999999999994,2.744267796779908,0.12814091367091335,-3.8504389599174234,0.3336725853791732,0.8051231837956023,-0.48998974917100074,1.5527233744906668,-0.17761905851818788,1.0959562548127664,-0.3072029255365726,0.40074543647747396,-0.4318228073368335
28,4.279999999999994,2.3111442382658627,0.23919300033279622,-3.3146304274154725,0.3056910514590114,0.8039415993736372,-0.5098901835026154,1.2919987461183533,-0.6905245548297696,1.1267333773892219,-0.30443925257564647,0.3903176400120481,-0.4504949420000283
29,4.289999999999994,1.7522956784526904,0.4900226597962989,-2.73063898971342,0.2832121165556721,0.8023908768664123,-0.5251917339337445,1.0271633429367124,-1.2280400243468008,1.1371119752002399,-0.3019532132518529,0.38238305672284423,-0.46616562961452207
30,4.299999999999994,1.2348089050650461,0.8138961512011402,-2.123502017435796,0.2672199325097692,0.8012023653864168,-0.5353639171807976,0.7583249861929305,-1.751326611265199,1.133074388781104,-0.29952333875520065,0.3776240448012798,-0.4789320510899129
31,4.309999999999993,0.7783191380547523,1.0155762343075756,-1.4787903115185455,0.25776911556825927,0.8005403278395354,-0.5409966723849501,0.46952819593568573,-2.176981277479101,1.1301835537981306,-0.2970001256133121,0.37588687800514914,-0.48879516498372927
32,4.319999999999993,0.3659890315775314,1.1482319557769602,-0.7986448229451002,0.25451451854758905,0.8003621596796892,-0.5428099800472879,0.24388287421785504,-2.413670365438174,1.1525368724979328,-0.29439935016360697,0.3767242524345781,-0.49560758390289655
33,4.329999999999993,-0.06877766373297772,1.3132158588615022,-0.10079478682666687,0.2575837063406905,0.8006994183406745,-0.540847984822958,0.1876729883140367,-2.5388280163488837,1.2192491477670298,-0.2916379518029274,0.3801518507504052,-0.4993323242628
34,4.339999999999993,-0.5172153595985035,1.4318820875797529,0.6249021000216969,0.2670949250303126,0.8015663523724068,-0.5348781229433597,0.20483063780523605,-2.6808666319829033,1.2881635673053666,-0.2887421566517199,0.3862293491847614,-0.499827477311109
35,4.3499999999999925,-0.931551410511863,1.4429079214869895,1.3481856945859096,0.28265477139988454,0.8026712503823434,-0.5250764612149206,0.1897355537536304,-2.789790449016461,1.2888742155612412,-0.28582732187771775,0.39463902143190605,-0.4969316714880564
36,4.359999999999992,-1.2700077351065462,1.3848652785730515,2.0034595427877253,0.30346813041085385,0.8034506787452591,-0.5120417558692087,0.187132238344885,-2.802095920011223,1.2078110118080745,-0.2829470965307174,0.40483097483997865,-0.4907030193308206
37,4.369999999999992,-1.4887315989773569,1.2860706868569551,2.570317462950336,0.328566966137251,0.8031728099422671,-0.49669717819567366,0.22501663048797144,-2.712342138870552,1.0740984532710682,-0.27998238657881847,0.41620187152424026,-0.4815185890867078
38,4.379999999999992,-1.6032994375505316,1.1620183917811207,3.0896661274247537,0.3572583999033428,0.8009869049157741,-0.48008372314071923,0.2777768549028691,-2.4789069871886342,0.939410368490013,-0.2766599464865829,0.428225189604608,-0.46975982208546047
39,4.389999999999992,-1.7121220293162631,1.0319083888783305,3.548439181013623,0.38897838996196665,0.7963507334643559,-0.4627753886481661,0.34474905363888686,-2.1821466597265067,0.8400997023186109,-0.2728741830855318,0.44057813164295206,-0.45566456978424846
40,4.3999999999999915,-1.8198012661008822,0.8877630380580052,3.9485485560840097,0.42307501201928593,0.7890967019153422,-0.4448870640357004,0.41125778130151175,-1.9473208388800487,0.7948935676836647,-0.2687446843178397,0.4530881953430779,-0.4394065536691081
41,4.409999999999991,-1.824397595218857,0.7426070760984996,4.309066084114977,0.45901951994254,0.7788175727817728,-0.42695655080720596,0.4604374479676961,-1.7238433904844905,0.7773071116408726,-0.2641745982298307,0.46549962524625,-0.42120815520587046
42,4.419999999999991,-1.6758726056453448,0.6111339641903131,4.602189138843951,0.49629593397387717,0.7648364709185737,-0.410160369723442,0.5210564990637342,-1.4648371794586956,0.7379241460835989,-0.258709783878463,0.47743724210839683,-0.4015595301722604
43,4.429999999999991,-1.4141085342152195,0.4795195018645349,4.817244089608676,0.5341385499852342,0.746767453363787,-0.395639620713166,0.6065793086561493,-1.2194893684105257,0.6801531070144617,-0.2519753693457911,0.488515113778511,-0.38106853626808623
44,4.439999999999991,-1.105167154749703,0.36495555752603065,4.956529040928005,0.571771589773579,0.7246302207877758,-0.38401605361465396,0.7063136261068046,-0.9955532563328137,0.6358696703612977,-0.24382753626875334,0.4984960408345369,-0.3602212370998546
45,4.44999999999999,-0.7931297292457473,0.30617177350930375,4.98751183489433,0.6084916423582011,0.6988300188425809,-0.37529620233662303,0.8051985321664367,-0.8092811845025408,0.6149255616530636,-0.23427738059043576,0.5073682042916049,-0.3394902285593024
46,4.45999999999999,-0.5869791794372663,0.2668357449706936,4.913153822631277,0.6434882699026995,0.6703554291406931,-0.36882834236497086,0.8715479343371717,-0.6577383488627001,0.5970045978365061,-0.2237210925719694,0.5152584625194667,-0.31926272437474484
47,4.46999999999999,-0.5996124525703936,0.25321019064783046,4.888426164680706,0.6765072518591304,0.6401508774673527,-0.363373941108737,0.9170135861684031,-0.4508047264097147,0.5559126841033301,-0.212825980317749,0.5224712896207511,-0.2993000591320171
48,4.47999999999999,-0.8732969401763633,0.31377378917039517,4.965186543826078,0.7082465927135694,0.6086363556795493,-0.35697525958703635,1.026055991810999,-0.20271680732618425,0.5123462028096791,-0.20225528711970986,0.5296840390051138,-0.2786806849066817
49,4.4899999999999896,-1.311214839511487,0.4485965349506367,5.0021077548819575,0.7391318164312413,0.5763488161820617,-0.34782494997735475,1.2694851452532387,-0.029400091090653543,0.5269392520193741,-0.19268419886482793,0.5375162007234743,-0.25674084649140083
50,4.499999999999989,-1.7533316665151255,0.7055913117708384,4.990717390190765,0.7690619548135318,0.5438669764768032,-0.33498738881286444,1.5998688154074463,0.13823036275497003,0.6244180254215999,-0.18443406821539904,0.5463094444579681,-0.23359880933779253
51,4.509999999999989,-2.219732982890506,1.066407231423519,4.9666290793373,0.7982013835659731,0.5112805508473526,-0.3176367491499187,1.7974406484863499,0.38149568132379125,0.6803807860011127,-0.17750332361631058,0.5564481996122083,-0.20941417256292705
52,4.519999999999989,-2.865660211915019,1.3888218460952304,4.809155094335444,0.8262519319252332,0.47919793613226747,-0.29510119793930695,1.8124008591151604,0.6423502738719858,0.5742039336350984,-0.17245319300564318,0.5680387309733415,-0.1841478697056445
53,4.529999999999989,-3.592883367055281,1.5404593584397983,4.398354414667666,0.8518881350329788,0.4494909900431109,-0.26774838071739354,1.965314811701882,1.000731563026855,0.346510394997992,-0.17056786291068396,0.5805103844370584,-0.15805375237472233
54,4.5399999999999885,-3.991808854300768,1.5011477666379407,3.837348278613555,0.8737957212779481,0.42359928307977307,-0.23785804293197327,2.334454512627674,1.4313746283300346,0.05301264935347633,-0.1722522939924188,0.5927584169359629,-0.13210770773573613
55,4.549999999999988,-3.878079586249501,1.354243333672844,3.3061168316641276,0.8917577109386718,0.40097253917704456,-0.20885179027758238,2.5082301247574765,1.7550386645275227,-0.2521355656830709,-0.17603613754542,0.6037837485823864,-0.10770218711166364
56,4.559999999999988,-3.4559453929081894,1.1947820589763014,2.7783368915558966,0.9062012811278539,0.3808412842430923,-0.18299356887621937,2.2854677220520023,1.8907151184713944,-0.4239109335088314,-0.18026295537506923,0.6131768645109967,-0.08596690305205129
57,4.569999999999988,-2.928000291930519,1.0523549471245481,2.2731946558009537,0.9175493711633972,0.3633842478165703,-0.1608214236964428,1.8932431605958397,1.7769211391118622,-0.35190079238263916,-0.18423227663814373,0.6209926151458146,-0.06752298981605193
58,4.579999999999988,-2.3453409361377195,0.904435473664254,1.8669965429115725,0.9263993355449035,0.3484043639767948,-0.14236348272005014,1.4977432391206122,1.5380528792954573,-0.17363340010936426,-0.18748767262237034,0.6274204489313274,-0.05239742808581493
59,4.589999999999987,-1.7745907070960256,0.7145753485429507,1.5604027961103917,0.9333496652266065,0.3353360810606321,-0.12775733256021315,1.1302821253421402,1.3862925757945759,-0.10361133162611788,-0.1896511917871347,0.6325725942006293,-0.040276681245698547
60,4.599999999999987,-1.3352052116781306,0.4804355144637715,1.3831871371631765,0.9389143510293999,0.32354891023987253,-0.11704026462689736,0.801590023974415,1.3127416742295084,-0.17547778213463164,-0.190682506056574,0.6364882342045299,-0.03047702676113133
61,4.609999999999987,-1.1325220055476046,0.2205393459796852,1.3518461794815297,0.9436374124105928,0.31213961940422746,-0.10987027977287009,0.47016722184976917,1.218539534397245,-0.3149252577334602,-0.19083679204303317,0.6392534341297814,-0.021863043766839056
62,4.619999999999987,-1.2442887658665707,-0.019900498205395287,1.4087572253653666,0.9479626134699648,0.30036190049872413,-0.10538369697181209,0.11626211454817781,1.085184712276997,-0.4547662823355359,-0.19076002114843674,0.641029116267541,-0.013090749397226136
63,4.629999999999987,-1.6730108162953137,-0.19464147407282495,1.4967339909253439,0.9521199437306667,0.28805134416978745,-0.10221709499056134,-0.22315423437666482,0.9299978740673365,-0.5161159535787565,-0.19145579159336898,0.6420557088603782,-0.0029633884224925097
64,4.639999999999986,-2.303060047653321,-0.3224235505054028,1.5714930770580475,0.9561914057554501,0.2753524005474349,-0.0991531124806907,-0.5439832793922426,0.8003887540298464,-0.48692067227580715,-0.19385592801978516,0.6425264930301783,0.009363759809479209
65,4.649999999999986,-2.9809979867193657,-0.43214135469977427,1.583625702175125,0.9600836999137898,0.2627544968149797,-0.0956787734329628,-0.8335123076376126,0.7272773059428334,-0.43518525712568124,-0.19852294439342044,0.6424488135625054,0.02408652421420012
66,4.659999999999986,-3.5864927192839193,-0.5572809755167061,1.556120129875107,0.9636572356859135,0.25072073804498424,-0.0919971123139502,-1.0620479832547418,0.685552643591564,-0.43083562871758646,-0.2055499790319899,0.6416646528380661,0.040956033782362664
67,4.669999999999986,-4.064067695694441,-0.6916485799916784,1.4872481364944123,0.9668354921160927,0.2394482613723939,-0.08865667927238237,-1.2307865368264674,0.6657775049170538,-0.49660768101250197,-0.21461754603426958,0.6399881899591459,0.059519595427643956
68,4.6799999999999855,-4.343266555843009,-0.7843588431855796,1.3281264882552015,0.9695065706912247,0.2294459892384926,-0.08595302793076233,-1.3619293249420854,0.6766935506804128,-0.556931543867954,-0.22532708650403166,0.6373506770385966,0.07899648290158305
69,4.689999999999985,-4.274184198442351,-0.8022517628916478,1.0993843367937146,0.9715722657318772,0.22133386034102182,-0.08393352744268456,-1.4829387403997378,0.7288806045039102,-0.5454922307515159,-0.2369725011936669,0.6339075195996063,0.09816053678004984
70,4.699999999999985,-3.7559046566031924,-0.7196047703737647,0.8695255023314128,0.9730815245071407,0.21513987456420058,-0.08257975102678906,-1.5818316070594614,0.8387618006146719,-0.4957369441341902,-0.248164951683809,0.6301532490899553,0.11544092537678922
71,4.709999999999985,-2.9562761716790518,-0.5367522766322342,0.6306006091941918,0.9741639669344281,0.21058536545170345,-0.0815747791777554,-1.6157032430637794,1.005965808278118,-0.455030052107805,-0.2576222973919724,0.6267564596796693,0.12954423751427716
72,4.719999999999985,-2.117739067305464,-0.29522190011707417,0.33569552386512613,0.9748419368278985,0.2079115667610239,-0.08034184927263241,-1.5995524949410986,1.1573919553926442,-0.44718519479181684,-0.2649981491813913,0.624174518922545,0.13978566731656158
73,4.729999999999984,-1.3106034948996517,-0.03197948399247147,-0.01040332063038149,0.9750426838679654,0.20771123786369855,-0.07839748714661728,-1.6001902274104367,1.2267008846097116,-0.48393190681973136,-0.27054921251503405,0.6225741503143255,0.14591891544486418
74,4.739999999999984,-0.562266624858849,0.2259173604061268,-0.40996859235731165,0.974653596380215,0.21056774024332728,-0.075521733707595,-1.6036728951868486,1.240794471652974,-0.5494490110201604,-0.2746507338938094,0.6219349457516933,0.14789916887100552
75,4.749999999999984,0.09665835504833023,0.4549895436037656,-0.866481536817434,0.9735124682524395,0.2170367044619985,-0.07173376879134176,-1.5647863647933216,1.2281256851558304,-0.5989975718158541,-0.27772676429834603,0.6220925447857504,0.14581568374760992
76,4.759999999999984,0.6536963676877916,0.641513693473857,-1.3440950291272735,0.9714165773479307,0.22755578199645896,-0.06723344411401325,-1.508337248926154,1.198905731239387,-0.6160820282467898,-0.2802089732845852,0.6227878345565031,0.13989105394640378
77,4.769999999999984,1.1508778920810971,0.7593097643327869,-1.8071454299857153,0.9681424545765674,0.24230022425789538,-0.0625337020487593,-1.4553419561131336,1.1575101646770918,-0.6258283675643739,-0.28237387771192657,0.6236961646866046,0.13041896804043168
78,4.779999999999983,1.688098642820211,0.7881862269049845,-2.215588954174577,0.9635157747093661,0.26093830070299856,-0.05860177548141601,-1.4013348957188967,1.0842629715573449,-0.6327043363784615,-0.2840768219697891,0.6244989098765614,0.11765815758056236
79,4.789999999999983,2.3109645923821516,0.7366786337226223,-2.5411478464952673,0.9574563109781706,0.2826977156509728,-0.056694209146372375,-1.3327941501048848,0.9935239325278865,-0.6342548209940996,-0.2847809134849839,0.6249421703313349,0.10176617577982021
80,4.799999999999983,2.9581903193600874,0.6144360586188625,-2.8021611294239404,0.9499410503776884,0.3067075857251924,-0.05802629334720575,-1.239886398194532,0.9215147393989491,-0.6313840223592826,-0.28395492186582877,0.624784494115959,0.08291589401303144
81,4.809999999999983,3.557101526846642,0.4364541397187943,-2.9935605345569263,0.9409639108611064,0.33218620349148625,-0.06349285790971848,-1.1364581392017916,0.8823120549725659,-0.6110600459741277,-0.28140715474110006,0.623746763531017,0.06147146682068987
82,4.8199999999999825,3.9997846122045515,0.22664321909615592,-3.1448547585509075,0.9305747360010911,0.3583101818218482,-0.07351081415769696,-0.9961185122529465,0.8846747404505512,-0.5299625161376892,-0.2772165487213197,0.621600746638168,0.03799446481913133
83,4.829999999999982,4.100859046846947,-0.04276280714513106,-3.315339459254117,0.9186381733990197,0.38486064681967497,-0.0877433417572073,-0.7632318325981609,0.9129965825080358,-0.36086824782063776,-0.27227270491016287,0.6180494171402681,0.01337526365091665
84,4.839999999999982,3.9095355319131566,-0.4724592234539733,-3.540507598412371,0.9047053061945344,0.41222274540801956,-0.10595615044834668,-0.4185838174614712,0.9976911779228217,-0.2253756719157046,-0.2679632540828682,0.6125382073785832,-0.011340065127262903
85,4.849999999999982,3.6133138889517022,-1.0079144499670862,-3.8290264259561178,0.8880777934465107,0.4408356938501055,-0.12855650256770954,0.11655691255534331,1.2259664569334456,-0.2314112843855505,-0.2652106831343745,0.6044513790076596,-0.03558144843760713
86,4.859999999999982,3.1801357391245,-1.6369038120958366,-4.151895844512852,0.8679474192094592,0.4710514739472801,-0.15557115743704317,0.8596929351697868,1.6637423569717626,-0.34392968825773873,-0.2646383584740092,0.5934148977573336,-0.059106173418468674
87,4.8699999999999815,2.329763890223078,-2.4472736566238034,-4.630973491179477,0.8430157051164721,0.503800249152641,-0.18641995894086638,1.5048298483438454,2.21898123317672,-0.45461641719918355,-0.2675943763529174,0.5788848916623363,-0.08127458571046406
88,4.879999999999981,0.7990735018210109,-3.236206268587734,-5.436298167144885,0.8108755693014927,0.5420866448664251,-0.21818524854164634,1.9643881312097418,2.7476183142270862,-0.49476639984929716,-0.2769964400386641,0.560382371664297,-0.10132791012972088
89,4.889999999999981,-1.2179048088935036,-3.790810562459888,-6.605477268665321,0.7684703458741765,0.5900350729584598,-0.244699615155654,2.650161369329406,3.127402225392389,-0.43452225814133977,-0.2961701770585341,0.5381772961413905,-0.11918063925975349
90,4.899999999999981,-3.107401892391598,-4.00937161109267,-7.854927180376221,0.7134324544898901,0.6492030454247674,-0.25986989340961747,3.3140703257705457,3.1331268764907487,-0.21182068130639822,-0.326244363321543,0.5129719240946136,-0.13568146705171238
91,4.909999999999981,-4.1686561903402755,-3.7782155624696014,-8.780835787733297,0.6460391550303692,0.7155115742922382,-0.26110246110459545,3.3398625609698636,2.8372442449908664,0.021434616751494225,-0.36434357407968054,0.4858949408663758,-0.15230074247688066
92,4.91999999999998,-4.103969187276839,-3.1510937377937904,-9.296431905207955,0.5690792212249536,0.7812965878624543,-0.2510580632357794,3.087829696262511,2.623981597277551,0.10872230849246148,-0.4047949367874152,0.45828164954911976,-0.17089928019537173
93,4.92999999999998,-3.339738378886342,-2.3586055847668703,-9.426700607060573,0.48612993839563223,0.8399721374223663,-0.23564558245082062,2.9736341850588226,2.551340563715674,0.13201651611306645,-0.44250630760163606,0.4311328204680893,-0.19273569413444522
94,4.93999999999998,-2.4892669060516073,-1.5332655330438247,-9.250446967781155,0.40077946358377486,0.8881844613642048,-0.2194450847819415,2.841125122970354,2.2998133858209067,0.17909540772948163,-0.4750652614862713,0.4052324911371322,-0.2175263108223767
95,4.94999999999998,-1.672753903783691,-0.7185930649736556,-8.85332843754544,0.3161657743477769,0.9252136795548095,-0.2049085066028318,2.6424066962212724,1.7248738868525486,0.3260204361718002,-0.5019020638563847,0.38127093699496734,-0.2443757269075436
96,4.9599999999999795,-0.8196096229070025,0.033357615482383585,-8.245896898046835,0.23508608037788523,0.9514588693925257,-0.1944088017805329,2.425706679648871,1.0809671347471088,0.5084491483659773,-0.5227444847844834,0.3596555317198416,-0.2724622307975964
97,4.969999999999979,-0.036396215871353776,0.7117333090123339,-7.462291568694101,0.160304903730467,0.9679731292489786,-0.18984215665477933,2.227057987096834,0.49157517088439995,0.558171010794547,-0.537479202546801,0.3407121518887855,-0.3009105102495394
98,4.979999999999979,0.5277974851443921,1.3272204075266252,-6.562172245554585,0.09402033909744191,0.9765454795554228,-0.19121349581818894,2.089529428592633,-0.19208429824815534,0.5111567682136505,-0.54662753277202,0.3248549181212491,-0.32882868352329
99,4.989999999999979,0.8652902404962569,1.8576618460931238,-5.653633350717305,0.037424688308081,0.9793148314956336,-0.19714189618344005,1.9672757689291454,-0.9714989968996273,0.4880724659927751,-0.551176781331345,0.31241544783369657,-0.3554886028241566
100,4.999999999999979,1.1946461225808058,2.1921882239447696,-4.8661184940866455,-0.009826950756928554,0.9780519099355393,-0.206933802629773,1.825942989337121,-1.706387527495301,0.5026672627394381,-0.5520057639639959,0.30299491325040073,-0.3805959595522354
101,5.0099999999999785,1.7026706751165457,2.222885309027676,-4.178999966120918,-0.049207708208047596,0.9736893875041823,-0.22159096513276522,1.6630432020891028,-2.250910488370484,0.47059574199114584,-0.5495877215522889,0.2951949008913201,-0.40408899744005455
102,5.019999999999978,2.4187628560659005,2.0281648483812704,-3.396169943451076,-0.08116056589414317,0.9664914127206133,-0.24277142556120695,1.4782452170050395,-2.531045435461661,0.3743978346848942,-0.5439192021853754,0.2876417829055749,-0.42555051015491946
103,5.029999999999978,3.126607814971231,1.8309507837784122,-2.3961458452885527,-0.10424011603041114,0.9566610089139674,-0.2712274496530173,1.3789511870593028,-2.672972193010778,0.39172661136002856,-0.5346815066716671,0.2801021075536034,-0.44431799896865165
104,5.039999999999978,3.4139450785820897,1.6710404794638007,-1.2705896743685436,-0.11670774141601543,0.9451149614207944,-0.30461269341168734,1.3974362608277136,-2.8586465066642917,0.6298906580290315,-0.5223107126256539,0.273551978010715,-0.45960702421379285
105,5.049999999999978,3.034466488813845,1.474966465305072,-0.21009512434117616,-0.11859159359424885,0.9338050422183924,-0.337170439769716,1.3903599367954993,-3.0950946024519808,0.9418752046692647,-0.5394317336832822,0.10312251135352846,-0.23776139093664095
106,5.059999999999977,2.1265119549236853,1.3039240633251765,0.7060459983657781,-0.11137971693800727,0.9250392401796876,-0.362962850820791,1.3206258497597503,-3.3008731355153125,1.1172962164358973,-0.5602956247244032,-0.06749576793997084,3.0574875762210095e-05
107,5.069999999999977,1.0907376097188672,1.2206902754988718,1.505391267403055,-0.09646825696658777,0.9202472269826163,-0.3791052923224673,1.2654019656184419,-3.3713747989678158,1.1081766012504792,-0.554001460659356,-0.05919771556288678,0.001658010624783425
108,5.079999999999977,0.17945256846042396,1.1984427020394797,2.2435756387789656,-0.07461683295068314,0.9194327306352726,-0.3858945778181621,1.2265972321400556,-3.2409863600175948,1.0284376882614554,-0.5519241327908783,-0.04900239789854056,0.006304664852096985
109,5.089999999999977,-0.5655338873399361,1.189209613569934,2.958954052131751,-0.046079464903744705,0.9217297927013257,-0.38474303174670715,1.1683681326621231,-2.9779726266023836,0.9537636641065146,-0.553374329253969,-0.03687962209325227,0.01380819816813137
110,5.0999999999999766,-1.1096184879983437,1.183017458425352,3.547943392471507,-0.0114424179997204,0.925848365380082,-0.37721547366526925,1.0886261125263614,-2.68046301953078,0.9046258231332267,-0.5574968868893632,-0.02299112972114527,0.023940520994422232
111,5.109999999999976,-1.3659489901137771,1.1755209468237853,3.990112539169854,0.027975458321628628,0.9301594543799231,-0.36543619357229445,1.0039925155496408,-2.3801789741840484,0.8663493120813414,-0.5631608605602207,-0.0077323729547497866,0.03616822358061106
112,5.119999999999976,-1.2881168841855946,1.1578388544498435,4.386238918126616,0.0712219631861285,0.9328842641276389,-0.35228320052195516,0.9320111258655389,-2.0692151311152243,0.8180187631312371,-0.5689503327559093,0.008645227867193992,0.0501206946597913
113,5.129999999999976,-0.9978468209018319,1.1129185260420797,4.723944365360505,0.11771586648235169,0.9325353112130014,-0.3404666888571482,0.8950883362529832,-1.789407854906163,0.7532996018419047,-0.5735913116385125,0.026014836988065563,0.06561234218438979
114,5.139999999999976,-0.6831940983485749,1.0176959105716978,4.985365765033162,0.16653806275763716,0.9284177060940277,-0.33115303631722276,0.8844812894733936,-1.58706547464986,0.6612572374414492,-0.5765416177075948,0.044035064159790575,0.08245788846721454
115,5.1499999999999755,-0.33284925011895417,0.9466074182552405,5.16807344635638,0.21672907030892535,0.9203488198457676,-0.3245194252114767,0.8861957880626593,-1.4246694671043203,0.54809204131709,-0.5777159332452111,0.062436700681995964,0.10032940903146634
116,5.159999999999975,0.18690484854037903,0.9739059416444305,5.290654025831951,0.26765899585794634,0.9079316114978068,-0.3214170467879763,0.9111197327059029,-1.2313097441516392,0.42783530986155777,-0.5766958117003559,0.08135829283512497,0.1186698457001008
117,5.169999999999975,0.8704178179886466,1.0200869090354898,5.395031263148297,0.3189066992173578,0.8905790203081992,-0.32311839441809453,0.9347670524482616,-0.9476273764438828,0.3007476062694881,-0.5728143263695791,0.10107132538116757,0.1369704451106244
118,5.179999999999975,1.5411292396468537,0.9956721704410152,5.527563833880908,0.37023061878040653,0.8677659870294774,-0.3302461937808499,0.9400413835430806,-0.5819515008124887,0.1782037703204632,-0.5656558797152064,0.1215803659469977,0.15525952961766212
119,5.189999999999975,1.9976580704352813,0.9301090934572702,5.613057394476082,0.4211062800617565,0.8396256615988175,-0.3417402418959957,0.9716602318697707,-0.24562686849448076,0.12424908967566355,-0.5555736899512318,0.14256355001881565,0.17369300455217043
120,5.199999999999974,1.9694585875331898,0.9041436047302311,5.604508138126226,0.4705198043936786,0.807573517337831,-0.3543081898563458,1.131105187261249,0.052558570176040334,0.17876080573298614,-0.5440360427381908,0.1634890762704888,0.19209900274417127
121,5.209999999999974,1.3485657383706096,0.9676712505685144,5.613570736570815,0.5182175273705915,0.7737596319836137,-0.36317619371684556,1.4610069044075376,0.4080862050697064,0.2477936182018306,-0.533319278851685,0.18400137205732692,0.21055819198330136
122,5.219999999999974,0.18626303245030906,1.0764742892848733,5.5637598144590426,0.5643254362296742,0.7405440068196878,-0.3638061957977757,1.8171964300860899,0.7627020862736401,0.24167727538985365,-0.5258251878079363,0.20373037439055275,0.22939311662338305
123,5.229999999999974,-1.3365043509198862,1.1552825628276306,5.327780951273856,0.6079273576846539,0.7105704867466508,-0.3532920680077374,2.0623153821867986,1.084781198747541,0.15824784380530385,-0.5235690347752555,0.22171829199631063,0.24862746258641735
124,5.239999999999974,-2.8584946498585633,1.162445481232233,4.988484861097326,0.647973229770913,0.6853058070032301,-0.3313703803535463,2.2525671228411914,1.5405492284727158,0.02043874294363178,-0.5273248004020546,0.23703231274694062,0.2681036587954316
125,5.249999999999973,-4.072413891574569,1.0706911997495212,4.587895779615513,0.6838870569393308,0.6643449485913657,-0.30045279621417764,2.4070830169596613,2.0368104694225715,-0.12880443519204643,-0.5363166716963859,0.24915682130876776,0.28765673388946084
126,5.259999999999973,-4.88551806257752,0.9298259381534781,4.170249941166364,0.7154496234687769,0.6463729938453886,-0.2639653387044192,2.331161174123832,2.2723157037710515,-0.2452555554475918,-0.5489755305630744,0.2580319129967237,0.30695642661511147
127,5.269999999999973,-5.3130534962978295,0.7488290378539139,3.759452250670884,0.7428760558395188,0.6299520483444646,-0.22513730320508119,2.032603624335927,2.266283368691999,-0.3080080688886354,-0.563624485888096,0.2639987418985551,0.32564750621642724
128,5.279999999999973,-5.3033908536896766,0.5066553766525991,3.3582751431396107,0.7664403657690263,0.6140189095022359,-0.1871729827617945,1.734791279072661,2.113779941457967,-0.258748300453971,-0.578626891581141,0.26748607454350254,0.3434584944003683
129,5.2899999999999725,-4.824093939470927,0.2998776485330481,3.026652631891776,0.7865683412351114,0.5978762358674906,-0.15315771033712802,1.4098637464618622,1.816989427765774,-0.12476263113376337,-0.5923427259374053,0.26927831578477657,0.36000000555452916
130,5.299999999999972,-3.934773700419478,0.15175924525976756,2.7847610700298793,0.804000707107434,0.5810123506613796,-0.12537888637314074,1.0477970127258498,1.5652637491064787,-0.08126008784444307,-0.6033666864253686,0.27062318813597847,0.3748282457901079
131,5.309999999999972,-2.884249477359161,0.015932458489634094,2.6378528817443208,0.8196000639668949,0.5630264381907703,-0.10511737744968731,0.7625587169815116,1.475349163194295,-0.20460796957792615,-0.6108209683952046,0.27263498089198035,0.387884309269393
132,5.319999999999972,-1.9176984294445643,-0.11652426432047167,2.5244456014432775,0.8338500322197536,0.544078267433349,-0.09226091353174246,0.5255166329366573,1.3817859212631594,-0.4143716738703231,-0.6146984869475588,0.27570070427162535,0.3994134011396413
133,5.329999999999972,-1.1656635409093477,-0.23976031415771795,2.408764671010731,0.8468825585586827,0.5247190846654677,-0.08557951204676315,0.2601674182581687,1.1988247999403778,-0.5517912377136032,-0.6156252020422532,0.2796625328548265,0.4096893083222643
134,5.339999999999971,-0.7054419763336315,-0.3367103631023868,2.3088396725829616,0.8587902994011203,0.5053824773902859,-0.08332467537184271,-0.035012031887033515,0.9836761577759476,-0.570948147532241,-0.6144877552274343,0.2841411082620328,0.4190489587918468
135,5.349999999999971,-0.5867994845680258,-0.39308007434328335,2.21848220253099,0.8697142101542378,0.4863427370621296,-0.08338105971953423,-0.32108416478296825,0.8033722184150727,-0.5288468368621797,-0.612358105730594,0.2886535014915459,0.42788550133183034
136,5.359999999999971,-0.7793916945481607,-0.4288004957240261,2.118562077742867,0.879731519246679,0.46791320644993656,-0.0838196111701102,-0.580989466109182,0.7134265834408346,-0.46699986944457983,-0.6102926611968461,0.29262456757375627,0.43657661077211896
137,5.369999999999971,-1.210629033746844,-0.4716374560883605,1.9717774817085054,0.8887738967401425,0.45061190321435185,-0.08332788987827729,-0.8197930656075694,0.7089731318933642,-0.43489493570524396,-0.6091692223326003,0.2953775982921955,0.4454344827587455
138,5.379999999999971,-1.7596065955336382,-0.5336420926335932,1.775876459765173,0.8966785502270581,0.4350811848039,-0.08126806775472631,-1.0481701920006075,0.7397513584058096,-0.44210243328992926,-0.6095717214761744,0.29629018344400315,0.454620679261376
139,5.38999999999997,-2.1923134012690397,-0.6301242509106209,1.538189774805421,0.9033385395264235,0.42172205376260774,-0.07798057355825291,-1.265727371177618,0.773722914093747,-0.4662984880906283,-0.6114805772742135,0.2951242830882816,0.46409206300268185
140,5.39999999999997,-2.2934737255799797,-0.7649437845418054,1.2575837500693379,0.9086479906982138,0.41076194477357786,-0.07485660546299952,-1.4628208490083021,0.8213377204401545,-0.5281379007265854,-0.6141842179999237,0.292136680983102,0.47351231464872046
141,5.40999999999997,-2.0028531878153544,-0.8961778819004769,0.9533855228723281,0.9125354949413936,0.40229905217859024,-0.07361611315136503,-1.6361152419408134,0.9096545441043694,-0.6398483180553489,-0.6166182186987509,0.288041725223257,0.48230655361456326
142,5.41999999999997,-1.4179730732045661,-0.9813711764999462,0.6454522918236142,0.9150292336713679,0.39627495157596704,-0.0753558645992043,-1.7835285573719282,1.013146431511103,-0.7516981256181107,-0.6179036992188598,0.2837475476056595,0.4898737961990986
143,5.4299999999999695,-0.7547386517782468,-1.0171401336556003,0.32764747103748815,0.916176922517478,0.3926419474955839,-0.08025260574866315,-1.8979214525312993,1.0801579467368998,-0.8052024769712803,-0.6176943696152254,0.2798640836165439,0.49582835786074764
144,5.439999999999969,-0.18200849460272273,-0.9999939103583091,-0.02128439748663205,0.9159380437049579,0.3915929028808011,-0.08771640421398036,-1.9665701266493305,1.0941783697053664,-0.793043583893564,-0.6162039058752644,0.2764614756863086,0.5000111565974198
145,5.449999999999969,0.23961375626133025,-0.9389208708034007,-0.43389242725812205,0.914164540689439,0.39358332675028895,-0.0967841688002966,-1.971677335098797,1.0819854543700578,-0.7459900555219848,-0.6139613085572894,0.2732311429336189,0.5023498898873229
146,5.459999999999969,0.5374399878775087,-0.8174299709678744,-0.9293011476036186,0.9105153448297791,0.3994647680796077,-0.10650600713740098,-1.911237322259975,1.104097256145721,-0.6824762099395607,-0.6115708742040544,0.26967197718652386,0.5026658495596319
147,5.469999999999969,0.8307399930683965,-0.6288696443581371,-1.4564857051866045,0.9048018527188317,0.4096492668482438,-0.11598166880791581,-1.8015854226778643,1.1978305875727084,-0.6028610143056629,-0.6094446552233668,0.2656711848201082,0.5006719623772596
148,5.4799999999999685,1.1996381930591733,-0.41038910776304915,-1.979759892262856,0.8969861072469216,0.4239178067180954,-0.12491670883086828,-1.6625552204503031,1.2914468793909641,-0.5194544513306669,-0.6075799282982616,0.26150151844431335,0.49611718174177705
149,5.489999999999968,1.5833008063654703,-0.20755125465932225,-2.5027932758426568,0.8868648065516386,0.44207992471195223,-0.13373023373639537,-1.5341151990872988,1.3042430140893988,-0.44911555880991827,-0.6057600499394278,0.2572629769531694,0.48888237360505443
150,5.499999999999968,1.9467341125581692,-0.05249829136724715,-3.075464984062445,0.8740232281765664,0.4641607651195178,-0.14289246334734942,-1.4361677743904757,1.229441751132636,-0.38546916274665377,-0.6038870657250921,0.25272011309733594,0.4789572623457398
151,5.509999999999968,2.4277210815919608,0.05255331988011322,-3.6520968137430185,0.8579162653994163,0.49007756505855327,-0.15329620914568515,-1.3413331814994982,1.1398066987371493,-0.3042869807151513,-0.6016544674033469,0.2477000786521106,0.46626025268263394
152,5.519999999999968,3.1134833883013284,0.09156776829190101,-4.160550770856131,0.8382800691502911,0.5187714297187674,-0.16663905992021832,-1.2129881402918665,1.1416279419460367,-0.2242487297910067,-0.5982071973333464,0.24252282632772906,0.45076240770731246
153,5.529999999999967,3.811170017321438,0.05654304564136429,-4.676456534534779,0.814791414362928,0.5491194548288042,-0.18458777921252983,-1.0133510336113323,1.2464766167565111,-0.17445776132894072,-0.5927807382360275,0.23727449344749296,0.4325210022050852
154,5.539999999999967,4.140467039849516,-0.0771998899079975,-5.175323993669081,0.7868226675216989,0.5807712369698317,-0.20728905345719245,-0.7402596847014982,1.4062963979175795,-0.08299809599227033,-0.5855796271298388,0.23113733787213023,0.41186567434453797
155,5.549999999999967,4.120427026963337,-0.2890235227135042,-5.477492382759852,0.7544496333526594,0.6128497301158935,-0.23341756104324007,-0.39741925109884557,1.5635580839996386,0.0681303703501987,-0.5774107803995395,0.22327247164945882,0.38976041464842787
156,5.559999999999967,4.003408783887093,-0.46953352175478513,-5.516675044329867,0.7188434350692332,0.6433972631039648,-0.26179424072464,0.06603214667752083,1.6959616010685903,0.1938136888120876,-0.568617772953877,0.21384736513751512,0.3673116869824607
157,5.5699999999999665,3.7069694248220735,-0.6446545607686002,-5.440576099210494,0.6812246798506866,0.6711450903478315,-0.29110562683836005,0.6118325860604832,1.9197599590083034,0.2626575372969276,-0.5595304459338487,0.20327699923079745,0.3452391725942095
158,5.579999999999966,3.155760631031514,-0.9372229908856947,-5.407860033062689,0.6415348794574601,0.696646036241062,-0.31991178776506346,1.061672450414618,2.2612624584219496,0.29170375005992066,-0.5509028527086108,0.19101892565774345,0.3240342196473374
159,5.589999999999966,2.3111030847887832,-1.265723890559945,-5.574901576245974,0.5987310963189589,0.7216455379049014,-0.3463259251314486,1.3463537303286803,2.5270567662658836,0.2859072606007429,-0.5438366392344662,0.1760738677215416,0.3038183834432034
160,5.599999999999966,1.247767598680599,-1.4052881681601554,-5.879095788752685,0.551766579041473,0.748266788842888,-0.3671147844289966,1.6610796010326483,2.675982647265843,0.2547816521427405,-0.5397935896869023,0.158011314746045,0.2839128607085124
161,5.609999999999966,0.3423170888796953,-1.3877389295376819,-6.127685571496126,0.5006722156942486,0.7770121243228355,-0.38031818282248864,2.135024296700042,2.770349516882348,0.2680608421358178,-0.5392991726088141,0.13740746038872534,0.26358734054037375
162,5.6199999999999655,-0.08780602548761696,-1.3419439428255386,-6.31488167610893,0.44610890717760004,0.8061155334215893,-0.38750552589770515,2.527118514116473,2.6927088873934277,0.34473381815010373,-0.5411300008073261,0.1153066790185763,0.24253739681130979
163,5.629999999999965,0.00443567310927967,-1.212470441828113,-6.370292847474871,0.3889745711525493,0.8329398582857219,-0.39231335579394105,2.5838024761200935,2.3881129511501045,0.3989715707954947,-0.5432312799097413,0.09283541935190937,0.22061574275427426
164,5.639999999999965,0.5395558146494778,-1.005904026203501,-6.241236643157341,0.33126980009713974,0.854702552091655,-0.39852091798232797,2.4659780200430337,1.9827607483132499,0.3945824678780213,-0.5436297655686518,0.07141867958193797,0.1980284753058307
165,5.649999999999965,1.3011609898779062,-0.7691828576914426,-5.981242767306155,0.27492579235627934,0.8695559077361559,-0.4092051274634703,2.3648985437203907,1.514746088816284,0.373524769959889,-0.5409279960542581,0.05202089710762637,0.17521382633712973
166,5.659999999999965,1.9669073482644337,-0.49310326451049336,-5.6123990586634855,0.22160070483694197,0.877102195970648,-0.42524816234462404,2.228984781531143,0.9916165817786693,0.3811455994551581,-0.5348528204282444,0.035119184784,0.15264089275102014
167,5.669999999999964,2.352712651360776,-0.17856685600851308,-5.166949397956475,0.17279664090912675,0.8782665924944967,-0.4451323105628252,2.0768336923940494,0.4863897108343692,0.46018752827794607,-0.5262431460523433,0.020931735508443638,0.13073508554652385
168,5.679999999999964,2.4316649284332863,0.17378096717896874,-4.698046815059414,0.12953258169869347,0.8747739725964684,-0.46633439639109997,1.9402797361287856,0.014629462993091452,0.610097048682769,-0.516422518000736,0.009486790932635804,0.10975836468921932
169,5.689999999999964,2.2481534881644416,0.5760563484144561,-4.276768117189836,0.09223947895564949,0.8685717717206246,-0.4864956964396005,1.7788342347753607,-0.4349669778121723,0.7927830187742331,-0.5066714855751161,0.0007866645983132608,0.08962936330788389
170,5.699999999999964,1.8764493784689595,0.9742495451884887,-3.918019792138614,0.0606771712917056,0.8614854366653548,-0.5038659932353464,1.578344753828171,-0.8365326668387615,0.9801609087909455,-0.4980134735017294,-0.005312496755920541,0.07007691309898885
171,5.7099999999999635,1.4449584438248846,1.2633129860603705,-3.5520353171410166,0.03436975878349392,0.8548185001889901,-0.5176083646331004,1.366078831259645,-1.1780725744220641,1.1155478255255014,-0.4910202256254919,-0.009150652573692696,0.05115202126325672
172,5.719999999999963,1.1121887045603416,1.3857327875829988,-3.1392105483021284,0.01281366387694792,0.8490016665343973,-0.528120188703843,1.1808525538723524,-1.5046960653301287,1.158629873627308,-0.4856002914891714,-0.011234733458273855,0.03336178516308339
173,5.729999999999963,0.924073860696219,1.3706557812816236,-2.657904742639601,-0.0044105784958698505,0.8437687755722703,-0.5366155874549284,1.0251344710729977,-1.7926482240128139,1.1393651283181248,-0.48118838898887106,-0.012072806832843215,0.017372443463030907
174,5.739999999999963,0.750994159366815,1.3007934564156944,-2.0945692056957577,-0.017233806266014222,0.8389825897366096,-0.5438455732504899,0.8835162469567995,-1.9519303269226032,1.1111257328658797,-0.4774235319886205,-0.011870226677890556,0.003772222504636184
175,5.749999999999963,0.4320778062892944,1.2259821879855,-1.4692507260579388,-0.025283588436575896,0.83532961166592,-0.5491555835224388,0.7672230528585686,-2.018206584878585,1.1156400534757476,-0.47466674084039984,-0.010571081170311615,-0.007044738407774754
176,5.7599999999999625,-0.059824306648869036,1.1610261321227244,-0.8401937438920846,-0.028339084729487422,0.8339554684340154,-0.5511036885923939,0.6864215453669007,-2.088317010601203,1.1546689651417912,-0.4736884284623806,-0.008058279547979434,-0.014933269564531403
177,5.769999999999962,-0.665387861191745,1.0949183543273648,-0.27534177881857874,-0.026729232378571128,0.8357629936653985,-0.548427005065625,0.614374882956631,-2.1681130297945015,1.186979235804692,-0.47514310596257653,-0.004360909258591807,-0.02004476746303555
178,5.779999999999962,-1.269702164563914,1.0235015416308686,0.1825299159377069,-0.021288390075005454,0.8410263207729832,-0.5405262977721276,0.5297990908540917,-2.192153036642504,1.1872787269875686,-0.4792939161668313,0.00030258449303032127,-0.022749252604461964
179,5.789999999999962,-1.6867919611331617,0.977980350066149,0.5550484941064123,-0.012820409952726396,0.8490678210581337,-0.5280366455662765,0.467519582622014,-2.1372297766482315,1.1342027475390493,-0.48572298394065727,0.005738598384407992,-0.02350841714238246
180,5.799999999999962,-1.7585571197875633,0.9638157130198972,0.9218286861840558,-0.0014926254385680083,0.8582049501683721,-0.5131876999179802,0.47680265787374226,-2.049848295382414,1.0203220575535843,-0.49319112149934613,0.011966182891094461,-0.022602358202621797
181,5.809999999999961,-1.485707722942604,0.9618183820460919,1.3122947994972385,0.013007564604217895,0.8664392248800249,-0.4989916254319784,0.5517470486493545,-1.943772294014288,0.8838267964608202,-0.5001155199404913,0.019091533686445,-0.020031871344130765
182,5.819999999999961,-0.994300482706461,0.9586585915833913,1.7133671865173679,0.030909729253831834,0.8722582699864849,-0.48794347974543095,0.6161421289808171,-1.8076001201805305,0.7543758196982487,-0.5052407530820078,0.027162194935653985,-0.015773148298807237
183,5.829999999999961,-0.4159295732311864,0.9565771884679152,2.0993035448133472,0.05222435995609879,0.8748797684687412,-0.4813744707440252,0.6464852534724382,-1.671665898699127,0.6598875139076371,-0.5079185117418257,0.03617515797834073,-0.009880773947658881
184,5.839999999999961,0.18912685955444491,0.96073103147059,2.468009832450432,0.07681282580496815,0.8739355219542423,-0.47975257601196514,0.6938673105834092,-1.550191395189092,0.6245903106776839,-0.507906938476775,0.04611536475430812,-0.0024758563919014907
185,5.849999999999961,0.7938849198357827,0.9502172852992994,2.825723741507122,0.10449263475391374,0.8691335261914651,-0.48317191162788403,0.7584179923932355,-1.4466002328216716,0.614216418228987,-0.5051082190728056,0.05695198265338319,0.006353880429760287
186,5.85999999999996,1.386108402282974,0.9189643602218908,3.2210689633561502,0.13514760024369915,0.8601721052613746,-0.4914480455532759,0.8255120022299812,-1.3555373801537285,0.587729572362235,-0.4995145886357464,0.06864498930123282,0.016652574360899283
187,5.86999999999996,1.9939112235232739,0.8956765591430504,3.718919385318141,0.16922840662327143,0.8463789625394822,-0.5045304187468299,0.9125628432996098,-1.2411674239881305,0.5436147276557238,-0.49096677127011035,0.08134263965762102,0.028767925990467184
188,5.87999999999996,2.3213530821520116,0.937348617951676,4.111041779017929,0.20681245740979215,0.8276716183471435,-0.5211684430737064,0.9947391408370461,-1.0939233392306686,0.49778466311443353,-0.479849374224817,0.09524088164553454,0.0426726529477299
189,5.88999999999996,1.8189761501940085,1.0115005632201408,4.2443268526482525,0.2461707660227671,0.8069433505335812,-0.5363830790564962,1.0249250953127007,-0.8203817153364679,0.5089580191915042,-0.4686598937954513,0.1099321566433254,0.057556194129874894
190,5.8999999999999595,0.47523878964993893,1.0758384393465235,4.388624032442214,0.2861862536563145,0.7890845502246282,-0.5431167079606105,1.0574400966298978,-0.42302225916783515,0.5879121397413797,-0.46129145038308994,0.12486254130179611,0.07332937023797828
191,5.909999999999959,-1.2591494866377195,1.1054339293190152,4.567129331402856,0.32715345273207863,0.7773642792287861,-0.5368276813650632,1.2363709799074984,-0.11085181321220798,0.6160333122522091,-0.4604353136172864,0.13974644177952822,0.09067268096064167
192,5.919999999999959,-3.07816263604912,1.1041178683369102,4.727267919734412,0.36901755594750396,0.7724339665707068,-0.5162658008315312,1.5888676504687085,0.23067171681144227,0.44382426517649365,-0.46692032366975766,0.15419566264836115,0.1099132655625449
193,5.929999999999959,-4.915747641927467,1.0166880482451794,4.727108570908725,0.41106016050584876,0.7736978468704803,-0.4811743706286789,2.05844647396211,0.8911740403567512,0.08451704199612506,-0.48085367818081814,0.16755504193469262,0.13099114768981118
194,5.939999999999959,-6.36450242342684,0.8077362757912802,4.342480393040871,0.4506615269247767,0.7799416284631945,-0.4330138812439248,2.5130220994084045,1.648729132242326,-0.24375548366837166,-0.5014701597846488,0.17849377302383862,0.1528869685297689
195,5.949999999999958,-6.781006952343113,0.6108602735089997,3.804734543627346,0.4854860277667747,0.7878172073481309,-0.37757681910525637,2.6337885800749667,2.193779945162173,-0.40118636788568096,-0.5256450311782668,0.18640031191626852,0.17390802092728286
196,5.959999999999958,-6.139688433152433,0.448099169211438,3.3537946362063833,0.5155883972764721,0.7929047253564818,-0.3234472951446456,2.3627992765994543,2.5455723658658553,-0.4690421585980368,-0.5488489446800632,0.19214163745835316,0.19296079482473358
197,5.969999999999958,-4.896072032867339,0.32348582695739786,3.055210099090823,0.5421090314629368,0.792820125643642,-0.2774582170824823,1.9585098898986733,2.676895053591625,-0.542226647026502,-0.5677954089818463,0.19699715291247105,0.20977300503143373
198,5.979999999999958,-3.4200547371419026,0.25357747374270573,2.8514450961865063,0.5663311532120455,0.7873497975269944,-0.24289083352777585,1.545464397910556,2.530439706971788,-0.6175175879377954,-0.5810842400646956,0.20214249947704732,0.22441172487909533
199,5.989999999999958,-1.9585793970001348,0.21661669314978194,2.676658876537996,0.5886522233317928,0.7776024789488071,-0.2204780070539632,1.1063651519368658,2.221998401871097,-0.6637503511198873,-0.588589016346549,0.20810655730400004,0.2368721818827657
200,5.999999999999957,-0.7671070478880427,0.20619462271469272,2.524941974300053,0.6091629732129232,0.7649515147516729,-0.20883759131795257,0.6541379238636147,1.9084237671127515,-0.6375613895069244,-0.5910681605957455,0.21495632210216914,0.24727659094845794
201,6.009999999999957,0.00248624149261939,0.17661297320544592,2.415603581867325,0.6282383208089641,0.7504559352300839,-0.2049149607123547,0.23394627045823674,1.6022031814642719,-0.5649210567743291,-0.5899224020492869,0.22252444164575608,0.2561148377890577
202,6.019999999999957,0.36524512285066,0.06224173430468073,2.365336622550642,0.6462078131563571,0.7348412828691085,-0.2056251194665242,-0.15129237321408903,1.2786917387725651,-0.5484404052556113,-0.5866316357095617,0.23028655211233634,0.2642075916655233
203,6.029999999999957,0.42867620607719015,-0.1420089745796326,2.3750753274531817,0.6633566007162522,0.7184629570929519,-0.20886620320691718,-0.4932591909922034,0.9726963225012055,-0.6067789436858867,-0.5822964977679779,0.23765506192245164,0.2724476617386397
204,6.0399999999999565,0.22652853590206087,-0.38649834589016,2.4007187360885696,0.6797740845043225,0.7016751674792672,-0.21311807629752347,-0.7814377728120564,0.7302398020892207,-0.6544597387103595,-0.5777877115612259,0.24410852562879698,0.2814880860127795
205,6.049999999999956,-0.1870826388315241,-0.6006827878343572,2.3525028312591716,0.6952406326032594,0.6852204675658372,-0.21677634844742358,-1.0426672977702593,0.5475131064756569,-0.6369559113456992,-0.5740291942266192,0.24918923730430903,0.29155412349887866
206,6.059999999999956,-0.6578185187172314,-0.7512814527127687,2.133066633775399,0.7090271436703929,0.6703470687681824,-0.21869666289188777,-1.2861839826186743,0.39454614036112473,-0.5757947255241666,-0.5717229144439498,0.25255213408668475,0.30215599284231004
207,6.069999999999956,-1.1001603980951873,-0.8504715631610829,1.7575555286738047,0.7202489113289198,0.6583356910647582,-0.21859830509711656,-1.5040520718166563,0.31875380826098615,-0.5454217703575952,-0.5711702490692404,0.25390026069074917,0.3125561348689829
208,6.079999999999956,-1.4651341076018332,-0.9163133332253848,1.2920375828602015,0.7283465126355322,0.6500632410660254,-0.21658053840969832,-1.6813623468924508,0.3450439739433006,-0.5800834181195175,-0.5724187688687401,0.2530699383238107,0.3221792209859971
209,6.0899999999999554,-1.6546504083794957,-0.9775983926496828,0.7763511139903012,0.7330298261808099,0.6458831448325869,-0.21329790035461238,-1.8111396407747875,0.37580612097740884,-0.6602841391927594,-0.5751396545064751,0.2501173654500225,0.33054614577108055
210,6.099999999999955,-1.6074556216287506,-1.0221984341272774,0.24532469188854977,0.7342177440000288,0.6456052840269636,-0.21003715350118174,-1.8884556909221302,0.39963622047368547,-0.7754122855738521,-0.5786072990070019,0.2453239805897691,0.33728015034088815
211,6.109999999999955,-1.3895004344225013,-1.0308368595229416,-0.3242810801316775,0.7318224896035949,0.6490153272839717,-0.20785411153262456,-1.8967865490951288,0.465219197452289,-0.8878122175894245,-0.5821575182875974,0.23906182405726437,0.34196395153843023
212,6.119999999999955,-1.1085201518536425,-0.988078110874828,-0.9083921772791732,0.7256804601898366,0.6560951683718722,-0.20710188934700519,-1.8466931105030053,0.5523170148860349,-0.9527430836379113,-0.5854928413080556,0.23157813804574257,0.3442496722794399
213,6.129999999999955,-0.7748348363569695,-0.8958671452066131,-1.4465364910797083,0.7158922648550299,0.6665498920490047,-0.20770153472219605,-1.7546010243822325,0.6379359267839941,-0.9421266569752341,-0.5884847656058558,0.2231902971139498,0.3439889891765126
214,6.139999999999954,-0.38340492600883785,-0.7883167047852111,-1.9513732566162074,0.7026690393643317,0.679800226633831,-0.20980352411738915,-1.652681530308245,0.665443742778322,-0.8619683515181596,-0.590914045885177,0.2142351346344901,0.3411840802321291
215,6.149999999999954,0.016779550466407472,-0.6573340552770357,-2.459947304546482,0.685931243586955,0.695483400346972,-0.21363148364657647,-1.5917398041675912,0.6186084550585398,-0.7724843932588591,-0.5926197852057292,0.20484768269359427,0.3357899372044761
216,6.159999999999954,0.448178608919633,-0.5066054665555854,-2.9560875936272764,0.6655273879733727,0.7132925744153046,-0.2192367522911509,-1.5521721741972734,0.5650317502224399,-0.7058901301646083,-0.593539816103096,0.1951093224709216,0.32772438379552743
217,6.169999999999954,1.074046554149394,-0.3724104858562073,-3.410554575731859,0.6414308104214184,0.732434819597893,-0.22763014547667562,-1.4626978475140813,0.5056299165302426,-0.6300139464442263,-0.5931630110100561,0.18525113046920766,0.3169643009677747
218,6.1799999999999535,1.9446027053866524,-0.26154434041528074,-3.8157657582571476,0.6136562988553798,0.7516402210923414,-0.24101167086923583,-1.3282293315680374,0.4570219087049023,-0.5379403282066572,-0.590445036238816,0.17561958250516715,0.30348515599452613
219,6.189999999999953,2.8888430513749443,-0.17194912448706456,-4.178457224368325,0.5824832873974464,0.7694982966376289,-0.2609769097899523,-1.1822032740002109,0.5004679650148526,-0.44393342551970366,-0.5845901194749482,0.1665308990915086,0.2873592340484939
220,6.199999999999953,3.688974314593109,-0.11851880395384186,-4.546454919116104,0.548032399798274,0.7850742515510554,-0.28760767024127293,-1.0254824125870416,0.5605799600146602,-0.32816431351157305,-0.5755282946872394,0.15785018859015815,0.2687605823557572
221,6.209999999999953,4.281378239946753,-0.10321555912967248,-4.899488066575323,0.5101279324883543,0.7978980525351025,-0.31999563714646584,-0.871778726716703,0.5747817989402833,-0.1858471002193357,-0.563666240124122,0.14906115995884503,0.24789557248228664
222,6.219999999999953,4.634180274704615,-0.11367665232327112,-5.154438567938844,0.46912709690950677,0.8073993120783682,-0.35664455408136847,-0.7071260689929417,0.6313798882269652,-0.0370979283529186,-0.5495891869348346,0.13982264875134262,0.22520522756403122
223,6.2299999999999525,4.642517523630308,-0.15675269308406,-5.315958905986058,0.42585524959744575,0.8133485715685743,-0.39527241358960546,-0.5019803745990982,0.721730092901855,0.09475928355109095,-0.5342219147612544,0.12993312005574534,0.2013615465683632
224,6.239999999999952,4.32735149461723,-0.272917817807558,-5.413529451347826,0.38092628716119964,0.8164188625136816,-0.4330125000755038,-0.30212187203678686,0.7940436827445279,0.2226964505190668,-0.5188686982889054,0.11908060215399749,0.17704965970851586
225,6.249999999999952,3.8973599720066954,-0.4451769058242261,-5.290008805751943,0.33529421711886165,0.8172055874965752,-0.46792851271295655,-0.16786027910757256,0.9533049239750248,0.2905273984579593,-0.504439165272262,0.10719506760427179,0.1531706747021423
226,6.259999999999952,3.52055664593523,-0.611469216622182,-4.853978421425312,0.2911382638523955,0.8152814404020489,-0.4998624893740617,0.007203945634174966,1.2925919304668732,0.23450598949472057,-0.49089842526658467,0.09490186007148384,0.13099924919055797
227,6.269999999999952,3.061365823279757,-0.8122148882054194,-4.377391908445262,0.2499680723369279,0.8108489279729106,-0.5286392938555025,0.33111948846768047,1.7119025606003415,0.14076854995036306,-0.4783013229458598,0.08267504301031203,0.11138480109670919
228,6.279999999999951,2.430586197707898,-1.0811866500167917,-4.116114654369302,0.21061370481421182,0.8057786000296122,-0.5530427605392869,0.659607654642789,2.1051483495521297,0.09322710042039975,-0.4674564359455602,0.06997116493308267,0.09410656068024771
229,6.289999999999951,1.7687321561623153,-1.3047352796412985,-4.068887693551235,0.17101147924242058,0.8018178893602605,-0.5721637301539086,0.8592517762059959,2.4313277521739103,0.1140544638646142,-0.4590216982566424,0.05614491447501753,0.07824787707344485
230,6.299999999999951,1.246287306024748,-1.3998110214362949,-4.127842368278203,0.1303292468890718,0.7993345462091473,-0.5861900050279809,1.059558354619506,2.5677628240956025,0.17951126060033035,-0.45291627484781466,0.041325269770876014,0.06282032959232758
231,6.309999999999951,0.9269880104940981,-1.456775335008731,-4.171458639873783,0.08871029208215926,0.797549776065858,-0.5963094911630895,1.3225954339707866,2.4359471272942392,0.253309737981651,-0.44845174832938095,0.02591210419207737,0.04735498796653681
232,6.3199999999999505,0.7661439302734419,-1.515353557979439,-4.094805884936534,0.046772860242376646,0.7953573845700116,-0.603960093273661,1.4632372318112628,2.142243453782108,0.290506428080099,-0.4448041895408691,0.010181073977686658,0.032085666221909837
233,6.32999999999995,0.8203520038114508,-1.492523234619294,-3.8649492393027383,0.005923455682469582,0.79170184597626,-0.6105418687397745,1.4386881833136882,1.8099485184472006,0.2781601247953873,-0.441179245308196,-0.005338099046970875,0.01755593642925239
234,6.33999999999995,1.0551580509400462,-1.3071053957490715,-3.522864320850244,-0.031918027174304274,0.7855237857470049,-0.6177234507541006,1.3995481427664276,1.5019127718055072,0.30877028781507376,-0.436686565870928,-0.019753104374890394,0.004114515525719226
235,6.34999999999995,1.1945295888842544,-0.9227657761637994,-3.122380625965111,-0.06495576038126707,0.7768558418844376,-0.6261033494563449,1.3879605749913786,1.1967984436299919,0.44089415302208695,-0.4311381755202625,-0.03207872572244313,-0.008270703340773022
236,6.35999999999995,1.0791996956800798,-0.3526405274331781,-2.682783596976597,-0.09149146930364987,0.767338251999219,-0.6345495916218675,1.3515868042627697,0.7786632698404155,0.6195270637885185,-0.4254376113571524,-0.04131413438742617,-0.01978563143656105
237,6.3699999999999495,0.7551124371824685,0.3456129259410286,-2.228879655288251,-0.11027158598617978,0.7589694886849928,-0.6416612038366162,1.2880216659149268,0.2305719630597015,0.788555944345835,-0.4206970905379637,-0.04665555585384112,-0.030664697478247217
238,6.379999999999949,0.3379094703317611,1.0558984693658346,-1.8085904855416857,-0.12095274515101043,0.753114267643854,-0.6466608273985719,1.1892533417739426,-0.28305352238745823,0.9044988798701412,-0.41759529741943696,-0.04777361242647275,-0.04113735333760079
239,6.389999999999949,-0.04282969931770422,1.646647929354017,-1.4875847713220012,-0.124448813628622,0.7501975832477985,-0.6493959319763152,1.0706721177213738,-0.633621647018429,0.914759279173731,-0.4162545552135227,-0.04504593895922746,-0.05137276649687865
240,6.399999999999949,-0.2898697887716884,2.069942436533511,-1.2690774780880179,-0.12260857023266603,0.7496415553704527,-0.6503850669381843,1.011469581261338,-0.854485361560776,0.8110116695786946,-0.4162264393819667,-0.03938416151477463,-0.061524712990869854
241,6.409999999999949,-0.443239152227035,2.3457915201132526,-1.0696186996731218,-0.1169825988109012,0.7506287204814642,-0.65027517921408,1.0070912806986567,-1.0327897454835782,0.6780036433416456,-0.41694259025760866,-0.031665000162234364,-0.07150381638085802
242,6.419999999999948,-0.6015158880900411,2.5496152598342063,-0.8222676745513642,-0.10821270884849446,0.7529431464863435,-0.6491047342642652,0.9622646007269557,-1.2262254721707009,0.6302047253920113,-0.41823620005444595,-0.022366451967306238,-0.08098476757946194
243,6.429999999999948,-0.7999144932389096,2.726167329149717,-0.47825109149050715,-0.09607940968096958,0.7567571450490264,-0.646552659767639,0.8520849614294467,-1.4811952020520813,0.7063748860375418,-0.42018526223681585,-0.011514063639249141,-0.08956519237676036
244,6.439999999999948,-1.0836125399757024,2.820586228687729,0.037053771682188485,-0.07991055677346441,0.7625334553557533,-0.6419123548129139,0.7322707372761812,-1.7639895067025368,0.8767989592043167,-0.4230785226820977,0.0009790525784165328,-0.09649420052313051
245,6.449999999999948,-1.4712307977076526,2.8155315162785417,0.6786534143774559,-0.05916624128316202,0.7708622905335658,-0.6341055881895807,0.6648682639302723,-1.946505536150397,1.07848754531557,-0.4273855748356421,0.01506503863593689,-0.10084722727120687
246,6.459999999999948,-1.867846071118671,2.737114647095419,1.3205843127503802,-0.03389836250917966,0.7817763734273555,-0.6224183420360347,0.6746476283512888,-2.0176574587994263,1.2280773671978884,-0.43333838623666204,0.030535935640582438,-0.10213675260755162
247,6.469999999999947,-2.1595349491181173,2.5927864351849017,1.8962106562316188,-0.004753387335446632,0.7944688333755605,-0.6069933403273889,0.7122497500084861,-2.0250158456468257,1.2727570619476452,-0.4406900229323655,0.04700014414408865,-0.10036382806254802
248,6.479999999999947,-2.324235636240772,2.3851028253026936,2.403569793905841,0.027420977299835225,0.8076292921015863,-0.5886980967769958,0.7357838754948649,-1.9569791933139704,1.1994297134938987,-0.4488524803091341,0.06396662370127659,-0.09571598733196512
249,6.489999999999947,-2.3848575413257054,2.13888248779469,2.8860866595197976,0.06208307127648768,0.8200599901575254,-0.5684903966135677,0.7457230376013682,-1.861812535748132,1.0431699484182189,-0.4572682118905939,0.08105461350386844,-0.08829946835478893
250,6.499999999999947,-2.3390567774575244,1.8665472544939705,3.3633191118539667,0.09910044857679834,0.8307233952065554,-0.5473359081608148,0.7327276929957347,-1.7863774348523185,0.873105135021493,-0.4654326722171654,0.09806733315269746,-0.07813452863609884
251,6.5099999999999465,-2.1723665235576393,1.5736948810417384,3.8228600463107587,0.13838762587089487,0.8385650204668892,-0.5264369883051763,0.6905133284107432,-1.710252751305686,0.7282304607745972,-0.47276902558184986,0.11484961220042089,-0.06527796357472368
252,6.519999999999946,-1.9007494692591047,1.2644341803522114,4.261675930253724,0.1797611875893837,0.8426488951663381,-0.5070456263290071,0.6521929845098632,-1.6298243866189714,0.6279785360213542,-0.4787280314582659,0.13124328431477367,-0.04983315094610292
253,6.529999999999946,-1.5706256095920847,0.9790477611196374,4.650811273742446,0.22294909689056866,0.8422954137437193,-0.4901908788307003,0.676124485919337,-1.5449780906555677,0.571306236408636,-0.4828881939269665,0.14717161743969048,-0.032030656241337926
254,6.539999999999946,-1.2442087443960863,0.7837264968481004,4.949732685730448,0.2675603646842613,0.8372564413070799,-0.4762879438041879,0.7692850077910894,-1.4411715488442765,0.5502067281115076,-0.48508916777274524,0.16274078769762165,-0.012384995089441395
255,6.549999999999946,-1.0135116533617519,0.6570983547956467,5.162605990468496,0.31308822175462975,0.8278120305622623,-0.4648844756070156,0.8734916491196163,-1.326962956740213,0.5631639367200793,-0.4855626376292694,0.17812349105499456,0.008515184678366811
256,6.559999999999945,-0.9565829684257012,0.5280787473086604,5.292759675904656,0.35880773911460484,0.8146949168528306,-0.4548984693131004,0.9514503720911447,-1.195160912816298,0.5842782126506003,-0.4849151709719178,0.19326626197479993,0.03032184822230171
257,6.569999999999945,-1.1188982776355652,0.3770516013104268,5.311665052501186,0.4037004876284555,0.7990527892616601,-0.44492406355349556,1.0093905525240077,-1.0150305613361588,0.5845384290296202,-0.4840336202626515,0.20784364000532615,0.05281821634537153
258,6.579999999999945,-1.395704188750284,0.20811569663880514,5.271838673192926,0.4468393575367514,0.7820389450081956,-0.43381563445531107,1.0669195404324934,-0.7655074602882073,0.55272540964328,-0.4837364997019527,0.22146915396730976,0.07584904962575033
259,6.589999999999945,-1.5827350905035908,0.09672829309412728,5.270419065050106,0.48819982591363764,0.7637998213649387,-0.42157802573703423,1.161928403123921,-0.4135210133568431,0.47450779318411984,-0.48408807108130286,0.2341616279684911,0.09935392538112373
260,6.599999999999945,-1.6642893815086184,0.1281189593361463,5.25476280475655,0.5283376566771728,0.7437854525179983,-0.40877558291693267,1.3837165598484276,0.09723149341409254,0.34255439314697317,-0.48460539578594836,0.24643941273852332,0.12301527397916798
261,6.609999999999944,-1.7909827805113363,0.26431700264128094,5.134856580757592,0.5672466967369166,0.7222073249287274,-0.39510695319048666,1.7380144684553713,0.7464935158457191,0.26604912872422976,-0.4852761548050823,0.25868099319924254,0.14621468467887883
262,6.619999999999944,-2.0889691449679164,0.46189576704507745,4.9429183388140485,0.6045048089579502,0.700126695388586,-0.3793033018301746,1.9450514609924368,1.293996987280059,0.27867494057852954,-0.4867617467145513,0.27087528966538543,0.16851181928699546
263,6.629999999999944,-2.676155874268458,0.671062606793242,4.694333027584251,0.6398896169264731,0.6788046651637407,-0.3594968754624807,1.8221948102597274,1.611751988878086,0.23743268734018538,-0.4901279814049234,0.28281840906299544,0.18990129474988998
264,6.639999999999944,-3.555913939276242,0.7807675090101249,4.246751896073388,0.672495199042509,0.6600912334526634,-0.33394013536925254,1.706658134843036,1.899216418595488,0.10157871117199753,-0.4967385324602415,0.2936623190792767,0.2104518401007281
265,6.6499999999999435,-4.38627460938497,0.7808948183433972,3.6074240257536077,0.7006925699707063,0.6457571258710905,-0.3025551937376918,1.8355174600599886,2.191079044992593,-0.012228000780706728,-0.5073117327654666,0.30216772441917067,0.2298182647009589
266,6.659999999999943,-4.796612199767603,0.7287768563201655,3.0163524307106635,0.7240490725088132,0.6353878287657202,-0.26754529781776454,1.8901787203975895,2.359264927426755,-0.05529063918204208,-0.5208575276537328,0.3080202865989942,0.24759028806435937
267,6.669999999999943,-4.706003668044977,0.6254704093055861,2.5766639977863863,0.7433981747099991,0.6268862371363084,-0.23234486174594338,1.6667109112519467,2.42855833908971,-0.0844255811271943,-0.535294532438627,0.3118235161645867,0.2636568357100057
268,6.679999999999943,-4.201238050492911,0.46315031477917556,2.250983185876957,0.7596377268705922,0.6184873778688815,-0.20032691961222168,1.3355631764445544,2.3887803980611837,-0.12087586749773095,-0.5486356477145059,0.3143188553045078,0.27800425310407145
269,6.689999999999943,-3.4165412268217863,0.23557153141301948,2.0051371791405757,0.7733840614766821,0.6093997024355859,-0.1741204844588611,1.0253603227244033,2.179102242799386,-0.18491568017739476,-0.5594819992407088,0.31606550347152373,0.29065983073203816
270,6.6999999999999424,-2.5494371727017375,-0.045637037183570234,1.8131222785988812,0.7850984634678257,0.5994926620619461,-0.15530121512733205,0.7274364613944063,1.9009016522815734,-0.27849189939712116,-0.5671059593365656,0.31738177838495785,0.3018187784608765
271,6.709999999999942,-1.8355264203412371,-0.32922859776369917,1.6469220543217242,0.7951030775643275,0.5891142362711719,-0.1438452198306264,0.4248676453039759,1.666761975215192,-0.38940933704446623,-0.571618981032589,0.3183183936014268,0.3118129081353788
272,6.719999999999942,-1.4327391709322472,-0.5767781520152548,1.506846960263723,0.8036594430812712,0.5788119688231618,-0.13807282037048263,0.12566773142826912,1.444806369121095,-0.4817134608121148,-0.5739194989647062,0.3187153102914948,0.3210883606213324
273,6.729999999999942,-1.375492287783384,-0.7671483010885097,1.394780269440183,0.8110658245357639,0.5689938466977134,-0.13558633349378868,-0.16978532843197047,1.1819508035392001,-0.49387122061497524,-0.5752128806073755,0.31833394084526506,0.330168365906601
274,6.739999999999942,-1.583243245140299,-0.8829075631632802,1.2902506087876096,0.8175320804393809,0.5600343564803656,-0.13407344192934634,-0.46807188034859104,0.8966870606726118,-0.4232228086807863,-0.5766326034512803,0.31694860093362986,0.3394149361191198
275,6.749999999999941,-1.900777465638633,-0.9434880318233974,1.1610832408079554,0.8231380327720822,0.5522892369307062,-0.13190818179283986,-0.775965060745843,0.6527583791653604,-0.32502878869474106,-0.5789467255768013,0.3144233991972905,0.3489169843435535
276,6.759999999999941,-2.1235264403273093,-0.9839136774300268,0.9995091766827544,0.8278283832827336,0.5459952565376041,-0.12874221487438542,-1.0793344279384727,0.5074026733991073,-0.2915593625743075,-0.5822642158135367,0.31078841017597675,0.35846519252975473
277,6.769999999999941,-2.0979540817262543,-1.0157402668138353,0.8138543562528902,0.8314948991087852,0.5411725793689346,-0.12545867773057195,-1.3308801172707678,0.47278947963615653,-0.3954308734158607,-0.586043464079405,0.30629109740938903,0.3676523477393772
278,6.779999999999941,-1.8308696161381088,-1.0606426729281686,0.6129422072141141,0.8340655855754145,0.5376749318740354,-0.12343919162174263,-1.4911414269756043,0.5101368302516484,-0.5905234271125334,-0.5894593775136494,0.3013459765247004,0.37603492682547157
279,6.7899999999999405,-1.4491719119795519,-1.157996758239055,0.36507484286334546,0.8353425080484977,0.5355900867615596,-0.12387533779793414,-1.571889681845014,0.5532410430465977,-0.7911751491030016,-0.5919211103263476,0.2961139896736391,0.38335060944857674
280,6.79999999999994,-1.0729278255033827,-1.2654029055688114,0.059312578479517764,0.8349644848605088,0.535375582729407,-0.12728312643595066,-1.6035551577460136,0.5812397806608642,-0.9380088464454629,-0.5933016924981481,0.2904176597775625,0.3894861072146142
281,6.80999999999994,-0.7576453399111291,-1.3249638726014659,-0.27277744973233103,0.8327107280933161,0.5374230546503027,-0.13323731863194113,-1.6036051111131675,0.6237300870101493,-0.973372192453266,-0.5938222478263026,0.2841579892439496,0.39431965056306734
282,6.81999999999994,-0.5099571997518132,-1.3262805108108242,-0.6398211245892318,0.8284328342977455,0.5420513863852356,-0.14087668119205835,-1.6161990122487966,0.6483841442559347,-0.8908689741492815,-0.5938488649696338,0.27729454260550546,0.3976988996177169
283,6.82999999999994,-0.25276566993467264,-1.2693417172619448,-1.0186965209735943,0.8219994104967473,0.5494601399587002,-0.14952211589898423,-1.669832989924111,0.6151705550145823,-0.7425069429581573,-0.5936299254083827,0.2698661003707752,0.39942503733876167
284,6.8399999999999395,0.12240608955502393,-1.1797729548986426,-1.3608553963864976,0.8134811157849696,0.559316421651788,-0.15916948485867685,-1.7076088002165775,0.5611585329575935,-0.5988994297176978,-0.5929969457268367,0.262211897638712,0.39931082706780474
285,6.849999999999939,0.6048785318797394,-1.0747445596703455,-1.6442017306348407,0.8030999517219705,0.5708749739550635,-0.17037232251525627,-1.6642252079824873,0.5216241115668064,-0.5048812497757215,-0.5915080265830573,0.2547902914706871,0.3972931009408182
286,6.859999999999939,1.123874473363661,-0.9478257858756953,-1.89078114200874,0.7910550416923818,0.5834538381748667,-0.18352168960687903,-1.5563283273688333,0.48769364787656305,-0.44054190516336195,-0.588865422670948,0.24791796877439545,0.3933854343181205
287,6.869999999999939,1.6219617723676985,-0.7970953570701527,-2.1522913727866886,0.7774215764811658,0.5966766748493301,-0.19857479722160293,-1.4461408784785144,0.4176185793898112,-0.37864062504743334,-0.5850317214126551,0.24173780622907254,0.38754114965090397
288,6.879999999999939,2.0729334070152685,-0.6412621469369261,-2.4623310826808145,0.7619888991884631,0.6105768799457872,-0.21534259217695575,-1.3607060182920157,0.3266211714150115,-0.31823596889905315,-0.5801371515193585,0.23612502885894462,0.37964025840327753
289,6.889999999999938,2.4683340497839015,-0.4933851370174964,-2.82186231057259,0.7443718794600654,0.6253359980750943,-0.2337253928596612,-1.2785982170474677,0.2842924981518766,-0.2558217953414546,-0.57432355159367,0.23080985415758032,0.36954376814285705
290,6.899999999999938,2.7392665547947685,-0.34923588292752905,-3.2228177937343996,0.7241927073024562,0.641139516971332,-0.2533776581425844,-1.1688062355396407,0.2762338088008626,-0.19599974572985565,-0.5678623252211741,0.22544357171447957,0.3571976210183916
291,6.909999999999938,2.8904914718518206,-0.20336720716177448,-3.631051871186134,0.7011799254820936,0.6580998980586654,-0.2737149079993047,-1.0360577715758739,0.28044358098625005,-0.14122037110777486,-0.5611110434054875,0.21971909052592753,0.34260620208299836
292,6.919999999999938,2.987077100088865,-0.06086719738024027,-3.9815095039459267,0.6753658591467224,0.6759566238013764,-0.2942630143985422,-0.8878295511015164,0.33458449952333136,-0.07855260269326966,-0.5543010659226758,0.21353438833596178,0.3259010977857106
293,6.9299999999999375,3.1002803697495027,0.05196882832894439,-4.205797840087611,0.6472319876556628,0.6938247578724315,-0.31511573710332713,-0.7062503443207874,0.4599019288962994,0.012701187060276675,-0.5473176098323798,0.20703114268613146,0.3074647338963025
294,6.939999999999937,3.277744409399617,0.12838993701540027,-4.3131448275312785,0.6175668601173044,0.7104133266406338,-0.33691065405315945,-0.48507618735008934,0.6451710528832979,0.07896069168816197,-0.5397312751030989,0.20052039681271103,0.2878049179341098
295,6.949999999999937,3.4577252478745977,0.13802562865155155,-4.302829995058938,0.587088678434613,0.7246398998989342,-0.3602771805989556,-0.18973913221724212,0.9428990790690386,0.08239617502059948,-0.5311531670817653,0.19418304768715078,0.2674384376466416
296,6.959999999999937,3.498941470789057,0.015644302172870578,-4.1505415929448635,0.5564457907186523,0.7358533936498687,-0.38531192005931886,0.20806118869452211,1.3928630014608083,0.042454755355557094,-0.5215555487805155,0.18785175784823716,0.24719856372341573
297,6.969999999999937,3.19680083701814,-0.21842973586882958,-3.963476566554988,0.5260042945051031,0.7443955694267037,-0.4108426524378271,0.6284045232634075,1.8810078977158677,-0.019518844265570316,-0.5116494947122068,0.18098701162955402,0.2280812505676633
298,6.9799999999999365,2.303573811172827,-0.48915634841441935,-3.9628532819905335,0.49490789596550094,0.7528381452720477,-0.433502844189079,0.9624435970891652,2.363479712683767,-0.07012468529109842,-0.503416941422426,0.17258674884979883,0.21042632458910945
299,6.989999999999936,1.0689820891150084,-0.6865557008323587,-4.267440771041502,0.46112348378209017,0.7650280746713973,-0.4491007673632288,1.3330014339545653,2.793294777634738,-0.05659825516145873,-0.4993014835592745,0.16157926726189994,0.19357607937572605
300,6.999999999999936,0.24878350976314878,-0.721877750952196,-4.706552791797645,0.4230979403879433,0.7820797678040659,-0.45698497940062766,1.8575130237568918,2.888979859771648,0.07869140446747831,-0.49955529599425086,0.14797623997670523,0.17616534324688363
301,7.009999999999936,0.1480932075859555,-0.6309581309914509,-4.9058212483071,0.3817388371683587,0.8007580350966885,-0.46100755741642907,2.147966501011995,2.619112084447475,0.2614941034251676,-0.5017030376404664,0.1331666463265764,0.15754012317495372
302,7.019999999999936,0.45065259650919914,-0.5066865393972366,-4.839729626198014,0.3396007006670482,0.8170349077553499,-0.4654327758689411,1.9371616029556982,2.2828095330643157,0.33331196914529065,-0.5031346194989368,0.11870155325072222,0.13824074036341938
303,7.029999999999935,0.8647807087989767,-0.3631172968934652,-4.674247435799462,0.2983211392431968,0.8291847582766335,-0.47223192212265663,1.6271959236152143,1.9084397879034851,0.29343360934604557,-0.5027533423115413,0.10526776791867835,0.11880549817116381
304,7.039999999999935,1.3402123268667958,-0.12605919298826934,-4.372781284692358,0.259349473022023,0.8366003171629738,-0.48213151312102626,1.510109323003624,1.44882285860994,0.3018321544687549,-0.5001771055197825,0.09340262286057917,0.09958743786037005
305,7.049999999999935,1.732255656053981,0.22618730330363565,-3.977881436209927,0.22453704351810072,0.8391498526330295,-0.4950748039014542,1.4432995342132522,1.0166174147725136,0.41726477045810795,-0.4953820559395566,0.08386893238607086,0.08087281432443331
306,7.059999999999935,1.802046872906809,0.6354574640164911,-3.530320098285007,0.19518950155570808,0.8380537537030838,-0.5092568030196029,1.3055978946313724,0.5766327406645384,0.5743869677318006,-0.48929357365878007,0.07711188523449058,0.06287994738850546
307,7.069999999999935,1.495621519894613,1.0298078232005212,-3.0624730092617507,0.17192049180334942,0.8355261346153307,-0.5217345895208806,1.1109675988814316,0.04642693582170915,0.7086010380384233,-0.4834958464155382,0.07318503684868193,0.04590565787180238
308,7.079999999999934,0.9643130916311053,1.3401231937351605,-2.6233694442287154,0.15449505218960213,0.8336845965116709,-0.5301307484302359,0.9251705489741119,-0.4992914540956552,0.7760177234652311,-0.47935101382715234,0.0717975819801829,0.030199319649678914
309,7.089999999999934,0.38406406852341046,1.5614961225668558,-2.237921546217334,0.14203931279266152,0.8337124180358867,-0.5335935477825158,0.784698632570501,-0.9573329194206861,0.7677173494186462,-0.4774433983389096,0.07245884431584518,0.01587468318417269
310,7.099999999999934,-0.1474814459296721,1.783985581684676,-1.9353529680671275,0.13355713538093833,0.8359812727366803,-0.5322407252437631,0.6735992170214048,-1.2942558236176351,0.7361625872775955,-0.4777866495374384,0.07481005262364664,0.0027334863268333176
311,7.109999999999934,-0.582881938341874,2.07989455085356,-1.6379315810732116,0.1287524952824351,0.8403014743404882,-0.5265861351111258,0.5616401598525963,-1.5385791080555096,0.7394880673455817,-0.48006490538099256,0.0789651229121907,-0.009571253032984266
312,7.1199999999999335,-0.9221828859512236,2.398609468676487,-1.2091227335016617,0.12836983727464438,0.84607876940859,-0.5173307978665249,0.44656432418049774,-1.7753958719881764,0.7846807117831774,-0.48376523335092353,0.0853617862895524,-0.02093032222992659
313,7.129999999999933,-1.2102599079353098,2.6009120664203156,-0.5967979682562164,0.13345618427551065,0.8527142034668478,-0.5049672290101641,0.36754580641169415,-2.004062916907556,0.844727160522206,-0.48847799543593573,0.09420051618659044,-0.0305305003461979
314,7.139999999999933,-1.4764158012724151,2.635097233610639,0.11141382358672292,0.14444794322962545,0.8597185330553918,-0.4897852847907671,0.35294165400608074,-2.141456839266812,0.8958969229141901,-0.4939614140942029,0.10519203569621459,-0.03736283312060337
315,7.149999999999933,-1.6648867218572634,2.5922015768246354,0.7804717340260683,0.1609290301500181,0.8665787734236357,-0.47218028328073863,0.3885639467127722,-2.195930459559676,0.9399303856593832,-0.4999621870438546,0.11786888438496929,-0.04105026096081918
316,7.159999999999933,-1.7012550104703617,2.5067112672383653,1.3823492935354507,0.18219166996480154,0.8725147328746621,-0.45308327845572777,0.4176298163103149,-2.1985657709885396,0.9432119998501399,-0.5059737149508688,0.13186121295748043,-0.04178816489417589
317,7.169999999999932,-1.5941374352915405,2.3352062621221155,1.9394041780090139,0.2075201865843818,0.8765926859348755,-0.4338717928875766,0.41024639013922537,-2.1252258662494916,0.8600457803725683,-0.5113406504930957,0.1467352840753336,-0.03975697825931892
318,7.179999999999932,-1.4303255158983978,2.0808255694215374,2.454628973416698,0.23623042700165922,0.8781208610618481,-0.41568526317209703,0.40879803580298274,-2.0074126843024667,0.7319926750770751,-0.5156074664217367,0.16200037150475932,-0.035003994847608154
319,7.189999999999932,-1.2934272824286532,1.7988745989271944,2.9105006344561506,0.2677179537821355,0.8768595118171375,-0.39888590834166315,0.4476671119175377,-1.9114843155651882,0.6248029760273006,-0.5187126788862682,0.17729758318350683,-0.02761579164078761
320,7.199999999999932,-1.1785887050468884,1.521474495980598,3.3085655323649257,0.30145306322373316,0.8727979797422539,-0.38338704048038835,0.4953691596721453,-1.8297034483961516,0.5671539712519943,-0.5207811381415497,0.19244802823462015,-0.017812789295759697
321,7.209999999999932,-1.0836178999257748,1.2552545470765955,3.656455559052592,0.33698586252903223,0.8658869275271691,-0.36917111244407946,0.5127766918060425,-1.723503309828533,0.5529735577369581,-0.5218836001321937,0.20735802554218524,-0.005847389240196128
322,7.219999999999931,-1.044342749641535,1.0113799007538138,3.9597002906472425,0.37390947510404443,0.8561497496499976,-0.3560570154078007,0.5290425278127585,-1.59229600821367,0.5527976097306281,-0.5221567612798823,0.22197194870894024,0.008060662043082634
323,7.229999999999931,-1.1223966605309963,0.7815378842163362,4.231345114040278,0.4118741307972496,0.8437766823685736,-0.34343241878531927,0.5946308244362348,-1.4613256476653418,0.5533419345214378,-0.5219334714610462,0.236261266606536,0.023777443566684604
324,7.239999999999931,-1.310701703119137,0.5637998214130238,4.445638726727183,0.45046714558007767,0.8291070649536242,-0.3304215586227717,0.6951558132953294,-1.3799873044721902,0.5617196990887466,-0.5217028926231262,0.2501376940517123,0.04123518224457236
325,7.249999999999931,-1.4567615838657992,0.3868243242915007,4.599532636323929,0.48914835136211576,0.8123241083086539,-0.31680310178208393,0.7996941680983638,-1.3615361142204954,0.5868748912265177,-0.5216508155033599,0.26350702104389123,0.0601620636898882
326,7.2599999999999305,-1.4554580044123229,0.24895276464103733,4.7539112598623285,0.5276575119144636,0.7930844222982686,-0.3034427277380917,0.8985859184606728,-1.3347837492943884,0.606190670334014,-0.5213521879797248,0.27645884103142077,0.0801578122121888
327,7.26999999999993,-1.2887219445273963,0.11511089487053333,4.992619925060028,0.5662232942032479,0.77055544111953,-0.2916914709931747,0.9689746110696764,-1.2413870493250339,0.5910310574896894,-0.5200634224502808,0.28921767993707104,0.1011077797223272
328,7.27999999999993,-1.125023074926678,-0.0010158336424628683,5.323317465177521,0.6053917760235685,0.743769940762929,-0.28228548500521267,1.0256988495767037,-1.093621766449622,0.543019239002839,-0.5172395902856608,0.30211643463875626,0.12322395778078497
329,7.28999999999993,-1.1107796987632108,0.013990246514393186,5.5843943102273705,0.6451609760432745,0.7126414236556723,-0.2742665838552602,1.165440391584668,-0.8418531297526114,0.505784159708209,-0.5131399088993478,0.31544089028838823,0.14644838460973675
330,7.29999999999993,-1.3629635664951039,0.1855988529568301,5.74433854068521,0.6848171175542079,0.6782105811553958,-0.26518204258762135,1.4622654699460869,-0.45693365084018356,0.5641425224230281,-0.5088388957544752,0.32929894097081225,0.1703164521486751
331,7.309999999999929,-1.8175288921004948,0.46023270387714454,5.941169110319842,0.7241453413750281,0.6411148736035795,-0.25253705436175894,1.7472791170289872,-0.12994893617661196,0.6661632473615569,-0.5054024505970611,0.3438629782137495,0.19472962651535664
332,7.319999999999929,-2.3615382054425984,0.7695009998636916,6.022982608830175,0.7629120301132418,0.6015206006038314,-0.23506734982889174,1.8428571900469122,0.15623197511930406,0.6608572894829807,-0.5033964562979749,0.3591615348751942,0.21966129960888356
333,7.329999999999929,-3.22227069870967,0.926254971304836,5.667350825206235,0.7990583205127539,0.5617900676678819,-0.21230051800757718,2.018988671011585,0.6142676832259675,0.503517614200418,-0.5039662474950172,0.3739225842901274,0.24454683547646547
334,7.339999999999929,-4.26931377593868,0.8973243301944132,4.9360395072087115,0.8298747662423769,0.5258886523576253,-0.18455525355478614,2.515163815226482,1.2053401667959134,0.3352202105474463,-0.5087112562349698,0.38587240274351764,0.26880302209020746
335,7.349999999999929,-5.091318798824469,0.8541602722304336,4.128536540154964,0.8545627322922147,0.4956420668097976,-0.153265274853978,2.948366067279627,1.780900279234649,0.25469645057125073,-0.5177960463700964,0.3939728367977633,0.2918745274547233
336,7.359999999999928,-5.570731276876726,0.8194424660328367,3.4146392757584523,0.8739737638533057,0.47036301166388716,-0.12016786597656796,2.845455479345584,2.2090545352525455,0.1588925866354525,-0.5300640598381349,0.3986227539394389,0.3133181964627472
337,7.369999999999928,-5.5410999647602805,0.7018557396816695,2.794345725681307,0.8890927985920787,0.4488181963608058,-0.08768112843267652,2.372272514334401,2.406179621465908,0.03966434918838427,-0.5438116484582063,0.40047394055934404,0.332847601565192
338,7.379999999999928,-4.754944365647123,0.4968017274757882,2.2460749003533724,0.9006374283353833,0.43019184884959244,-0.05941927478274672,1.9409948101419334,2.405061556488047,-0.019291342895518086,-0.5566500594222513,0.40049578059935925,0.34976268332836363
339,7.389999999999928,-3.375328351242701,0.2701348085073408,1.820556129738929,0.9094084848940288,0.4139379141285834,-0.0386310532723933,1.565033004558086,2.3819059110011565,-0.07988430885031265,-0.5661870325935628,0.40012890743997315,0.36326571054956286
340,7.3999999999999275,-1.8905425686723287,0.07829980212454202,1.522646472424386,0.9162583026248752,0.3996338338359303,-0.026324086653371687,1.1075372660133151,2.371629286487961,-0.2231030677373764,-0.5712787471331238,0.40059492723111645,0.37316213941611237
341,7.409999999999927,-0.7610131778640432,-0.09614073928385569,1.3162754846057847,0.9218345705780697,0.3869443160635157,-0.021270060169204585,0.5841774553323671,2.1860602299162837,-0.37079737118007433,-0.5723646377024235,0.4021970677346043,0.3800848127501956
342,7.419999999999927,-0.14987603485663395,-0.2621852796644313,1.1717311333116684,0.9265322249382419,0.3755666247933605,-0.021294313366783203,0.0883369109800933,1.8108790837084867,-0.4388106556694932,-0.5708003322440383,0.4043970153604412,0.3851950801776838
343,7.429999999999927,0.011056840585414437,-0.407000193503826,1.0706266980100618,0.9306047880847194,0.36517757414701935,-0.02424911957447734,-0.3228416496686344,1.426120367584666,-0.45507915001646515,-0.5680111795807142,0.4064916609895791,0.38960590000179984
344,7.439999999999927,-0.17568125749321686,-0.5479813814254062,0.9579940949547843,0.9341487257479217,0.3557072323733084,-0.0284801836187064,-0.6618160718941861,1.1555278957486965,-0.48933598912510473,-0.565190905412505,0.4078202683897767,0.3941378832864206
345,7.4499999999999265,-0.5805633847192199,-0.6954394105386614,0.7902118525682199,0.9370460615707197,0.34761410345473215,-0.03301069418818079,-0.9352087072718959,0.9829165240605084,-0.5589071187735217,-0.5632691506967515,0.4077031464641043,0.39926953085940325
346,7.459999999999926,-1.0624616860462979,-0.8311523397356508,0.5713918415134333,0.9391338119807066,0.3414970298676421,-0.03736958458463594,-1.1421814953546003,0.8498704687759445,-0.6354574961233169,-0.5627844368159258,0.405692700231709,0.40512942215538356
347,7.469999999999926,-1.5167535698825496,-0.9438053355282991,0.30892218883301065,0.9402883758564664,0.33785218952108936,-0.041341711511058234,-1.3092387143743718,0.7499088072980442,-0.6971681658960631,-0.5639156184984565,0.40164777877929825,0.41156413745495324
348,7.479999999999926,-1.8395601712169858,-1.022812851574059,0.026445031263124086,0.9404292342654457,0.33700699424449804,-0.044903468717723605,-1.4673673316514548,0.690986646329226,-0.7245565106049028,-0.5665291622033263,0.3957001541004626,0.4182123883368723
349,7.489999999999926,-1.961925542668805,-1.077672129292828,-0.25445099169929547,0.9395498816040447,0.3389789332999249,-0.04830379988449926,-1.6216694972524983,0.6685842575389288,-0.7306383559363294,-0.570165278595689,0.38825170731729675,0.42461051798864996
350,7.499999999999925,-1.885503230208736,-1.1158497767240572,-0.5226486907575734,0.9376616350197553,0.3436173970290995,-0.051999266527354426,-1.7359065594106442,0.6767150576074856,-0.7544270562611568,-0.5742273565482452,0.3797886517551078,0.43032127661390296
351,7.509999999999925,-1.6831208397013568,-1.1185303884648237,-0.7626984000745132,0.9348136196364076,0.35062032617717664,-0.05625930898689718,-1.7657612696259133,0.7016857094526324,-0.7872301730417706,-0.578234650049597,0.37079704965625554,0.43502688871319684
352,7.519999999999925,-1.4240414823749155,-1.0782949856014632,-0.9776837012344558,0.9310715610493009,0.35965197247170183,-0.06100215277878163,-1.731889763595035,0.6931267101002798,-0.7879265671988365,-0.5819507278009335,0.3616743481921318,0.4385350819727402
353,7.529999999999925,-1.108293955740845,-0.9892545719057856,-1.1833352636297578,0.9264614741696658,0.37049425121940915,-0.06600386846181014,-1.7067665727809234,0.6250689282321622,-0.7364413532638098,-0.5852961955954675,0.35271033160267184,0.44068793830686764
354,7.5399999999999245,-0.7041094034901094,-0.8557025158672686,-1.365226550986957,0.9210199152440042,0.38288964660741037,-0.07113332383228851,-1.7025758138625422,0.5452215004630316,-0.654111540891532,-0.5881310404006403,0.344263388082342,0.4412774977564848
355,7.549999999999924,-0.2031033784672685,-0.6921782694450654,-1.5128033190086425,0.9148280342302065,0.3964466743591128,-0.07650248066540657,-1.6712817376196445,0.49255260163993503,-0.5782417265180513,-0.590208313360738,0.33673448463628264,0.44013195870589633
356,7.559999999999924,0.3678583288508425,-0.5196952803801507,-1.6574893589964084,0.907902430198274,0.4108927100582851,-0.08247306615896557,-1.601001341759964,0.4643644387733751,-0.518835580292334,-0.5912674465446934,0.3303907556894026,0.4371228603763535
357,7.569999999999924,0.9695311525769521,-0.35728568891136525,-1.8000938370568216,0.9002497452245318,0.426004114851052,-0.08934711678170228,-1.5238229096844866,0.4516963207559624,-0.47028358157907263,-0.5911416593868217,0.325381656515525,0.4321825742936318
358,7.579999999999924,1.551925780942887,-0.20966629466821238,-1.9829845500624703,0.8917905510626513,0.44172223908972014,-0.09740419839953135,-1.447683487072744,0.4501183349347613,-0.4279084738013938,-0.5897684140684655,0.32166389223766484,0.42528848191636687
359,7.5899999999999235,2.038290450560138,-0.07208249983897339,-2.2482020390012765,0.8821350432889146,0.45858805564216804,-0.10679514994006176,-1.357228653549408,0.45718214765625637,-0.3859622144793196,-0.5873285280025116,0.31881642927985343,0.4163562401477993
360,7.599999999999923,2.375917457704563,0.061526154360055194,-2.5413635880959426,0.8709091818209623,0.4770871518259864,-0.11724231196459471,-1.2489181825955036,0.506826975648078,-0.33848923279777293,-0.584215942620078,0.3163326145202719,0.40540016662608874
361,7.609999999999923,2.554511032490498,0.16728615351821374,-2.8106108118479725,0.8579863065645086,0.4971977701676581,-0.12832011854266784,-1.108010625842824,0.575520426572243,-0.2760608364568431,-0.5808138001426507,0.3138321186603968,0.39266813094878217
362,7.619999999999923,2.593163720703978,0.2654175432732997,-3.060139875866913,0.8433529594536844,0.5186991443424153,-0.13961722589281925,-0.9194404732622312,0.6041253768951341,-0.17529889107699903,-0.5774524936795269,0.31102258255952775,0.3785020896013545
363,7.629999999999923,2.6176497152477345,0.3811579004524915,-3.2245295205205697,0.8271061437322215,0.5412494685164385,-0.15070230244410354,-0.6969024415815309,0.660639178525058,0.001154166484126834,-0.5743559832744182,0.3078296413381673,0.36315809238843944
364,7.639999999999922,2.8522848639955267,0.40862116659967423,-3.2867039199973114,0.8097084809008736,0.5636920772200148,-0.16243391938796087,-0.40554996691043427,0.8524786963207927,0.1688494217136913,-0.570937435373095,0.30464305451782125,0.34689738966976363
365,7.649999999999922,3.3746152186599976,0.30676675728173314,-3.364433877111031,0.7912288753404605,0.5849934371695996,-0.177386866967074,0.06605298935005008,1.1710424969556041,0.2722857822292821,-0.5659362172030313,0.3016808831147971,0.32976830418472397
366,7.659999999999922,3.894840226678529,0.1454360033922965,-3.4013996633533155,0.7714682532135564,0.6046198014692874,-0.1973674491117043,0.5931787216457198,1.6224849472916403,0.35809199150396126,-0.558592185591141,0.2987816470941462,0.3117739701901092
367,7.669999999999922,3.945496521462674,-0.019864426103860966,-3.380961725248015,0.7508144904426162,0.6221086865947311,-0.22119091841712382,0.9269285799191742,2.1633016391340547,0.41340334778149557,-0.5495377940005968,0.2956131918118826,0.293587879658993
368,7.679999999999922,3.333050841859817,-0.21678289071360468,-3.602513452694871,0.7286023561569651,0.6392677972076043,-0.2452037837897964,1.2372259562207542,2.5836091817875895,0.4573857733617929,-0.5410411345290326,0.2909466714957795,0.2758098325185077
369,7.689999999999921,2.407040436829218,-0.4221093206496934,-4.153116551077737,0.7025862434611915,0.6596363514363842,-0.26613835508383016,1.8899835957217914,2.763823654751484,0.5074988092029082,-0.5354556518742024,0.2831808125911075,0.2580931492592583
370,7.699999999999921,1.6252748098020886,-0.4994375508303756,-4.712887054649138,0.6713778382039057,0.6846805788326518,-0.2827377084577576,2.5969192840521838,2.694807344741958,0.5635070061171548,-0.5334694054396031,0.2720321930178012,0.2396962503145084
371,7.709999999999921,1.2103877548073265,-0.4450015810884161,-5.063211863743554,0.6357158427158652,0.7126871529275944,-0.2955556452842399,2.724506628148464,2.397747597751434,0.5969706038525657,-0.5340739106678631,0.2587235414679417,0.220259409815948
372,7.719999999999921,1.2561789897775637,-0.3482077532640096,-5.251735113627501,0.5969568315179253,0.7408793443750472,-0.306785431161382,2.410099122730797,1.9795578314452942,0.5467985449102073,-0.5354561120791423,0.24462846680316816,0.19969324925296913
373,7.7299999999999205,1.6581000260750924,-0.2491050715106085,-5.300846599324388,0.556132596590059,0.7668495523658715,-0.3194190870533857,2.2002002745827745,1.568004645041333,0.4731695530724085,-0.5357734168278243,0.23062904478588178,0.1779584366306032
374,7.73999999999992,2.180520262912185,-0.11543938062237716,-5.149784274338572,0.5147914273406106,0.788608562948786,-0.33539899659370725,2.1265577188668283,1.194058384261094,0.4767110139299863,-0.533823112249897,0.2174657993685656,0.155437993947528
375,7.74999999999992,2.6309281986331694,0.06797011299699776,-4.8479901996043235,0.47482265401841406,0.8050595533101929,-0.35480858447647945,1.951249200819806,0.8130621144386627,0.5533054941671883,-0.5293538883901052,0.20577356944303637,0.13277173724363348
376,7.75999999999992,2.9334882549374206,0.2756647859387807,-4.466059325170071,0.4376680341063609,0.8161442371411456,-0.3766873325360956,1.675491348855427,0.43182731439940886,0.6526743859036848,-0.5227328896280102,0.19588875883775414,0.1104913553499782
377,7.76999999999992,3.0785715815146126,0.48145713216829844,-4.056216188300975,0.40424098321595325,0.8223917246411712,-0.3998409647496034,1.404489313426853,0.09263273361883251,0.7286753466693087,-0.5145301082361576,0.18789984196089796,0.08900984235894308
378,7.779999999999919,3.0608145936755715,0.6706588356986444,-3.671651713847156,0.3748382873996719,0.8247778341961669,-0.4229895197485684,1.1809326454836988,-0.20668312837215996,0.7710779055884046,-0.5054377683718018,0.18168328249961616,0.06856138952410545
379,7.789999999999919,2.881708320085265,0.8295199313030757,-3.305852865825901,0.34933994976079763,0.8244934898384628,-0.4448851890669842,0.9901203694292641,-0.48046689630346345,0.7891000502858602,-0.49618703101104067,0.17700551722538602,0.04927416787961912
380,7.799999999999919,2.522444975712543,0.9422809667702645,-2.9326498343802747,0.3276706172659442,0.8227585208286056,-0.4642449676003834,0.8047080108566589,-0.7547892914871672,0.7813865059065386,-0.48754488765778287,0.1736639052985206,0.03142077633453148
381,7.809999999999919,2.0274505109236616,1.049707535307023,-2.5612042951800564,0.30980869771305747,0.8207689467074163,-0.4798407289053715,0.6433083727741853,-1.040084265199823,0.7730123593956485,-0.48024540131536814,0.17156042165704652,0.015277281255324661
382,7.819999999999919,1.4731449416407183,1.2153764731676278,-2.2349042051224957,0.29564866268060735,0.8195365999802682,-0.49081112428278023,0.5143243218909258,-1.3188698824197966,0.7924346843297017,-0.47478736367800095,0.17078191546160124,0.000771314948048195
383,7.829999999999918,0.8810824127521646,1.3921261839567343,-1.938280495870117,0.2849850716330761,0.8197962949358888,-0.496683569639001,0.3941751603858007,-1.5534053012903273,0.8447150798325525,-0.4714428436159172,0.17145873673501963,-0.012343276151843852
384,7.839999999999918,0.30851933955719296,1.4981015160394202,-1.5942663001336685,0.27766631090374083,0.8218245490788215,-0.4974889472440333,0.2999265131319005,-1.7062860323912334,0.9207224463314937,-0.47026133984978497,0.1735164931966165,-0.02392338787403903
385,7.849999999999918,-0.24064643048419251,1.5640967955574292,-1.2180312226090864,0.2736789677728856,0.8255299924639615,-0.49354229466412686,0.27984759769729245,-1.7802897513258815,0.9820916001623378,-0.47112153031590465,0.1768294154633398,-0.03363319347127005
386,7.859999999999918,-0.8155992247057242,1.5981637144810632,-0.8355700994991052,0.2729216625448249,0.8309007657749529,-0.4848473056977138,0.31005833544741085,-1.854123490791799,1.0091242537483445,-0.4740078190933752,0.18133560389294226,-0.04133420347670009
387,7.8699999999999175,-1.3976808373971714,1.5694675456941705,-0.4146149094190177,0.27530215215228,0.8379030693821583,-0.47121468859539917,0.3067124341512672,-1.9913643664467875,1.0149054000464905,-0.478994291934437,0.18691908429031942,-0.04678778129642637
388,7.879999999999917,-1.858529512312217,1.4861226072689375,0.04730493726735213,0.28084152047203703,0.8459792106672848,-0.453118489424938,0.27000138157264036,-2.125401130256456,1.0038626864759772,-0.4858016774475177,0.19341969520582983,-0.04971578357733062
389,7.889999999999917,-2.055470726166661,1.3377090210180544,0.5536810750083001,0.28966951334870195,0.853861952252265,-0.43226516721485553,0.252609238871436,-2.182470140546462,0.9537344137776943,-0.49353148570575833,0.20065951605405416,-0.04997694131309036
390,7.899999999999917,-1.8949901976788774,1.1251318176291956,1.1116455808730028,0.3020365009389927,0.8598191292392366,-0.41149807825106205,0.2639905259977174,-2.1488465390126374,0.8479583929996392,-0.5007804192476751,0.20843008496640877,-0.0475152422880419
391,7.909999999999917,-1.4102264996892315,0.8647497561908142,1.699341654705675,0.31818399990618135,0.8621816982142871,-0.39403479259818963,0.3065620253129383,-2.0452587804413587,0.7165560270012133,-0.5060382493368424,0.2165344274673646,-0.0423879975338228
392,7.919999999999916,-0.83829648807929,0.5779299610810462,2.2737736003642692,0.3381326461448274,0.8599946996064105,-0.38200918250385524,0.36414697727113304,-1.907056126320684,0.608395628464296,-0.5083662696605402,0.22481472766271537,-0.03471048800821416
393,7.929999999999916,-0.41779610067359413,0.33347737772585073,2.771405158364371,0.3615205938589706,0.8534439875743204,-0.37517567701747684,0.4112510323435251,-1.7672278967403883,0.5553916575479002,-0.5079415208972261,0.23321449251664847,-0.024661476559904937
394,7.939999999999916,-0.19787479355045764,0.15819509817817806,3.142475968181265,0.38757476310991895,0.8434228527795762,-0.37175996656705507,0.45707781717434537,-1.6553654460713287,0.5677102490548119,-0.5056172129879574,0.2417649827092665,-0.012652002173543262
395,7.949999999999916,-0.09853262309529495,-0.0008134305739782716,3.4555367161492696,0.4154841813431036,0.8306892954279912,-0.37023499040515884,0.5109466103308294,-1.5792158237896325,0.6080460192749081,-0.5021503372707955,0.2504097170400597,0.0009877901731569936
396,7.959999999999916,-0.0020175072797855853,-0.13662935500088225,3.758625729938432,0.44491491976052133,0.81533530179891,-0.3701098500750907,0.5770760499865832,-1.4871547652884647,0.62090618303054,-0.49776477508794204,0.25913321365634995,0.01616935801087947
397,7.969999999999915,0.11638622621951902,-0.23740253328836225,4.011195025925099,0.4755578120738996,0.7972077512745066,-0.371438856818298,0.6747999616231511,-1.3420289157961944,0.589462018959998,-0.4923746671503541,0.26799095709754966,0.03263727305079406
398,7.979999999999915,0.19815218699165196,-0.32897151999893626,4.3006942754976665,0.5071531983166054,0.7761623680903448,-0.37413901335012545,0.773038333969374,-1.167174805210749,0.5209379780884905,-0.48596655828516655,0.2770095111567561,0.05027697922583731
399,7.989999999999915,0.1155183349327707,-0.4132121874327336,4.61371243756811,0.5398346194063474,0.7521228003706053,-0.37742306395047986,0.8519627680767876,-0.9396664346500389,0.41259386603078574,-0.47885095069073463,0.28627726234779827,0.0693888944268762
400,7.999999999999915,-0.20162387245245933,-0.45784760981033534,4.760614690789735,0.5729022311160318,0.726078757038568,-0.3796652853401501,1.030676959202347,-0.5554716938683544,0.33105573203673344,-0.4719633567270409,0.2956114735836161,0.08989774583117428
401,8.009999999999915,-0.7019054705790184,-0.35577977488107104,4.773333345519949,0.6053251954814626,0.6996492013207963,-0.37900240816682446,1.40906599452625,-0.04046261542143009,0.3908236061795439,-0.4664271482388476,0.30482475124970165,0.11123889757383372
402,8.019999999999914,-1.3202797412578577,-0.04987109863562775,4.713730620877918,0.6371274053318707,0.6739214251208349,-0.37345969827150793,1.7515709555570182,0.3617112701020935,0.5056608807698835,-0.46306694362898765,0.3143465112638908,0.13277304563610756
403,8.029999999999914,-2.1960619577138254,0.2844199779360743,4.5447488017287085,0.6682902122863186,0.6499796840575995,-0.36122909266720976,1.7823149364841988,0.6849303106625436,0.4813366385271496,-0.4627983319730223,0.32431034415568605,0.15415935588269084
404,8.039999999999914,-3.517309551172744,0.48768581698293945,4.150208038426632,0.6976134907697441,0.6300580303690706,-0.3404867232302111,1.8208504382566333,1.1837306867848376,0.24071310496235235,-0.46733591358265264,0.3336482972858485,0.17551563455455926
405,8.049999999999914,-4.81092796715937,0.5985553291327912,3.4961721638979313,0.7233063360266705,0.6163858101005608,-0.3105444785850743,2.191665739829374,1.7161133244362927,-0.07554879219148042,-0.4779563706832409,0.34092435340187227,0.19651244534174847
406,8.059999999999913,-5.437569977061967,0.6395113717066434,2.806696048640559,0.7444394347838375,0.6083799119049716,-0.27426771025380736,2.458740556379673,2.015655027840806,-0.2927223210675403,-0.4932916243545851,0.3456224537541977,0.21614379207799722
407,8.069999999999913,-5.385069022563145,0.6239984503600331,2.2387651092997745,0.7613294094042953,0.6033598441630967,-0.23648456635888232,2.2496592627177128,2.172780520840113,-0.40264885721788357,-0.5103223848986234,0.3482163991522932,0.23357505019660868
408,8.079999999999913,-4.936599061717582,0.5652601534432375,1.8128759388680589,0.774793985870425,0.5992307645965923,-0.2007129988102612,1.8055210131960782,2.2317680856870457,-0.40936470724522267,-0.52676590401926,0.3494267198616706,0.24856896955055183
409,8.089999999999913,-4.145940493474985,0.44667400641029686,1.516612879119073,0.7856501772649667,0.5948177936836564,-0.16945638393833387,1.351639868322971,2.0574049172018647,-0.35881007430186845,-0.5411087025142814,0.3499019548717944,0.2612079792153253
410,8.099999999999913,-3.0401855411114678,0.25195809937934266,1.34622910784184,0.7946555161731527,0.5893135445775076,-0.1452783142305561,0.8896457797423374,1.7424974305350407,-0.3474465857257587,-0.5519517773684725,0.35027256308166804,0.2716244403610412
411,8.109999999999912,-1.911556072146366,-0.01620334201468429,1.2871884218883856,0.8025198370217625,0.5822755255038605,-0.12984041175232444,0.42238599956438405,1.472750812002505,-0.3872703204276079,-0.5584834571851077,0.3509575296037734,0.28021133349471367
412,8.119999999999912,-1.1077468727564777,-0.31077301357164544,1.285976505277125,0.8097429909688275,0.5738060074820138,-0.12258563238363956,-0.001654561948749439,1.2487556743436927,-0.4440719539998143,-0.5611407904621922,0.35189161086452636,0.28773146095034907
413,8.129999999999912,-0.7638022896436489,-0.5868866324431221,1.3007548438034164,0.8165514866704469,0.5644007748342976,-0.12108252910547332,-0.34333397689363737,1.0042200038465257,-0.4813119399767561,-0.5613380523978567,0.3526445242806287,0.29505614914709183
414,8.139999999999912,-0.7821278634933182,-0.8224653644118977,1.328811955346866,0.8230428981768799,0.5545451501967341,-0.1226529150335185,-0.6113658088703754,0.747806585308785,-0.4612418108740957,-0.5605564325247846,0.3527744082523585,0.3028853982155299
415,8.149999999999912,-0.990822695055797,-1.0117774827703916,1.3479052502983797,0.8292689033522289,0.5445594879808483,-0.12542604847783634,-0.8268985855153714,0.5469028292580291,-0.4106648504441348,-0.5597832658176577,0.35203582148314344,0.3115910902470223
416,8.159999999999911,-1.2699009726729258,-1.1571690089058102,1.2955688673080996,0.8350595886352917,0.5349425123306811,-0.12837949541278423,-0.9951688761810006,0.4406110717222174,-0.39155113997395485,-0.5595744850695452,0.35026458021606766,0.32113584488370095
417,8.169999999999911,-1.5278372542447265,-1.2604069510002027,1.143189669076252,0.8399890841450154,0.5265099371784111,-0.13109173937116347,-1.1313761831715583,0.3760684048064251,-0.4146688161880204,-0.5602090522679045,0.3472987453523329,0.3311212589700462
418,8.179999999999911,-1.6997652287584175,-1.3226826345078435,0.916589044362704,0.8436880541732267,0.5199545603711645,-0.13351745335383153,-1.2730791521710463,0.3150765914009333,-0.45959280701307403,-0.5616984671630614,0.3431173689988534,0.3410262946865959
419,8.18999999999991,-1.7981023375829246,-1.3532454373721154,0.6241777680217298,0.8459025273356464,0.5157669509560003,-0.13575679965956372,-1.43059591371804,0.2735268987418528,-0.5261714370498004,-0.5639253759626383,0.3377860823470359,0.3503742278350182
420,8.19999999999991,-1.8299527664403064,-1.3577791235516197,0.26075157010969796,0.846348871866463,0.5144769620153756,-0.13786283571554475,-1.5610963251032128,0.27176417232592776,-0.6019701487180723,-0.5668180031507657,0.3313169768941138,0.35873049411114805
421,8.20999999999991,-1.7590698421129625,-1.3226846525800466,-0.12351267442892341,0.8448428344127249,0.516386336545079,-0.13992912563115092,-1.6172929871826434,0.31514784424449815,-0.6503851501472535,-0.5702302747060854,0.3238112864594026,0.3657271189249697
422,8.21999999999991,-1.5741128035938314,-1.2415828262701851,-0.4802815415004257,0.8414528767074202,0.5212954359385237,-0.14210053366946734,-1.5982815360084248,0.37468947311684936,-0.6481874943247988,-0.5738588128266633,0.31561804366676915,0.37108866849019784
423,8.22999999999991,-1.2735224924286863,-1.1067379228931697,-0.8128806099237129,0.8363583737810213,0.5287738312253292,-0.1444791918292821,-1.5648067032745399,0.4176249205845058,-0.6061295299228179,-0.5773758850891255,0.3072083742103665,0.3745837128221151
424,8.23999999999991,-0.8307242897910623,-0.9154440685034602,-1.1271798351126128,0.829689277830834,0.5384046893958785,-0.14728231187470467,-1.571086060750248,0.43176347645933205,-0.5521178355489063,-0.5804290938446043,0.29907115326243733,0.37593974308428557
425,8.24999999999991,-0.279819406186795,-0.7101518241320214,-1.4111452113289114,0.8215495601494762,0.5497249006345034,-0.15099258763034018,-1.5916198300929087,0.4258302522007401,-0.5167867788152785,-0.5826091323124599,0.29164613179530136,0.3749462132944278
426,8.25999999999991,0.3007062693321815,-0.5194680318149218,-1.661878456093308,0.8120560670217174,0.562253047541956,-0.15607698985378482,-1.572351305203741,0.41530121859878993,-0.512470129572084,-0.5836443423748875,0.2851520724562949,0.37164092396487225
427,8.269999999999909,0.9124497883473099,-0.3490218831240508,-1.8933670597945498,0.8012440623512834,0.5756114359158014,-0.16304439670668153,-1.5181030386889673,0.39283392548998686,-0.49827193626002786,-0.5833336480542715,0.2796301962078945,0.36613795696123563
428,8.279999999999909,1.543949126461116,-0.1960927028982754,-2.1295215137163983,0.7890516987580928,0.5895211823399761,-0.17245858768828196,-1.4651922436900862,0.3747272617998801,-0.4512529144912829,-0.581465622239159,0.2750680850980459,0.35846856311786596
429,8.289999999999909,2.118466057181959,-0.062323185750131134,-2.389454445230791,0.7753190717357694,0.6038904180515152,-0.18451463300382343,-1.4150656873027072,0.3955464821073011,-0.38623101120080977,-0.5780365417517948,0.2713100553020048,0.348642044175156
430,8.299999999999908,2.614164432826588,0.04738733323409523,-2.652244435929449,0.7598579464423582,0.6186897408244914,-0.19913089938658154,-1.3612650459491658,0.4082875561029084,-0.3169860255714141,-0.573204869798793,0.26806876636420146,0.336741216438932
431,8.309999999999908,3.0516427640590726,0.1353241483914033,-2.9022622501047435,0.7426444172598924,0.6336327377036004,-0.21625766777998565,-1.2954429108482108,0.3784733243916078,-0.25627350187220227,-0.5670585911363848,0.26514561074515897,0.32292673878023426
432,8.319999999999908,3.348987161314041,0.18855858560972363,-3.2202021291559957,0.7234191270343278,0.6487303256172208,-0.23568398581391425,-1.1956025427014798,0.3350550581676267,-0.20206508821442037,-0.5598226819287535,0.26218203086243885,0.30729105097780374
433,8.329999999999908,3.4663425932658023,0.23449977787250068,-3.608946114073474,0.7015119501639947,0.664598266105969,-0.25665233968658624,-1.0727152709005376,0.32838127031544145,-0.14296212242995304,-0.5520802050455821,0.25857658086338836,0.2897763804119398
434,8.339999999999907,3.492676119162909,0.2732519175717547,-3.9397184019708504,0.6767456926538798,0.6812980850793141,-0.2783630586700182,-0.9368872285339311,0.42594858169319155,-0.06455080588359835,-0.5442888714821126,0.2540607704483298,0.27051809528869697
435,8.349999999999907,3.5249474841164323,0.26402373991946027,-4.164348817324046,0.649496947785053,0.6980807545855278,-0.30072729783839297,-0.755337929165931,0.598065412472131,0.047664061665507004,-0.5364468709279359,0.24867035688102934,0.2499580999361825
436,8.359999999999907,3.7333333105339763,0.23863025314909675,-4.183190867154742,0.620703506669359,0.713376767092138,-0.3246564498037914,-0.5350301018136581,0.8342446466080539,0.15543134639006323,-0.5279066417493876,0.24280995718590065,0.2286406217109799
437,8.369999999999907,4.057274842937125,0.17734601708114908,-4.028281098967319,0.5918217402531633,0.7251282975779664,-0.35143514020069433,-0.2603356987617641,1.2375575527609561,0.20974930598892894,-0.5177042262811127,0.23711948708015948,0.2072084645211638
438,8.379999999999907,4.156529397482687,-0.00045307401247966783,-3.8324044216630693,0.563488433663362,0.7327172866180601,-0.38100674193223044,0.12067039484169984,1.8012236270499784,0.23269619620582319,-0.5058253463266777,0.23149491608776485,0.18634456932611546
439,8.389999999999906,3.7390511805998474,-0.29797739628596065,-3.6695288709745983,0.5353053109565417,0.7375789952927922,-0.41110061732681985,0.48225370299133236,2.3383351905656484,0.2127648654907211,-0.49371878659362345,0.22504331852204426,0.16684645933621012
440,8.399999999999906,2.740129999181278,-0.5955188122416152,-3.732891469309756,0.5060711035316566,0.7429645795577137,-0.4376280620773459,0.7853188286381361,2.7358188726161026,0.1338482722343572,-0.4839061057717098,0.21675533320210716,0.14905632020738052
441,8.409999999999906,1.5994698808158478,-0.7800363264675676,-4.1166397999863955,0.4737088902842102,0.7524679018823679,-0.45716077122764576,1.3531304151689512,3.022939960033462,0.06156934458747795,-0.47848881648221736,0.2059838341625936,0.1320172039106527
442,8.419999999999906,0.8260861409144018,-0.8515721410288841,-4.5881331442886815,0.43674368266635394,0.7668186223622679,-0.46985608562022946,2.1351648902487526,3.1006170208304726,0.1101810326153011,-0.47732179196551705,0.19283517741589654,0.11431826249690213
443,8.429999999999906,0.4860153188071006,-0.8217889129176018,-4.845977944363543,0.39601217031603114,0.783531251373413,-0.47825372856510195,2.4504469074944826,2.831676567388814,0.29401748783732456,-0.47858022953178664,0.17826181689095785,0.09556323735072864
444,8.439999999999905,0.4917314461878342,-0.6969778754945566,-4.884939821102737,0.3537411505357014,0.7995396820838353,-0.4848573561253298,2.1740071790772455,2.329539953957384,0.4421833757610187,-0.48039982573965173,0.16350408312136733,0.07612446336702011
445,8.449999999999905,0.8202089103183459,-0.5014155058538923,-4.792867509323709,0.3117257739799551,0.8125544706853223,-0.4920406682503338,1.8898532000004662,1.794931124982199,0.48589472752923446,-0.48124503518774314,0.1494560330972558,0.056248704081873796
446,8.459999999999905,1.3618380738889622,-0.2592162702712072,-4.582670191573175,0.27142945736596424,0.8208650067244359,-0.5020778105382079,1.7983460878317754,1.3152997449286281,0.5127563551646696,-0.4798216877760508,0.13672852733422894,0.03612223863213726
447,8.469999999999905,1.8526424293704762,0.016390889292300453,-4.254625303556007,0.2344185977686356,0.8238194183673951,-0.515756399073074,1.6998499595307779,0.8704506103116044,0.5512376063309696,-0.47566650226667245,0.12582232198689208,0.01615479544842248
448,8.479999999999905,2.0749505418384633,0.28463456872014237,-3.8418218782860825,0.2019210179666159,0.8222665523156533,-0.531796882603846,1.5244312537963682,0.42493574288843505,0.5869518794473247,-0.4694543564345646,0.116991358391954,-0.0030710822411540483
449,8.489999999999904,1.9643418114060391,0.5196305391048769,-3.427036700132212,0.17430514252001145,0.8181148787306523,-0.5477977921993936,1.3427012318128795,-0.019971802912684078,0.6255502693438036,-0.4625396923497744,0.11017126974505413,-0.02109660665881754
450,8.499999999999904,1.588288595670429,0.7769176690861574,-3.0449688137726345,0.15150329958131312,0.8134835244421658,-0.5613799767653013,1.1756327926353698,-0.4431489648463969,0.6797422791402392,-0.45629430950747735,0.10532798947601323,-0.037790317419875485
451,8.509999999999904,1.0468273526524343,1.073658638675197,-2.6943897969209365,0.13347113931707838,0.8100884463976217,-0.5708475105564744,0.988632749200346,-0.8155218953204009,0.7422142748977674,-0.4517112375409775,0.10261282490463124,-0.053240782104838166
452,8.519999999999904,0.4469004605173979,1.3801039546608957,-2.413825134676655,0.11985456665297221,0.8090452901399279,-0.5753663234760447,0.8125916457610466,-1.1611080267037959,0.7944957491896845,-0.44932874160718594,0.10207877507525627,-0.06767161333503009
453,8.529999999999903,-0.10615526953908924,1.6534057777961322,-2.119762515299908,0.11021598662131948,0.810692726825026,-0.5749878260204752,0.6794665654234878,-1.4782106244427788,0.8447573372831395,-0.4491754083422866,0.10366103139648605,-0.08123467717674611
454,8.539999999999903,-0.5697508300902326,1.8282744578373433,-1.675646425128086,0.10473993210315787,0.8146940841300867,-0.5703363010641307,0.58523322141748,-1.689774839739564,0.8818229015226667,-0.4509133449589493,0.10724817658748657,-0.09341059950131629
455,8.549999999999903,-0.9968352121398838,1.9042998244602816,-1.134542141119799,0.10383337974530217,0.820585890501215,-0.5619786521943877,0.5419871910078982,-1.808658790728276,0.9003709793898109,-0.4542020228485233,0.1126819110826001,-0.10339892730327185
456,8.559999999999903,-1.4581653868092304,1.9202038086049291,-0.5914021451755176,0.10738635476567542,0.828290185388966,-0.5498426222302008,0.5268663424694698,-1.9714053174517017,0.9369334057506613,-0.4590332795174114,0.11976535243234113,-0.11083648057604457
457,8.569999999999903,-1.880428779464796,1.887392328064239,-0.0500949361212219,0.11506199510605152,0.8376939004002502,-0.5337598932443387,0.5022309607295306,-2.1777507421638216,0.9939414154060274,-0.46543488521181786,0.12828318374323316,-0.11560316505360142
458,8.579999999999902,-2.1563759412886006,1.8112827311140427,0.5073167848507206,0.12672175935763927,0.8480285963970136,-0.5144006776525306,0.4692002224941887,-2.2844574619564186,1.0198814859846526,-0.47297510173009516,0.13802876612851334,-0.1176133661998775
459,8.589999999999902,-2.2279031415761854,1.6979401106610053,1.0646686646740204,0.14230312066238407,0.8580658153549434,-0.4932099253153078,0.43606915097825555,-2.2578688564114056,0.9710492217273895,-0.48085386622410853,0.1487555703906122,-0.11685113521520503
460,8.599999999999902,-2.094009065645385,1.5261861726939934,1.6308619838292802,0.16177540241329577,0.8665158312727278,-0.4719560403428794,0.41590259247050443,-2.148591641806728,0.8730276985341222,-0.48817335013430335,0.16019592837692798,-0.11333970346952543
461,8.609999999999902,-1.8245003327930291,1.3075759282652024,2.200343394200692,0.1850751566274285,0.8722813118219936,-0.4523555333647992,0.42860088068513985,-2.021432237308904,0.7666871938011314,-0.49414679701267494,0.17204307582174308,-0.10706056260603652
462,8.619999999999902,-1.5116040381826612,1.0873365439136287,2.7392176951561,0.21201787711238634,0.8747544973895758,-0.435415750690445,0.4829540730112114,-1.9146789635027743,0.6775131416319174,-0.49835642454819873,0.18410151510532086,-0.0981277427409819
463,8.629999999999901,-1.2282990964805982,0.8730834719149594,3.236211084150153,0.2423796047526407,0.8737829267776668,-0.4212564136923802,0.550678918538938,-1.7985914570156205,0.615624025420547,-0.5007867033468192,0.19633136240274535,-0.08672237984953107
464,8.639999999999901,-0.999925838061805,0.6666500367631841,3.658213972683678,0.27567861615964634,0.8694159325502335,-0.4096116888043621,0.5991146217699497,-1.6788891220467692,0.5822832160038418,-0.5016151898265927,0.20865815565362447,-0.0730793936548799
465,8.6499999999999,-0.8134569799571313,0.4739656555786409,4.020427430088212,0.31125167082034433,0.8617748611839791,-0.4001164994141456,0.6400965215377749,-1.5794476119097267,0.5913523662272103,-0.5010751241854152,0.22096942138644168,-0.057482580771834046
466,8.6599999999999,-0.649181544095447,0.32502226944891127,4.312786646883465,0.348556362330766,0.8508793403686812,-0.3925566957973138,0.7013941344564595,-1.4536115994692855,0.6095013367361097,-0.4992824945885239,0.23323716819322457,-0.040238897529291016
