time,seconds_elapsed,rotationRateX,rotationRateY,rotationRateZ,gravityX,gravityY,gravityZ,accelerationX,accelerationY,accelerationZ,quaternionW,quaternionX,quaternionY,quaternionZ
1681569604182287400,0.095287353515625,-0.2395990639925003,0.3521350920200348,0.006564869545400143,0.08156731724739075,0.016859492287039757,-0.996525228023529,-0.07930929213762283,-0.0018449034541845322,-0.016063272953033447,0.9991308998650416,-0.008437078977234393,0.040819133503211695,1.6903945360778453e-17
1681569604192287500,0.10528759765625,-0.2876569628715515,0.33145490288734436,-0.00672197388485074,0.08499254286289215,0.019485538825392723,-0.9961910247802734,-0.07922500371932983,-0.0205079335719347,-0.017496109008789062,0.9990472302773373,-0.009753455229972941,0.042536481311577966,0.00003274567560864275
1681569604202287400,0.115287353515625,-0.33267661929130554,0.30012521147727966,-0.022305460646748543,0.08813643455505371,0.022602561861276627,-0.9958519339561462,-0.0748463124036789,-0.035984575748443604,-0.02917248010635376,0.9989624275880388,-0.011313523966994489,0.04411385908170762,0.000011443518990391253
1681569604212286200,0.1252861328125,-0.3589613139629364,0.2702072262763977,-0.02385914884507656,0.09098117798566818,0.026088863611221313,-0.9955108165740967,-0.06523988395929337,-0.03492375835776329,-0.04193425178527832,0.9988770111212364,-0.01305673013684022,0.045542412245025886,-0.00005191480041640567
1681569604222286300,0.135286376953125,-0.38038671016693115,0.23849326372146606,-0.027874397113919258,0.09351099282503128,0.029794955626130104,-0.9951723217964172,-0.06313102692365646,-0.02536996454000473,-0.044012248516082764,0.9987923354193119,-0.014910138466559211,0.04681373562239687,-0.00011418948567114767
1681569604232285200,0.14528515625,-0.3944510817527771,0.2157641053199768,-0.027832452207803726,0.09576114267110825,0.0336727574467659,-0.9948346614837646,-0.07430756837129593,-0.024258144199848175,-0.03842955827713013,0.9987078291527789,-0.016849402222467613,0.04794560124328583,-0.00018248452659694732
1681569604242285300,0.155285400390625,-0.4082403779029846,0.19961203634738922,-0.03232254087924957,0.0978107824921608,0.037694480270147324,-0.994490921497345,-0.08725199103355408,-0.022817224264144897,-0.02800053358078003,0.9986217536713903,-0.01886071443861649,0.04897771641599603,-0.00025564088500216786
1681569604252284400,0.165284423828125,-0.4300456643104553,0.1915084421634674,-0.033818572759628296,0.09973929077386856,0.041894979774951935,-0.9941312074661255,-0.09551288932561874,-0.01975453644990921,-0.02102077007293701,0.99853163093252,-0.02096165162180415,0.04994996391125939,-0.0003326891123578487
1681569604262286600,0.17528662109375,-0.47144025564193726,0.184719517827034,-0.039283644407987595,0.10159336030483246,0.046416159719228745,-0.9937425851821899,-0.09991486370563507,-0.016676761209964752,-0.013032317161560059,0.9984344023800296,-0.023244471416511037,0.05087633357379872,1.7945233403084707e-17
1681569604272286700,0.18528662109375,-0.5300754308700562,0.17880403995513916,-0.0509444959461689,0.10339254140853882,0.05142524465918541,-0.9933103322982788,-0.10119523853063583,-0.013705499470233917,-0.008123993873596191,0.998326168036182,-0.02574955687233693,0.05178601734683618,-0.00011907446991511397
1681569604282285300,0.195285400390625,-0.580518901348114,0.17484870553016663,-0.0684228241443634,0.105112724006176,0.057039324194192886,-0.9928231835365295,-0.10314430296421051,-0.018251460045576096,-0.005483090877532959,0.9982041701296447,-0.028555876426031832,0.052659097321417096,-0.0002861150703235222
1681569604292285200,0.20528515625,-0.5888243317604065,0.17250685393810272,-0.08593643456697464,0.10679899156093597,0.06294512748718262,-0.992286205291748,-0.10579188168048859,-0.019671179354190826,-0.006248950958251953,0.9980695597929397,-0.031504630656970324,0.05351973790827626,-0.0005371839446423509
1681569604302284000,0.215283935546875,-0.5628641247749329,0.18072855472564697,-0.10382702201604843,0.10847639292478561,0.06877442449331284,-0.9917171597480774,-0.10501262545585632,0.0015838593244552612,-0.004544377326965332,0.9979268242548486,-0.03441078229288719,0.05438116605858238,-0.0008784135543875815
1681569604312284000,0.225283935546875,-0.5207117795944214,0.18758758902549744,-0.13419750332832336,0.11021531373262405,0.07427822798490524,-0.9911283254623413,-0.11285505443811417,0.02508702129125595,-0.0017153024673461914,0.9977787226634133,-0.03714658273008984,0.055280878512532286,-0.0013575146240777502
1681569604322284300,0.2352841796875,-0.47180524468421936,0.20214390754699707,-0.16715411841869354,0.11202843487262726,0.07939107716083527,-0.9905284643173218,-0.12261801213026047,0.03613322973251343,0.0034069418907165527,0.9976272816448946,-0.039676892983797944,0.05622721726483054,-0.0020059130450706094
1681569604332283100,0.245283203125,-0.4131092429161072,0.2174961119890213,-0.2126394510269165,0.11394751071929932,0.08399197459220886,-0.9899299740791321,-0.12995395064353943,0.04572300612926483,0.01155167818069458,0.9974751728248878,-0.04193731619884142,0.057238838449596964,-0.002874907643143441
1681569604342283000,0.255282958984375,-0.373484343290329,0.23767860233783722,-0.2542699873447418,0.11601053923368454,0.08815426379442215,-0.9893282651901245,-0.13053688406944275,0.054225511848926544,0.015497088432312012,0.997320544849702,-0.043962855149603054,0.058336470610862744,-0.003978169629191869
1681569604352282000,0.2652822265625,-0.34998878836631775,0.2544720768928528,-0.29819709062576294,0.11820507794618607,0.09205234795808792,-0.988713264465332,-0.12975594401359558,0.06714260578155518,0.027470648288726807,0.9971602188356414,-0.04584082506201217,0.059514578795389135,-0.005301676369529891
1681569604362282000,0.275281982421875,-0.33772599697113037,0.2618839144706726,-0.33486616611480713,0.12046201527118683,0.09584524482488632,-0.9880802631378174,-0.13320305943489075,0.06251048296689987,0.03465008735656738,0.9969921376899091,-0.04765043874058897,0.0607396717009371,-0.006840824044434552
1681569604372282000,0.2852822265625,-0.3428182303905487,0.2682914733886719,-0.37703198194503784,0.1227349191904068,0.09962992370128632,-0.9874259829521179,-0.1316002458333969,0.051310040056705475,0.03189009428024292,0.9968146089428622,-0.04944093518300391,0.06198884255309427,-0.008574355700606637
1681569604382281000,0.295281005859375,-0.33896109461784363,0.26677337288856506,-0.42123180627822876,0.12498856335878372,0.10352271795272827,-0.9867425560951233,-0.12384413182735443,0.03150232136249542,0.010561585426330566,0.9966245712296469,-0.05126897552123584,0.0632471785450557,-0.01052122214872445
1681569604392281000,0.305281005859375,-0.3081521987915039,0.26155489683151245,-0.4539215862751007,0.12713153660297394,0.10729489475488663,-0.9860656261444092,-0.12617020308971405,0.024113811552524567,-0.0021393299102783203,0.9964298769218473,-0.053020350595134234,0.06446734900140155,-0.012663538983857487
1681569604402280200,0.3152802734375,-0.27468904852867126,0.2562733292579651,-0.4881288409233093,0.12917017936706543,0.11077164858579636,-0.9854159951210022,-0.14137719571590424,0.03830672800540924,-0.0015834569931030273,0.9962346794515651,-0.05460756893286873,0.06565065972321538,-0.014986457438340805
1681569604412280000,0.325280029296875,-0.2554313540458679,0.25272825360298157,-0.532274067401886,0.13109278678894043,0.11403341591358185,-0.9847898483276367,-0.15378260612487793,0.051600754261016846,0.007250845432281494,0.9960362370981236,-0.056069348849826006,0.066792971930886,-0.017510883719915278
1681569604422279200,0.335279052734375,-0.24016264081001282,0.26263919472694397,-0.5802154541015625,0.1329735666513443,0.11723483353853226,-0.9841616153717041,-0.1594627946615219,0.03928983956575394,0.0171205997467041,0.9958262997585424,-0.05748033837715782,0.06793539482789897,-0.02026901882711724
1681569604432279000,0.345279052734375,-0.22023993730545044,0.2689990997314453,-0.6192371845245361,0.13485820591449738,0.12031064182519913,-0.9835337400436401,-0.1689005345106125,0.024876751005649567,0.017103075981140137,0.9956031725495899,-0.0588064055937627,0.06910092536429341,-0.023262720501640976
1681569604442279200,0.355279052734375,-0.20899952948093414,0.2796538770198822,-0.658028244972229,0.1367691159248352,0.12327404320240021,-0.9829027056694031,-0.17801359295845032,0.026735126972198486,0.007301509380340576,0.9953651417627422,-0.060056152980395336,0.07029871517999745,-0.026447450177976273
1681569604452278000,0.365278076171875,-0.23438408970832825,0.28689703345298767,-0.6995731592178345,0.13871169090270996,0.12634623050689697,-0.9822401404380798,-0.17656871676445007,0.037441641092300415,0.001588284969329834,0.9951030639471614,-0.061339293206060165,0.07153613831434243,-0.02983378326017111
1681569604462278100,0.375278076171875,-0.24205532670021057,0.29327794909477234,-0.7326020002365112,0.14063838124275208,0.12973257899284363,-0.9815244674682617,-0.1760082244873047,0.02518993616104126,-0.010708808898925781,0.9948096875836826,-0.06276044895184518,0.07279345332555315,-0.033403889709359445
1681569604472277200,0.38527734375,-0.24095627665519714,0.3029746413230896,-0.7492702603340149,0.14256352186203003,0.1331511288881302,-0.9807886481285095,-0.17843692004680634,0.004223763942718506,-0.024216175079345703,0.9944939910057479,-0.06418144506679316,0.07407028570734833,-0.0370931563291728
1681569604482277000,0.395277099609375,-0.23963108658790588,0.3212290406227112,-0.769149124622345,0.1445966362953186,0.1365741342306137,-0.9800200462341309,-0.1807904690504074,0.017051339149475098,-0.028082311153411865,0.9941527173078433,-0.06558799174978933,0.07542005035614248,-0.04087228967982077
1681569604492276200,0.405276123046875,-0.2542414367198944,0.3447433412075043,-0.7829522490501404,0.14678223431110382,0.14011138677597046,-0.9791954755783081,-0.18395261466503143,0.041697099804878235,-0.014151692390441895,0.9937785821562864,-0.06703349901569397,0.07686854971131891,-0.04474185369149325
1681569604502276000,0.415276123046875,-0.28027862310409546,0.37824031710624695,-0.7961564660072327,0.14919115602970123,0.14389120042324066,-0.9782828688621521,-0.18800948560237885,0.03697124123573303,-0.0021095871925354004,0.9933641803135017,-0.06858214200514122,0.07845424655404162,-0.04867241908066472
1681569604512276200,0.425276123046875,-0.3036463260650635,0.40649622678756714,-0.8077276945114136,0.151860773563385,0.14795158803462982,-0.9772658944129944,-0.18749001622200012,0.027905970811843872,-0.0008377432823181152,0.9929042115509229,-0.07025013006617965,0.08019957065666529,-0.05267044097446058
1681569604522275300,0.435275390625,-0.3262765407562256,0.4495214521884918,-0.8238462209701538,0.15482114255428314,0.15231947600841522,-0.9761297106742859,-0.18385860323905945,0.02314135432243347,-0.004659473896026611,0.992393175589354,-0.07204720656003166,0.08212399699534753,-0.05675057587718926
1681569604532275200,0.445275146484375,-0.3119153082370758,0.4796082079410553,-0.8362588882446289,0.15807749330997467,0.15675005316734314,-0.9749056100845337,-0.18359015882015228,0.012668296694755554,-0.01807534694671631,0.9918383277161675,-0.07384797323599991,0.08422396778501702,-0.060906347042544856
1681569604542274000,0.455274169921875,-0.2656399607658386,0.49296796321868896,-0.8424938917160034,0.161481574177742,0.16095957159996033,-0.9736610054969788,-0.18919150531291962,0.0018364638090133667,-0.04460376501083374,0.9912564315876089,-0.07551233465560092,0.08641407727779689,-0.06512477969272328
1681569604552274000,0.46527392578125,-0.18537497520446777,0.4971361756324768,-0.8464853167533875,0.16492070257663727,0.1645442694425583,-0.9724846482276917,-0.18967042863368988,0.013464778661727905,-0.05676645040512085,0.9906700335903053,-0.07683958509418941,0.08861921613442734,-0.06939195194456715
1681569604562274300,0.4752744140625,-0.07490892708301544,0.5030785202980042,-0.8546913266181946,0.16839629411697388,0.16723056137561798,-0.9714301824569702,-0.18952971696853638,0.02437405288219452,-0.05968242883682251,0.9900897435504514,-0.0776876828999324,0.09082689378441455,-0.07373918023111958
1681569604572273000,0.48527294921875,0.027345042675733566,0.503208577632904,-0.8600119352340698,0.1718449592590332,0.16891613602638245,-0.9705342054367065,-0.19529768824577332,0.03863392770290375,-0.05517685413360596,0.9895230387218845,-0.07800550958809645,0.09299481926562105,-0.0781744719945065
1681569604582273000,0.49527294921875,0.10832111537456512,0.5082834959030151,-0.8663638234138489,0.1752818375825882,0.16975834965705872,-0.9697723388671875,-0.2034190148115158,0.04473446309566498,-0.037261962890625,0.9889645790625201,-0.07787362149704388,0.09512901474613049,-0.08267636348205147
1681569604592272100,0.505272216796875,0.1580440253019333,0.5111641883850098,-0.8676021099090576,0.17876361310482025,0.16996656358242035,-0.9691000580787659,-0.21156997978687286,0.037491947412490845,-0.01631253957748413,0.98840365842253,-0.07739726261069854,0.09726064039873142,-0.08722487496272185
1681569604602272000,0.51527197265625,0.16093994677066803,0.516224205493927,-0.8689959645271301,0.1822625994682312,0.16996639966964722,-0.9684481024742126,-0.2260400503873825,0.021973907947540283,-0.020321369171142578,0.9878248938675291,-0.07679484095794288,0.09939060890018095,-0.09179285690822409
1681569604612272000,0.525272216796875,0.13139565289020538,0.5170038342475891,-0.8649385571479797,0.18579773604869843,0.17011702060699463,-0.9677496552467346,-0.22850705683231354,0.006183043122291565,-0.03989499807357788,0.9872137853830275,-0.07624943208337734,0.10154405487999513,-0.0963524813005743
1681569604622271000,0.53527099609375,0.08416476100683212,0.5108181238174438,-0.8505764007568359,0.1892993301153183,0.1706911325454712,-0.9669696688652039,-0.2225329428911209,-0.015112504363059998,-0.06801873445510864,0.9865684327937221,-0.0759089368073048,0.1036967113961755,-0.10083446149559874
1681569604632271000,0.54527099609375,0.03259769454598427,0.4988030791282654,-0.8289731740951538,0.19274526834487915,0.17174121737480164,-0.9661026000976562,-0.21287159621715546,-0.024127677083015442,-0.08248138427734375,0.985892646955315,-0.07580558209600692,0.10584052669954723,-0.10520020182885656
1681569604642270200,0.555270263671875,-0.020628776401281357,0.48558899760246277,-0.7991631031036377,0.19609272480010986,0.17326824367046356,-0.965155839920044,-0.19755753874778748,-0.018757730722427368,-0.08554911613464355,0.9851946202150845,-0.07594783639297188,0.10795375917092655,-0.10940537764254211
1681569604652270000,0.56527001953125,-0.07695223391056061,0.47148171067237854,-0.7636184096336365,0.19933685660362244,0.17529046535491943,-0.9641255736351013,-0.18156033754348755,-0.01397453248500824,-0.07643228769302368,0.9844800485456537,-0.07635111639437338,0.11003514482155119,-0.11340997682236789
1681569604662269200,0.575269287109375,-0.14431317150592804,0.46895915269851685,-0.7324681878089905,0.20251823961734772,0.1778411716222763,-0.9629947543144226,-0.16637013852596283,-0.022888153791427612,-0.05696374177932739,0.9837478368440333,-0.07703242473425227,0.11210991425500602,-0.11720732239991509
1681569604672269000,0.58526904296875,-0.21560944616794586,0.4743659198284149,-0.7013068199157715,0.20575587451457977,0.18104000389575958,-0.9617115259170532,-0.15540184080600739,-0.029108211398124695,-0.03168141841888428,0.9829844780651382,-0.07804425115740009,0.11425120541392612,-0.12081895208587659
1681569604682269200,0.595269287109375,-0.2965530455112457,0.48045840859413147,-0.6662468314170837,0.20909030735492706,0.18492937088012695,-0.9602512121200562,-0.14923006296157837,-0.039589375257492065,-0.009002327919006348,0.9821874542458809,-0.07940803721735189,0.11648502731475477,-0.12423145196643233
1681569604692268000,0.60526806640625,-0.36976200342178345,0.49548476934432983,-0.6246261596679688,0.21255148947238922,0.18949782848358154,-0.9585992097854614,-0.14501607418060303,-0.05680738389492035,0.013668179512023926,0.9813605698320308,-0.0811224329946037,0.11882569844961073,-0.1274013745494501
1681569604702268200,0.61526806640625,-0.40175125002861023,0.5109415650367737,-0.5833560228347778,0.21622006595134735,0.1945459395647049,-0.9567657709121704,-0.14093318581581116,-0.07540528476238251,0.03095400333404541,0.9805077021480834,-0.08308219625682774,0.12130315791777221,-0.13033655629641386
1681569604712267300,0.625267333984375,-0.37479156255722046,0.529284656047821,-0.539091944694519,0.22008436918258667,0.19954033195972443,-0.9548541903495789,-0.13501662015914917,-0.08282583951950073,0.03888440132141113,0.9796544034175045,-0.0850173327162308,0.1238747499122601,-0.13305825742357794
1681569604722267100,0.63526708984375,-0.266893595457077,0.5285549759864807,-0.4965694844722748,0.22407883405685425,0.20377551019191742,-0.9530289769172668,-0.12727706134319305,-0.07175645232200623,0.039058029651641846,0.9788367022172867,-0.08656970933967904,0.12645632901959533,-0.1356211167494953
1681569604732267300,0.645267333984375,-0.13145165145397186,0.5344391465187073,-0.4563663601875305,0.2281690090894699,0.20675837993621826,-0.9514146447181702,-0.11008122563362122,-0.03843866288661957,0.02184927463531494,0.9780846288803414,-0.087489575306706,0.1289892973126689,-0.13805005930403613
1681569604742266000,0.65526611328125,-0.010587011463940144,0.5394118428230286,-0.4265509247779846,0.23235315084457397,0.20841637253761292,-0.950039267539978,-0.08469384908676147,0.00024756789207458496,0.008221089839935303,0.9773995254275007,-0.08773446847898532,0.13146491917684372,-0.1403915067390593
1681569604752266200,0.665266357421875,0.04746236279606819,0.546017050743103,-0.4004232585430145,0.2366354912519455,0.2091873437166214,-0.9488120675086975,-0.06866671144962311,-0.006611630320549011,0.01517254114151001,0.9767560064679968,-0.0875226078708793,0.13391702972005629,-0.14266623225081107
1681569604762265000,0.67526513671875,0.0641675665974617,0.5691713690757751,-0.3788822889328003,0.2411041557788849,0.20957869291305542,-0.9475998878479004,-0.0727539211511612,-0.03428572416305542,0.041533052921295166,0.976124442414055,-0.0871079454259155,0.1364267592312036,-0.14484808340828625
1681569604772265200,0.68526513671875,0.053500015288591385,0.6142837405204773,-0.36385485529899597,0.24591270089149475,0.20990866422653198,-0.9462902545928955,-0.08194173872470856,-0.06014363467693329,0.07258731126785278,0.9754736492669666,-0.08663752040040024,0.13909995979086578,-0.14695701619937107
1681569604782264000,0.69526416015625,0.03464243561029434,0.6704660654067993,-0.34282389283180237,0.2512345016002655,0.210365891456604,-0.9447896480560303,-0.08593600988388062,-0.08898220956325531,0.09606528282165527,0.9747818977255307,-0.08619537570442845,0.1420406535858604,-0.1489802743815712
1681569604792264000,0.705263916015625,0.049344100058078766,0.7459298372268677,-0.3175469636917114,0.2572251260280609,0.210828498005867,-0.9430729746818542,-0.08896645903587341,-0.10633626580238342,0.11629074811935425,0.9740420977304189,-0.0857064551704635,0.14532008726543677,-0.15092580116800686
1681569604802264300,0.715264404296875,0.05449412018060684,0.8350096344947815,-0.28063368797302246,0.2640354633331299,0.21113121509552002,-0.9411211013793945,-0.0957920253276825,-0.11179649829864502,0.13414478302001953,0.9732556827124029,-0.08508079022336952,0.1489990656817546,-0.1527542948611696
1681569604812263000,0.725262939453125,0.05020689591765404,0.9378731846809387,-0.24429218471050262,0.27179452776908875,0.21131262183189392,-0.9388688206672668,-0.10533639788627625,-0.10611850023269653,0.14977586269378662,0.9724096866813068,-0.08432996653165133,0.15314710999534847,-0.154446500342157
1681569604822263000,0.735262939453125,0.03636990860104561,1.0524390935897827,-0.19782134890556335,0.2806541621685028,0.2115248292684555,-0.9362106919288635,-0.11535570025444031,-0.113792285323143,0.1640244722366333,0.9714820823461944,-0.08352287055724576,0.15785619099188725,-0.1559738896311072
1681569604832262100,0.74526220703125,0.014985626563429832,1.1809905767440796,-0.13878054916858673,0.2907339632511139,0.2117568850517273,-0.9330770373344421,-0.11965242028236389,-0.1362716406583786,0.16957306861877441,0.9704653216064765,-0.08265445436673836,0.1631861400788874,-0.15727538319706827
1681569604842262000,0.755261962890625,-0.030747773125767708,1.328520655632019,-0.08002854138612747,0.30218109488487244,0.21212664246559143,-0.9293486475944519,-0.11632901430130005,-0.15487566590309143,0.1724516749382019,0.969334382417796,-0.08177916264175152,0.16922723376609758,-0.15831949326647346
1681569604852262100,0.76526220703125,-0.10744224488735199,1.4877400398254395,-0.023032503202557564,0.31512367725372314,0.21289858222007751,-0.9248628616333008,-0.10919103026390076,-0.18178589642047882,0.17646503448486328,0.9680497115350161,-0.08102482610550081,0.1760782659829221,-0.15909535070009734
1681569604862261000,0.775260986328125,-0.2092439830303192,1.6594170331954956,0.04071744531393051,0.32964175939559937,0.21430917084217072,-0.919460654258728,-0.11574405431747437,-0.22245736420154572,0.19387471675872803,0.966578580934926,-0.08051867754844542,0.18381082938314472,-0.159549679418908
1681569604872261000,0.78526123046875,-0.36394909024238586,1.858256220817566,0.11152897030115128,0.34589552879333496,0.2166183888912201,-0.9129253625869751,-0.13248610496520996,-0.2635849118232727,0.2155681848526001,0.9648751539918637,-0.08039929202231405,0.19254419238831405,-0.15962005701697035
1681569604882260000,0.795260009765625,-0.6447173953056335,2.100078582763672,0.169110506772995,0.36416175961494446,0.22060786187648773,-0.9048305749893188,-0.14503028988838196,-0.29908379912376404,0.23913538455963135,0.9628378820164551,-0.08106712607002171,0.20251623915942463,-0.15924367593773042
1681569604892260000,0.805260009765625,-0.9766438007354736,2.347935199737549,0.21553386747837067,0.3846096396446228,0.22723479568958282,-0.8946729898452759,-0.15366783738136292,-0.34724512696266174,0.2632948160171509,0.9603397221257134,-0.08302655754321162,0.21393944917351052,-0.1583798368435617
1681569604902259200,0.81525927734375,-1.1372241973876953,2.551586389541626,0.30387675762176514,0.4069885313510895,0.23575444519519806,-0.8824852108955383,-0.15132752060890198,-0.40689703822135925,0.2921684980392456,0.957386591565493,-0.08595298251967637,0.2266483517300656,-0.157014122126453
1681569604912259000,0.825259033203125,-1.1258609294891357,2.7566776275634766,0.43655925989151,0.4310886263847351,0.2441873550415039,-0.8686398267745972,-0.13038364052772522,-0.4198617935180664,0.30017364025115967,0.9540805481676613,-0.08889924713206014,0.2403685000649238,-0.15508120178326923
1681569604922259200,0.83525927734375,-0.993379533290863,2.959970235824585,0.581217348575592,0.4569668769836426,0.25110775232315063,-0.853303074836731,-0.09568455815315247,-0.35679012537002563,0.28625601530075073,0.9504501287252166,-0.09114459820139902,0.2550316298128161,-0.15263000792134046
1681569604932258000,0.845258056640625,-0.8118079900741577,3.1304469108581543,0.7481390237808228,0.4844229817390442,0.2555854618549347,-0.8366662859916687,-0.0650961697101593,-0.3108070194721222,0.2637903094291687,0.9465330428870807,-0.0922349881732436,0.2704802682212381,-0.1496939977654352
1681569604942258200,0.855258056640625,-0.6327769756317139,3.3079631328582764,0.9300896525382996,0.5132294297218323,0.25742071866989136,-0.8187369108200073,-0.021240293979644775,-0.32503238320350647,0.23223483562469482,0.9423318591119352,-0.09211526813325674,0.2866118087523274,-0.14621589413296915
1681569604952257300,0.86525732421875,-0.3789648413658142,3.4161055088043213,1.119572401046753,0.543083906173706,0.25610533356666565,-0.7996686100959778,0.03307265043258667,-0.34141725301742554,0.20176827907562256,0.9378764955882724,-0.09055363226797473,0.3032585287477727,-0.14220390877213995
1681569604962257200,0.875257080078125,-0.16482485830783844,3.4970033168792725,1.3164585828781128,0.5734875202178955,0.2514532506465912,-0.7796687483787537,0.07841372489929199,-0.3542211949825287,0.15605729818344116,0.9332162241696187,-0.08750585906313024,0.3201692545096979,-0.13762949932144766
1681569604972257000,0.885257080078125,-0.015572948381304741,3.5641963481903076,1.4915752410888672,0.6041350960731506,0.2438156008720398,-0.758666455745697,0.12439584732055664,-0.3178817629814148,0.1538233757019043,0.928325754535535,-0.08319882412963502,0.3372606183709174,-0.13245598016984939
1681569604982256000,0.895256103515625,-0.004868638701736927,3.6343746185302734,1.6633946895599365,0.6348157525062561,0.23405449092388153,-0.7363609075546265,0.1543535590171814,-0.28633108735084534,0.14866876602172852,0.9231195271881041,-0.07814313800144815,0.3545605469495792,-0.12661246760292783
1681569604992256300,0.90525634765625,-0.11881464719772339,3.6972389221191406,1.8525954484939575,0.6653851866722107,0.223025843501091,-0.7124058604240417,0.1710558533668518,-0.2547335624694824,0.14717453718185425,0.9175214610013467,-0.0729400473205159,0.37212474427141345,-0.119822345227641
1681569605002255000,0.915255126953125,-0.3506995439529419,3.761162519454956,2.081449031829834,0.6957158446311951,0.21123583614826202,-0.686555802822113,0.20346933603286743,-0.21553878486156464,0.1702899932861328,0.9114787407403729,-0.06806897544330069,0.38998552420028776,-0.11173361123544051
1681569605012255200,0.925255126953125,-0.7749499678611755,3.834268569946289,2.323981523513794,0.7257869839668274,0.19926658272743225,-0.6584270000457764,0.2499820590019226,-0.20176900923252106,0.20145678520202637,0.9048945085371879,-0.06414056371083622,0.40825542853895136,-0.10187946285424578
1681569605022255000,0.935255126953125,-1.3963223695755005,3.878725528717041,2.5423929691314697,0.7553318738937378,0.18811020255088806,-0.6277644634246826,0.31385141611099243,-0.20890794694423676,0.2339046597480774,0.897665758350446,-0.06203056394611652,0.4269308743954125,-0.08987963632218944
1681569605032254200,0.945254150390625,-2.102470636367798,3.869905471801758,2.7760472297668457,0.7839138507843018,0.17838071286678314,-0.5946927070617676,0.38652682304382324,-0.24086542427539825,0.2713742256164551,0.8897549031788676,-0.06247065046112257,0.4458150675780288,-0.07538280277338327
1681569605042254300,0.95525439453125,-2.6031529903411865,3.7575559616088867,3.0264766216278076,0.8110433220863342,0.16893060505390167,-0.5600636005401611,0.44930213689804077,-0.266174852848053,0.2918751835823059,0.8812654419479137,-0.06510006544047159,0.4644676382685025,-0.05833530442721642
1681569605052253000,0.9652529296875,-2.887451171875,3.6239335536956787,3.238382339477539,0.8361901044845581,0.1579943746328354,-0.5251893997192383,0.5026159882545471,-0.2406817376613617,0.2787446975708008,0.8723811563593372,-0.06881409556755706,0.482358715597618,-0.03931735129677285
1681569605062253000,0.975253173828125,-3.0753109455108643,3.505857229232788,3.3907363414764404,0.8593222498893738,0.14502175152301788,-0.4904426038265228,0.5526192784309387,-0.1100943386554718,0.2644599676132202,0.863056261974501,-0.07311115857717068,0.4994331378956261,-0.018845032173514225
1681569605072252200,0.985252197265625,-3.2100865840911865,3.401237964630127,3.4825730323791504,0.8804014325141907,0.12996806204319,-0.4560719132423401,0.5598146319389343,0.03580342233181,0.25116169452667236,0.8532462506470029,-0.07773091196248291,0.5156762029887244,0.00259771347087464
1681569605082252000,0.995251953125,-3.4098832607269287,3.278874397277832,3.4938533306121826,0.8993424773216248,0.1133686900138855,-0.4222922921180725,0.5490676760673523,0.094868004322052,0.20674657821655273,0.8429326997405016,-0.08281521227197623,0.531032478717957,0.02471281162614742
1681569605092252000,1.005251953125,-3.5433640480041504,3.0878853797912598,3.4499154090881348,0.9159210920333862,0.09611207991838455,-0.38968080282211304,0.5866881608963013,0.16051021218299866,0.15074342489242554,0.8322262426812486,-0.0887511835322586,0.5452364844774985,0.04732812944196763
1681569605102251000,1.0152509765625,-2.8020479679107666,2.7315587997436523,3.47776460647583,0.929861843585968,0.076158307492733,-0.3599403202533722,0.656350314617157,0.1997663974761963,0.08183366060256958,0.8216980869348328,-0.09330174073428521,0.5579647139572955,0.06915617680592165
1681569605112251100,1.025251220703125,-1.7180591821670532,2.383985996246338,3.482100009918213,0.9409485459327698,0.051449887454509735,-0.3346172273159027,0.735732913017273,0.24243441224098206,-0.06790956854820251,0.812068432291735,-0.09378513706394749,0.5691183839806595,0.0886195321549908
1681569605122250000,1.03525,-0.6803997159004211,2.063666820526123,3.3063201904296875,0.9494079947471619,0.02309100143611431,-0.31319481134414673,0.8317655920982361,0.5486558079719543,-0.16063633561134338,0.8035113258340235,-0.08984060625082492,0.5790779407964943,0.10472242076922428
1681569605132250000,1.04525,-0.13180959224700928,1.8923981189727783,3.0348803997039795,0.9556706547737122,-0.006009629461914301,-0.2943766415119171,0.8367182612419128,0.6826148629188538,-0.2146260142326355,0.7958290333923256,-0.08317848682790194,0.5881267029621705,0.11766285945515056
1681569605142250000,1.05525,0.05015008896589279,1.7857435941696167,2.7450661659240723,0.9603503942489624,-0.03360613062977791,-0.2767627537250519,0.7378154397010803,0.5122438073158264,-0.30172842741012573,0.7885961257832116,-0.07585443562551375,0.5965439884122696,0.12844246365053558
1681569605152249000,1.0652490234375,-0.10581012815237045,1.6581038236618042,2.4357621669769287,0.9637860059738159,-0.05852073058485985,-0.26017650961875916,0.6300097703933716,0.38936179876327515,-0.37403976917266846,0.7816912298641853,-0.0692505035099671,0.6042483853532027,0.13801092152263125
1681569605162249200,1.075249267578125,-0.4728211462497711,1.511836051940918,2.1662168502807617,0.9662054181098938,-0.07992567867040634,-0.24506939947605133,0.5779229998588562,0.33808913826942444,-0.4839802384376526,0.7751415554750729,-0.06453090597132992,0.6109836822462038,0.14727631528930296
1681569605172248000,1.085248046875,-0.7903250455856323,1.368886947631836,1.9964913129806519,0.9677760004997253,-0.09852771461009979,-0.23173671960830688,0.5926488041877747,0.3852861523628235,-0.6084579825401306,0.7689487533908811,-0.06168883248884405,0.6167058711836458,0.15679988076772572
1681569605182248200,1.095248291015625,-1.1244769096374512,1.265097975730896,1.8276304006576538,0.9687010049819946,-0.11487887799739838,-0.2200479656457901,0.6247437596321106,0.44346165657043457,-0.7028645873069763,0.7630484271827858,-0.060490688826132726,0.6215439574668478,0.16667648638656335
1681569605192247000,1.1052470703125,-1.461918592453003,1.192782998085022,1.6905611753463745,0.9691942930221558,-0.12913374602794647,-0.2097305804491043,0.6002789735794067,0.5220323204994202,-0.7815260887145996,0.7573209774027065,-0.06096819134146681,0.6256337506271953,0.177003501114175
1681569605202247200,1.1152470703125,-1.8516477346420288,1.1391850709915161,1.5570504665374756,0.9693862795829773,-0.14145582914352417,-0.20070020854473114,0.4870498776435852,0.5508491396903992,-0.8370042443275452,0.7516761519564354,-0.06320271899559686,0.6290113741320026,0.18797099355095387
1681569605212247000,1.1252470703125,-2.070719003677368,1.0896984338760376,1.4311519861221313,0.9693889617919922,-0.15202102065086365,-0.19280746579170227,0.3475056290626526,0.5372291207313538,-0.8709743022918701,0.7460799510526777,-0.06698155938734164,0.6317513246758548,0.19942041213309242
1681569605222246100,1.13524609375,-2.073699712753296,1.0382798910140991,1.3189399242401123,0.9692540764808655,-0.16130365431308746,-0.1858167201280594,0.23301655054092407,0.5786620378494263,-0.9141740798950195,0.7406083099718918,-0.07150314072609913,0.6340180947622823,0.21073159711843703
1681569605232246300,1.145246337890625,-1.9386022090911865,1.0111637115478516,1.1737022399902344,0.9690715074539185,-0.1695631891489029,-0.1793007254600525,0.15730178356170654,0.7049940824508667,-0.9779258370399475,0.7353075330317562,-0.07612418134365305,0.6360461835782316,0.2212988348362315
1681569605242245000,1.1552451171875,-1.8376190662384033,0.9253225326538086,0.9275404810905457,0.9689660668373108,-0.1763795167207718,-0.17319057881832123,0.09699761867523193,0.8442109823226929,-1.0032925605773926,0.7303019003350969,-0.08080285557303919,0.6378680162449496,0.2307691184367904
1681569605252245200,1.165245361328125,-1.8178073167800903,0.8338907361030579,0.5851328372955322,0.9691191911697388,-0.18055520951747894,-0.167951300740242,0.02683711051940918,0.9166849851608276,-0.9929831624031067,0.725857125240162,-0.08607709754491039,0.6392300732670906,0.23897072900688207
1681569605262245000,1.1752451171875,-1.7945976257324219,0.7079184651374817,0.2133800983428955,0.9696834087371826,-0.18137480318546295,-0.1637592613697052,-0.028643488883972168,0.9991390705108643,-0.9655894637107849,0.7221096180243498,-0.0922994334701228,0.6400009273959665,0.24583981804441737
1681569605272244200,1.185244140625,-1.7483117580413818,0.5577101707458496,-0.16274678707122803,0.9706732034683228,-0.17865978181362152,-0.16085492074489594,-0.10266172885894775,1.0473579168319702,-0.9525483846664429,0.719225840569676,-0.09942165109590914,0.6400686458809627,0.2512801018000485
1681569605282245000,1.1952451171875,-1.6659433841705322,0.3722394108772278,-0.5182386040687561,0.9720366597175598,-0.17247380316257477,-0.15936636924743652,-0.20998221635818481,1.0449408292770386,-0.971782922744751,0.717309191570191,-0.10729300663771371,0.6393786265008595,0.2552465089719326
1681569605292244200,1.205244140625,-1.5703825950622559,0.15028277039527893,-0.8426983952522278,0.9736169576644897,-0.16300038993358612,-0.15969014167785645,-0.31191956996917725,1.014272928237915,-1.0273520946502686,0.7165221909421581,-0.11569268104796072,0.6377853320213899,0.25776160010202964
1681569605302244000,1.215244140625,-1.4794093370437622,-0.076500304043293,-1.154923677444458,0.9752634763717651,-0.1505473405122757,-0.16185349225997925,-0.3957499861717224,0.9368938207626343,-1.0660974979400635,0.7168527118855407,-0.12446707658407238,0.6352804102128184,0.2589379941288942
1681569605312244200,1.225244140625,-1.380634069442749,-0.2912405729293823,-1.45230233669281,0.9768282771110535,-0.13535842299461365,-0.16578486561775208,-0.47965121269226074,0.873700737953186,-1.0521564483642578,0.7182369136970258,-0.13354050481768145,0.6318817161119422,0.2588980306518152
1681569605322243300,1.235243408203125,-1.3140108585357666,-0.49486157298088074,-1.7408279180526733,0.9781785607337952,-0.11746174097061157,-0.1713755577802658,-0.5754227638244629,0.8458094596862793,-1.0127370357513428,0.7206270527368297,-0.14289480539276575,0.6276091906983592,0.25765195034146104
1681569605332243200,1.2452431640625,-1.1965291500091553,-0.6718093156814575,-2.0245001316070557,0.9791821837425232,-0.0967552587389946,-0.1784399449825287,-0.6652783155441284,0.8394463062286377,-0.9963647127151489,0.7239336322691822,-0.1526323577957571,0.6224816363292835,0.25522572328889037
1681569605342242000,1.255241943359375,-0.9729987978935242,-0.8512898683547974,-2.243870258331299,0.9796134233474731,-0.07378849387168884,-0.186849445104599,-0.7329856753349304,0.8675354719161987,-0.9851475954055786,0.7281487046490847,-0.16226915577970497,0.6166392775711911,0.25144412074530065
1681569605352242000,1.265241943359375,-0.6931314468383789,-1.0625896453857422,-2.4250540733337402,0.9792141914367676,-0.04929817467927933,-0.19674652814865112,-0.7687802314758301,0.9120148420333862,-1.000396966934204,0.7333021433683146,-0.17128547203604919,0.6101540987396561,0.2462543347827628
1681569605362241000,1.275240966796875,-0.4829025864601135,-1.2699081897735596,-2.6146655082702637,0.9777632355690002,-0.023428576067090034,-0.20839862525463104,-0.7980911135673523,0.9112917184829712,-1.0379544496536255,0.7393977146726264,-0.17967283254711208,0.6029248397358827,0.23977112994051883
1681569605372241000,1.285240966796875,-0.35431337356567383,-1.4735456705093384,-2.8160126209259033,0.9750708341598511,0.00398176210001111,-0.22185833752155304,-0.8461951017379761,0.8501594662666321,-1.0443006753921509,0.7463370853838249,-0.18772162990342844,0.5948373059727997,0.2321857284128035
1681569605382241000,1.295240966796875,-0.2290763407945633,-1.6481800079345703,-3.0216946601867676,0.9709375500679016,0.0330803208053112,-0.23703604936599731,-0.9007318615913391,0.7769935131072998,-1.0137420892715454,0.7540037711123571,-0.1956637237809092,0.5858307613810941,0.22359875005041208
1681569605392240000,1.305240234375,-0.009184624068439007,-1.804168939590454,-3.222111463546753,0.9651838541030884,0.06362007558345795,-0.2537175416946411,-0.9393354654312134,0.7211241722106934,-0.9560450315475464,0.7623154007728056,-0.20332172299346432,0.5760221395858954,0.21385504801673216
1681569605402240000,1.315239990234375,0.34630078077316284,-1.9110901355743408,-3.4362030029296875,0.957650363445282,0.09518207609653473,-0.27174675464630127,-0.9573909640312195,0.686083197593689,-0.8634613752365112,0.7712629329838239,-0.210249045015909,0.5656164502666664,0.20255113867309163
1681569605412239000,1.325239013671875,0.8284926414489746,-2.0019824504852295,-3.648327350616455,0.9481948018074036,0.1273285299539566,-0.29105687141418457,-0.9714187383651733,0.6746276617050171,-0.7554823756217957,0.7808364283801378,-0.21601463732400852,0.5548055838708356,0.18926959786591757
1681569605422239000,1.335239013671875,1.3720101118087769,-2.0441203117370605,-3.8643171787261963,0.9366984367370605,0.15939901769161224,-0.3117498457431793,-0.9831767082214355,0.6822757720947266,-0.6608148217201233,0.7910113012990545,-0.22016591278207528,0.5437389559309971,0.17371243605976155
1681569605432239000,1.345239013671875,1.8947705030441284,-2.1256632804870605,-4.135300159454346,0.9229429364204407,0.19131870567798615,-0.3340262174606323,-0.9659727215766907,0.6886250972747803,-0.5922280550003052,0.8017310021591133,-0.2226961614583755,0.5323469822768234,0.15569368531341019
1681569605442238200,1.35523828125,2.3637168407440186,-2.195819139480591,-4.32269287109375,0.9066874980926514,0.22268380224704742,-0.3582312762737274,-0.9061381816864014,0.7441130876541138,-0.5524437427520752,0.8128864555849631,-0.2236553037755903,0.5204446768742008,0.1353928080947067
1681569605452238000,1.365238037109375,2.753244638442993,-2.2460250854492188,-4.438425064086914,0.8880005478858948,0.25253286957740784,-0.38429439067840576,-0.7546845078468323,0.785110592842102,-0.48803532123565674,0.8241971223244877,-0.22306259278861248,0.5080313761384371,0.1133416537800702
1681569605462237200,1.3752373046875,3.114518165588379,-2.2392220497131348,-4.4553375244140625,0.8671761751174927,0.279946893453598,-0.4118681848049164,-0.5754432678222656,0.7254089117050171,-0.359982430934906,0.8353668849764692,-0.2209035489093524,0.4952449232920266,0.08997983331114968
1681569605472237000,1.385237060546875,3.5237019062042236,-2.216320276260376,-4.32047700881958,0.8448339700698853,0.3034474849700928,-0.4406531751155853,-0.42169249057769775,0.6784250736236572,-0.20488512516021729,0.8461630896936427,-0.2168380911572683,0.4823428772705115,0.06583831911954897
1681569605482237200,1.3952373046875,3.91098690032959,-2.194713830947876,-4.129665374755859,0.821592390537262,0.3217003345489502,-0.4706323742866516,-0.19700437784194946,0.7042242884635925,-0.085367351770401,0.8565065869961185,-0.21048024649837965,0.46944848533600736,0.0413837627158076
1681569605492236000,1.405236083984375,4.246557712554932,-2.2082605361938477,-4.015639781951904,0.7974883913993835,0.33483222126960754,-0.5018960237503052,0.10000306367874146,0.8213109374046326,-0.09548556804656982,0.8664127355990372,-0.2019940463155285,0.45634459725399396,0.016641156783833985
1681569605502236200,1.415236083984375,4.323227882385254,-2.1884703636169434,-3.735109806060791,0.7728866934776306,0.34294986724853516,-0.5338835120201111,0.4416366219520569,1.1734991073608398,-0.22463083267211914,0.8757171752811943,-0.19185072166416603,0.4430028578973535,-0.007828288860232426
1681569605512235300,1.4252353515625,3.783841609954834,-2.1742374897003174,-3.5305628776550293,0.7484434247016907,0.3480187952518463,-0.5645487904548645,0.8677979707717896,1.6407355070114136,-0.4193074107170105,0.8839317008896118,-0.1819620341542019,0.4296689775683344,-0.0306454229405906
1681569605522235100,1.435235107421875,2.6037819385528564,-2.351430892944336,-3.523674488067627,0.7229958772659302,0.3551624119281769,-0.5925677418708801,1.3640401363372803,1.9891979694366455,-0.5432659387588501,0.8908828009535749,-0.1754778091424773,0.4158409314019465,-0.05110379242779275
1681569605532235300,1.4452353515625,1.03394615650177,-2.4440181255340576,-3.880842685699463,0.6950873732566833,0.3703533411026001,-0.6161913871765137,1.8218193054199219,2.233940601348877,-0.6158642172813416,0.8962790948978683,-0.17565172632338608,0.40131131922832836,-0.0691326254794563
1681569605542234000,1.455234130859375,0.15148775279521942,-2.421079158782959,-4.3570942878723145,0.6639535427093506,0.39515918493270874,-0.6348345279693604,2.488680124282837,2.4210333824157715,-0.6313092708587646,0.8999591413314142,-0.18238074017530545,0.38641946072844896,-0.08654939544163234
1681569605552234200,1.465234130859375,0.10029478371143341,-2.3269193172454834,-4.662041664123535,0.6301009058952332,0.4238404631614685,-0.6506397724151611,3.1025803089141846,2.3965635299682617,-0.41456103324890137,0.9023952998548062,-0.1916702228600088,0.37140631825931447,-0.10489300002197549
1681569605562233000,1.475233154296875,0.1842474639415741,-2.166996479034424,-4.815738201141357,0.5944925546646118,0.45192790031433105,-0.6650862693786621,3.1057181358337402,2.224311113357544,-0.06486368179321289,0.903921161882869,-0.20093015275793188,0.3564883308747573,-0.12437694068756047
1681569605572233200,1.485233154296875,0.24918416142463684,-1.9395610094070435,-4.889598369598389,0.55806964635849,0.4785957634449005,-0.6778675317764282,2.8299918174743652,1.8809776306152344,0.2508808374404907,0.9044514183683231,-0.20990009879833302,0.3420645898962839,-0.1445734092638666
1681569605582232000,1.495232177734375,0.6360764503479004,-1.71372652053833,-5.007372856140137,0.5211690664291382,0.5024840235710144,-0.6898497343063354,2.5789437294006348,1.4176515340805054,0.44056689739227295,0.904129826344872,-0.2177266929991221,0.32813141995059947,-0.16575311470993637
1681569605592232000,1.50523193359375,1.0878000259399414,-1.4286880493164062,-4.79752254486084,0.4849945604801178,0.5211872458457947,-0.7022421956062317,2.2427122592926025,1.067176342010498,0.47978436946868896,0.9032714804674196,-0.22308963959803735,0.3148172834021847,-0.18767427689468022
1681569605602232300,1.515232421875,1.1784894466400146,-1.1120281219482422,-4.456110954284668,0.4514993131160736,0.5346382856369019,-0.7143600583076477,1.9798362255096436,0.8194724321365356,0.4770859479904175,0.9019576263597074,-0.2262584468221782,0.30269965045616626,-0.20893190307741882
1681569605612231000,1.52523095703125,0.9100903868675232,-0.7100546360015869,-4.090595722198486,0.4218307435512543,0.5456629991531372,-0.7240930795669556,1.8167556524276733,0.3502415418624878,0.6035486459732056,0.8998566414348677,-0.22884195353948553,0.29254883173031165,-0.22870213018113095
1681569605622231000,1.53523095703125,0.5100332498550415,-0.19175125658512115,-3.864187240600586,0.3966623842716217,0.5566635131835938,-0.7299210429191589,1.4865010976791382,-0.14353179931640625,0.8431718349456787,0.8966296578832226,-0.23188327771777495,0.28507825226699884,-0.24701405375884164
1681569605632230100,1.545230224609375,0.08544005453586578,0.3739927411079407,-3.83121919631958,0.3756994903087616,0.5692771077156067,-0.731282114982605,1.171144962310791,-0.5799124240875244,1.1376694440841675,0.8919485303159154,-0.23584614559391742,0.28059855599249905,-0.264705295227462
1681569605642230000,1.55522998046875,-0.3659780025482178,0.9555137157440186,-3.7990148067474365,0.3584783971309662,0.5843520760536194,-0.7280287742614746,0.9173394441604614,-0.9665389657020569,1.385484218597412,0.8856195940294782,-0.24091954695656537,0.2791834501417304,-0.2822981054116716
1681569605652230100,1.565230224609375,-0.759163498878479,1.5150152444839478,-3.4879517555236816,0.3457625210285187,0.6013740301132202,-0.7202759981155396,0.7119462490081787,-1.3243507146835327,1.524826169013977,0.8778658111302984,-0.24675781777211195,0.28102060082675134,-0.2991480414076894
1681569605662229000,1.57522900390625,-0.9123477339744568,2.04685115814209,-2.925776720046997,0.3387906551361084,0.6186054944992065,-0.7089062929153442,0.5372927188873291,-1.665602445602417,1.6147900819778442,0.8693355312861529,-0.25240390410880525,0.28607538141788164,-0.31417961752613893
1681569605672229000,1.58522900390625,-1.009242057800293,2.334653615951538,-2.2319982051849365,0.3380899429321289,0.6340221762657166,-0.6954934000968933,0.341338187456131,-1.9468426704406738,1.7098214626312256,0.8607602365947218,-0.25669962806111973,0.2938683574229104,-0.32686152596951196
1681569605682228000,1.59522802734375,-0.73039710521698,2.55438232421875,-1.1938844919204712,0.3439158499240875,0.6460222601890564,-0.681452214717865,0.14027604460716248,-2.080165386199951,1.7505288124084473,0.8531304192493808,-0.2590536251812016,0.30358709501829495,-0.33599783905438757
1681569605692228000,1.60522802734375,-0.7560535073280334,2.7135283946990967,-0.3566465675830841,0.3567350506782532,0.6535242795944214,-0.6675673127174377,0.09426897764205933,-1.8796137571334839,1.7216596603393555,0.8468192973576046,-0.2587970099934136,0.3150245307113078,-0.34158558325285016
1681569605702228000,1.61522802734375,-1.1300795078277588,2.727065324783325,0.45527347922325134,0.3750825822353363,0.6594435572624207,-0.651496171951294,0.0834287703037262,-1.826115369796753,1.6847145557403564,0.8413244420564836,-0.25795029361404165,0.32819745540564604,-0.3433965933139387
1681569605712227000,1.62522705078125,-1.515556812286377,2.6516404151916504,1.1580848693847656,0.3976762890815735,0.6648439764976501,-0.6323258876800537,0.08099192380905151,-1.9895663261413574,1.5450913906097412,0.8364904810170842,-0.2575659618624573,0.3427781242321436,-0.3412426638014813
1681569605722227200,1.635227294921875,-1.844556450843811,2.5390536785125732,1.7629578113555908,0.42354995012283325,0.6692935824394226,-0.6104519367218018,0.16508835554122925,-2.000821352005005,1.3318722248077393,0.8322522788037213,-0.25763344859900456,0.358328132743243,-0.3355326088490159
1681569605732226000,1.64522607421875,-2.1517832279205322,2.434278726577759,2.3156309127807617,0.45214495062828064,0.6722954511642456,-0.5861600637435913,0.14551126956939697,-1.9115228652954102,1.1269011497497559,0.8285059460221953,-0.2580679080115329,0.3745943269192834,-0.32658514781868453
1681569605742226200,1.65522607421875,-2.444014310836792,2.334042549133301,2.7802417278289795,0.4829947054386139,0.6735137701034546,-0.5595491528511047,0.05235987901687622,-1.799627661705017,0.998590350151062,0.8250670512312085,-0.25885272181615165,0.3914341552005086,-0.314704329281275
1681569605752226000,1.66522607421875,-2.749264717102051,2.22253680229187,3.184020519256592,0.5155247449874878,0.6727174520492554,-0.5307406187057495,-0.018866419792175293,-1.6398195028305054,0.9054354429244995,0.8217453316447987,-0.26004062796785754,0.4086668189964087,-0.3001749786327004
1681569605762225200,1.67522509765625,-3.1038873195648193,2.056619167327881,3.525235414505005,0.5491366982460022,0.6699108481407166,-0.49966827034950256,-0.0641360878944397,-1.4702496528625488,0.8071176409721375,0.818349876802645,-0.26190360951696384,0.42611309197752767,-0.2830859880167016
1681569605772225000,1.68522509765625,-3.3446311950683594,1.8082166910171509,3.7199695110321045,0.582766592502594,0.66490238904953,-0.4672130048274994,-0.07547283172607422,-1.3564612865447998,0.7336772084236145,0.8148772088858252,-0.2645079235519216,0.44320316902963713,-0.2637835970783266
1681569605782224100,1.69522412109375,-3.4469690322875977,1.5175564289093018,3.8543436527252197,0.6152901649475098,0.6576665043830872,-0.43461787700653076,-0.022470951080322266,-1.2882664203643799,0.6991748213768005,0.8113658019911136,-0.2677798628547015,0.45933103714252055,-0.24288765476838917
1681569605792224300,1.705224365234375,-3.272921085357666,1.2636693716049194,3.9977774620056152,0.646750807762146,0.6469943523406982,-0.40387097001075745,0.0684744119644165,-1.1172702312469482,0.6414808630943298,0.808146928793623,-0.27064074715427633,0.4741498711978146,-0.22098433220786395
1681569605802224000,1.71522412109375,-2.9611403942108154,1.0321677923202515,4.143331527709961,0.6772609353065491,0.6322231888771057,-0.3763130307197571,0.11613506078720093,-0.9212093949317932,0.5469673275947571,0.8054227413668762,-0.2722403083204482,0.4875743051637108,-0.19862216250578946
1681569605812223200,1.72522314453125,-2.663841485977173,0.7957349419593811,4.29338264465332,0.706876277923584,0.6132472157478333,-0.35249626636505127,0.12791675329208374,-0.8402217626571655,0.46348872780799866,0.8032928577631735,-0.2722535229623947,0.4996297488790877,-0.17597890461783086
1681569605822223000,1.73522314453125,-2.579447031021118,0.6078238487243652,4.494746208190918,0.7356861233711243,0.5904750823974609,-0.3318208158016205,0.18127554655075073,-0.8357143998146057,0.40947282314300537,0.8016104776146356,-0.27102647968244037,0.5105234952326543,-0.15274494812245015
1681569605832222000,1.745221923828125,-2.982203245162964,0.45555493235588074,4.66823673248291,0.7638872265815735,0.5649054050445557,-0.3120225965976715,0.24734318256378174,-0.8644812703132629,0.4030871093273163,0.7997601662578646,-0.2697962674385105,0.5207673919837295,-0.1280425706450623
1681569605842222300,1.755222412109375,-3.8311820030212402,0.3090227544307709,4.817389965057373,0.7912214994430542,0.5382424592971802,-0.29028165340423584,0.3442307114601135,-0.8750192523002625,0.4663223922252655,0.7968711619925027,-0.27067526826254906,0.5306543755988083,-0.10068308824757063
1681569605852221000,1.765220947265625,-4.6684370040893555,0.09185661375522614,4.9859232902526855,0.8173695802688599,0.5108328461647034,-0.26637741923332214,0.6512432098388672,-0.7793570160865784,0.630223274230957,0.7926361444084528,-0.2744765639334898,0.5398832335017463,-0.07011958881659823
1681569605862221000,1.775220947265625,-5.19354248046875,0.08646584302186966,5.444863796234131,0.8433934450149536,0.4801090359687805,-0.24121128022670746,1.1206873655319214,-0.610617458820343,0.8740848302841187,0.786953453527426,-0.27980604674414444,0.548728471048108,-0.03619309850438766
1681569605872221000,1.785220947265625,-5.372554779052734,0.39136993885040283,6.056446552276611,0.8703597187995911,0.4430292844772339,-0.21493938565254211,1.4788376092910767,-0.22615614533424377,1.0334819555282593,0.7794030932184691,-0.28467777411473216,0.5581118838366773,0.0006523756719598968
1681569605882220000,1.795219970703125,-5.119236946105957,0.9042547941207886,6.565334796905518,0.8983502984046936,0.39759260416030884,-0.18678070604801178,1.8642840385437012,0.36205098032951355,0.8871591687202454,0.7693214139502312,-0.28739356307458613,0.569222790185955,0.039179252531397625
1681569605892220000,1.805219970703125,-4.319619178771973,1.3102060556411743,6.7235107421875,0.9250379204750061,0.344951331615448,-0.1591023951768875,2.6380724906921387,0.9042094945907593,0.5112600326538086,0.7574183916812305,-0.28654658563271235,0.5816698847638648,0.0766070135491054
1681569605902219000,1.815218994140625,-3.656053066253662,1.7190617322921753,6.587161540985107,0.9483548998832703,0.28828859329223633,-0.13233622908592224,3.360116958618164,1.4203906059265137,0.10137616097927094,0.7441877583015292,-0.282552089593639,0.594975800412922,0.11114319042188098
1681569605912219100,1.82521923828125,-3.3089375495910645,2.09016752243042,5.951050281524658,0.9670729637145996,0.23183749616146088,-0.10498111695051193,3.470930576324463,1.9458205699920654,-0.27984553575515747,0.7295523399811651,-0.2775917069526989,0.6086479148558761,0.14228082573590262
1681569605922219000,1.835218994140625,-2.307999849319458,2.332257032394409,4.773534774780273,0.9802201390266418,0.18216340243816376,-0.07736275345087051,3.0776259899139404,2.1945455074310303,-0.3878166675567627,0.7146013926003814,-0.27314217434575794,0.6218617011298588,0.16741033366573144
1681569605932218000,1.845218017578125,-0.7246111631393433,2.337106466293335,3.684424638748169,0.9885613918304443,0.1416652351617813,-0.051742419600486755,2.3081610202789307,2.1485111713409424,-0.24960339069366455,0.7014460047634797,-0.26739949002947805,0.6345284091525156,0.18396920571857106
1681569605942218000,1.855218017578125,0.657189130783081,2.1448068618774414,2.810650587081909,0.993536114692688,0.10965894907712936,-0.029343247413635254,1.661004900932312,2.0530760288238525,-0.26173341274261475,0.6911739671787623,-0.2591703873606804,0.6466522148552899,0.1922244273505359
1681569605952217000,1.865217041015625,1.1360024213790894,1.7488455772399902,2.103132724761963,0.9963165521621704,0.0850682184100151,-0.01080563198775053,1.3929197788238525,2.107696056365967,-0.5443701148033142,0.683652793883562,-0.24973192399355615,0.6574428875248141,0.19499156434237774
1681569605962217200,1.87521728515625,0.6445871591567993,1.245431900024414,1.4838438034057617,0.9977313280105591,0.06723606586456299,0.0034252849873155355,1.2072858810424805,1.988122820854187,-0.8560711145401001,0.6780939857145937,-0.24212976132810904,0.6656469192880113,0.1961530944986829
1681569605972217000,1.885217041015625,-0.13881555199623108,0.7268514633178711,1.0052992105484009,0.9984038472175598,0.05494008958339691,0.013082088902592659,0.8458800911903381,1.7222968339920044,-0.9566550254821777,0.6738968542755813,-0.2381200579606571,0.6707010379687915,0.19829746130135975
1681569605982216200,1.89521630859375,-0.9009283781051636,0.28745999932289124,0.6924883127212524,0.9987533092498779,0.04644619673490524,0.01828986406326294,0.3554031252861023,1.5693374872207642,-0.9219763278961182,0.6707656667710836,-0.23755498483920054,0.672839179006176,0.20230782349816634
1681569605992216000,1.905216064453125,-1.7090792655944824,-0.0878508985042572,0.4274938106536865,0.9989778399467468,0.0406164787709713,0.019841335713863373,-0.16017162799835205,1.489962100982666,-0.8284350633621216,0.6683046792256105,-0.24013822133939403,0.6724985518667295,0.2084424685328484
1681569606002215200,1.915215087890625,-2.5226328372955322,-0.42616450786590576,0.20505112409591675,0.9991479516029358,0.0371074452996254,0.01806391216814518,-0.6613947153091431,1.3494129180908203,-0.7933782339096069,0.6662727380490152,-0.24588750946711263,0.6697546481501849,0.21690692501096354
1681569606012215000,1.925215087890625,-3.0021450519561768,-0.6990174055099487,0.05629926919937134,0.9992825984954834,0.035424962639808655,0.013390693813562393,-1.071868658065796,1.1997740268707275,-0.8576594591140747,0.6645344066331975,-0.2541546542565689,0.6649065788985142,0.2273733421896132
1681569606022215200,1.935215087890625,-2.88153338432312,-0.8984021544456482,-0.029400723055005074,0.9993648529052734,0.03504825010895729,0.006434851326048374,-1.3598079681396484,1.1322948932647705,-0.9935106039047241,0.6633263615187089,-0.26307690935655875,0.6587928092496491,0.23828694318966034
1681569606032214300,1.94521435546875,-2.3647069931030273,-1.0525962114334106,-0.12529157102108002,0.9993581771850586,0.035740792751312256,-0.0024151348043233156,-1.5945425033569336,1.188288688659668,-1.0974841117858887,0.6631011582180525,-0.27088725297521843,0.6522365589093255,0.24800090278959433
1681569606042214100,1.955214111328125,-1.6187723875045776,-1.1391847133636475,-0.2756541669368744,0.999202311038971,0.037864577025175095,-0.012686097994446754,-1.7864795923233032,1.3080216646194458,-1.1482025384902954,0.6641781971246352,-0.2767968612926854,0.6457866896962091,0.25536319437492044
1681569606052213200,1.965213134765625,-0.7667065858840942,-1.1812019348144531,-0.47754549980163574,0.9988394975662231,0.04185835272073746,-0.02382640726864338,-1.904219627380371,1.3835262060165405,-1.1787493228912354,0.666745911866963,-0.2804692428093459,0.6398623290707747,0.2595441808978035
1681569606062213000,1.975213134765625,-0.05424123257398605,-1.1549413204193115,-0.7324512600898743,0.9982106685638428,0.04817201569676399,-0.03542932868003845,-1.9524952173233032,1.4319000244140625,-1.1565262079238892,0.6707531225857482,-0.2822399878802459,0.6345281120679651,0.2603940504831675
1681569606072213200,1.985213134765625,0.3806174397468567,-1.0888172388076782,-1.084647536277771,0.9972729086875916,0.05711943656206131,-0.046732496470212936,-1.9644207954406738,1.4288729429244995,-1.0153249502182007,0.6757260978104727,-0.2830454471886342,0.6296975668258823,0.25838034989699904
1681569606082212000,1.995212158203125,0.7499555349349976,-1.0460764169692993,-1.5204339027404785,0.9958908557891846,0.06979699432849884,-0.057703256607055664,-1.967036485671997,1.3570828437805176,-0.8082635402679443,0.6815305542640312,-0.283854782681462,0.6249598662305512,0.25370783072204334
1681569606092212200,2.005212158203125,1.0912266969680786,-1.0159727334976196,-1.9685295820236206,0.9938749074935913,0.08658134937286377,-0.06867492944002151,-1.8566679954528809,1.3666809797286987,-0.6737872362136841,0.6882308653205533,-0.28484202470958997,0.6201028603171129,0.24632429554789204
1681569606102211000,2.015211181640625,1.387536644935608,-0.9992043972015381,-2.4193665981292725,0.991000235080719,0.10742565989494324,-0.07986293733119965,-1.6446868181228638,1.4707603454589844,-0.6230636835098267,0.6957558060669038,-0.28610313021214423,0.6149906759575426,0.23633705410417707
1681569606112211000,2.0252109375,1.6801725625991821,-0.992567241191864,-2.868166208267212,0.9869794249534607,0.13224567472934723,-0.09155630320310593,-1.459071159362793,1.4902976751327515,-0.577038049697876,0.7040443882259837,-0.28768270225770315,0.60947560380682,0.22382938976557992
1681569606122211300,2.03521142578125,2.0730249881744385,-0.9898225665092468,-3.3370907306671143,0.9814600944519043,0.1609569787979126,-0.10406220704317093,-1.3287806510925293,1.4034961462020874,-0.5298641324043274,0.7131020764997583,-0.289401649397195,0.6035027591016429,0.20860622211695368
1681569606132210000,2.0452099609375,2.560957193374634,-0.9935475587844849,-3.803408622741699,0.9740284085273743,0.19332240521907806,-0.11787690222263336,-1.1721333265304565,1.3792636394500732,-0.45826441049575806,0.7230034785480577,-0.2908240524954206,0.5970619072842784,0.190274409286671
1681569606142210000,2.0552099609375,3.030412435531616,-1.0241265296936035,-4.237016677856445,0.9642751812934875,0.22876977920532227,-0.13355779647827148,-0.9678610563278198,1.4291739463806152,-0.37426990270614624,0.7336854165772158,-0.29163878821165967,0.5900575539609593,0.16877376865886887
1681569606152209200,2.065209228515625,3.3202531337738037,-1.086779236793518,-4.656677722930908,0.9517425298690796,0.266861230134964,-0.15156283974647522,-0.7406982779502869,1.443542242050171,-0.2811153531074524,0.7449132212986203,-0.29206693015917984,0.5821644848345828,0.14451911736340464
1681569606162209000,2.075208984375,3.5028250217437744,-1.2353342771530151,-5.113708972930908,0.9358411431312561,0.30745548009872437,-0.1722576916217804,-0.48909419775009155,1.391351342201233,-0.1644732505083084,0.7564380815646241,-0.29261954620105207,0.5729266608626511,0.11802702783237877
1681569606172209200,2.085209228515625,3.6402742862701416,-1.487964153289795,-5.501227855682373,0.9158338308334351,0.3501470386981964,-0.1965848058462143,-0.20234811305999756,1.361034631729126,-0.03052699565887451,0.7682864495899044,-0.2933960717249502,0.5618063223382705,0.0896015433144023
1681569606182208000,2.0952080078125,3.598127603530884,-1.8021212816238403,-5.67138671875,0.8915547132492065,0.3930888772010803,-0.22496956586837769,0.16778671741485596,1.462196707725525,0.059045493602752686,0.780291960675579,-0.29423923887562947,0.5485786048189383,0.06024310280029323
1681569606192208100,2.1052080078125,3.26887583732605,-2.059206008911133,-5.706146240234375,0.8632686138153076,0.43481987714767456,-0.25631800293922424,0.6499606966972351,1.6148931980133057,0.16613861918449402,0.7919444864498265,-0.2956399579449833,0.5333272979009893,0.03135129108904232
1681569606202207000,2.11520703125,2.6627721786499023,-2.0539581775665283,-5.6067728996276855,0.8318626880645752,0.47474125027656555,-0.28744590282440186,1.1884315013885498,1.7669731378555298,0.30920493602752686,0.8023132901204708,-0.29846102861546536,0.516912046671251,0.004040568940710921
1681569606212207000,2.12520703125,1.8927098512649536,-1.9136015176773071,-5.493262767791748,0.798535168170929,0.5130261182785034,-0.3148740231990814,1.7914153337478638,2.047978401184082,0.4732603132724762,0.810549050075924,-0.3034111370495826,0.5005044231982567,-0.02114556517627214
1681569606222207000,2.13520703125,1.0029983520507812,-1.7645641565322876,-5.456645965576172,0.7632979154586792,0.5511956214904785,-0.3369861841201782,2.3231582641601562,2.309567928314209,0.6327015161514282,0.8164191228699291,-0.31135338823617753,0.4843201158468866,-0.04419171932675424
1681569606232206000,2.1452060546875,0.19004425406455994,-1.4811639785766602,-5.40864372253418,0.7267147898674011,0.5896045565605164,-0.3524940311908722,2.5875704288482666,2.434931516647339,0.7226265668869019,0.8197526957826324,-0.322323012821705,0.46889322258762883,-0.0652112344922822
1681569606242206200,2.155206298828125,-0.19279474020004272,-1.103078007698059,-5.555053234100342,0.6880704760551453,0.6290834546089172,-0.36168068647384644,2.9017579555511475,2.353567123413086,0.7812211513519287,0.8206678149099916,-0.33583542154277346,0.4542842996962045,-0.08570050111619801
1681569606252205000,2.165205078125,0.07954704761505127,-0.654631495475769,-5.6174726486206055,0.6485460996627808,0.6668760776519775,-0.3669659495353699,2.992979049682617,1.972482442855835,1.0000226497650146,0.8197837363191913,-0.34919300057415287,0.4411136764702226,-0.10694588373155743
1681569606262205200,2.175205078125,0.8090907335281372,-0.16956199705600739,-5.505239009857178,0.6088813543319702,0.7003782987594604,-0.3724697530269623,2.5093894004821777,1.462112545967102,1.1084164381027222,0.8181357737116108,-0.35984508289850997,0.42927455279224963,-0.12995646163138558
1681569606272205000,2.185205078125,1.7179057598114014,0.25433892011642456,-5.186326026916504,0.5707886815071106,0.7272099256515503,-0.381268709897995,2.0870022773742676,1.0267419815063477,1.0269901752471924,0.816528977032092,-0.3659818124491612,0.41883524815222967,-0.1546436588132445
1681569606282204200,2.1952041015625,2.305265426635742,0.5626272559165955,-4.73864221572876,0.5358087420463562,0.7467859983444214,-0.39397916197776794,2.023273229598999,0.6844425797462463,0.9278994798660278,0.8152569098340707,-0.36762229926561113,0.40971241520237434,-0.17984904601327922
1681569606292204000,2.2052041015625,2.607353448867798,0.8043819665908813,-4.30632209777832,0.5044562220573425,0.7604012489318848,-0.4090399444103241,1.9900200366973877,0.2521413564682007,0.9398933053016663,0.8140514893547959,-0.36607919969345315,0.40182837206292876,-0.20454828640995065
1681569606302203100,2.215203125,2.734605073928833,1.0439839363098145,-3.86706805229187,0.47702130675315857,0.7692784667015076,-0.42504286766052246,1.721297264099121,-0.1447209119796753,1.017526388168335,0.8126809896378465,-0.36232305114650226,0.3952221774075515,-0.2281911205265365
1681569606312203300,2.225203369140625,2.8374619483947754,1.3555582761764526,-3.4129204750061035,0.4540824592113495,0.7741943001747131,-0.4409446716308594,1.3438758850097656,-0.4285980463027954,1.0443077087402344,0.8109768858286702,-0.35675982473116974,0.39019237538629264,-0.2505768825458271
1681569606322203100,2.235203125,3.0040645599365234,1.7066755294799805,-2.95855450630188,0.43624135851860046,0.775269627571106,-0.45678266882896423,1.0148389339447021,-0.7845622301101685,1.0580552816390991,0.8090057861151835,-0.3491300558574616,0.38693263683758233,-0.2718472927004336
1681569606332202200,2.2452021484375,3.0360355377197266,2.0245471000671387,-2.5400378704071045,0.42381390929222107,0.7729028463363647,-0.472231924533844,0.722960352897644,-1.1874536275863647,0.988223135471344,0.8067245543688923,-0.3394380980283192,0.3855720704476934,-0.2920812543567745
1681569606342202000,2.2552021484375,2.6351125240325928,1.9477317333221436,-2.1472437381744385,0.4152483344078064,0.7691482305526733,-0.4857776463031769,0.4789167046546936,-1.6007368564605713,0.8589313626289368,0.8040835633414662,-0.3295061021673615,0.38540486883001773,-0.31038441437001457
1681569606352201000,2.265200927734375,2.0163917541503906,1.8121700286865234,-1.6706024408340454,0.4098264276981354,0.7654786109924316,-0.4960694909095764,0.3442018926143646,-1.8743042945861816,0.7213044762611389,0.8012564547186096,-0.32077409393715134,0.3860948521895675,-0.3256116540503495
1681569606362201000,2.275201171875,1.1565032005310059,1.7503738403320312,-1.2423357963562012,0.40751537680625916,0.7634949684143066,-0.5010057091712952,0.33590808510780334,-1.9958558082580566,0.7112108469009399,0.7979335685494158,-0.3142845681455266,0.3882297564709777,-0.3373499069064624
1681569606372201200,2.285201171875,0.23071551322937012,1.7574949264526367,-0.7636942267417908,0.4085876941680908,0.7641297578811646,-0.49916109442710876,0.2674071788787842,-2.1843719482421875,0.7750400304794312,0.793879838960587,-0.31049417397825957,0.39244466970182607,-0.34544952467489426
1681569606382200000,2.295199951171875,-0.5397340059280396,1.763063669204712,-0.21595735847949982,0.41350820660591125,0.7669923305511475,-0.49064627289772034,0.10648080706596375,-2.27738356590271,0.8572692275047302,0.7892779728736533,-0.3090759354153754,0.3989347357617781,-0.3498049523464184
1681569606392200000,2.305199951171875,-1.0432323217391968,1.711650013923645,0.36501896381378174,0.422418475151062,0.770612359046936,-0.4771994948387146,-0.0374392569065094,-2.190549373626709,0.9183158278465271,0.7846517175145589,-0.3090723903352389,0.40727694343194726,-0.3506017143338469
1681569606402200300,2.315200439453125,-1.1618106365203857,1.6186308860778809,0.8769656419754028,0.435033917427063,0.7732390761375427,-0.4613533616065979,-0.08615696430206299,-2.025390625,0.8166542649269104,0.780573495248452,-0.3093054710039381,0.4167174693005963,-0.3483988136765653
1681569606412199000,2.325198974609375,-0.8924610018730164,1.4774211645126343,1.2800499200820923,0.4504355788230896,0.773188591003418,-0.4464159607887268,-0.05019757151603699,-1.8747358322143555,0.5833789110183716,0.7775815912400494,-0.3084251459249727,0.42622287978914475,-0.3443470056909942
1681569606422199000,2.335198974609375,-0.3671162724494934,1.435141682624817,1.5204367637634277,0.4677359163761139,0.769535481929779,-0.43478527665138245,-0.0015799105167388916,-1.6959271430969238,0.36810439825057983,0.7758764329690999,-0.3053879174034703,0.4351385792317872,-0.3397181362704697
1681569606432198100,2.3451982421875,0.19290822744369507,1.3561978340148926,1.5831501483917236,0.48570412397384644,0.7624673247337341,-0.42747536301612854,0.00039514899253845215,-1.4832468032836914,0.21281474828720093,0.7753053566818976,-0.2999238796365785,0.4430665666727805,-0.3356179134490556
1681569606442198000,2.355197998046875,0.5853050351142883,1.0955265760421753,1.6193574666976929,0.5031036734580994,0.7528224587440491,-0.424435019493103,-0.03272104263305664,-1.2195277214050293,0.14579427242279053,0.7758105328179167,-0.292700352558323,0.44956534527870917,-0.33216799620739973
1681569606452198100,2.3651982421875,0.6808187365531921,0.6674210429191589,1.5807301998138428,0.5188875198364258,0.7418128252029419,-0.4248170852661133,0.014651298522949219,-0.9972449541091919,0.13059711456298828,0.777420891672365,-0.28505899881995594,0.45423873273479687,-0.32867206779423075
1681569606462197000,2.375197021484375,0.5281892418861389,0.31154364347457886,1.4316139221191406,0.5320219993591309,0.7312929630279541,-0.42680594325065613,0.13548898696899414,-0.9601289629936218,0.20274591445922852,0.7796576352903644,-0.27847018452279504,0.4572213712763743,-0.32486467727924767
1681569606472197000,2.385197021484375,0.3661653399467468,0.07698046416044235,1.2457810640335083,0.5425640344619751,0.7222055792808533,-0.42900288105010986,0.1806262731552124,-1.000373363494873,0.29319965839385986,0.7819939063986977,-0.2733674354870388,0.4590956380790137,-0.3209159697895534
1681569606482196000,2.395196044921875,0.3253350853919983,-0.15589699149131775,1.1638292074203491,0.5509628057479858,0.714217483997345,-0.4316633939743042,0.12005764245986938,-0.8701013326644897,0.2852400839328766,0.7844477266319716,-0.2693543011849118,0.4600180100313442,-0.3169753589801292
1681569606492196000,2.405196044921875,0.23824763298034668,-0.4014824628829956,1.258217692375183,0.5582962036132812,0.7062916159629822,-0.4352671504020691,0.06406396627426147,-0.6625751852989197,0.2580210864543915,0.7873716839746562,-0.26589185831276463,0.4600738547481431,-0.3125369393407092
1681569606502196000,2.415196044921875,0.09520739316940308,-0.6000735759735107,1.4805577993392944,0.5656512379646301,0.6978836059570312,-0.4393143951892853,0.0819317102432251,-0.5964279174804688,0.29298263788223267,0.790862867458302,-0.2628520866365199,0.45962113175545793,-0.306908953843268
1681569606512195000,2.425195068359375,-0.15183238685131073,-0.8354132175445557,1.8774185180664062,0.5740585923194885,0.6884669065475464,-0.4432496130466461,0.10894012451171875,-0.6035211682319641,0.37281501293182373,0.7950163758082517,-0.2601995969094555,0.4589895101268339,-0.2992890169062169
1681569606522195200,2.4351953125,-0.35801005363464355,-0.9525275826454163,2.267676591873169,0.5842075347900391,0.6776604056358337,-0.44662976264953613,0.16628074645996094,-0.48710858821868896,0.3967488408088684,0.7997898606219147,-0.2578533125621292,0.45847222433694734,-0.2892252054107414
1681569606532194000,2.445194091796875,-0.40796855092048645,-0.87175452709198,2.831300973892212,0.5970491170883179,0.6644648909568787,-0.4494650959968567,0.42368757724761963,-0.18527787923812866,0.4226248860359192,0.8049950203058494,-0.2549372508181113,0.45855691856054703,-0.2769759302064943
1681569606542194200,2.455194091796875,-0.6549565196037292,-0.7279475331306458,3.430429220199585,0.614088773727417,0.6476618051528931,-0.4510313868522644,0.8883374333381653,0.2514623999595642,0.5380217432975769,0.8104334928294764,-0.2507968951205157,0.45998393224893486,-0.2621324355012073
1681569606552194000,2.465194091796875,-1.590303659439087,-0.6048948764801025,3.848994731903076,0.6343773603439331,0.6297268271446228,-0.4483407139778137,1.3092565536499023,0.6506075859069824,0.6394723653793335,0.8152585709019796,-0.2476061965573108,0.4631639254827899,-0.24397485550880607
1681569606562193200,2.475193115234375,-3.0056068897247314,-0.5004297494888306,3.8284788131713867,0.6561089158058167,0.6148034930229187,-0.43765002489089966,1.5469396114349365,0.838550329208374,0.5851262807846069,0.8182219527160312,-0.2485377373389096,0.4684057911306227,-0.22212092218208165
1681569606572193000,2.485193115234375,-4.476964473724365,-0.5718988180160522,3.23897385597229,0.6755351424217224,0.6071685552597046,-0.41832849383354187,1.8836231231689453,0.8453155755996704,0.46721768379211426,0.8184955166619234,-0.25605155641180394,0.47462969381231634,-0.19806438953276684
1681569606582192000,2.495192138671875,-5.487574100494385,-0.6251425743103027,2.498763084411621,0.69048011302948,0.6079875230789185,-0.3919036388397217,2.179804801940918,1.0642231702804565,0.4528472423553467,0.8159829371664059,-0.27032507149788854,0.48059602187301026,-0.17356180541946786
1681569606592192300,2.505192138671875,-5.593914031982422,-0.5644100308418274,1.9655407667160034,0.7017385959625244,0.6136565804481506,-0.36192360520362854,2.071225881576538,1.4340119361877441,0.39953652024269104,0.8114241359555632,-0.28823304449483356,0.48575704063415137,-0.15017596297927674
1681569606602192100,2.515192138671875,-4.939054489135742,-0.410814106464386,1.6272093057632446,0.7110169529914856,0.6195163726806641,-0.3326477110385895,1.7397429943084717,1.5860042572021484,0.34860843420028687,0.8059864883946066,-0.3057156950595331,0.4901163701004352,-0.12926618560118852
1681569606612191200,2.525191162109375,-3.7169721126556396,-0.19885390996932983,1.4600775241851807,0.7195870876312256,0.6224372386932373,-0.30784156918525696,1.445436716079712,1.6556389331817627,0.35172587633132935,0.8008690963092856,-0.31956717225463543,0.4939190634090358,-0.11193563985243715
1681569606622191000,2.535191162109375,-2.3426926136016846,-0.01347633358091116,1.426795244216919,0.7281738519668579,0.6211308240890503,-0.28975746035575867,1.212713599205017,1.6991053819656372,0.26702189445495605,0.7969755823780069,-0.32818359048085743,0.4974100859839567,-0.09853259712600695
1681569606632191200,2.545191162109375,-1.1023390293121338,0.15471553802490234,1.5034799575805664,0.7373924255371094,0.615300178527832,-0.278672456741333,0.9485664963722229,1.5320539474487305,0.11084100604057312,0.7946619921675824,-0.3313029905558387,0.5009012900050874,-0.08859267645836717
1681569606642190300,2.5551904296875,-0.2528870701789856,0.2857840657234192,1.6140764951705933,0.7475112080574036,0.6055309772491455,-0.2730553150177002,0.6437394022941589,1.2585437297821045,-0.034622907638549805,0.7936874878756962,-0.32986029755161633,0.5046429684564505,-0.08116530297656054
1681569606652190200,2.565190185546875,-0.06280194222927094,0.38392555713653564,1.683199405670166,0.7583569288253784,0.5933557152748108,-0.26985859870910645,0.3704424500465393,1.0286535024642944,-0.09229347109794617,0.79330066882626,-0.32597557306398905,0.5087343393918118,-0.07485481396870197
1681569606662189000,2.57518896484375,-0.6164177656173706,0.4860234260559082,1.5322577953338623,0.7690582871437073,0.5817421078681946,-0.2648118734359741,0.11425763368606567,0.8477622866630554,-0.060551196336746216,0.7922932657837054,-0.32282608478513014,0.5132030563152389,-0.06839030488039785
1681569606672189000,2.58518896484375,-1.7139936685562134,0.49778714776039124,1.2610751390457153,0.7784085273742676,0.5739301443099976,-0.25433120131492615,-0.16332679986953735,0.6957079172134399,0.046521782875061035,0.7896079550554935,-0.32362099269065425,0.5177874639856798,-0.06070319785137603
1681569606682189000,2.59518896484375,-2.5612571239471436,0.44175609946250916,1.056298017501831,0.7861760258674622,0.570247232913971,-0.2382127195596695,-0.41990411281585693,0.5969128012657166,0.10254687070846558,0.7851584795863138,-0.3290203326649928,0.5221486965644199,-0.05130822469430078
1681569606692188000,2.60518798828125,-2.821769952774048,0.34320709109306335,0.9362637400627136,0.7927058339118958,0.5687156915664673,-0.219499409198761,-0.5850184559822083,0.5234016180038452,0.08027821779251099,0.779793374069829,-0.3370779922296139,0.5259550607511125,-0.04089068255191282
1681569606702188000,2.61518798828125,-2.402731418609619,0.28484389185905457,0.8370940685272217,0.7984249591827393,0.5671915411949158,-0.20201840996742249,-0.7320339679718018,0.643639087677002,-0.018318474292755127,0.7746270862923101,-0.3449164212808931,0.5291724247039667,-0.031018570272674746
1681569606712187100,2.625187255859375,-1.8010793924331665,0.2032443881034851,0.6040905714035034,0.80303955078125,0.5654610395431519,-0.1880992352962494,-0.87261962890625,0.8902579545974731,-0.24770700931549072,0.7704020422298283,-0.35109838174573593,0.5316768828523925,-0.023028269466284355
1681569606722187000,2.63518701171875,-1.1992380619049072,0.12331067770719528,0.285300612449646,0.8058605790138245,0.5646162033081055,-0.17831750214099884,-1.0155164003372192,1.090153694152832,-0.5005307197570801,0.7673641097289948,-0.35563855661485644,0.5332564737787518,-0.017634731472221082
1681569606732187100,2.645187255859375,-0.6345062851905823,0.049412552267313004,-0.01946866139769554,0.8067494630813599,0.5651620030403137,-0.17247353494167328,-1.1291067600250244,1.1392141580581665,-0.7471736669540405,0.7655175037196738,-0.35880065427141067,0.5338776296427422,-0.014821438655398539
1681569606742186000,2.65518603515625,-0.08610180765390396,0.07449766248464584,-0.34316521883010864,0.8058269023895264,0.5672188997268677,-0.17001673579216003,-1.2276561260223389,1.0724142789840698,-0.9663968086242676,0.764717964015557,-0.36063801440249865,0.533790083123408,-0.014655699656165769
1681569606752186000,2.66518603515625,0.42622658610343933,0.13587507605552673,-0.7143231630325317,0.8030127882957458,0.5711678266525269,-0.17011088132858276,-1.3888587951660156,0.9860678315162659,-1.0570924282073975,0.7646933361029407,-0.3613949135160332,0.5332337940326148,-0.01730501636223435
1681569606762185200,2.675185302734375,0.9364427328109741,0.20182585716247559,-1.0748107433319092,0.7981340885162354,0.577200174331665,-0.1726899892091751,-1.6589586734771729,0.88645339012146,-1.0693448781967163,0.7653901330910237,-0.36116313904826375,0.5321806020872794,-0.022867020092206845
1681569606772185000,2.68518505859375,1.4979828596115112,0.25807473063468933,-1.3889306783676147,0.7913509011268616,0.5849148035049438,-0.17787182331085205,-1.9528346061706543,0.7481998205184937,-1.144882082939148,0.7667850951861497,-0.3597802377614791,0.5306809509784707,-0.031249058752123082
1681569606782185000,2.69518505859375,2.1829724311828613,0.2691207230091095,-1.696244239807129,0.7827302813529968,0.5937256217002869,-0.18661029636859894,-2.1476898193359375,0.6111236810684204,-1.25664222240448,0.7690888150625839,-0.35677155270013405,0.5285914410539958,-0.042516388343744715
1681569606792184000,2.70518408203125,2.936001777648926,0.2323048710823059,-1.994916319847107,0.7721208930015564,0.6032020449638367,-0.19994160532951355,-2.184657573699951,0.47798997163772583,-1.3126468658447266,0.7724892249429346,-0.3517480645258695,0.5256448398778775,-0.05684336337985101
1681569606802184200,2.71518408203125,3.645637273788452,0.16100433468818665,-2.2711985111236572,0.7592840790748596,0.6129510402679443,-0.21858374774456024,-2.119818687438965,0.34148621559143066,-1.2868026494979858,0.7770347863683473,-0.34460372507034126,0.521494390000858,-0.07422215916639982
1681569606812184000,2.72518408203125,4.283632755279541,0.08781926333904266,-2.5310306549072266,0.7446446418762207,0.6219710111618042,-0.24219119548797607,-1.9982914924621582,0.1959000825881958,-1.1605645418167114,0.7824561217648778,-0.33535958389621473,0.5161766649243317,-0.09411768458988884
1681569606822183200,2.73518310546875,4.825372219085693,0.020111054182052612,-2.7892842292785645,0.7281069755554199,0.6298673152923584,-0.27042093873023987,-1.8680148124694824,0.0713808536529541,-0.9296827912330627,0.7884574351321284,-0.32420994463277797,0.5095855625166659,-0.11638459738640672
1681569606832183000,2.74518310546875,5.124821186065674,-0.020350482314825058,-3.0337235927581787,0.7096087336540222,0.6365813612937927,-0.302025705575943,-1.723738431930542,0.035003662109375,-0.6527013778686523,0.7945192581238926,-0.3118576746302874,0.5017289502594052,-0.14054154804296065
1681569606842182100,2.75518212890625,5.153891086578369,-0.051935840398073196,-3.2298288345336914,0.689428448677063,0.6420984268188477,-0.3352578580379486,-1.518667459487915,0.08649343252182007,-0.3394399583339691,0.8000836564014215,-0.299128917039432,0.4928417268471708,-0.16581604600470845
1681569606852182300,2.765182373046875,4.981030464172363,-0.07398021966218948,-3.3689022064208984,0.6678836941719055,0.6466971039772034,-0.3683939576148987,-1.2783268690109253,0.048325419425964355,-0.06622210144996643,0.8047178218257781,-0.2868979613339662,0.48321070173936564,-0.1913795594705056
1681569606862182100,2.77518212890625,4.755836009979248,-0.0830666646361351,-3.398106098175049,0.6455691456794739,0.6502660512924194,-0.4004928469657898,-1.0717471837997437,0.044359803199768066,0.12417146563529968,0.8082887549920375,-0.27545471667199345,0.47315777150339666,-0.21660019925685525
1681569606872181200,2.78518115234375,4.614591598510742,-0.17005428671836853,-3.275756359100342,0.6232584714889526,0.6520752310752869,-0.4316789209842682,-0.8574809432029724,0.25171810388565063,0.15996572375297546,0.8110465581940142,-0.2645198454987129,0.4628064297022445,-0.24092081454162384
1681569606882181000,2.79518115234375,4.443436622619629,-0.36642324924468994,-2.8514652252197266,0.6019622087478638,0.6506699919700623,-0.46289312839508057,-0.523455798625946,0.7929793000221252,-0.006329864263534546,0.8136351166356064,-0.2534546163341488,0.45201127238757705,-0.26352310876376517
1681569606892180200,2.80518017578125,3.9148142337799072,-0.7807320952415466,-2.315427541732788,0.5826038718223572,0.6457375884056091,-0.4935540556907654,-0.026726245880126953,1.623976707458496,-0.27211669087409973,0.8166006968372761,-0.24276732616923613,0.440779993745116,-0.2827370427558
1681569606902180000,2.81518017578125,2.6740639209747314,-1.3025037050247192,-2.1197166442871094,0.5630878210067749,0.6414099931716919,-0.5210808515548706,0.6201091408729553,2.378716468811035,-0.5643987655639648,0.8196816254146188,-0.23541531113725153,0.4289978939514618,-0.29776225750430807
1681569606912180200,2.82518017578125,1.0744271278381348,-1.770180344581604,-2.2891130447387695,0.5409762859344482,0.6434904336929321,-0.5415390729904175,1.3349848985671997,3.013934373855591,-0.7138319611549377,0.8218312858946405,-0.23468915922427183,0.41731458703041974,-0.30880858855165544
1681569606922179300,2.835179443359375,-0.11453715711832047,-2.292912244796753,-3.20808482170105,0.5114434361457825,0.6556199193000793,-0.5555070638656616,2.220520496368408,3.4331555366516113,-0.3749890923500061,0.8223131603816828,-0.2418118770499417,0.40468936962042207,-0.31867619020632504
1681569606932179200,2.84517919921875,-0.7912102341651917,-2.6002426147460938,-3.9952025413513184,0.473350465297699,0.6762744188308716,-0.5644397735595703,2.7835617065429688,3.2903547286987305,0.3255176544189453,0.8207054920543287,-0.2550350020181127,0.39081613468414533,-0.3296398968242697
1681569606942179300,2.855179443359375,-1.0811315774917603,-2.6152594089508057,-4.225888729095459,0.4300614297389984,0.7003354430198669,-0.5697169899940491,2.4139938354492188,2.883938789367676,0.8191676735877991,0.8175622468786135,-0.2712654839114829,0.37624001809460084,-0.34124840307391907
1681569606952178000,2.865177978515625,-1.0742244720458984,-2.374734878540039,-4.297109603881836,0.38533350825309753,0.7240254282951355,-0.5721059441566467,1.858471393585205,2.3028299808502197,0.9021230936050415,0.8132226509639163,-0.28796380741717886,0.36197219571122224,-0.353159784633022
1681569606962178000,2.875177978515625,-0.6827480792999268,-2.092877149581909,-4.061154365539551,0.34165963530540466,0.744457483291626,-0.5736303329467773,1.6800230741500854,1.6678807735443115,0.7253026962280273,0.8083301011334653,-0.30310261486339923,0.34830106867595056,-0.3652638242009734
1681569606972177200,2.88517724609375,-0.10568828880786896,-1.7279292345046997,-3.645953893661499,0.3015776574611664,0.7591016888618469,-0.5769017338752747,1.6855591535568237,1.2568132877349854,0.5699437260627747,0.8038366644366016,-0.31481454249171953,0.3353221543436048,-0.37722341819186656
1681569606982177000,2.895177001953125,0.09697373956441879,-1.3168034553527832,-3.086493968963623,0.26701703667640686,0.7685049176216125,-0.5814654231071472,1.6695064306259155,0.8957559466362,0.5611255168914795,0.7999507621146097,-0.3231632485021628,0.3237789205943613,-0.3883445280083846
1681569606992177000,2.905177001953125,-0.1743849366903305,-0.7842386364936829,-2.634314775466919,0.23885928094387054,0.7758010625839233,-0.5840196013450623,1.5505236387252808,0.33598482608795166,0.777440071105957,0.7960220974844047,-0.3298585966542963,0.3149341334305223,-0.3979429042385456
1681569607002176000,2.915176025390625,-0.6469948291778564,-0.07835579663515091,-2.407925605773926,0.21669518947601318,0.7838826179504395,-0.5818688273429871,1.2746835947036743,-0.32581377029418945,1.1024529933929443,0.7909734695261617,-0.3362665053384619,0.30982320544617886,-0.4065654479632219
1681569607012176100,2.925176025390625,-1.0235538482666016,0.6969307065010071,-2.1139745712280273,0.2005537897348404,0.7935441136360168,-0.5745136737823486,0.9370652437210083,-0.8648789525032043,1.3014576435089111,0.7843838802601405,-0.3424981389667695,0.30893070889783947,-0.4147274283813056
1681569607022175000,2.935175048828125,-1.1453287601470947,1.4829916954040527,-1.56862473487854,0.19190280139446259,0.8034448623657227,-0.5636041164398193,0.6937783360481262,-1.3259973526000977,1.3365991115570068,0.7769077047018778,-0.34739578971187485,0.3122724889737861,-0.4221568258526504
1681569607032175000,2.945175048828125,-1.180007815361023,2.0563340187072754,-0.838678240776062,0.19209177792072296,0.8122043013572693,-0.5508400797843933,0.509583592414856,-1.7771549224853516,1.3170602321624756,0.7694903750264573,-0.3499658878344132,0.3195368975884971,-0.4281407991986546
1681569607042175000,2.955175048828125,-1.3293770551681519,2.4527525901794434,-0.05697575584053993,0.20069634914398193,0.8198440670967102,-0.536261796951294,0.30621588230133057,-2.111424207687378,1.303473711013794,0.7626807225977797,-0.35060370036300575,0.330069903456222,-0.4317974410381781
1681569607052174000,2.965174072265625,-1.6343810558319092,2.8284411430358887,0.6987057328224182,0.21728071570396423,0.8269403576850891,-0.5186122059822083,0.22172988951206207,-2.2823541164398193,1.326382040977478,0.7563476321558031,-0.3499466892230937,0.34384764372488147,-0.43271732091565285
1681569607062174200,2.97517431640625,-2.036236524581909,3.178241729736328,1.4570140838623047,0.24148689210414886,0.8337730765342712,-0.4964941740036011,0.26913321018218994,-2.4125237464904785,1.4007452726364136,0.7501745106076247,-0.34846231342048145,0.3610082139942489,-0.43067989951608593
1681569607072174000,2.985174072265625,-2.4404447078704834,3.4600610733032227,2.1560821533203125,0.27267777919769287,0.839949369430542,-0.46918222308158875,0.28548869490623474,-2.5234057903289795,1.4166462421417236,0.7439777011336225,-0.34636070085366316,0.38137010634348834,-0.4255447124441058
1681569607082173200,2.995173095703125,-2.7220356464385986,3.5969653129577637,2.8099071979522705,0.30958566069602966,0.8444836139678955,-0.43704020977020264,0.34321585297584534,-2.5146191120147705,1.3193949460983276,0.7377833945989642,-0.34364726314821226,0.404210906244641,-0.41736768075371167
1681569607092173000,3.005173095703125,-2.7252681255340576,3.658668279647827,3.450232744216919,0.35128986835479736,0.8456472754478455,-0.4018411338329315,0.48573100566864014,-2.363377809524536,1.191239356994629,0.7319756811843913,-0.33972558965920185,0.42856266550255656,-0.40636476529729576
1681569607102172200,3.015172119140625,-2.364990472793579,3.614837408065796,4.0979084968566895,0.39708855748176575,0.8413876295089722,-0.36658892035484314,0.5797027945518494,-2.147738456726074,1.0584224462509155,0.7271724344150663,-0.3334908982696217,0.45330933688619235,-0.39308351107248085
1681569607112172000,3.025172119140625,-1.8246865272521973,3.5195038318634033,4.667047500610352,0.44630205631256104,0.8302242755889893,-0.33397912979125977,0.5431540608406067,-1.9166042804718018,0.9105324745178223,0.7238769286851042,-0.3240039181293635,0.477526851149743,-0.37814246513366856
1681569607122172200,3.035172119140625,-1.3048070669174194,3.465817451477051,5.0778727531433105,0.4975506365299225,0.8121465444564819,-0.30473145842552185,0.4660418629646301,-1.692670226097107,0.7679883241653442,0.721913618732916,-0.3112324461249857,0.5007680412179629,-0.36222427124521067
1681569607132171300,3.045171142578125,-0.8694009780883789,3.482898712158203,5.303868770599365,0.5492885112762451,0.7880983352661133,-0.2778186798095703,0.4243900775909424,-1.5273714065551758,0.6535816192626953,0.7205681903431802,-0.2956950924952906,0.5231205189872024,-0.34596367083679735
1681569607142171100,3.055171142578125,-0.44157612323760986,3.4171645641326904,5.4239044189453125,0.6000099778175354,0.758977472782135,-0.2528662383556366,0.3968924283981323,-1.3991141319274902,0.582425594329834,0.7194616901380658,-0.27787121047311997,0.5443844856734213,-0.32986067437006095
1681569607152171000,3.0651708984375,0.027238065376877785,3.2046661376953125,5.474025249481201,0.6485340595245361,0.7254282832145691,-0.23055890202522278,0.38073229789733887,-1.2481791973114014,0.5098863244056702,0.7187593427676169,-0.25817371523567595,0.5639741863233697,-0.3141090297541982
1681569607162170000,3.075170166015625,0.43907594680786133,2.9109158515930176,5.462767124176025,0.6939605474472046,0.6881723403930664,-0.21174931526184082,0.4784485101699829,-1.0390329360961914,0.4155609607696533,0.7186798951065599,-0.23694071501377578,0.5813642916866079,-0.29895478323871816
1681569607172170200,3.085170166015625,0.6021801829338074,2.56685209274292,5.460638523101807,0.73604816198349,0.6480088233947754,-0.1957494169473648,0.618413507938385,-0.8704208731651306,0.315622478723526,0.7191730935595734,-0.21491231136871441,0.5966053884978693,-0.284015644820869
1681569607182169000,3.095169189453125,0.5605517625808716,2.2274227142333984,5.56737756729126,0.7750331163406372,0.6053380370140076,-0.18135489523410797,0.7144230604171753,-0.7692174315452576,0.22748219966888428,0.7201450622684393,-0.19288780138984724,0.6100138126465228,-0.2684559217334248
1681569607192169200,3.105169189453125,0.4605862498283386,1.9590153694152832,5.737965106964111,0.8116961717605591,0.55946284532547,-0.1677815169095993,0.8034618496894836,-0.7158349752426147,0.1753804236650467,0.7215574624818892,-0.17088277800053736,0.6220195461894645,-0.2514867620614797
1681569607202169000,3.115169189453125,0.3049774765968323,1.804268717765808,5.643462657928467,0.8452536463737488,0.5116000175476074,-0.15431053936481476,0.9332497715950012,-0.6004977226257324,0.19764548540115356,0.722896037835463,-0.14932598681974243,0.6328874169228498,-0.2336163553187937
1681569607212168200,3.125168212890625,0.035540156066417694,1.7142751216888428,5.568960666656494,0.8751338124275208,0.46317729353904724,-0.1400274634361267,1.121814489364624,-0.23997175693511963,0.2622961401939392,0.7236827617453218,-0.1288505294381286,0.6429493075779823,-0.21516741855455246
1681569607222168300,3.135168212890625,-0.2780103385448456,1.619964838027954,5.618384838104248,0.901868462562561,0.4136069118976593,-0.12474997341632843,1.3400442600250244,0.1424691081047058,0.30062276124954224,0.7239727632890224,-0.10943148736417911,0.6524183958066301,-0.1955463636724906
1681569607232168200,3.145168212890625,-0.9300141930580139,1.5083794593811035,5.465024948120117,0.9253230690956116,0.36341792345046997,-0.10818663984537125,1.7100679874420166,0.39973512291908264,0.25291627645492554,0.7236802420028362,-0.09178565638892075,0.6614242776803119,-0.17429885783743457
1681569607242167000,3.1551669921875,-2.06181263923645,1.385715365409851,4.9227094650268555,0.9444810152053833,0.3160911798477173,-0.0896763727068901,2.1960065364837646,0.5261176824569702,0.1171116903424263,0.7224933187200425,-0.07858331081899828,0.67006453124605,-0.15113421234027946
1681569607252167000,3.1651669921875,-3.2892298698425293,1.274764060974121,4.120048999786377,0.9589360952377319,0.2750549614429474,-0.06918413937091827,2.595003604888916,0.55023193359375,0.00946122407913208,0.7201716431298711,-0.07201651483489645,0.6783963098666602,-0.1262731444581858
1681569607262166000,3.175166015625,-4.61932373046875,1.2383527755737305,3.226853370666504,0.9691588282585144,0.24192622303962708,-0.0469345897436142,2.7328522205352783,0.6799030303955078,-0.08500814437866211,0.7165628180342489,-0.0729893008070301,0.6864439279555397,-0.10002519892397048
1681569607272166000,3.185165771484375,-5.650928974151611,1.192313313484192,2.4231033325195312,0.9760323762893677,0.2163802534341812,-0.0232465248554945,2.5195579528808594,0.884419322013855,-0.18274706602096558,0.7115855786961347,-0.08123490844306998,0.6941020292496016,-0.07258952996764102
1681569607282165200,3.195165283203125,-5.852871894836426,1.094048023223877,1.8802427053451538,0.9805707335472107,0.19616557657718658,-0.0000676649870001711,2.2059221267700195,1.0529494285583496,-0.26146799325942993,0.7056806305850668,-0.0940413277002403,0.7008012529878884,-0.0452619671799857
1681569607292164400,3.205164306640625,-5.300980091094971,0.974277138710022,1.5273513793945312,0.9836450815200806,0.17893531918525696,0.020602239295840263,1.9718296527862549,1.2452895641326904,-0.3533811569213867,0.6994962746247742,-0.10761488666398963,0.706201214977182,-0.02009547199794817
1681569607302164200,3.215164306640625,-4.459530830383301,0.8250938057899475,1.2757630348205566,0.9857727289199829,0.1637597531080246,0.037882011383771896,1.6686158180236816,1.4841437339782715,-0.4625493288040161,0.6935824767406441,-0.11965221117967352,0.7103691674749424,0.0015608821892377875
1681569607312164400,3.225164306640625,-3.5879263877868652,0.6369222402572632,1.1154375076293945,0.9873111844062805,0.15024247765541077,0.05142016336321831,1.2435085773468018,1.5570634603500366,-0.5559824705123901,0.6884103930533324,-0.12935471686899686,0.7134265479657378,0.019522536694736674
1681569607322163500,3.23516357421875,-2.834826946258545,0.40920519828796387,1.0324411392211914,0.988558828830719,0.13785289227962494,0.061223354190588,0.7735567688941956,1.4836680889129639,-0.6359609365463257,0.6842610059082098,-0.13657963587552924,0.7155121804910187,0.034282675284267275
1681569607332163300,3.245163330078125,-2.2555971145629883,0.15699432790279388,1.0153499841690063,0.9897230267524719,0.1261308640241623,0.0673743486404419,0.3590470552444458,1.3982222080230713,-0.7028266191482544,0.6812760151065582,-0.14163895899731727,0.7166767615583219,0.046645561806338394
1681569607342162400,3.255162353515625,-1.8325837850570679,-0.08920425176620483,1.0065677165985107,0.9909175634384155,0.1147180050611496,0.07015969604253769,-0.0021784305572509766,1.323667049407959,-0.7949826717376709,0.679435027194264,-0.14493463534651804,0.7169894004118976,0.057343474878951306
1681569607352162300,3.265162353515625,-1.544175624847412,-0.34682339429855347,0.9795734882354736,0.9921514987945557,0.10370288789272308,0.06986375898122787,-0.3149207830429077,1.2857776880264282,-0.8723387718200684,0.6786703568754101,-0.14701860894661006,0.7164617270199101,0.06689223879150032
1681569607362162400,3.275162353515625,-1.4101147651672363,-0.5817696452140808,0.9284815788269043,0.9934152960777283,0.09318439662456512,0.0666515976190567,-0.6144176721572876,1.2928935289382935,-0.9695446491241455,0.6789254249404618,-0.1483818001573292,0.7150584885168602,0.0757252438624484
1681569607372161300,3.285161376953125,-1.4929685592651367,-0.7628062963485718,0.7469307780265808,0.994596004486084,0.08385879546403885,0.06120828166604042,-0.8728461861610413,1.335940957069397,-1.1001334190368652,0.6799224045273148,-0.15001390283666638,0.7128113147485654,0.08426973018507468
1681569607382161400,3.295161376953125,-1.5317074060440063,-0.8942266702651978,0.5166176557540894,0.9955841302871704,0.07670329511165619,0.05411995202302933,-1.0478607416152954,1.3830287456512451,-1.1526154279708862,0.6814659455676342,-0.1525537042194658,0.709779784958072,0.09243501656151955
1681569607392161300,3.305161376953125,-1.4478132724761963,-0.978493332862854,0.27272671461105347,0.9963456988334656,0.07202640175819397,0.04590383917093277,-1.20673406124115,1.3699291944503784,-1.0870262384414673,0.6834316792567099,-0.1558602211033174,0.7061582767637286,0.09984533540314984
1681569607402160000,3.31516015625,-1.116904377937317,-1.0082772970199585,-0.02079624868929386,0.9968529343605042,0.07016950845718384,0.03688505291938782,-1.363979458808899,1.3781795501708984,-0.9407546520233154,0.6858553393621781,-0.15931061292030582,0.7021842033957169,0.10564077107479805
1681569607412160300,3.32516015625,-0.5691158175468445,-1.0058192014694214,-0.5072034001350403,0.9969983696937561,0.07240340858697891,0.02742685005068779,-1.4783062934875488,1.4272608757019043,-0.7710791826248169,0.6888363275007112,-0.16259478024160298,0.6980518338198652,0.10858719107451707
1681569607422159000,3.3351591796875,0.1326543092727661,-0.9477689862251282,-1.1067756414413452,0.9966025948524475,0.08041374385356903,0.017802532762289047,-1.5036673545837402,1.5835723876953125,-0.7394363880157471,0.6925083478667331,-0.16565373017705406,0.6938732651099986,0.10738231963136778
1681569607432159200,3.3451591796875,0.9531275033950806,-0.9201658964157104,-1.6799370050430298,0.9955009818077087,0.09440405666828156,0.008118420839309692,-1.423158884048462,1.8027974367141724,-0.8122413158416748,0.6968881858157618,-0.16812616563470031,0.6897773575079397,0.10142854112369368
1681569607442159000,3.3551591796875,1.7104204893112183,-0.9772962927818298,-2.2464091777801514,0.9934276342391968,0.1144251823425293,-0.002882869215682149,-1.3059430122375488,1.8357548713684082,-0.8721018433570862,0.7023038485771866,-0.16988870528724923,0.6853439962781306,0.09061274668066727
1681569607452158200,3.365158203125,2.401329278945923,-1.0500218868255615,-2.77107572555542,0.990132749080658,0.13926498591899872,-0.015562486834824085,-1.2533621788024902,1.7208118438720703,-0.8576521873474121,0.7085716324220472,-0.17082244254382747,0.6804692865281716,0.07554704067776227
1681569607462158000,3.375157958984375,2.9365463256835938,-1.1327694654464722,-3.211477279663086,0.9852654933929443,0.16829636693000793,-0.03046494349837303,-1.2241114377975464,1.5849690437316895,-0.8086158633232117,0.7155543301422987,-0.17107372275780128,0.6749083715606695,0.05669563718740467
1681569607472158200,3.385158203125,3.2511136531829834,-1.242561936378479,-3.612896680831909,0.9785013794898987,0.20061349868774414,-0.047846902161836624,-1.174836277961731,1.3952879905700684,-0.76408851146698,0.7229790350231177,-0.1710976549244495,0.6684326002431683,0.03499720272674546
1681569607482157300,3.3951572265625,3.365560531616211,-1.3734389543533325,-4.0054779052734375,0.9694173336029053,0.23585295677185059,-0.06784752756357193,-1.0978505611419678,1.1670706272125244,-0.6880728602409363,0.7306143858615406,-0.1715722639171288,0.6607868002240236,0.011239151467327919
1681569607492157200,3.4051572265625,3.4068472385406494,-1.4813792705535889,-4.37481164932251,0.9576016664505005,0.2735917270183563,-0.09025874733924866,-0.9867459535598755,0.9813978672027588,-0.592907726764679,0.7381948019598015,-0.17289099838088445,0.6519043869863587,-0.014064362947558324
1681569607502157300,3.4151572265625,3.4568378925323486,-1.57865571975708,-4.692980766296387,0.9426981210708618,0.313266783952713,-0.11482210457324982,-0.8197123408317566,0.9212760925292969,-0.4955142140388489,0.7454922073838893,-0.1751109033039722,0.6418139282840378,-0.04064974796309731
1681569607512156200,3.42515625,3.632817268371582,-1.7082834243774414,-4.862206935882568,0.9246320128440857,0.3534102439880371,-0.14197513461112976,-0.5982465147972107,0.9453415870666504,-0.38774895668029785,0.7525350226980972,-0.1775066190900109,0.6304790519668687,-0.06840063984899208
1681569607522156300,3.43515625,3.953665018081665,-1.8896540403366089,-4.984093189239502,0.9034268856048584,0.3925175666809082,-0.1724812090396881,-0.3090055584907532,0.9533991813659668,-0.2661784291267395,0.759466682349884,-0.1793432949550597,0.6177340687070497,-0.09721581397462056
1681569607532155400,3.4451552734375,4.12436580657959,-2.000105142593384,-5.031922340393066,0.8790953755378723,0.42954039573669434,-0.20660686492919922,-0.0075286030769348145,0.9838201999664307,-0.059765756130218506,0.766272328632568,-0.18025408905408935,0.6034940185361977,-0.12700453514179977
1681569607542155300,3.4551552734375,4.091866493225098,-2.1061203479766846,-4.864434242248535,0.852327823638916,0.4632411003112793,-0.24278537929058075,0.29369866847991943,1.1042943000793457,0.15164467692375183,0.7725910873305648,-0.18064072754979238,0.588197446227941,-0.15651059430105227
1681569607552155100,3.465155029296875,3.7739157676696777,-2.2359187602996826,-4.75754976272583,0.8236764669418335,0.49318310618400574,-0.2798706293106079,0.7408681511878967,1.1777915954589844,0.2659088373184204,0.7783655734331547,-0.18112329485460882,0.5720655934565064,-0.18461418077225183
1681569607562154200,3.475154296875,3.0580825805664062,-2.3049559593200684,-4.710253715515137,0.7928746342658997,0.5212134718894958,-0.3157317042350769,1.2677485942840576,1.2392539978027344,0.4424102008342743,0.7832285395762237,-0.18326258036971477,0.5554718444393721,-0.21075822925364698
1681569607572154400,3.485154296875,1.9286243915557861,-2.2853431701660156,-4.689828872680664,0.7599842548370361,0.5494855046272278,-0.3471164107322693,1.551188349723816,1.4367053508758545,0.5196322202682495,0.7866502927234225,-0.18887984334911614,0.5392274133902275,-0.23396505041423496
1681569607582154200,3.495154296875,0.725156843662262,-2.1321310997009277,-4.611612796783447,0.7256050705909729,0.5794585347175598,-0.3711131513118744,1.5981559753417969,1.6294647455215454,0.5272105932235718,0.7881487651019068,-0.19881150850971765,0.52432567430762,-0.25372824365860935
1681569607592153300,3.5051533203125,0.015173912048339844,-2.005030393600464,-4.698798656463623,0.6900915503501892,0.6111381649971008,-0.3876643776893616,1.8159356117248535,1.706076741218567,0.5164486169815063,0.7877306009313322,-0.2122711147580049,0.5109880414475065,-0.2707629654524066
1681569607602153200,3.5151533203125,-0.010220660828053951,-1.8640347719192505,-4.873733043670654,0.6523658037185669,0.6434717178344727,-0.4004534184932709,2.3230369091033936,1.7405462265014648,0.5556353330612183,0.7858999213067209,-0.22723126592615578,0.4981357692383882,-0.287381114981629
1681569607612152300,3.52515234375,0.41631338000297546,-1.5015205144882202,-4.8809309005737305,0.6132462620735168,0.6736418604850769,-0.41247501969337463,2.559574604034424,1.8099092245101929,0.649444043636322,0.7830624337497907,-0.24102209229250485,0.4854594152394209,-0.305042120781118
1681569607622152400,3.53515234375,1.0317374467849731,-1.0710335969924927,-4.790247917175293,0.5745851993560791,0.6994279026985168,-0.425032377243042,2.404296636581421,1.6895339488983154,0.7854907512664795,0.7794161101854142,-0.2518782839155712,0.47332984329011035,-0.3240783846517422
1681569607632152300,3.54515234375,1.6429612636566162,-0.6125462055206299,-4.639895915985107,0.537477433681488,0.7198144793510437,-0.4393008351325989,2.1850719451904297,1.3318517208099365,0.9498599171638489,0.7752287047210005,-0.2590612883106019,0.46177574265028626,-0.3444864675676017
1681569607642151400,3.5551513671875,2.0393941402435303,-0.12586785852909088,-4.343273162841797,0.5030854940414429,0.7349204421043396,-0.45474931597709656,2.0099148750305176,0.9447212815284729,1.101722002029419,0.770513943625137,-0.2628115460839156,0.45117117336218254,-0.36562677919062925
1681569607652151300,3.5651513671875,2.1128971576690674,0.34730955958366394,-3.9086108207702637,0.4730164706707001,0.7453869581222534,-0.46973782777786255,1.7710020542144775,0.6371050477027893,1.2544057369232178,0.7652580719508595,-0.26377095444399284,0.4422171122848833,-0.3863275235150088
1681569607662151400,3.5751513671875,2.080385684967041,0.7738696336746216,-3.455199718475342,0.44815197587013245,0.7523398995399475,-0.4828503727912903,1.4853196144104004,0.3170570731163025,1.3284313678741455,0.75950218056452,-0.26273352382933546,0.43536870265107225,-0.40568665417545996
1681569607672150300,3.585150390625,2.125415802001953,1.168370246887207,-3.004960298538208,0.4285065829753876,0.756291389465332,-0.4943738579750061,1.2069151401519775,-0.13994312286376953,1.3595929145812988,0.7534229077121564,-0.2598006060205096,0.43048428388845095,-0.42372274197147247
1681569607682150400,3.595150390625,2.271390438079834,1.560562252998352,-2.504960298538208,0.41445058584213257,0.7569180130958557,-0.5052779912948608,0.9107141494750977,-0.6285915970802307,1.3606094121932983,0.7473703886806721,-0.25451480211798894,0.4272975651336912,-0.4405411842277399
1681569607692150300,3.605150390625,2.3074584007263184,1.8928130865097046,-2.0071237087249756,0.4062633514404297,0.7543888092041016,-0.5156040787696838,0.630006730556488,-1.0389347076416016,1.3163702487945557,0.7415170147584181,-0.24685062654490136,0.42574960417393326,-0.4560202911438033
1681569607702149000,3.615149169921875,2.1265382766723633,2.1049821376800537,-1.4903619289398193,0.4035149812698364,0.7498801350593567,-0.5242666006088257,0.4048498868942261,-1.440767526626587,1.2598165273666382,0.7358920763259617,-0.23769413987324525,0.4258734449863343,-0.46967672584091474
1681569607712149500,3.6251494140625,1.7496393918991089,2.1792263984680176,-0.9630205631256104,0.405668169260025,0.7445715069770813,-0.5301383137702942,0.24972733855247498,-1.7619054317474365,1.201280951499939,0.7306641912894302,-0.22806672813627368,0.42768727680603846,-0.480831603681748
1681569607722148000,3.635148193359375,1.2527289390563965,2.2303452491760254,-0.40675652027130127,0.41229236125946045,0.7393486499786377,-0.5323331356048584,0.18006908893585205,-1.9745323657989502,1.1297757625579834,0.7259588137574395,-0.21869485183333354,0.4312841332527209,-0.4890299973242017
1681569607732148200,3.645148193359375,0.6630944609642029,2.293156385421753,0.1280723363161087,0.4232933521270752,0.7348201870918274,-0.529964029788971,0.13742133975028992,-2.182772636413574,1.1068685054779053,0.7217425036778913,-0.20995896968076094,0.4369613314459656,-0.49403409080049465
1681569607742148000,3.655148193359375,0.09692293405532837,2.3280417919158936,0.6445950865745544,0.43829119205474854,0.7312127947807312,-0.5227126479148865,0.08291846513748169,-2.339306116104126,1.1285171508789062,0.7179803335617102,-0.20205570227261802,0.44476640891902025,-0.4958431291782672
1681569607752147200,3.665147216796875,-0.2646605968475342,2.313335657119751,1.14999258518219,0.45687153935432434,0.7276769280433655,-0.5116197466850281,0.07121986150741577,-2.3610997200012207,1.1374742984771729,0.7148879713219164,-0.19461587053670956,0.45421886637524994,-0.49471727259097775
1681569607762147000,3.67514697265625,-0.3867662847042084,2.185821056365967,1.6503664255142212,0.4783436357975006,0.7228692173957825,-0.49864569306373596,0.1080973744392395,-2.2792809009552,1.0642127990722656,0.7128336901293818,-0.18707901923620063,0.46441208795319666,-0.4911120389862989
1681569607772147200,3.685147216796875,-0.33174946904182434,2.0018670558929443,2.0977938175201416,0.5021399855613708,0.7154795527458191,-0.48574110865592957,0.15957266092300415,-2.085505247116089,0.942589282989502,0.7121658636199487,-0.1788746906891715,0.47448212338234674,-0.4854794606769713
1681569607782146300,3.695146240234375,-0.19224165380001068,1.8328220844268799,2.503706932067871,0.5276574492454529,0.7049152255058289,-0.4739959239959717,0.21369075775146484,-1.8580219745635986,0.8446319103240967,0.7128895982543239,-0.16970168819583972,0.4839456299505837,-0.478316238225365
1681569607792146200,3.705146240234375,-0.06434967368841171,1.6666440963745117,2.9099793434143066,0.5547453165054321,0.6908480525016785,-0.4636663496494293,0.21179509162902832,-1.7040927410125732,0.7912726402282715,0.7149345434000071,-0.15939283320159287,0.4927075747899944,-0.4697889553572173
1681569607802146300,3.715146240234375,-0.053303949534893036,1.52448570728302,3.2638344764709473,0.583162248134613,0.6734762787818909,-0.4542594254016876,0.17120182514190674,-1.582533836364746,0.7477774620056152,0.7181188026983851,-0.1481756205357282,0.5009134431135889,-0.4598208670852154
1681569607812145200,3.725145263671875,-0.17836333811283112,1.401946783065796,3.524250030517578,0.6122978925704956,0.6536399126052856,-0.4447992146015167,0.16937941312789917,-1.5052785873413086,0.7066094875335693,0.7220767888381944,-0.13667170723333325,0.5088430399681884,-0.4483356605167688
1681569607822145300,3.735145263671875,-0.38934215903282166,1.283531904220581,3.704594373703003,0.6414696574211121,0.632184624671936,-0.43457913398742676,0.2152807116508484,-1.4234139919281006,0.673608124256134,0.7264417077618113,-0.12543776981947247,0.5166970071360677,-0.43539848714278667
1681569607832144400,3.745144287109375,-0.6268396973609924,1.1659564971923828,3.8538002967834473,0.670175313949585,0.6095837354660034,-0.42340609431266785,0.28624558448791504,-1.296336054801941,0.6248831152915955,0.7310511460761329,-0.11484573556181597,0.5245068211174586,-0.4210312698525889
1681569607842144300,3.755144287109375,-0.7986308932304382,1.077025294303894,3.9719150066375732,0.6982478499412537,0.585793137550354,-0.4114564061164856,0.36329084634780884,-1.152229905128479,0.5809052586555481,0.7357824588409778,-0.1048164621714585,0.5322455341429247,-0.40540399302300334
1681569607852144000,3.76514404296875,-0.9424000978469849,1.0197904109954834,4.130658149719238,0.7256916761398315,0.5605018138885498,-0.3990105390548706,0.43367111682891846,-1.0180671215057373,0.5477837324142456,0.7405815187116662,-0.09511107889701953,0.5398598147942334,-0.3886442028406695
1681569607862143200,3.775143310546875,-1.0420798063278198,1.0143237113952637,4.2906928062438965,0.7527289986610413,0.5332270264625549,-0.38609328866004944,0.49020612239837646,-0.8849573731422424,0.5120240449905396,0.7453805649915947,-0.0854083302996749,0.5474109770893862,-0.37074849640240515
1681569607872143400,3.785143310546875,-1.3193472623825073,1.0257651805877686,4.478504657745361,0.7792786359786987,0.5040919780731201,-0.3723117411136627,0.572726309299469,-0.7761714458465576,0.4856998324394226,0.7500253216000434,-0.0758519619758773,0.5550590977072882,-0.3515933704197567
1681569607882143200,3.795143310546875,-1.9927014112472534,1.1544713973999023,4.658352375030518,0.8056083917617798,0.4737511873245239,-0.35574567317962646,0.6820319890975952,-0.6914940476417542,0.44719159603118896,0.7542112338140032,-0.06733486454141126,0.563554064098022,-0.33020944985906736
1681569607892142300,3.805142333984375,-2.690708637237549,1.3019670248031616,4.83287239074707,0.8315929174423218,0.4430745542049408,-0.33487048745155334,0.852595865726471,-0.6379445195198059,0.44027817249298096,0.7575120450355666,-0.06083067549162733,0.5734669877329677,-0.3059588618997843
1681569607902142200,3.81514208984375,-3.0553245544433594,1.417809009552002,4.929244518280029,0.8568878769874573,0.4111129641532898,-0.311013400554657,1.124252200126648,-0.4211532473564148,0.485818088054657,0.7598743597156327,-0.055627638166463815,0.5842934720951269,-0.2794596702996259
1681569607912142300,3.825142333984375,-3.3084983825683594,1.4670552015304565,4.997288227081299,0.8807762265205383,0.3774665892124176,-0.28592342138290405,1.5687782764434814,0.11862719058990479,0.47534608840942383,0.7613672698015997,-0.05118821984612133,0.5953302031614855,-0.25155831619317337
1681569607922141400,3.835141357421875,-3.6065378189086914,1.563921570777893,4.9027581214904785,0.9027770757675171,0.3426344096660614,-0.259990394115448,1.9617552757263184,0.5665910243988037,0.3629567623138428,0.761849811740479,-0.04763430875208909,0.6064122203654981,-0.2226653872489123
1681569607932141300,3.845141357421875,-3.8807284832000732,1.5500504970550537,4.554624557495117,0.9221097826957703,0.30856096744537354,-0.2334602326154709,2.159250020980835,0.7417930364608765,0.17707903683185577,0.7611143287462983,-0.0457566837946328,0.6173946944360432,-0.19348144367586986
1681569607942141200,3.85514111328125,-3.9556782245635986,1.3795582056045532,3.978534698486328,0.9378675818443298,0.27748939394950867,-0.2083362489938736,2.325514316558838,0.885016679763794,-0.014091119170188904,0.759488660895395,-0.0460641676369148,0.6274631212117222,-0.1653634723425625
1681569607952140300,3.865140380859375,-3.9620158672332764,1.2104510068893433,3.425630807876587,0.950187087059021,0.25032666325569153,-0.18569080531597137,2.4360432624816895,1.1000304222106934,-0.14145761728286743,0.7572924351973521,-0.04839646116867453,0.6362486755693356,-0.13911707172613205
1681569607962140400,3.875140380859375,-4.136518478393555,1.0207164287567139,2.8016788959503174,0.9596105217933655,0.22758658230304718,-0.165384441614151,2.2543177604675293,1.3745709657669067,-0.2648676037788391,0.7546775526075219,-0.05294015555193596,0.643820716848755,-0.11469115433773049
1681569607972139300,3.88513916015625,-4.514617443084717,0.8117064833641052,2.1309399604797363,0.9664467573165894,0.21057343482971191,-0.1471041887998581,1.9635001420974731,1.4813668727874756,-0.3290463089942932,0.7517605652627783,-0.06074523706529775,0.6501983727592023,-0.0916963955523457
1681569607982139400,3.895139404296875,-4.853201866149902,0.6073674559593201,1.5178918838500977,0.971148669719696,0.19948600232601166,-0.1306738555431366,1.7098206281661987,1.4370191097259521,-0.2835869789123535,0.74864249894268,-0.07213574976271306,0.6553315977388126,-0.06979536879901736
1681569607992139300,3.90513916015625,-4.9394450187683105,0.43067309260368347,1.1020524501800537,0.9743287563323975,0.19295018911361694,-0.11599083244800568,1.36354660987854,1.3886079788208008,-0.21129488945007324,0.7453827470728656,-0.08610193178246442,0.6592351950368086,-0.04899040653623817
1681569608002138400,3.915138427734375,-4.67813777923584,0.2897082269191742,0.9287999272346497,0.9766305685043335,0.18849235773086548,-0.10326386988162994,0.9353566765785217,1.3447413444519043,-0.15522003173828125,0.7421343549096658,-0.10070434319411223,0.6619869332924252,-0.029471916942718744
1681569608012138200,3.92513818359375,-4.045338153839111,0.17985232174396515,0.9476361274719238,0.9785921573638916,0.18367446959018707,-0.09285048395395279,0.5025327801704407,1.3600724935531616,-0.13824385404586792,0.7391149028617264,-0.11383769585322381,0.6637889248248787,-0.011597203090848928
1681569608022138400,3.935138427734375,-3.1765494346618652,0.14274169504642487,1.0487133264541626,0.980527937412262,0.17713209986686707,-0.08479074388742447,0.08419996500015259,1.4053263664245605,-0.18107837438583374,0.7364642978792392,-0.1238574014149794,0.6650293009805245,0.003985542040625099
1681569608032137200,3.94513720703125,-2.339301109313965,0.13495774567127228,1.1594513654708862,0.9825536012649536,0.1685381531715393,-0.07863326370716095,-0.3086034655570984,1.462641716003418,-0.24975115060806274,0.7341825020985295,-0.13029997392655618,0.6661120663157998,0.017106552426226485
1681569608042137300,3.955137451171875,-1.738925576210022,0.12347686290740967,1.2175705432891846,0.9846094846725464,0.15830954909324646,-0.07404003292322159,-0.6350002884864807,1.5388187170028687,-0.4146836996078491,0.73227557138419,-0.133739852697225,0.6671533812408992,0.028148924333134828
1681569608052137500,3.965137451171875,-1.4053921699523926,0.07041776925325394,1.086895227432251,0.9864621758460999,0.14797958731651306,-0.07067099958658218,-0.8902097344398499,1.5335694551467896,-0.6577988266944885,0.7307034816158693,-0.13556318157158279,0.6680472457158291,0.03752234238992674
1681569608062136000,3.975135986328125,-1.2717032432556152,-0.023288749158382416,0.8280494809150696,0.9878612756729126,0.13941653072834015,-0.06850586831569672,-1.1057202816009521,1.4516021013259888,-0.8486999273300171,0.729510571139266,-0.1372203412152317,0.6685189918089639,0.04546680815928541
1681569608072136200,3.98513623046875,-1.1847257614135742,-0.12641872465610504,0.4772551655769348,0.9887084364891052,0.1337532252073288,-0.06757019460201263,-1.3455047607421875,1.3332878351211548,-0.9389910697937012,0.7287512610066512,-0.13948630065923037,0.6683999363895093,0.0520260454399104
1681569608082136000,3.995135986328125,-1.0607678890228271,-0.19435515999794006,0.06303480267524719,0.9889614582061768,0.13183166086673737,-0.06764409691095352,-1.5677883625030518,1.3016247749328613,-0.9418926239013672,0.7284131224651764,-0.14264055175132317,0.6677062398473811,0.05688942066872933
1681569608092135200,4.00513525390625,-0.8889127969741821,-0.30781060457229614,-0.3695855736732483,0.9885870218276978,0.13403476774692535,-0.06877929717302322,-1.6980595588684082,1.3357070684432983,-0.9530560374259949,0.7285728228423823,-0.14664689015934226,0.6664120641509119,0.05976115985098505
1681569608102135300,4.01513525390625,-0.6277379393577576,-0.45615535974502563,-0.7933318018913269,0.9875186085700989,0.14034293591976166,-0.0714896097779274,-1.7078860998153687,1.3730847835540771,-1.0101754665374756,0.729442161250188,-0.1512903284299102,0.6643541462959761,0.060488935098617067
1681569608112134100,4.025134033203125,-0.25356337428092957,-0.6296599507331848,-1.1936167478561401,0.9856675267219543,0.15051035583019257,-0.07619938254356384,-1.6240036487579346,1.396608829498291,-1.0803099870681763,0.7311973192907982,-0.15605807786326967,0.6614727402098574,0.05873873621826753
1681569608122134300,4.03513427734375,0.19902966916561127,-0.8283389210700989,-1.5802792310714722,0.9828909635543823,0.1642477959394455,-0.08335358649492264,-1.5252799987792969,1.4185463190078735,-1.1483052968978882,0.7339802572203866,-0.1605537038140086,0.6576820774495556,0.05431096468657325
1681569608132134100,4.045134033203125,0.6519869565963745,-0.9938036203384399,-1.943168044090271,0.9789317846298218,0.18165387213230133,-0.09324327856302261,-1.4302868843078613,1.4601765871047974,-1.1692535877227783,0.7378423856384521,-0.16469737383232047,0.6528806440063792,0.04701283632608519
1681569608142133200,4.05513330078125,1.0892620086669922,-1.1043634414672852,-2.3181400299072266,0.973790168762207,0.2016535997390747,-0.10520724207162857,-1.353764533996582,1.4078587293624878,-1.1522085666656494,0.7424442751966738,-0.1681972625595033,0.647384013217937,0.03714997225889771
1681569608152133000,4.065133056640625,1.4755371809005737,-1.16363525390625,-2.7141525745391846,0.9671445488929749,0.22464683651924133,-0.11901797354221344,-1.3208889961242676,1.268517255783081,-1.0865789651870728,0.747599368585118,-0.17132735147055586,0.6412003998699106,0.024580153045880203
1681569608162133200,4.07513330078125,1.8384519815444946,-1.2044389247894287,-3.1673483848571777,0.9586476683616638,0.25087571144104004,-0.13437210023403168,-1.2789297103881836,1.14640212059021,-0.9962583780288696,0.7530601410988962,-0.1744000129225539,0.6343489461705094,0.009294313835333003
1681569608172132400,4.08513232421875,2.320139169692993,-1.2847603559494019,-3.5901362895965576,0.9478741884231567,0.2802063822746277,-0.15171988308429718,-1.1839277744293213,1.0835020542144775,-0.923963725566864,0.758801447782927,-0.1772353751289191,0.6266798877351535,-0.008962684459329523
1681569608182132200,4.09513232421875,2.91995906829834,-1.3785779476165771,-3.934182643890381,0.934563934803009,0.3114347457885742,-0.17204231023788452,-1.0250486135482788,1.0656251907348633,-0.8661961555480957,0.7649215364060227,-0.1791193398867978,0.6179766206442608,-0.030268356086318792
1681569608192132400,4.10513232421875,3.464693546295166,-1.4736080169677734,-4.221705436706543,0.9185627698898315,0.3434002697467804,-0.19575127959251404,-0.8451985716819763,1.0263965129852295,-0.7809332609176636,0.7713014626010765,-0.1796432694761706,0.6081551268908275,-0.054494356273162806
1681569608202131200,4.115131103515625,3.765382766723633,-1.5763884782791138,-4.444051265716553,0.8997925519943237,0.37522780895233154,-0.22265969216823578,-0.684842050075531,0.9359904527664185,-0.690365195274353,0.7776848457758795,-0.17917060144832964,0.5971331952867489,-0.08084568456239959
1681569608212131300,4.12513134765625,3.792658805847168,-1.664229154586792,-4.605828762054443,0.8782132267951965,0.4065432548522949,-0.25192031264305115,-0.4655088782310486,0.8444637656211853,-0.556932806968689,0.7837286091450751,-0.1785311255813361,0.5849499809362052,-0.10830273501598109
1681569608222131200,4.135131103515625,3.601827621459961,-1.7062644958496094,-4.645747661590576,0.8541338443756104,0.43686631321907043,-0.28214022517204285,-0.17588073015213013,0.8208698630332947,-0.2877297103404999,0.7890725799561977,-0.17841295422823145,0.5719254425688158,-0.1357736175645495
1681569608232130300,4.14513037109375,3.334221601486206,-1.8760968446731567,-4.692002773284912,0.8277883529663086,0.4656967520713806,-0.31287845969200134,0.16999906301498413,0.9718490242958069,-0.029528707265853882,0.7937568510928914,-0.1791312816225614,0.5580974355200741,-0.16244777790138842
1681569608242130200,4.155130126953125,2.926424741744995,-2.0406529903411865,-4.783273696899414,0.7985464334487915,0.4939899146556854,-0.3439440131187439,0.7402718663215637,1.2400035858154297,0.04484128952026367,0.7978377967675384,-0.18142220956680338,0.5432439340041513,-0.18822017314899359
1681569608252130300,4.16513037109375,2.1061618328094482,-2.040428638458252,-4.756179332733154,0.766931414604187,0.5222418308258057,-0.3729337155818939,1.4505367279052734,1.6439721584320068,0.0747617781162262,0.800890191255846,-0.18609232972798995,0.5281124743861937,-0.21223016512111936
1681569608262129400,4.17512939453125,0.9647024273872375,-2.0117642879486084,-4.825832843780518,0.7332462072372437,0.5522962808609009,-0.39663445949554443,1.8665767908096313,1.9218554496765137,0.05192309617996216,0.8023279347988762,-0.19461627940459744,0.5136217258707739,-0.23363897470052158
