time,seconds_elapsed,rotationRateX,rotationRateY,rotationRateZ,gravityX,gravityY,gravityZ,accelerationX,accelerationY,accelerationZ,quaternionW,quaternionX,quaternionY,quaternionZ
1681500699085910000,2.153909912109375,-0.3500063121318817,0.3430429995059967,0.4041632413864136,0.24562223255634308,-0.27460166811943054,-0.9296578168869019,-0.018037378787994385,0.0028426051139831543,0.052918314933776855,0.982257094576883,0.13978095812333088,0.12502950473176777,-7.737679060392536e-18
1681500699095909000,2.1639091796875,-0.4038727879524231,0.37572231888771057,0.4069676101207733,0.24786238372325897,-0.27210351824760437,-0.9297977685928345,-0.026579394936561584,-0.006842434406280518,0.05678147077560425,0.9822896550371413,0.1381862392377508,0.12651349488778443,0.0024728106603522614
1681500699105907000,2.173906982421875,-0.4502658545970917,0.4165259599685669,0.40916338562965393,0.2504466474056244,-0.26913154125213623,-0.9299702644348145,-0.03435167670249939,-0.018710285425186157,0.06626182794570923,0.98232386181389,0.13633233251239374,0.12817313793433216,0.005018693882830405
1681500699115906000,2.183906005859375,-0.43210071325302124,0.4618174731731415,0.42609184980392456,0.25341710448265076,-0.2660464644432068,-0.9300532937049866,-0.04583650827407837,-0.02811253070831299,0.08135944604873657,0.9823280316507581,0.13440413007079577,0.13003421026251177,0.007646297350934213
1681500699125905200,2.1939052734375,-0.3665803074836731,0.4851004183292389,0.46731624007225037,0.25665661692619324,-0.2634677588939667,-0.9298989772796631,-0.05931466817855835,-0.03253751993179321,0.08584380149841309,0.9822633885751213,0.13271392730575987,0.13205120355963176,0.010403953678949598
1681500699135903200,2.2039033203125,-0.30121108889579773,0.5086619257926941,0.514295756816864,0.2599738836288452,-0.2616368234157562,-0.9294943809509277,-0.06646189093589783,-0.03383439779281616,0.08060216903686523,0.9821245639041023,0.1313743024501158,0.13414028496141053,0.013362776781271396
1681500699145902000,2.213902099609375,-0.23328396677970886,0.5526190400123596,0.524756669998169,0.26352497935295105,-0.26052242517471313,-0.9288070797920227,-0.06268876791000366,-0.019567936658859253,0.06515967845916748,0.9819025477481278,0.13037575352433373,0.1363767144471285,0.016461261518791615
1681500699155901000,2.22390087890625,-0.2120034098625183,0.5869578719139099,0.5163545608520508,0.26748475432395935,-0.2599174678325653,-0.9278441667556763,-0.05169495940208435,0.0030357539653778076,0.07351988554000854,0.9816010059270295,0.1296320028996918,0.1388288607570057,0.019533591801072083
1681500699165899000,2.23389892578125,-0.2953869700431824,0.5893707275390625,0.5138527750968933,0.2716226577758789,-0.2590115964412689,-0.9268949031829834,-0.04759308695793152,0.011468231678009033,0.0711209774017334,0.9812930309980459,0.1287165521548309,0.1413669204578497,0.022615909633215744
1681500699175898000,2.243898193359375,-0.4069918692111969,0.5833688378334045,0.5004772543907166,0.2757538855075836,-0.2571301758289337,-0.9261986017227173,-0.04382026195526123,0.005817890167236328,0.046880364418029785,0.9810388626837527,0.12727585806739328,0.14388031773886023,0.02573338949783451
1681500699185896200,2.253896240234375,-0.47024407982826233,0.5691685676574707,0.4947562515735626,0.2798251509666443,-0.2544350028038025,-0.9257217049598694,-0.0280856192111969,-0.0023246705532073975,0.04826509952545166,0.980830663762294,0.12539989592830508,0.14633523695877168,0.028847767799693193
1681500699195895000,2.26389501953125,-0.5379266142845154,0.5535684823989868,0.50639408826828,0.2837735712528229,-0.2511875629425049,-0.9254066348075867,-0.015035778284072876,-0.014590054750442505,0.04663771390914917,0.9806518021396664,0.12321550613141856,0.14870990320909122,0.03202391670792531
1681500699205894000,2.273893798828125,-0.5889251232147217,0.5306687951087952,0.5410849452018738,0.2874913811683655,-0.2474718987941742,-0.9252601861953735,-0.00914052128791809,-0.017390191555023193,0.034909844398498535,0.9805003830945621,0.12075517168086485,0.1509572878150433,0.03534417435070948
1681500699215892000,2.28389208984375,-0.620266854763031,0.5075443983078003,0.592137336730957,0.2908908724784851,-0.24350912868976593,-0.9252490401268005,-0.00401034951210022,-0.015493586659431458,0.028718948364257812,0.9803632082036813,0.11812192150402814,0.15304471559515245,0.03889178066970838
1681500699225891000,2.29389111328125,-0.6228919625282288,0.48719173669815063,0.6351191401481628,0.293999582529068,-0.23954060673713684,-0.9253023862838745,-0.0059746503829956055,-0.005057811737060547,0.027582108974456787,0.9802193241535812,0.11543917815180599,0.15499223474996562,0.04267692193484049
1681500699235889000,2.303888916015625,-0.5738810896873474,0.4737255871295929,0.6374338269233704,0.296921044588089,-0.23588158190250397,-0.9253095388412476,0.0017087459564208984,0.01609395444393158,0.025453031063079834,0.9800448550963502,0.11289245966214653,0.15684550681832513,0.04654973688265655
1681500699245888000,2.313887939453125,-0.5253114700317383,0.4794258177280426,0.6034774780273438,0.29986312985420227,-0.23267774283885956,-0.925171971321106,0.019793272018432617,0.04256846010684967,0.028885960578918457,0.9798245921632751,0.11058829848818044,0.15869545052020892,0.05029595232021446
1681500699255887000,2.32388720703125,-0.5050917267799377,0.5223830342292786,0.5428733825683594,0.3031761050224304,-0.22966144979000092,-0.9248458743095398,0.028046458959579468,0.06488174200057983,0.032496631145477295,0.9795558689700858,0.10840270885816947,0.16070443860434236,0.05378950889330267
1681500699265885200,2.33388525390625,-0.5152687430381775,0.5690173506736755,0.49764519929885864,0.30703482031822205,-0.2265617698431015,-0.9243372678756714,0.016039550304412842,0.08285444974899292,0.04056346416473389,0.979242953032135,0.10619239905323781,0.16295562635047692,0.05702610066094051
1681500699275884000,2.343884033203125,-0.5977738499641418,0.6334605813026428,0.4909834861755371,0.311470627784729,-0.22301766276359558,-0.9237148761749268,-0.007179826498031616,0.0833539217710495,0.05643582344055176,0.9788937932768786,0.103736332992245,0.16547306444899368,0.060203009587117016
1681500699285883000,2.3538828125,-0.7745310664176941,0.7142819166183472,0.5192582607269287,0.3165803551673889,-0.21831496059894562,-0.923101007938385,-0.02973034977912903,0.04560069739818573,0.10388714075088501,0.9785232125705583,0.10061733329426574,0.1683022764049418,0.06358253494266473
1681500699295881000,2.363880859375,-0.9899898171424866,0.770948052406311,0.5576257109642029,0.32228726148605347,-0.21189749240875244,-0.922621488571167,-0.05129113793373108,-0.01541273295879364,0.148329496383667,0.9781497859148577,0.09651748194563585,0.17138738039268203,0.06733394503394792
1681500699305880000,2.373880126953125,-1.1450505256652832,0.8138342499732971,0.6074720621109009,0.3283982574939728,-0.20388388633728027,-0.9222721457481384,-0.06782388687133789,-0.052601128816604614,0.1757206916809082,0.9777663596558134,0.09149460937691321,0.17462144711917152,0.0714780135606641
1681500699315878100,2.383878173828125,-1.2189475297927856,0.8421353101730347,0.6847853660583496,0.3347559869289398,-0.19509662687778473,-0.9218870401382446,-0.06906992197036743,-0.06062544882297516,0.1946989893913269,0.9773240586098126,0.08596726906897847,0.17794970295796939,0.07603514885354665
1681500699325877000,2.393876953125,-1.2625735998153687,0.8744288086891174,0.7837976813316345,0.3412582278251648,-0.18613120913505554,-0.9213566184043884,-0.05771937966346741,-0.046382248401641846,0.20306438207626343,0.976781880285187,0.08022316659105687,0.1813448204672077,0.08108899291014873
1681500699335876000,2.4038759765625,-1.2842657566070557,0.8986044526100159,0.8904674053192139,0.34791356325149536,-0.17728181183338165,-0.9206124544143677,-0.03735142946243286,-0.02292877435684204,0.20314425230026245,0.9761108535652966,0.07439739841744308,0.18482096710239426,0.08668281287873791
1681500699345874200,2.413874267578125,-1.344150185585022,0.912645697593689,1.0218912363052368,0.35458308458328247,-0.16856558620929718,-0.9197045564651489,-0.019362717866897583,-0.0052473098039627075,0.21111690998077393,0.9753075946508034,0.06848357891105022,0.18830220163853334,0.09288388092205412
1681500699355873000,2.423873046875,-1.4467735290527344,0.9443327188491821,1.1537449359893799,0.36133286356925964,-0.15967248380184174,-0.9186638593673706,-0.010273873805999756,-0.00023965537548065186,0.2060936689376831,0.9743559968104311,0.062289407678035626,0.19180224023337578,0.09981210446318069
1681500699365872000,2.4338720703125,-1.6202547550201416,0.9971919059753418,1.262611985206604,0.36836305260658264,-0.15007010102272034,-0.9174898862838745,-0.003952622413635254,0.00929248332977295,0.2128695249557495,0.9732398198834299,0.05552418152862416,0.19537690410194505,0.10746771604412331
1681500699375870000,2.443869873046875,-1.8800327777862549,1.0642684698104858,1.351718783378601,0.3759050965309143,-0.13892440497875214,-0.916185200214386,0.006831109523773193,0.022759243845939636,0.23286616802215576,0.9719468160818256,0.04774780213006953,0.1990666734101846,0.11580984940773364
1681500699385869000,2.453869140625,-2.083390474319458,1.1595121622085571,1.4137014150619507,0.38420572876930237,-0.1259557157754898,-0.914615273475647,0.01304161548614502,0.01777087152004242,0.25603073835372925,0.9704312848767506,0.038800897394268535,0.202945413362327,0.12478357669304037
1681500699395867100,2.4638671875,-2.1132917404174805,1.3279207944869995,1.3886945247650146,0.39386796951293945,-0.11214111000299454,-0.9123006463050842,0.013938456773757935,0.0015759021043777466,0.29642540216445923,0.9686070037666337,0.029205585030690047,0.2073565145421458,0.1339809394660588
1681500699405866200,2.4738662109375,-1.9051988124847412,1.5229823589324951,1.2476696968078613,0.4054240882396698,-0.09900446981191635,-0.9087516069412231,-0.011426866054534912,0.006108924746513367,0.32968056201934814,0.9664451276518922,0.019821036368837138,0.2126765872366958,0.14268750512223016
1681500699415865000,2.483864990234375,-1.4968477487564087,1.7098734378814697,1.0376091003417969,0.41901805996894836,-0.08819372206926346,-0.9036845564842224,-0.07539013028144836,0.06249789148569107,0.3163127303123474,0.9639967429728138,0.011604928370113144,0.2191416258684014,0.15017570230831095
1681500699425863000,2.49386279296875,-0.9118921160697937,1.9130077362060547,0.8732947111129761,0.434497207403183,-0.0813019648194313,-0.8969962000846863,-0.1527741551399231,0.15520024299621582,0.2626273036003113,0.961306650202789,0.005430911151998384,0.22687529217283672,0.1561660244346786
1681500699435862000,2.503862060546875,-0.36491721868515015,2.144482135772705,0.8451530933380127,0.4519135653972626,-0.07952241599559784,-0.8885101675987244,-0.19902965426445007,0.22577786445617676,0.19656985998153687,0.9582983607784117,0.0018270540987609005,0.236096549662861,0.16099491906944716
1681500699445861000,2.513861083984375,-0.2466755360364914,2.3345985412597656,0.9106681942939758,0.4710313677787781,-0.08117909729480743,-0.8783731460571289,-0.19873827695846558,0.21716539561748505,0.16471964120864868,0.9548768914064746,-0.00023892914480298785,0.24660365621804814,0.16551943380516373
1681500699455859200,2.523859130859375,-0.6546639800071716,2.4415230751037598,0.9511844515800476,0.49113258719444275,-0.08198636770248413,-0.867218017578125,-0.16352635622024536,0.14407435059547424,0.118194580078125,0.9510741304721076,-0.003083974698604294,0.25764606304894105,0.17049075414655177
1681500699465858000,2.533858154296875,-1.3786283731460571,2.5097529888153076,0.95712810754776,0.5117172002792358,-0.07810802012681961,-0.855596125125885,-0.10645896196365356,0.055921703577041626,0.11980205774307251,0.9469548847390283,-0.008752289307953609,0.26856161989026134,0.1762799697112187
1681500699475856100,2.543856201171875,-2.180464744567871,2.56164813041687,1.0286915302276611,0.5325244665145874,-0.06816866993904114,-0.8436651229858398,-0.05823546648025513,-0.03878021985292435,0.15155696868896484,0.9424789245025053,-0.018070899535227315,0.2789998041052639,0.1832107997313566
1681500699485855000,2.55385498046875,-2.9042954444885254,2.612048387527466,1.1983617544174194,0.5535185933113098,-0.05281304568052292,-0.8311606049537659,-0.024069130420684814,-0.14683298766613007,0.18739235401153564,0.9374564311951664,-0.030914533503851503,0.2889013485915901,0.19171787013865044
1681500699495854000,2.56385400390625,-3.4497387409210205,2.6743178367614746,1.4002195596694946,0.5747862458229065,-0.03385946899652481,-0.817602813243866,-0.0034360885620117188,-0.24151591956615448,0.21524685621261597,0.9316721074316044,-0.04651121089491252,0.29838784014247366,0.20196175946912864
1681500699505852000,2.573851806640625,-3.6798112392425537,2.6536641120910645,1.5543526411056519,0.5960469841957092,-0.013470585457980633,-0.8028365969657898,-0.0009999275207519531,-0.2879363000392914,0.2291213870048523,0.925109470490747,-0.06368085672222897,0.3074515632827504,0.21351999487434845
1681500699515851000,2.58385107421875,-3.642688274383545,2.5760695934295654,1.7084506750106812,0.6168336868286133,0.005862921476364136,-0.787071704864502,-0.003827035427093506,-0.2800023555755615,0.22084861993789673,0.9179044445551928,-0.08095090128216455,0.31608714714290476,0.2258039656835121
1681500699525849000,2.59384912109375,-3.394280195236206,2.5046234130859375,1.869386076927185,0.6368156671524048,0.022087551653385162,-0.7706996202468872,0.021860480308532715,-0.22698260843753815,0.17400473356246948,0.9101950601021175,-0.09713747304220215,0.3243678264714606,0.23852634629124883
1681500699535848200,2.60384814453125,-3.0764148235321045,2.4750232696533203,1.9245870113372803,0.6563279032707214,0.034451961517333984,-0.7536887526512146,0.06873929500579834,-0.11401131004095078,0.10358810424804688,0.9020893558099442,-0.11171840386518962,0.3326779368426822,0.2511558260353919
1681500699545847300,2.613847412109375,-2.7929768562316895,2.4950051307678223,1.9380359649658203,0.6755691170692444,0.04340611398220062,-0.7360179424285889,0.10645914077758789,-0.0028482824563980103,0.05362963676452637,0.8936911122242089,-0.12480690286200918,0.34119534888372144,0.26329715082268235
1681500699555845000,2.62384521484375,-2.6244218349456787,2.547286033630371,1.9911367893218994,0.6947885155677795,0.04957200959324837,-0.7175037264823914,0.11365264654159546,0.05101387947797775,0.04294323921203613,0.8849394559542573,-0.1367953373647502,0.3500502593751577,0.2750164674971437
1681500699565844000,2.633843994140625,-2.745938301086426,2.5914254188537598,2.1438910961151123,0.7140403389930725,0.053881507366895676,-0.6980280876159668,0.10126733779907227,0.05207550898194313,0.0877528190612793,0.8755879458192104,-0.14846407605357245,0.35908824727822,0.28698405538778554
1681500699575843000,2.643843017578125,-3.2349863052368164,2.6580886840820312,2.281320571899414,0.7333253622055054,0.05823396146297455,-0.677379310131073,0.09200721979141235,0.0015957243740558624,0.1005207896232605,0.8652652773782096,-0.16119929672020833,0.3678656600702168,0.3000094457396095
1681500699585841200,2.653841064453125,-3.9802658557891846,2.6996002197265625,2.2947025299072266,0.7525909543037415,0.06512308120727539,-0.6552602052688599,0.10608220100402832,-0.09274151921272278,0.11787617206573486,0.853722249657279,-0.1764925470710786,0.37579288157894764,0.3143063121607479
1681500699595840000,2.663840087890625,-4.81930685043335,2.7359280586242676,2.2001214027404785,0.7716647386550903,0.07625509053468704,-0.6314417123794556,0.13847625255584717,-0.19061975181102753,0.14299261569976807,0.8408600099505779,-0.19523000329107432,0.3823145071082088,0.3296593654922456
1681500699605838000,2.673838134765625,-5.612111568450928,2.7339999675750732,2.0516693592071533,0.7903805375099182,0.0919286385178566,-0.6056796312332153,0.17911720275878906,-0.2619878649711609,0.16047394275665283,0.8266125044503081,-0.2175235966980375,0.38709645609896065,0.3457624183700194
1681500699615837200,2.683837158203125,-6.269199371337891,2.69573712348938,1.8956363201141357,0.8084705471992493,0.11138331890106201,-0.5779006481170654,0.22860831022262573,-0.2752322256565094,0.17821192741394043,0.8109897704399183,-0.24286856128201315,0.3899545440993425,0.3622787825795586
1681500699625836000,2.6938359375,-6.730162620544434,2.624084949493408,1.7791656255722046,0.8257025480270386,0.1330767571926117,-0.5481841564178467,0.2783318758010864,-0.23016846179962158,0.18485713005065918,0.7940387175610552,-0.27035467581686196,0.39091722397934997,0.37893878558896044
1681500699635833900,2.703833740234375,-6.9033379554748535,2.5032200813293457,1.7534044981002808,0.8419172167778015,0.15480831265449524,-0.5169234871864319,0.315141499042511,-0.15222962200641632,0.18248134851455688,0.7758896170568919,-0.29871749994521674,0.3902641723240246,0.3955465632084989
1681500699645833000,2.7138330078125,-6.759719371795654,2.3279380798339844,1.8492958545684814,0.8569841980934143,0.1738821566104889,-0.4851219654083252,0.34313493967056274,-0.057778045535087585,0.17387312650680542,0.7568533392088508,-0.32635062361190464,0.38850262223781074,0.4119881679504378
1681500699655832000,2.72383203125,-6.359108924865723,2.142158031463623,2.0237393379211426,0.8709927201271057,0.1880241185426712,-0.4538930058479309,0.37598609924316406,0.0521186888217926,0.1351979374885559,0.7373144399224957,-0.3518484522387409,0.3863368483020326,0.4281519774296166
1681500699665830100,2.733830078125,-5.763785362243652,1.9639277458190918,2.2087020874023438,0.8840745687484741,0.19608981907367706,-0.42421817779541016,0.40913838148117065,0.16772548854351044,0.07819461822509766,0.7177199301229519,-0.3743236492482371,0.3844121640445932,0.44383256009667976
1681500699675829200,2.743829345703125,-5.025757789611816,1.8372557163238525,2.3377678394317627,0.8963589668273926,0.19798743724822998,-0.3966633379459381,0.422244668006897,0.267497181892395,0.018550455570220947,0.6985730223322836,-0.3933604202160532,0.3833222089818041,0.4586148511120936
1681500699685827000,2.7538271484375,-4.252233028411865,1.7473732233047485,2.3726463317871094,0.907869815826416,0.19450348615646362,-0.3714037239551544,0.4058051109313965,0.3363497853279114,-0.04954046010971069,0.6803452133157791,-0.4089900468940407,0.38343876179957853,0.47205106663675084
1681500699695826200,2.763826171875,-3.51149582862854,1.6713603734970093,2.348052740097046,0.9185286164283752,0.18688051402568817,-0.34839770197868347,0.36050885915756226,0.36539608240127563,-0.11299756169319153,0.6633632963228082,-0.4215633202512181,0.3848188126617525,0.48388844295624894
1681500699705825000,2.773824951171875,-2.833434820175171,1.6099419593811035,2.284698247909546,0.9282836318016052,0.17618229985237122,-0.32748955488204956,0.3029785752296448,0.3673509955406189,-0.15983039140701294,0.6477711660042677,-0.4314859645511477,0.3873952598132314,0.4941026214854499
1681500699715823000,2.783822998046875,-2.2041640281677246,1.560062289237976,2.1919941902160645,0.9371166229248047,0.16329890489578247,-0.3084571957588196,0.25428956747055054,0.35551512241363525,-0.18290629982948303,0.6336308321126681,-0.43913608104571605,0.3910638119627716,0.5027330563605835
1681500699725822000,2.793822021484375,-1.6337718963623047,1.511489987373352,2.096580982208252,0.9450690150260925,0.14887192845344543,-0.29100143909454346,0.21525508165359497,0.3362964987754822,-0.18966567516326904,0.6209623011519434,-0.4448095617329376,0.3957824415819206,0.5098103905790623
1681500699735821000,2.803821044921875,-1.121504783630371,1.4740386009216309,2.0132806301116943,0.9521901607513428,0.13327781856060028,-0.27490174770355225,0.18371987342834473,0.319801390171051,-0.19747981429100037,0.609645273385094,-0.44877668058542197,0.4014331990976647,0.5155419896437262
1681500699745819100,2.813819091796875,-0.623911440372467,1.4408974647521973,1.902160882949829,0.9585409164428711,0.11690305918455124,-0.25987130403518677,0.1577768325805664,0.31713318824768066,-0.21157950162887573,0.5996599041590706,-0.4512297588492453,0.40799026801980637,0.5199458909789056
1681500699755818200,2.823818359375,-0.13562947511672974,1.4285451173782349,1.7676942348480225,0.964160680770874,0.10019874572753906,-0.24567174911499023,0.13914138078689575,0.33379170298576355,-0.22345972061157227,0.5910619559519307,-0.4523150259689017,0.41542176378347034,0.5229548625888956
1681500699765816000,2.833816162109375,0.3383151590824127,1.4158412218093872,1.6320000886917114,0.969119668006897,0.08353659510612488,-0.23201067745685577,0.11387300491333008,0.3535971939563751,-0.23197856545448303,0.5838631000237137,-0.45217587497434,0.4237117377598608,0.52450874227276
1681500699775815000,2.84381494140625,0.7675784230232239,1.4022377729415894,1.5230168104171753,0.9734824299812317,0.06698057055473328,-0.21873627603054047,0.08830034732818604,0.37686705589294434,-0.23687587678432465,0.577968036756431,-0.45088431095293074,0.4328223637733758,0.5247104868644984
1681500699785814000,2.85381396484375,1.1257575750350952,1.3933929204940796,1.423121690750122,0.9773128628730774,0.0505935475230217,-0.20566919445991516,0.07124054431915283,0.4189346432685852,-0.25160619616508484,0.5731898165225755,-0.4485832732021489,0.4426493539713969,0.5237251276266539
1681500699795812000,2.86381201171875,1.3863905668258667,1.390842318534851,1.3171076774597168,0.980666995048523,0.03464658185839653,-0.19259285926818848,0.06076061725616455,0.435598760843277,-0.265033483505249,0.5693131585286927,-0.4455387407592488,0.4529887442418008,0.5217078350914581
1681500699805811200,2.873811279296875,1.4980920553207397,1.3949326276779175,1.1941742897033691,0.9836018085479736,0.01958506740629673,-0.1792881190776825,0.05326354503631592,0.4016490578651428,-0.2725856304168701,0.5660626465888104,-0.4421645342816137,0.46351533179282306,0.5188615708234058
1681500699815810000,2.88381005859375,1.4579989910125732,1.3777097463607788,1.050866961479187,0.9861412048339844,0.00596594950184226,-0.16580119729042053,0.047824859619140625,0.3444673717021942,-0.2732399106025696,0.5631804888282671,-0.4389293070514167,0.47375148021188473,0.515488514854851
1681500699825808100,2.89380810546875,1.2965134382247925,1.3287488222122192,0.8946925401687622,0.9882951974868774,-0.005842954386025667,-0.15244224667549133,0.05186605453491211,0.292006254196167,-0.26926493644714355,0.5604637110399161,-0.43619664000858765,0.4832301389521894,0.5119586812658088
1681500699835807000,2.903806884765625,1.0533896684646606,1.2406151294708252,0.7652772068977356,0.9900839328765869,-0.015719899907708168,-0.13959500193595886,0.06646513938903809,0.2577242851257324,-0.26311492919921875,0.5578050182959395,-0.43415931055005436,0.4916382715820074,0.5085775592064621
1681500699845805000,2.91380517578125,0.7469356656074524,1.1650232076644897,0.6776174306869507,0.991544246673584,-0.024062635377049446,-0.12751920521259308,0.07550293207168579,0.2351069301366806,-0.25799405574798584,0.5549569536645478,-0.4329142250303248,0.49882428613318813,0.5057493871050759
1681500699855804000,2.923803955078125,0.4548220634460449,1.1095876693725586,0.591173529624939,0.9927511811256409,-0.031102154403924942,-0.11609385907649994,0.06849759817123413,0.21881575882434845,-0.25968432426452637,0.5517995684720981,-0.4325256678937612,0.5048510853856442,0.503551565676893
1681500699865803500,2.933803466796875,0.17979422211647034,1.0838228464126587,0.49148422479629517,0.9937805533409119,-0.0368281826376915,-0.10509058088064194,0.04993593692779541,0.2058039903640747,-0.2637753486633301,0.5483424429080532,-0.43303836545777113,0.5098357415684067,0.5018624361431786
1681500699875801300,2.94380126953125,-0.07981473952531815,1.0429123640060425,0.41553765535354614,0.9946653842926025,-0.04137241467833519,-0.0944945439696312,0.02511000633239746,0.1892758458852768,-0.2700989842414856,0.5445912440783363,-0.4344153915609579,0.5138443294694952,0.5006672473032033
1681500699885800400,2.953800537109375,-0.2591536045074463,0.9508194327354431,0.3633714020252228,0.9953911900520325,-0.045094043016433716,-0.08463490754365921,0.016709089279174805,0.17493104934692383,-0.2735345959663391,0.540652266836426,-0.4363937798258766,0.516955526977802,0.5000126579893102
1681500699895799300,2.96379931640625,-0.35726550221443176,0.8911342024803162,0.32262668013572693,0.9959658980369568,-0.04826028272509575,-0.07565052807331085,0.02681553363800049,0.16856056451797485,-0.27565252780914307,0.5367399685514137,-0.43863334430466583,0.5193991957556564,0.4997354457116118
1681500699905797400,2.97379736328125,-0.3469524085521698,0.8562287092208862,0.3028857409954071,0.9964333772659302,-0.0510987788438797,-0.0671507865190506,0.030406713485717773,0.1716889888048172,-0.2706330418586731,0.5328983217931278,-0.44097075883223213,0.5215068515619583,0.49959452338655275
1681500699915796500,2.98379638671875,-0.17208059132099152,0.8343014717102051,0.29507821798324585,0.9968101382255554,-0.053898055106401443,-0.05886005610227585,0.01512223482131958,0.20106905698776245,-0.25672221183776855,0.5293534553598387,-0.4430148848799847,0.5237440054678907,0.49921428150800795
1681500699925794300,2.993794189453125,0.09790375828742981,0.8081654906272888,0.29493042826652527,0.9970971941947937,-0.05681677907705307,-0.05068517476320267,-0.014339685440063477,0.2823569178581238,-0.28642719984054565,0.5263699447928847,-0.44439691995409636,0.5264682226941636,0.4982742750303302
1681500699935793400,3.00379345703125,0.367074191570282,0.7802752256393433,0.2932359278202057,0.9972960948944092,-0.05985663831233978,-0.04263392090797424,-0.03788447380065918,0.3604395091533661,-0.32705599069595337,0.5240691256117074,-0.44497440519326065,0.5297931844574241,0.49665732806190277
1681500699945792500,3.01379248046875,0.528545618057251,0.7536656856536865,0.29685649275779724,0.9974119663238525,-0.06297669559717178,-0.03468813747167587,-0.04710984230041504,0.3782385289669037,-0.34461480379104614,0.5223116930664002,-0.44489839213315097,0.5335928714057869,0.4945043211379317
1681500699955790600,3.02379052734375,0.514844536781311,0.7063743472099304,0.3020477592945099,0.9974440932273865,-0.0661289244890213,-0.02705870009958744,-0.03919219970703125,0.3310977816581726,-0.3645581007003784,0.520802666118102,-0.44450760580031734,0.5374789654072214,0.4922336064621488
1681500699965789400,3.03378955078125,0.4084717631340027,0.6230312585830688,0.3121265172958374,0.9973924160003662,-0.06931142508983612,-0.020110750570893288,-0.008653342723846436,0.24808335304260254,-0.3693698048591614,0.5192708794900865,-0.44411794205601696,0.5410211441995932,0.490319516109803
1681500699975788300,3.043788330078125,0.31297749280929565,0.5631610751152039,0.30441445112228394,0.9972760081291199,-0.07242734730243683,-0.01396324671804905,0.022377312183380127,0.16269832849502563,-0.3464645743370056,0.5177277047509063,-0.4437886449580542,0.5441231619845581,0.48881460924655995
1681500699985786400,3.053786376953125,0.2212318778038025,0.5632423162460327,0.3112635910511017,0.9971098303794861,-0.07553049176931381,-0.008189697749912739,0.03316354751586914,0.09327645599842072,-0.30913203954696655,0.5160409294807734,-0.4436245964360819,0.5469025218213603,0.48764392695414066
1681500699995785500,3.063785400390625,0.1842108815908432,0.6025497913360596,0.30267995595932007,0.9969027042388916,-0.07861387729644775,-0.0022478920873254538,0.023895084857940674,0.07012996822595596,-0.2856091856956482,0.5141294159303021,-0.44369348656410207,0.5495563155411155,0.4866158482589089
1681500700005783600,3.073783447265625,0.2836485207080841,0.6169074177742004,0.2676231861114502,0.996667206287384,-0.08147647976875305,0.00402759900316596,0.003134489059448242,0.12958742678165436,-0.31550514698028564,0.5122455811123233,-0.44381070257197763,0.5523095688505014,0.48537691135971345
1681500700015782400,3.083782470703125,0.4428901672363281,0.5764122605323792,0.21920841932296753,0.9964224696159363,-0.0838848426938057,0.010291746817529202,-0.007729053497314453,0.2010570615530014,-0.3481975793838501,0.5108032727288178,-0.44365440765861514,0.5552626764175079,0.48366755863046745
1681500700025781500,3.093781494140625,0.5551583766937256,0.5252148509025574,0.1803041696548462,0.9961814284324646,-0.08579403162002563,0.016188962385058403,-0.003368198871612549,0.22802117466926575,-0.37818849086761475,0.5099140513636559,-0.4431404617485256,0.5583198122359501,0.48155296862333896
1681500700035779600,3.103779541015625,0.5666707754135132,0.4772677421569824,0.14520351588726044,0.9959463477134705,-0.08730362355709076,0.021654656156897545,0.01601654291152954,0.22339673340320587,-0.4115166664123535,0.5093885287674991,-0.4424325797213671,0.5613205331356936,0.4792660840676015
1681500700045778400,3.1137783203125,0.4348653256893158,0.4155460596084595,0.09809672087430954,0.995730459690094,-0.08840768039226532,0.026549726724624634,0.03117072582244873,0.20081917941570282,-0.42797791957855225,0.5089645911063759,-0.4418559720507563,0.5639487240076886,0.4771584247019454
1681500700055777500,3.123777587890625,0.16393515467643738,0.3337220549583435,0.042057886719703674,0.9955611228942871,-0.08901941031217575,0.03055408224463463,0.039717137813568115,0.16073568165302277,-0.42741990089416504,0.5084221921449765,-0.44176318856545205,0.565793536614044,0.4756362492905628
1681500700065775400,3.133775390625,-0.21590138971805573,0.25207382440567017,-0.012834391556680202,0.995455265045166,-0.08917053043842316,0.033424947410821915,0.045773863792419434,0.10999875515699387,-0.43158769607543945,0.5075177507392648,-0.44246754131617205,0.5665112075667879,0.47509280348237726
1681500700075774500,3.1437744140625,-0.5929734706878662,0.22180280089378357,-0.07517267018556595,0.9954137802124023,-0.08888440579175949,0.03536979481577873,0.043313026428222656,0.0547657236456871,-0.42391955852508545,0.5060597440720571,-0.4441726398935968,0.5660349484943814,0.4756245135358582
1681500700085773600,3.153773681640625,-0.8418320417404175,0.22532829642295837,-0.11974599957466125,0.9954199194908142,-0.08817481249570847,0.03694271296262741,0.028094053268432617,0.006372399628162384,-0.3911449909210205,0.5040388952842706,-0.4468205602948041,0.5646439091375625,0.47694191827767196
1681500700095771600,3.163771728515625,-0.8703076243400574,0.19658012688159943,-0.15229502320289612,0.9954608678817749,-0.08713323622941971,0.038279708474874496,0.008155405521392822,-0.00905819982290268,-0.36274254322052,0.5018203287734019,-0.44990214396942213,0.5627858524122139,0.47857752098362694
1681500700105770200,3.173770263671875,-0.6708187460899353,0.14246682822704315,-0.14473749697208405,0.9955252408981323,-0.08594215661287308,0.03928574174642563,0.0122566819190979,0.04132545739412308,-0.3668919801712036,0.49993149348956933,-0.45269809524128113,0.5609877950959685,0.4800266909068392
1681500700115768300,3.183768310546875,-0.2661798596382141,0.0740603432059288,-0.0958770141005516,0.9955874681472778,-0.08491498231887817,0.03993568941950798,0.06065630912780762,0.1362912952899933,-0.393588662147522,0.4988414932104415,-0.45449115644101057,0.5598264319316415,0.4808214196727787
1681500700125767400,3.193767333984375,0.22797182202339172,0.0038889809511601925,-0.05354180932044983,0.9956344366073608,-0.08419738709926605,0.04028858244419098,0.1357744336128235,0.21925288438796997,-0.4392753839492798,0.4988672363607577,-0.4548344479700762,0.5597052042938675,0.4806113947709668
1681500700135766500,3.2037666015625,0.6957429647445679,-0.07410475611686707,-0.04216145724058151,0.995686948299408,-0.08355466276407242,0.04033110663294792,0.20815545320510864,0.2659429609775543,-0.48485004901885986,0.5001430939766829,-0.4537032422762113,0.5606415263203494,0.47926145723432734
1681500700145764400,3.213764404296875,1.0275150537490845,-0.17822396755218506,-0.051929131150245667,0.9957757592201233,-0.08273468166589737,0.03982384130358696,0.265347957611084,0.2756515443325043,-0.4994337558746338,0.5025763643129827,-0.4513542451764519,0.5623088702343578,0.4769750754686901
1681500700155763500,3.223763427734375,1.2183518409729004,-0.33677124977111816,-0.06619435548782349,0.9959243535995483,-0.08170414716005325,0.038200732320547104,0.31651467084884644,0.26137638092041016,-0.4928210973739624,0.5059811252473946,-0.448060787621718,0.564217951561903,0.4742181170859296
1681500700165762300,3.23376220703125,1.3288307189941406,-0.5014776587486267,-0.10479527711868286,0.996147096157074,-0.08038467168807983,0.035064492374658585,0.3602830171585083,0.25555554032325745,-0.4740140438079834,0.5102096266510906,-0.44407426636021236,0.5659772893324889,0.4713321683693826
1681500700175760400,3.243760498046875,1.5155030488967896,-0.6970133781433105,-0.1723218560218811,0.9964512586593628,-0.0785660520195961,0.030203986912965775,0.38097482919692993,0.2553391456604004,-0.4427710771560669,0.5153490977711833,-0.4394307187176276,0.5674527614828188,0.4683090294473496
1681500700185759500,3.253759521484375,1.834282636642456,-0.8337432146072388,-0.27596837282180786,0.996832549571991,-0.07588466256856918,0.02380039170384407,0.35242587327957153,0.2506588101387024,-0.4131741523742676,0.5217098837856288,-0.4339367096873251,0.5688577397893073,0.464670482014237
1681500700195757300,3.26375732421875,2.159538507461548,-0.9315569996833801,-0.3751794993877411,0.997251570224762,-0.07224320620298386,0.016442881897091866,0.2736988067626953,0.23188060522079468,-0.3879333734512329,0.5292835424292756,-0.42756970579212145,0.5704433252176027,0.4600408147505895
1681500700205756400,3.27375634765625,2.5065436363220215,-1.01808500289917,-0.44454818964004517,0.9976609349250793,-0.06785016506910324,0.008300389163196087,0.16943800449371338,0.23751264810562134,-0.37075769901275635,0.5379587403850661,-0.4202931296722194,0.5722795467318432,0.45436787946269025
1681500700215755500,3.283755615234375,2.8473856449127197,-1.1064106225967407,-0.4945624768733978,0.9980103969573975,-0.0630466639995575,-0.000562239671126008,0.07040995359420776,0.2762882113456726,-0.34095990657806396,0.5476542209358067,-0.41196144298958043,0.5744620524098573,0.44761138586553834
1681500700225753600,3.293753662109375,3.0182454586029053,-1.215821623802185,-0.5397720336914062,0.9982603788375854,-0.058035992085933685,-0.010382487438619137,-0.003326416015625,0.2848120927810669,-0.3159571886062622,0.5581504584307002,-0.40272769054720003,0.5767314484888993,0.4400672816726005
1681500700235752400,3.30375244140625,2.9641566276550293,-1.3292306661605835,-0.5592226982116699,0.9983636140823364,-0.05301051586866379,-0.02144654653966427,-0.048717617988586426,0.2468581199645996,-0.2909771203994751,0.5690102596618879,-0.3930766482118913,0.5785909392002512,0.4323778444669482
1681500700245751300,3.313751220703125,2.7514681816101074,-1.4309016466140747,-0.5589745044708252,0.9982643723487854,-0.04822041094303131,-0.0338117852807045,-0.06477737426757812,0.16694901883602142,-0.2407090663909912,0.5797870988681268,-0.3834884736261679,0.5796815483379503,0.42515045767761966
1681500700255749400,3.323749267578125,2.36912202835083,-1.499971628189087,-0.5525165796279907,0.9979234337806702,-0.04370662942528725,-0.04731553792953491,-0.05732583999633789,0.06871578097343445,-0.1837025284767151,0.5900948096288313,-0.3744829201838351,0.5797454384020138,0.4188627048326959
1681500700265748500,3.33374853515625,1.88825261592865,-1.5362573862075806,-0.5285534858703613,0.9973186254501343,-0.039471909403800964,-0.06162590906023979,-0.025409936904907227,-0.022112566977739334,-0.1377759575843811,0.5995791285507657,-0.36654084437947587,0.5786491646363298,0.41390571334101645
1681500700275747600,3.34374755859375,1.4157284498214722,-1.5833210945129395,-0.5095174312591553,0.9964349865913391,-0.03543082997202873,-0.07656360417604446,0.02659052610397339,-0.06918346881866455,-0.07816046476364136,0.6081490055355756,-0.35984864760502133,0.5763914902070334,0.4104103130506333
1681500700285745400,3.353745361328125,1.0134848356246948,-1.660167932510376,-0.4843396544456482,0.9952321648597717,-0.03150389716029167,-0.09230660647153854,0.10144752264022827,-0.07878667861223221,-0.03743886947631836,0.615984619525825,-0.35425620123814683,0.5730176627032318,0.4083090886881886
1681500700295744500,3.36374462890625,0.7395645380020142,-1.7483994960784912,-0.46480855345726013,0.9936543107032776,-0.027650073170661926,-0.10902705788612366,0.18470579385757446,-0.07284434139728546,-0.012829616665840149,0.6233550380141321,-0.3494406402906925,0.5686630908397786,0.4073600411873005
1681500700305742600,3.37374267578125,0.59598308801651,-1.8093429803848267,-0.4533226191997528,0.9916703104972839,-0.023885276168584824,-0.12656868994235992,0.25982511043548584,-0.05304957553744316,0.012661874294281006,0.6304840918972386,-0.34503265769736563,0.5636205461720261,0.4071537865148176
1681500700315741400,3.383741455078125,0.5582593083381653,-1.8325495719909668,-0.4846404492855072,0.9892973303794861,-0.02003370225429535,-0.1445312649011612,0.30870670080184937,-0.001328635960817337,0.02711494266986847,0.6375354579760578,-0.3408141639994548,0.5581935811854518,0.40720275761987645
1681500700325740300,3.393740234375,0.589824914932251,-1.862463355064392,-0.5296282172203064,0.9865462779998779,-0.015908367931842804,-0.16270633041858673,0.31971287727355957,0.07656200975179672,0.04196353256702423,0.6446740688557897,-0.33661915025998973,0.5525707023302109,0.40712223885746357
1681500700335738400,3.40373828125,0.6503008604049683,-1.931193232536316,-0.5828860402107239,0.9833553433418274,-0.011493177153170109,-0.1813293993473053,0.3046543002128601,0.14453452825546265,0.040292441844940186,0.6520530517886978,-0.33228770991837153,0.5467359333304201,0.4068066327190881
1681500700345737500,3.413737548828125,0.8138828873634338,-2.0260610580444336,-0.6339622735977173,0.9796163439750671,-0.006914970930665731,-0.20075884461402893,0.28144633769989014,0.17955288290977478,0.03874105215072632,0.6598895443311752,-0.3275168382760298,0.540697045763254,0.4061098991983346
1681500700355736600,3.423736572265625,0.9850321412086487,-2.072167158126831,-0.6611337065696716,0.9753017425537109,-0.0024942185264080763,-0.22086262702941895,0.24962806701660156,0.1754220575094223,0.05278708040714264,0.6682069866994064,-0.3220812968616309,0.5346328868916731,0.4048835891305552
1681500700365734400,3.433734375,1.0865169763565063,-2.0443661212921143,-0.7069177031517029,0.9705179333686829,0.0017288604285567999,-0.24102266132831573,0.21324366331100464,0.15745079517364502,0.06875099241733551,0.6767530660729895,-0.31620557133871924,0.5286801560537212,0.40313345841674764
1681500700375733200,3.443733154296875,1.1391934156417847,-2.051792860031128,-0.7662686109542847,0.9653118252754211,0.0060397046618163586,-0.2610299587249756,0.17610663175582886,0.17230498790740967,0.11753633618354797,0.6854035847062981,-0.31018496217467617,0.5227526344810501,0.40092008868985257
1681500700385731600,3.453731689453125,1.1057446002960205,-2.118535280227661,-0.8349810838699341,0.9595141410827637,0.010641654022037983,-0.28145942091941833,0.14151430130004883,0.1842740774154663,0.14007151126861572,0.6942174363684529,-0.30413879928756526,0.5164977132156836,0.39848701245173557
1681500700395730400,3.46373046875,1.0113040208816528,-2.1817288398742676,-0.9013334512710571,0.9529975056648254,0.015817640349268913,-0.30256548523902893,0.11743724346160889,0.15550804138183594,0.15861406922340393,0.7031638616368224,-0.29829010145246065,0.5096472022984984,0.3960347451931389
1681500700405729500,3.4737294921875,0.8470974564552307,-2.194913864135742,-0.9432382583618164,0.9458432793617249,0.021633580327033997,-0.3239022195339203,0.09823942184448242,0.09729339182376862,0.18843472003936768,0.71200405512752,-0.2929096803429275,0.5022477500237462,0.3937022920591974
1681500700415727400,3.483727294921875,0.629294753074646,-2.159233331680298,-0.9811099171638489,0.9381992816925049,0.02818245440721512,-0.3449464440345764,0.06512719392776489,0.029190579429268837,0.21355301141738892,0.7204834208819945,-0.28829059491446773,0.4943837753340732,0.3916337401341149
1681500700425726500,3.4937265625,0.40140482783317566,-2.118640899658203,-1.043430209159851,0.9301658272743225,0.03576185181736946,-0.3653942048549652,0.025110840797424316,-0.017054591327905655,0.2581401765346527,0.7285137033422631,-0.2846479282737419,0.48608481747228854,0.3898270073997195
1681500700435725600,3.5037255859375,0.22745417058467865,-2.0682361125946045,-1.1161643266677856,0.9217603206634521,0.04458475112915039,-0.385188490152359,-0.013587653636932373,-0.03332378715276718,0.2910417914390564,0.7361667772206753,-0.28197890526389663,0.4773820823318996,0.38814009546514255
1681500700445723600,3.5137236328125,0.15538637340068817,-2.0239644050598145,-1.1526097059249878,0.913036584854126,0.054259732365608215,-0.4042525291442871,-0.03515267372131348,-0.024215206503868103,0.3085494339466095,0.7435218880372634,-0.2799614268716056,0.46850329299124516,0.38639553757980255
1681500700455722200,3.52372216796875,0.14231570065021515,-1.955094575881958,-1.1355078220367432,0.9040716886520386,0.06404551863670349,-0.42255499958992004,-0.03203177452087402,-0.007114984095096588,0.30835819244384766,0.7505877427400832,-0.2781983597985008,0.45970443955175533,0.38457213910892063
1681500700465721300,3.533721435546875,0.1394469439983368,-1.8487297296524048,-1.107994794845581,0.8950560092926025,0.07350955903530121,-0.43985360860824585,-0.017904460430145264,0.0020214244723320007,0.30984872579574585,0.757288162825938,-0.2765455150874092,0.4512158826137442,0.3826768343782634
1681500700475719400,3.543719482421875,0.17692583799362183,-1.7708725929260254,-1.0896625518798828,0.8860769271850586,0.08257127553224564,-0.4561247229576111,-0.007796287536621094,-0.00556018203496933,0.3226103186607361,0.7636457269185432,-0.2749460464900511,0.4431053079001567,0.3806673783806249
1681500700485718500,3.553718505859375,0.24140070378780365,-1.727184772491455,-1.0844433307647705,0.8770050406455994,0.09118804335594177,-0.471748948097229,-0.010046303272247314,-0.02380526065826416,0.32311302423477173,0.7698380198480381,-0.27321379779750443,0.4352927189278892,0.37844957808711444
1681500700495716400,3.56371630859375,0.357603520154953,-1.6582051515579224,-1.0513969659805298,0.8678425550460815,0.09910481423139572,-0.48685482144355774,-0.010451197624206543,-0.030211396515369415,0.31807732582092285,0.7759269834855019,-0.2711723839125626,0.42782955606000833,0.3759851571461733
1681500700505715500,3.573715576171875,0.562066912651062,-1.5515292882919312,-0.9596516489982605,0.8588627576828003,0.1055733785033226,-0.501207709312439,0.004403233528137207,0.004579789936542511,0.32219159603118896,0.7818460711453956,-0.2685294655339183,0.42105591033666206,0.3732568874205808
1681500700515714300,3.58371435546875,0.8151523470878601,-1.5016944408416748,-0.8288362622261047,0.8501484394073486,0.10970301926136017,-0.5149881839752197,0.029215574264526367,0.07032014429569244,0.3080332279205322,0.7876188135749302,-0.26485154931496957,0.41516209250986613,0.3703386113039246
1681500700525712400,3.59371240234375,0.9724463224411011,-1.4895397424697876,-0.7060391902923584,0.8415027260780334,0.1114586815237999,-0.5286304354667664,0.05290645360946655,0.10867985337972641,0.2572528123855591,0.7932990493766974,-0.260101177251997,0.4099172721328992,0.36741236515971154
1681500700535711500,3.60371142578125,0.9568270444869995,-1.472056269645691,-0.5953315496444702,0.8328309655189514,0.11167391389608383,-0.5421454310417175,0.07378530502319336,0.08821620047092438,0.21638548374176025,0.7987645118532897,-0.25482842540552353,0.40495650245820874,0.3647575592002404
1681500700545710300,3.61371044921875,0.8852753639221191,-1.4562103748321533,-0.5216906666755676,0.8241737484931946,0.1112290620803833,-0.5553069710731506,0.07020491361618042,0.02426895499229431,0.20731502771377563,0.8038827192389958,-0.2495974856415354,0.40005952396668254,0.3625274902683594
1681500700555708400,3.62370849609375,0.8274941444396973,-1.4230077266693115,-0.4810525178909302,0.8155214786529541,0.11052298545837402,-0.5680752396583557,0.03164660930633545,-0.04741263389587402,0.2378292679786682,0.8087109416204374,-0.24453488525587103,0.3951772560975126,0.3605889345694029
1681500700565707500,3.63370751953125,0.8284960389137268,-1.3808938264846802,-0.46788132190704346,0.8069319725036621,0.10962852835655212,-0.5803812146186829,-0.01095724105834961,-0.07328211516141891,0.24847209453582764,0.8133157978566421,-0.239598373516055,0.39038699038771224,0.3587590779525297
1681500700575706400,3.643706298828125,0.9679841995239258,-1.2833729982376099,-0.46884045004844666,0.7985758185386658,0.10820941627025604,-0.5920873880386353,-0.031791090965270996,-0.029733486473560333,0.25817930698394775,0.8177980189999339,-0.23451131762113672,0.38595433727927714,0.35672142685300723
1681500700585704400,3.653704345703125,1.3347587585449219,-1.1074947118759155,-0.48092108964920044,0.7908920645713806,0.10514601320028305,-0.6028550267219543,-0.03584134578704834,0.04770124703645706,0.30167698860168457,0.822274120464613,-0.22859755155205147,0.38251230044342427,0.35396729140477196
1681500700595703300,3.663703369140625,1.6962960958480835,-0.9239057302474976,-0.4077906906604767,0.7842718958854675,0.09945429861545563,-0.6123940944671631,-0.039414048194885254,0.15951785445213318,0.3616464138031006,0.8267137184069094,-0.22140111391785586,0.380505582314546,0.350344899573585
1681500700605701400,3.673701416015625,1.9232109785079956,-0.7958950400352478,-0.29759493470191956,0.778632402420044,0.09095819294452667,-0.6208528876304626,-0.043891072273254395,0.24272099137306213,0.33322471380233765,0.8309377281806157,-0.2130187225780882,0.37973224082722995,0.3463656317450048
1681500700615700500,3.683700439453125,1.8845272064208984,-0.6871903538703918,-0.2300434112548828,0.7737718224525452,0.08094461262226105,-0.6282715797424316,-0.038984835147857666,0.19485798478126526,0.26907968521118164,0.8348029614250597,-0.20421325005558688,0.37968562121067506,0.34240306190639036
1681500700625699600,3.693699462890625,1.442301630973816,-0.5808175802230835,-0.19239376485347748,0.7695973515510559,0.07188960164785385,-0.634469747543335,-0.021519899368286133,0.013605356216430664,0.24813246726989746,0.8380599123673121,-0.19645922891113327,0.3796957853289037,0.33895504770464796
1681500700635697400,3.703697509765625,0.6386693120002747,-0.49090954661369324,-0.17832742631435394,0.7660528421401978,0.06655533611774445,-0.6393227577209473,-0.02252250909805298,-0.18397176265716553,0.23264551162719727,0.8404154177388508,-0.1914572122741993,0.37905508342679783,0.33669492699790504
1681500700645696500,3.713696533203125,-0.26100826263427734,-0.4017157554626465,-0.22067327797412872,0.7630513310432434,0.06688033044338226,-0.6428683996200562,-0.03743481636047363,-0.29817306995391846,0.23823583126068115,0.8417662685553243,-0.19030514377308644,0.377292670198962,0.3359521539993747
1681500700655695400,3.7236953125,-0.8935014009475708,-0.295831561088562,-0.28259801864624023,0.760621964931488,0.07270626723766327,-0.6451107859611511,-0.04283326864242554,-0.31011778116226196,0.2569577693939209,0.8422713392434409,-0.1927390320164874,0.3745614216592436,0.3363545235714557
1681500700665693400,3.733693359375,-1.0949302911758423,-0.2071581482887268,-0.26570427417755127,0.7587745785713196,0.08140293508768082,-0.646246612071991,-0.02627640962600708,-0.2681095004081726,0.27730441093444824,0.8422218555369172,-0.1971212539919179,0.37151029930548685,0.33732136058389567
1681500700675692500,3.743692626953125,-0.9957085251808167,-0.06218031421303749,-0.17134566605091095,0.7576971650123596,0.0899433121085167,-0.6463785767555237,-0.0008611679077148438,-0.2093891203403473,0.26455795764923096,0.8417942397071146,-0.2017655898879288,0.3689191684344188,0.3384845971951414
1681500700685691400,3.75369140625,-0.7095063328742981,0.10517405718564987,-0.06286314129829407,0.7577170729637146,0.0963948592543602,-0.6454246044158936,0.0169716477394104,-0.13145959377288818,0.22847825288772583,0.8410825256440428,-0.20563502817726878,0.36742609829024975,0.3395474635139321
1681500700695689500,3.763689453125,-0.37480998039245605,0.3101920485496521,0.04871945083141327,0.7590393424034119,0.09992744028568268,-0.6433303356170654,0.01900637149810791,-0.041989848017692566,0.25284266471862793,0.8401590309192998,-0.20826567246858316,0.36736936855869123,0.34029120383768147
1681500700705688600,3.7736884765625,-0.1568019986152649,0.5267741680145264,0.17938505113124847,0.7618339657783508,0.10069781541824341,-0.6398976445198059,-0.0008323192596435547,0.025644928216934204,0.2352955937385559,0.8389299587079518,-0.20983762804091682,0.3688080068168679,0.34080107650493313
1681500700715687400,3.7836875,-0.126419335603714,0.7320013046264648,0.32593318819999695,0.7661070823669434,0.09960547834634781,-0.6349477767944336,-0.006204128265380859,0.0450783371925354,0.21983247995376587,0.8371945075345001,-0.21099540806450426,0.3714930048723129,0.3414369966182706
1681500700725685200,3.793685302734375,-0.3346377909183502,0.917808473110199,0.4795544445514679,0.7717019319534302,0.09787505865097046,-0.6284080147743225,0.034374117851257324,0.0036263838410377502,0.22548449039459229,0.8347446013046179,-0.21255137032539737,0.37499055677523213,0.34264483672874907
1681500700735684400,3.803684326171875,-0.7554954886436462,1.0941377878189087,0.6408716440200806,0.7785204648971558,0.0968618094921112,-0.6200997829437256,0.10810673236846924,-0.07166959345340729,0.23315221071243286,0.8313176374498804,-0.21544363268439284,0.378859005350422,0.3449071685017497
1681500700745682400,3.813682373046875,-1.3276959657669067,1.24518883228302,0.793871283531189,0.7864276766777039,0.0975857749581337,-0.6099251508712769,0.18714416027069092,-0.1462613344192505,0.26098716259002686,0.826712551660192,-0.22038881970594026,0.38270903261932876,0.34858156984118227
1681500700755681500,3.823681640625,-1.9956355094909668,1.352479338645935,0.8918434381484985,0.7951250672340393,0.10089550912380219,-0.5979935526847839,0.2511548399925232,-0.21066725254058838,0.2881944179534912,0.8208671102792278,-0.22787116224282805,0.3861061288975204,0.3537995836659384
1681500700765680600,3.8336806640625,-2.6797547340393066,1.415266752243042,0.9285100698471069,0.8042653799057007,0.10739850252866745,-0.5844851136207581,0.2796427011489868,-0.26248884201049805,0.29690277576446533,0.8138270115990291,-0.2381251573761588,0.3886564566958902,0.36045570033013874
1681500700775678500,3.843678466796875,-3.3166921138763428,1.473009467124939,0.9003128409385681,0.8136109709739685,0.11730323731899261,-0.5694535374641418,0.26515495777130127,-0.2925046682357788,0.29560399055480957,0.8056789070665297,-0.25112009300384963,0.3901434880660013,0.368250518948345
1681500700785677300,3.85367724609375,-3.8603618144989014,1.531355619430542,0.858559250831604,0.8231266140937805,0.13026979565620422,-0.5527136921882629,0.20728415250778198,-0.3024805188179016,0.2833045721054077,0.7964553401438997,-0.26659727159913305,0.39060086538312533,0.3768499596814703
1681500700795676400,3.863676513671875,-4.289690971374512,1.5359442234039307,0.8571197986602783,0.8326494097709656,0.14537863433361053,-0.5343783497810364,0.1317366361618042,-0.30095726251602173,0.2725680470466614,0.7862102593286204,-0.28400604607574237,0.3900658966920978,0.3860864370516578
1681500700805674500,3.873674560546875,-4.61810302734375,1.509096384048462,0.904509425163269,0.841974675655365,0.16143035888671875,-0.5147998332977295,0.07205730676651001,-0.293403685092926,0.25892525911331177,0.7749948726028321,-0.30267659027442595,0.3885703948185774,0.39595817793886995
1681500700815673300,3.88367333984375,-4.820062160491943,1.4741027355194092,1.0109477043151855,0.8511171936988831,0.17719510197639465,-0.4941674768924713,0.04802227020263672,-0.28104645013809204,0.24877560138702393,0.7628068467105195,-0.32199233936947813,0.38631230587649373,0.40645976269522077
1681500700825672400,3.89367236328125,-4.877542018890381,1.4292219877243042,1.1524596214294434,0.8601273894309998,0.19142943620681763,-0.47279542684555054,0.06069469451904297,-0.2591479420661926,0.23947331309318542,0.7497278083061119,-0.34127130135549794,0.38358334339059996,0.4174995355553004
1681500700835670500,3.90367041015625,-4.792078971862793,1.403186321258545,1.2806267738342285,0.8690740466117859,0.2032570242881775,-0.4509953260421753,0.09076476097106934,-0.23983238637447357,0.22672167420387268,0.7359563519011979,-0.35992097951122626,0.38073510578623676,0.4287958048586472
1681500700845669600,3.913669677734375,-4.603084087371826,1.3820141553878784,1.3530391454696655,0.8779487013816833,0.21241138875484467,-0.4290544092655182,0.12383663654327393,-0.23858024179935455,0.2229996919631958,0.7217773445214085,-0.3775755028586244,0.3780337841571771,0.4399600076817256
1681500700855668500,3.92366845703125,-4.352691650390625,1.3376991748809814,1.360395908355713,0.88657546043396,0.21917009353637695,-0.40736767649650574,0.15508103370666504,-0.23577165603637695,0.22427749633789062,0.7075468327711006,-0.3940581125719171,0.3755454151594538,0.45062332078094725
1681500700865664500,3.93366455078125,-4.054782867431641,1.2663277387619019,1.349989652633667,0.8947449326515198,0.22379747033119202,-0.3864534795284271,0.1848602294921875,-0.2107512205839157,0.218530535697937,0.6935757921193885,-0.40922126273619114,0.3732441875846935,0.46062934285368096
1681500700875663600,3.94366357421875,-3.7080464363098145,1.1613913774490356,1.347412347793579,0.9023492932319641,0.22630788385868073,-0.3668113648891449,0.21526551246643066,-0.15173818171024323,0.20252001285552979,0.6801030571918485,-0.42287016682815287,0.37118073901116677,0.4699633725814537
1681500700885661400,3.953661376953125,-3.3132519721984863,1.0437043905258179,1.3646982908248901,0.9093578457832336,0.22659650444984436,-0.34888756275177,0.24248242378234863,-0.07811321318149567,0.18050682544708252,0.6673216808737801,-0.43479951410991247,0.36946664739879825,0.4786707896144878
1681500700895660300,3.963660400390625,-2.8800792694091797,0.9480301141738892,1.3911837339401245,0.9158540368080139,0.2245754450559616,-0.332832396030426,0.24515670537948608,-0.010784551501274109,0.14577490091323853,0.6553477819672574,-0.4448993946934239,0.368304679869776,0.486760328767218
1681500700905659400,3.973659423828125,-2.4301910400390625,0.9016724824905396,1.3912709951400757,0.9219648241996765,0.22040972113609314,-0.3184342384338379,0.2237871289253235,0.033252373337745667,0.10951095819473267,0.6442668277790549,-0.45322539687908164,0.3679261028506661,0.4941025495834555
1681500700915657500,3.983657470703125,-1.98142671585083,0.8808552622795105,1.3663558959960938,0.927739143371582,0.21452373266220093,-0.30541715025901794,0.18760204315185547,0.05424456298351288,0.07182040810585022,0.6341713283813127,-0.45993782200111977,0.3684408046443104,0.5005349788159337
1681500700925656600,3.993656494140625,-1.5559710264205933,0.8686169981956482,1.336464524269104,0.9332100749015808,0.20723003149032593,-0.29355549812316895,0.14007794857025146,0.06397968530654907,0.034674882888793945,0.6250725169826628,-0.46520011529306016,0.36987984681948205,0.5060259182751035
1681500700935655400,4.003655517578125,-1.1774359941482544,0.8605965375900269,1.3121085166931152,0.9383845925331116,0.19877305626869202,-0.28270772099494934,0.09062236547470093,0.06967480480670929,0.007637530565261841,0.6169187280151088,-0.46917506898801514,0.3721839524578939,0.5106516792142581
1681500700945653500,4.013653564453125,-0.804563045501709,0.8767291307449341,1.291197657585144,0.9433179497718811,0.1892702281475067,-0.2726316452026367,0.039195477962493896,0.0758664458990097,-0.008725136518478394,0.6096320408527978,-0.47199865884188796,0.3753684176839877,0.5144556091645589
1681500700955652400,4.02365234375,-0.5351693034172058,0.9058278799057007,1.2668031454086304,0.9480568170547485,0.17896701395511627,-0.2629813849925995,-0.01167064905166626,0.08053921163082123,-0.0240059494972229,0.6030761391864142,-0.4739065190906666,0.3793704237937889,0.5174842207944701
1681500700965651500,4.0336513671875,-0.2794376611709595,0.9415789246559143,1.2180931568145752,0.9526039958000183,0.16819196939468384,-0.25349053740501404,-0.06411504745483398,0.08449359238147736,-0.04462042450904846,0.5971184323081541,-0.47515048106803326,0.3840400366916155,0.5198029021004874
1681500700975649300,4.043649169921875,-0.03608079254627228,0.9815486669540405,1.1566656827926636,0.9569266438484192,0.1572451889514923,-0.24406035244464874,-0.11432105302810669,0.0922359824180603,-0.05453889071941376,0.5917960733876413,-0.47582289835473035,0.38931014585387475,0.5213517489879067
1681500700985648400,4.0536484375,0.20920459926128387,1.0178924798965454,1.097743034362793,0.9610292911529541,0.1462414264678955,-0.2345978170633316,-0.1524507999420166,0.1069629043340683,-0.06059865653514862,0.5871000047944178,-0.47597193481636463,0.3951604867992498,0.5221230882755683
1681500700995647500,4.0636474609375,0.5090193748474121,1.0276376008987427,1.0759738683700562,0.9649052619934082,0.13499033451080322,-0.2252456545829773,-0.17573583126068115,0.12190663814544678,-0.06729587912559509,0.5830911583544626,-0.4754351576087871,0.4016697475475888,0.5221375840741519
1681500701005645600,4.0736455078125,0.5855122804641724,1.0099174976348877,1.054121732711792,0.9685490131378174,0.12338851392269135,-0.2160748988389969,-0.18467432260513306,0.14183974266052246,-0.07326224446296692,0.5795556548839471,-0.47430108068106147,0.4086576000611606,0.521682737445204
1681500701015644700,4.083644775390625,0.5556942224502563,0.924622118473053,1.014534592628479,0.9718123078346252,0.11218024045228958,-0.2073558270931244,-0.17829424142837524,0.15626761317253113,-0.07445870339870453,0.5762261141992213,-0.473052129051862,0.4153838855663714,0.5211922701146368
1681500701025642500,4.093642578125,0.509011447429657,0.885753870010376,0.9596641659736633,0.9747071862220764,0.10139533877372742,-0.19916100800037384,-0.15772098302841187,0.16886833310127258,-0.09234294295310974,0.5730594037891723,-0.4717356544933537,0.42176411100051564,0.5207529023590384
1681500701035641300,4.103641357421875,0.33619895577430725,0.8295699954032898,0.875045895576477,0.9772689938545227,0.09165699779987335,-0.19116608798503876,-0.13345783948898315,0.13116708397865295,-0.15147000551223755,0.5698269119932466,-0.4708492432793746,0.42745520075611665,0.5204617245634345
1681500701045640400,4.113640380859375,0.29876264929771423,0.8468421697616577,0.8847514986991882,0.979583740234375,0.08253007382154465,-0.18331563472747803,-0.12014764547348022,0.057225167751312256,-0.1107822060585022,0.5665016841832059,-0.4702474350935871,0.4326771666808435,0.5203207921056046
1681500701055638500,4.123638427734375,0.27860227227211,0.9231030941009521,0.9433647990226746,0.9818781614303589,0.07304693758487701,-0.17487019300460815,-0.11905461549758911,0.0574919730424881,-0.014674484729766846,0.5628861546478346,-0.4697345522416811,0.43808030321335945,0.5201868323560641
1681500701065637400,4.133637451171875,0.2417587786912918,0.9916794896125793,0.9576162099838257,0.984159529209137,0.06323704868555069,-0.16562381386756897,-0.11010551452636719,0.12394248694181442,-0.0028789639472961426,0.5589045994075749,-0.4693984207831483,0.4436814323180483,0.5200362115145698
1681500701075636500,4.143636474609375,0.19281060993671417,1.0250576734542847,0.9301707148551941,0.9863347411155701,0.053576186299324036,-0.15579891204833984,-0.10567378997802734,0.18076826632022858,-0.028542444109916687,0.5547065793321868,-0.46930610906093106,0.44927977855284434,0.5198077119297309
1681500701085634600,4.153634521484375,0.08782587200403214,1.0092298984527588,0.8902254104614258,0.988319993019104,0.04436660185456276,-0.145791694521904,-0.086586594581604,0.20384809374809265,-0.04297475516796112,0.5503783164924607,-0.4694964372701885,0.45461769311883526,0.5195956103147219
1681500701095633400,4.16363330078125,-0.08948409557342529,0.9706267714500427,0.8566659688949585,0.9900645613670349,0.03573630377650261,-0.13599638640880585,-0.04206657409667969,0.1831052154302597,-0.07022610306739807,0.5458557806687511,-0.47006951963961097,0.45938704121667184,0.5196533457297962
1681500701105632500,4.173632568359375,-0.320346862077713,0.9458348751068115,0.8456596732139587,0.9915881156921387,0.027572937309741974,-0.1264619678258896,0.007389485836029053,0.12986724078655243,-0.08117960393428802,0.5409631792670333,-0.47114127695070085,0.4634597247295327,0.5201824488235356
1681500701115630300,4.18363037109375,-0.547699511051178,0.9507402181625366,0.8373124599456787,0.9929388165473938,0.01975938305258751,-0.11696982383728027,0.038189053535461426,0.08430555462837219,-0.07739655673503876,0.5355435788355756,-0.47282289647951936,0.4668550058074822,0.5212273000498862
1681500701125629400,4.19362939453125,-0.6969015002250671,0.9671655297279358,0.8098488450050354,0.9941465258598328,0.01225995272397995,-0.10734358429908752,0.04120814800262451,0.06719253957271576,-0.07991230487823486,0.52965649705737,-0.4750633533178898,0.4697265351996526,0.5226241156137991
1681500701135628500,4.203628662109375,-0.7355827689170837,0.9531188011169434,0.7562039494514465,0.9952016472816467,0.005179748870432377,-0.09770826250314713,0.02291053533554077,0.0771108940243721,-0.10218184441328049,0.5236104753334129,-0.4776337227052516,0.4722413541837081,0.5241051929733148
1681500701145626600,4.213626708984375,-0.6935144066810608,0.902039647102356,0.698707103729248,0.9960794448852539,-0.0013779237633571029,-0.08845318853855133,0.007597982883453369,0.1079452857375145,-0.14973652362823486,0.5177869047715897,-0.4802234457383737,0.47450905822433015,0.525474422708719
1681500701155625200,4.223625244140625,-0.612477719783783,0.8437955975532532,0.6509080529212952,0.9967820048332214,-0.007548615802079439,-0.07980353385210037,0.008924722671508789,0.14522865414619446,-0.20930474996566772,0.5123704713896386,-0.48259208437883455,0.4766582759016891,0.5266671204481344
1681500701165624300,4.233624267578125,-0.5468707084655762,0.8007668852806091,0.61886066198349,0.9973365664482117,-0.013440661132335663,-0.07168649882078171,0.02449864149093628,0.17748787999153137,-0.2476189136505127,0.5073400716797072,-0.48471127911429107,0.4787606147350953,0.5276828913957531
1681500701175622400,4.243622314453125,-0.5014041662216187,0.7793236970901489,0.5870016813278198,0.997773289680481,-0.0190957710146904,-0.06390558183193207,0.03498739004135132,0.19998867809772491,-0.25903141498565674,0.5025879358946905,-0.4866683764437181,0.48083375480224183,0.5285434680755811
1681500701185621500,4.25362158203125,-0.44670602679252625,0.765420138835907,0.5536221265792847,0.9981122612953186,-0.024508880451321602,-0.0563134104013443,0.035197675228118896,0.21763935685157776,-0.2609473466873169,0.49805691204134006,-0.48852462207321795,0.4828943858729517,0.529240995071079
1681500701195620600,4.26362060546875,-0.34973445534706116,0.7471761107444763,0.5193337798118591,0.9983647465705872,-0.029642267152667046,-0.04887959733605385,0.03581494092941284,0.2284948080778122,-0.26178932189941406,0.49382928705939766,-0.49022451675914774,0.485015591689037,0.529690924716872
1681500701205618400,4.273618408203125,-0.229973703622818,0.7081975936889648,0.4749223589897156,0.9985356330871582,-0.034465380012989044,-0.041699476540088654,0.04780536890029907,0.23911625146865845,-0.27099883556365967,0.4900313185655226,-0.49166222949987876,0.4872561062776693,0.5298293382207562
1681500701215617500,4.283617431640625,-0.14257727563381195,0.631617546081543,0.42847710847854614,0.9986283183097839,-0.03890584036707878,-0.03504372388124466,0.07356107234954834,0.24682208895683289,-0.28890031576156616,0.48673965146723563,-0.4927900855736387,0.48952637284004663,0.5297230332107146
1681500701225615600,4.29361572265625,-0.1258435696363449,0.5143932104110718,0.37764987349510193,0.998647928237915,-0.04289020225405693,-0.029377590864896774,0.10909450054168701,0.25039446353912354,-0.3133958578109741,0.4839494050380743,-0.49363086395012346,0.49156868745565907,0.5296054673801897
1681500701235614500,4.303614501953125,-0.21476775407791138,0.41939496994018555,0.3236652612686157,0.9986172914505005,-0.0463431254029274,-0.02482205256819725,0.14763832092285156,0.24252533912658691,-0.3342019319534302,0.4814775792379951,-0.4943904183743655,0.49311974963133537,0.5297079758088218
1681500701245613300,4.31361328125,-0.4144294857978821,0.4185808598995209,0.26301974058151245,0.9985713362693787,-0.04919346794486046,-0.020866915583610535,0.1607762575149536,0.21272188425064087,-0.33820289373397827,0.4789253760429635,-0.4954977032737766,0.49401272038302824,0.5301546860118098
1681500701255611400,4.323611328125,-0.646167516708374,0.49735164642333984,0.20864567160606384,0.9985381364822388,-0.05144601687788963,-0.016591960564255714,0.13480859994888306,0.16834357380867004,-0.31478315591812134,0.4758594277550013,-0.4973891778956448,0.4942752522866168,0.5308992028628164
1681500701265610500,4.333610595703125,-0.8146326541900635,0.5511317849159241,0.18237757682800293,0.9985111951828003,-0.05327405780553818,-0.011721079237759113,0.09508621692657471,0.1310480833053589,-0.2835516929626465,0.47220342300410967,-0.5000595589125875,0.49404442887615674,0.5318688951817405
1681500701275609600,4.343609619140625,-0.8249731659889221,0.5262258648872375,0.1786227971315384,0.9984649419784546,-0.054974641650915146,-0.0067593809217214584,0.09975594282150269,0.12011440098285675,-0.2841951847076416,0.46830491955675074,-0.5030191988480057,0.4935503976606028,0.5329824222807862
1681500701285607400,4.353607421875,-0.6415956616401672,0.4387655556201935,0.18676353991031647,0.9983856081962585,-0.05674995481967926,-0.0023399239871650934,0.16918635368347168,0.14515937864780426,-0.31923907995224,0.4647495184049743,-0.5056007611345169,0.4931509995629173,0.5340203859228172
1681500701295606300,4.363606201171875,-0.29625630378723145,0.3317946195602417,0.19288189709186554,0.9982782602310181,-0.058643124997615814,0.0012348061427474022,0.26516473293304443,0.20309805870056152,-0.370527982711792,0.46208470930180495,-0.5072668164498567,0.49325224785938065,0.5346590994426591
1681500701305605400,4.37360546875,0.14476528763771057,0.18182241916656494,0.21089977025985718,0.9981523156166077,-0.060645461082458496,0.0037702065892517567,0.35116714239120483,0.2731698453426361,-0.42524850368499756,0.4606995672863674,-0.5076556001531977,0.4941365145215386,0.5346689381070615
1681500701315603500,4.383603515625,0.6387385725975037,-0.0005537713877856731,0.24478928744792938,0.9980074167251587,-0.06290586292743683,0.004924319684505463,0.42095327377319336,0.33887630701065063,-0.47295713424682617,0.4608552517739137,-0.5064339575594676,0.4959705700518054,0.5339947535022378
1681500701325602600,4.3936025390625,1.0761990547180176,-0.19071120023727417,0.24055539071559906,0.9978541731834412,-0.06532126665115356,0.004491612780839205,0.46312904357910156,0.39578086137771606,-0.5000817775726318,0.4626252125682104,-0.5035646539344479,0.49866666786328157,0.5326651185262529
1681500701335601400,4.403601318359375,1.3927735090255737,-0.3107262849807739,0.16212555766105652,0.99772709608078,-0.06732858717441559,0.0027568575460463762,0.44018495082855225,0.4289466142654419,-0.48379015922546387,0.46583671421570333,-0.4994833559512732,0.5018912291181274,0.530676698596084
1681500701345599500,4.413599609375,1.587225079536438,-0.36793282628059387,0.021218784153461456,0.9976681470870972,-0.06825057417154312,0.000340429600328207,0.32188141345977783,0.4256724417209625,-0.432209849357605,0.4701695801825709,-0.4948350007165918,0.505280651581277,0.5279870688636611
1681500701355598300,4.423598388671875,1.7357470989227295,-0.4248468577861786,-0.15763765573501587,0.9977089762687683,-0.06760506331920624,-0.002481760922819376,0.16314905881881714,0.38446909189224243,-0.37956780195236206,0.4754408353922557,-0.4900319183733205,0.5085546563269219,0.5245920260954594
1681500701365597400,4.433597412109375,1.9127514362335205,-0.5064756870269775,-0.33776772022247314,0.997855544090271,-0.06518784910440445,-0.005928147118538618,0.02311009168624878,0.33008038997650146,-0.3373945355415344,0.48172687397171543,-0.4850891304589174,0.5115901307509004,0.5204838364791943
1681500701375595300,4.44359521484375,2.1055867671966553,-0.5914075970649719,-0.47208985686302185,0.9980692267417908,-0.06127287447452545,-0.01018151268362999,-0.07071620225906372,0.29338955879211426,-0.3184775114059448,0.4890477827792492,-0.47983083682716415,0.5144624492038453,0.5156773738426117
1681500701385594400,4.453594482421875,2.268526792526245,-0.6462948322296143,-0.5363825559616089,0.9982906579971313,-0.0564579963684082,-0.01511287409812212,-0.12805134057998657,0.2659306228160858,-0.31072330474853516,0.49718892216202243,-0.4741462525305579,0.5173286131853216,0.5102545176797523
1681500701395593500,4.463593505859375,2.323845148086548,-0.6929343342781067,-0.5451858639717102,0.9984641671180725,-0.051451534032821655,-0.020546458661556244,-0.1503501534461975,0.23042185604572296,-0.30701398849487305,0.5057315706448408,-0.4680759001856711,0.5202227619471053,0.5044887442837156
1681500701405591600,4.473591552734375,2.2110612392425537,-0.8026807904243469,-0.5289251208305359,0.9985512495040894,-0.04662073776125908,-0.02686825953423977,-0.13049399852752686,0.18230187892913818,-0.3045526146888733,0.5143205129992906,-0.4617988296810123,0.5227883999961846,0.49890736058755514
1681500701415590400,4.48359033203125,1.9264540672302246,-0.9522032141685486,-0.508696973323822,0.998511552810669,-0.04206128418445587,-0.03472134843468666,-0.060981035232543945,0.13144725561141968,-0.29698944091796875,0.5226775800868494,-0.4555955416760851,0.5244730965826464,0.49413443686259284
1681500701425589200,4.49358935546875,1.5221364498138428,-1.096309781074524,-0.4902881681919098,0.9983047842979431,-0.037748854607343674,-0.044302135705947876,0.039628565311431885,0.09232953190803528,-0.26754170656204224,0.5305180904436391,-0.4498270780978014,0.5248852563661598,0.4906135707328479
1681500701435587300,4.50358740234375,1.0804252624511719,-1.223949909210205,-0.47077831625938416,0.997897207736969,-0.03358433395624161,-0.05543617904186249,0.13370978832244873,0.07342502474784851,-0.21455281972885132,0.5376567151562452,-0.44477088415172344,0.5238900380115876,0.4885113304034863
1681500701445586400,4.51358642578125,0.6701287627220154,-1.3646550178527832,-0.4687119722366333,0.9972451329231262,-0.029444236308336258,-0.06808223575353622,0.20433872938156128,0.07453394681215286,-0.1627832055091858,0.544113155064218,-0.4404801913616792,0.5214749110466015,0.4878339869319263
1681500701455585500,4.52358544921875,0.3285544216632843,-1.510976791381836,-0.4978049397468567,0.9962921738624573,-0.02502642385661602,-0.0823134109377861,0.25219714641571045,0.09065445512533188,-0.11978917568922043,0.5501129310169746,-0.43686016732671223,0.5176837738763717,0.48839784319178425
1681500701465583400,4.533583251953125,0.02059314027428627,-1.6129143238067627,-0.5760563611984253,0.9949979782104492,-0.019849631935358047,-0.09790227562189102,0.26743781566619873,0.10845738649368286,-0.094358429312706,0.5558405651549245,-0.4339243448880905,0.5125997718107485,0.48989012976077845
1681500701475582500,4.54358251953125,-0.27915841341018677,-1.6467173099517822,-0.6805492043495178,0.993366003036499,-0.01345845963805914,-0.11420515924692154,0.2347680926322937,0.10153218358755112,-0.06705395877361298,0.5612761040352774,-0.4318683689050148,0.5063468481887343,0.49200785205393044
1681500701485580500,4.55358056640625,-0.5645555257797241,-1.6436210870742798,-0.7823932766914368,0.9914151430130005,-0.005664252210408449,-0.1306285858154297,0.15949422121047974,0.08200396597385406,-0.03122137486934662,0.5663196148382458,-0.430834062812284,0.49906684398607565,0.4945668290944822
1681500701495579400,4.563579345703125,-0.8359575271606445,-1.6402089595794678,-0.8828001022338867,0.9891383647918701,0.0035745357163250446,-0.1469441056251526,0.08245587348937988,0.05843716114759445,-0.003202378749847412,0.5709527185642763,-0.4308110190947049,0.49084601966658226,0.4974787304528132
1681500701505578500,4.57357861328125,-1.0536563396453857,-1.6464335918426514,-0.9874948263168335,0.9864968061447144,0.014299276284873486,-0.16315583884716034,0.03390425443649292,0.04018985107541084,0.022073090076446533,0.5752562061614142,-0.43169028072002563,0.4817318564973932,0.5006579317582
1681500701515577600,4.58357763671875,-1.1907743215560913,-1.6543954610824585,-1.0800179243087769,0.9834468364715576,0.026446769014000893,-0.17925703525543213,0.013058960437774658,0.04015783965587616,0.04943525791168213,0.5793765470095796,-0.4332531065641106,0.4718720473439143,0.5039359828072564
1681500701525575400,4.593575439453125,-1.232100009918213,-1.6586978435516357,-1.1633809804916382,0.9799589514732361,0.03977018967270851,-0.19518929719924927,0.003820955753326416,0.04837982356548309,0.07244759798049927,0.5834568643177166,-0.4352138647191418,0.46151299761644493,0.5071220587493201
1681500701535574500,4.603574462890625,-1.1952570676803589,-1.6542924642562866,-1.2344212532043457,0.9760167598724365,0.053994446992874146,-0.21089322865009308,-0.0072667598724365234,0.058935828506946564,0.08709873259067535,0.5876512332266303,-0.4372892117217775,0.45092297641511453,0.5100124243707415
1681500701545572600,4.613572509765625,-1.1186068058013916,-1.64610755443573,-1.3029383420944214,0.9716171026229858,0.06889776140451431,-0.2263038158416748,-0.02145230770111084,0.0657915472984314,0.0921180248260498,0.5920515349378076,-0.4393013937963626,0.44029805269916517,0.5124714547718329
1681500701555571500,4.623571533203125,-1.034409761428833,-1.6392849683761597,-1.3698519468307495,0.9667368531227112,0.08438803255558014,-0.24145114421844482,-0.03608804941177368,0.06652138382196426,0.09722506999969482,0.5967017473565012,-0.441181467988748,0.42968982002022166,0.5144635185447721
1681500701565570300,4.6335703125,-0.956973135471344,-1.632448673248291,-1.422662615776062,0.9613574147224426,0.10034700483083725,-0.256364107131958,-0.043678462505340576,0.06836941838264465,0.11160394549369812,0.6015908772731487,-0.44289848234422696,0.41911678469630853,0.516014135150557
1681500701575568400,4.643568359375,-0.881664514541626,-1.6180734634399414,-1.4664671421051025,0.9554867744445801,0.11663708835840225,-0.27099958062171936,-0.046139299869537354,0.06999312341213226,0.13582196831703186,0.6066623315372393,-0.44445691505670704,0.408605263476418,0.5171659363955968
1681500701585567500,4.6535673828125,-0.7967413663864136,-1.5916939973831177,-1.4995417594909668,0.9491556286811829,0.13309958577156067,-0.28528615832328796,-0.043851613998413086,0.07268041372299194,0.16681694984436035,0.6118778981551067,-0.4458416771940618,0.3982236979952996,0.517927177799392
1681500701595566600,4.663566650390625,-0.6758328080177307,-1.559400200843811,-1.5248284339904785,0.9424015879631042,0.1495799422264099,-0.2991741895675659,-0.04405558109283447,0.0740833580493927,0.19079101085662842,0.6172569843700515,-0.4469969765841812,0.3880806631872225,0.5182480134136146
1681500701605564400,4.673564453125,-0.5253077149391174,-1.5314016342163086,-1.543917179107666,0.9352444410324097,0.16583670675754547,-0.312755286693573,-0.03900426626205444,0.06661564111709595,0.20742389559745789,0.6228570794352986,-0.44779244306118027,0.37829126358120424,0.5180990310691084
1681500701615563500,4.6835634765625,-0.3734910190105438,-1.5219242572784424,-1.551548719406128,0.9276683330535889,0.18170174956321716,-0.3262149393558502,-0.025675475597381592,0.05403128266334534,0.2244541049003601,0.6287186488931361,-0.4481326852386736,0.3688761653637952,0.517513789872018
1681500701625562400,4.693562255859375,-0.26857152581214905,-1.5350850820541382,-1.5446399450302124,0.919635534286499,0.19706778228282928,-0.3397569954395294,-0.010074377059936523,0.03855840861797333,0.23567679524421692,0.6348070873709435,-0.4479947720790903,0.35975294937313546,0.5166222123506902
1681500701635560400,4.703560546875,-0.24269068241119385,-1.5400310754776,-1.5278308391571045,0.9111521244049072,0.2120080590248108,-0.35334712266921997,0.005717873573303223,0.017880812287330627,0.24026426672935486,0.6409515561903063,-0.4475473614048734,0.35075318701609143,0.515610838941009
1681500701645559600,4.7135595703125,-0.2997336983680725,-1.5174962282180786,-1.5081405639648438,0.9023011922836304,0.226742684841156,-0.3666611909866333,0.018734633922576904,-0.0127839595079422,0.2518540620803833,0.646921293580239,-0.4470880371022532,0.3417333526188875,0.5146100725612742
1681500701655558400,4.723558349609375,-0.4282953143119812,-1.4613609313964844,-1.4767670631408691,0.8932401537895203,0.24149683117866516,-0.37921157479286194,0.025415241718292236,-0.05103662610054016,0.27691665291786194,0.6524689230993551,-0.4469428413382286,0.33262037503613523,0.5137024507940829
1681500701665556500,4.733556396484375,-0.5943503975868225,-1.381730556488037,-1.4365769624710083,0.8841243982315063,0.2564274072647095,-0.3906010389328003,0.024170339107513428,-0.09001505374908447,0.3082493543624878,0.6574071668188242,-0.4473516308968262,0.32338211391829697,0.5129487905704192
1681500701675555600,4.7435556640625,-0.7441551685333252,-1.2979655265808105,-1.3929067850112915,0.8750829696655273,0.271534264087677,-0.400623083114624,0.01976865530014038,-0.11815294623374939,0.3404577374458313,0.661666487622517,-0.4483857479857775,0.31406796146985155,0.512356264346886
1681500701685554400,4.753554443359375,-0.8298277258872986,-1.2151894569396973,-1.3504184484481812,0.8661525249481201,0.2866957187652588,-0.40937212109565735,0.013882935047149658,-0.1336042881011963,0.36229872703552246,0.6653512199293828,-0.4499140967344969,0.30478065992942105,0.5118534318832021
1681500701695552300,4.76355224609375,-0.8376466631889343,-1.1415528059005737,-1.3155517578125,0.8573560118675232,0.3016553223133087,-0.4170670211315155,0.009251713752746582,-0.14032414555549622,0.3718400001525879,0.6686456217802507,-0.4516952419272756,0.29569900561375967,0.5113185401469235
1681500701705551400,4.77355126953125,-0.7832347750663757,-1.0833555459976196,-1.2664755582809448,0.8486770391464233,0.3161013722419739,-0.4240604639053345,0.00343477725982666,-0.14050322771072388,0.3645511865615845,0.6717333621039893,-0.45345470267062493,0.2869644480840597,0.5106903298675541
1681500701715550500,4.783550537109375,-0.7210801839828491,-1.0192909240722656,-1.2027868032455444,0.8401833772659302,0.32975322008132935,-0.4305283725261688,-0.002796351909637451,-0.14232954382896423,0.3446519076824188,0.6746717663607851,-0.45504449324659124,0.27869397222724407,0.5099825378828722
1681500701725548500,4.793548583984375,-0.7024286985397339,-0.9506222009658813,-1.1216546297073364,0.8320002555847168,0.34254956245422363,-0.43638908863067627,0.0033727288246154785,-0.14914441108703613,0.32664787769317627,0.6773772191546489,-0.4565246225819831,0.27090723651803644,0.5092687707930691
1681500701735547600,4.803547607421875,-0.7339766621589661,-0.8681473135948181,-1.0275274515151978,0.8242484927177429,0.3545887768268585,-0.4414535164833069,0.02179032564163208,-0.1629994511604309,0.3262496888637543,0.6797015390297148,-0.4580618208953138,0.2635386361041347,0.5086576086441557
1681500701745546200,4.813546142578125,-0.8187280297279358,-0.7950571775436401,-0.9266360998153687,0.8170239329338074,0.3660525679588318,-0.44550803303718567,0.05109435319900513,-0.18288609385490417,0.34190085530281067,0.6814981573341601,-0.45984768424187766,0.2564880062912476,0.5082462638826979
1681500701755544300,4.82354443359375,-0.9358245134353638,-0.7101122736930847,-0.8182689547538757,0.8104066252708435,0.3770700991153717,-0.4483964145183563,0.08497917652130127,-0.2067362368106842,0.36300820112228394,0.6826539255359865,-0.4620205457498615,0.2496773997999276,0.5081160376004503
1681500701765543400,4.83354345703125,-1.034609079360962,-0.5894918441772461,-0.7143039703369141,0.8045516014099121,0.38768094778060913,-0.4498891234397888,0.10713052749633789,-0.22866913676261902,0.3866567313671112,0.6831118822292004,-0.4646773734674574,0.24316738343187963,0.5082349384904812
1681500701775542500,4.84354248046875,-1.0970526933670044,-0.4276794195175171,-0.6202535033226013,0.7996421456336975,0.3978334963321686,-0.44977864623069763,0.10827100276947021,-0.24581021070480347,0.4057570993900299,0.6829232860751516,-0.4678334982785407,0.2371550172740554,0.5084338868480394
1681500701785540400,4.853540283203125,-1.0812628269195557,-0.29692351818084717,-0.5443128943443298,0.7956904768943787,0.40737995505332947,-0.44823914766311646,0.09556019306182861,-0.26278766989707947,0.40427857637405396,0.6822509016337188,-0.47133604811392754,0.23178169822617348,0.508579724720294
1681500701795539500,4.86353955078125,-1.0015356540679932,-0.2090834081172943,-0.4796697497367859,0.7924389243125916,0.41611969470977783,-0.4459651708602905,0.09958988428115845,-0.27955353260040283,0.371059775352478,0.6813778569734583,-0.4748349276914264,0.22704449771659072,0.5086322851125846
1681500701805538300,4.873538330078125,-0.9148592948913574,-0.09686446189880371,-0.387162983417511,0.7898861765861511,0.42383018136024475,-0.443224161863327,0.1306307315826416,-0.2950766086578369,0.3176138699054718,0.6803977502268886,-0.4781703025518069,0.2230270998447041,0.508596957340433
1681500701815536400,4.883536376953125,-0.8731204867362976,0.10038209706544876,-0.24647091329097748,0.7884926199913025,0.4303115904331207,-0.4394444525241852,0.17509996891021729,-0.3092025816440582,0.29444020986557007,0.6790844298637867,-0.48154825967347353,0.219975116441024,0.5084944541332633
1681500701825535500,4.893535400390625,-0.8732406497001648,0.34920042753219604,-0.03870706632733345,0.7888356447219849,0.4352762997150421,-0.4339042007923126,0.22649943828582764,-0.3203928768634796,0.3150840401649475,0.6771060639119966,-0.485234077878273,0.2181645809634525,0.5084087711067529
1681500701835534300,4.903534423828125,-0.8820681571960449,0.574053168296814,0.20593656599521637,0.79119873046875,0.43840667605400085,-0.42638513445854187,0.29597485065460205,-0.3298555910587311,0.3496639132499695,0.6742457693114057,-0.489298749897334,0.21770200642441365,0.5085128660027681
1681500701845532400,4.913532470703125,-0.8462803363800049,0.6991511583328247,0.4706968665122986,0.7954021692276001,0.4393922686576843,-0.4174564480781555,0.3895953893661499,-0.3325349688529968,0.3777530789375305,0.6705506396428811,-0.4934906857871826,0.2184919183107058,0.509009005867504
1681500701855531500,4.923531494140625,-0.7440322637557983,0.6952937245368958,0.7269895076751709,0.800951361656189,0.43790215253829956,-0.40831196308135986,0.49717485904693604,-0.3245598375797272,0.38302814960479736,0.6662689181239025,-0.49730248756160145,0.22030492482508485,0.5101389379656783
1681500701865532700,4.93353271484375,-0.5762072801589966,0.5723156332969666,0.948375403881073,0.8071924448013306,0.43382343649864197,-0.40029680728912354,0.5980809926986694,-0.30622944235801697,0.35961687564849854,0.6617611831900128,-0.5002013758353572,0.22282321693971055,0.5120746916945855
1681500701875530500,4.943530517578125,-0.3924591839313507,0.4568711817264557,1.103395700454712,0.8136560916900635,0.4273887872695923,-0.3940844237804413,0.6510197520256042,-0.2776238024234772,0.2994188964366913,0.6573296693395065,-0.5019486389431995,0.2258436365808551,0.5147425770540753
1681500701885529600,4.953529541015625,-0.27550458908081055,0.4548594355583191,1.1913988590240479,0.8202853798866272,0.41926902532577515,-0.389031320810318,0.6080593466758728,-0.25311610102653503,0.20803162455558777,0.6530223017483368,-0.5028717881257194,0.22935628413863243,0.5177620440670733
1681500701895528400,4.963528564453125,-0.2371736615896225,0.5446670651435852,1.220367193222046,0.8272137641906738,0.4102852940559387,-0.38390523195266724,0.4467424154281616,-0.248832106590271,0.126703143119812,0.648678959431214,-0.5035787284854805,0.2333577631894352,0.5207380893711862
1681500701905526500,4.973526611328125,-0.244984433054924,0.6704380512237549,1.208329439163208,0.8344599008560181,0.40109169483184814,-0.3778917193412781,0.23421990871429443,-0.26489174365997314,0.07677477598190308,0.6441864243729615,-0.5045039376304499,0.2377602102003487,0.5234212141924957
1681500701915525600,4.983525634765625,-0.24347636103630066,0.7885400056838989,1.1811422109603882,0.841929018497467,0.39200347661972046,-0.37079471349716187,0.059453368186950684,-0.28095000982284546,0.05698248744010925,0.6395555220022912,-0.5057756345322204,0.24247400579242714,0.5257052931993333
1681500701925524500,4.9935244140625,-0.1853097379207611,0.8789277076721191,1.1629080772399902,0.8495323657989502,0.3829199969768524,-0.3628596365451813,-0.053908586502075195,-0.2931220233440399,0.05165666341781616,0.6348898412880128,-0.5072507422418565,0.24752145233085876,0.527583930356026
1681500701935522600,5.0035224609375,-0.043318528681993484,0.945060670375824,1.1827099323272705,0.8572277426719666,0.3733576536178589,-0.35463324189186096,-0.11113399267196655,-0.303151935338974,0.048496127128601074,0.6303600558567949,-0.5085671043159854,0.25306695719923494,0.529115177655379
1681500701945521700,5.013521728515625,0.07781961560249329,0.9998033046722412,1.2526482343673706,0.865114152431488,0.3628213405609131,-0.3463210165500641,-0.12292659282684326,-0.3130471706390381,0.046897828578948975,0.6259522440007534,-0.5095231946356157,0.25927900403489434,0.5304190296913065
1681500701955520500,5.0235205078125,0.13263270258903503,1.0141277313232422,1.357248306274414,0.8732202649116516,0.3511246144771576,-0.337931752204895,-0.09445744752883911,-0.3304184377193451,0.06441795825958252,0.6214451906179267,-0.5101536894632339,0.2660401152866662,0.5317628674051257
1681500701965518600,5.0335185546875,0.1435420662164688,0.9663341641426086,1.467474102973938,0.88140869140625,0.3382605314254761,-0.32969480752944946,-0.034210205078125,-0.3423804044723511,0.09628111124038696,0.6167076374607036,-0.5104586044086317,0.2731018415072068,0.5334034035788738
1681500701975517400,5.043517333984375,0.11421568691730499,0.8807504773139954,1.5353232622146606,0.8894034028053284,0.32451099157333374,-0.32195401191711426,0.048935890197753906,-0.32364124059677124,0.09111911058425903,0.6117469938252867,-0.5104409564205798,0.2801303682292665,0.5354836298408295
1681500701985516500,5.0535166015625,0.068459652364254,0.8232904076576233,1.5774322748184204,0.8970430493354797,0.3103117346763611,-0.3146754205226898,0.12404465675354004,-0.2690824866294861,0.06348520517349243,0.6066053057546056,-0.5102265192155097,0.28693412065744295,0.5379292242147774
1681500701995514600,5.0635146484375,0.01764683611690998,0.836574912071228,1.6423057317733765,0.9044793844223022,0.29569461941719055,-0.30737921595573425,0.1622626781463623,-0.20728516578674316,0.04015204310417175,0.6011837451494482,-0.5099855534537544,0.29364115549140835,0.5406180783681411
1681500702005513700,5.073513671875,-0.04889730364084244,0.9163352847099304,1.691579818725586,0.9119376540184021,0.2805781364440918,-0.2994089722633362,0.15835964679718018,-0.1617884635925293,0.006501317024230957,0.595327987316951,-0.5099145519248157,0.3004707322958841,0.5434051441414537
1681500702015512600,5.0835126953125,-0.1279461532831192,1.015993595123291,1.7033753395080566,0.9194219708442688,0.26527848839759827,-0.2903285324573517,0.12287545204162598,-0.14288774132728577,-0.022797107696533203,0.58900823952212,-0.5102224336168717,0.30742283774168555,0.5461076738367265
1681500702025510700,5.0935107421875,-0.2106863111257553,1.11124849319458,1.691465973854065,0.9268304705619812,0.2500980496406555,-0.28006473183631897,0.0711706280708313,-0.14583474397659302,-0.03834038972854614,0.5822713482330458,-0.5109975046765083,0.31440291076035815,0.5486278129887797
1681500702035509500,5.103509521484375,-0.24134358763694763,1.1895616054534912,1.6779190301895142,0.9340726733207703,0.2350672334432602,-0.26879650354385376,0.02161574363708496,-0.1426752805709839,-0.04774704575538635,0.5752199746889292,-0.5121553860465263,0.32140100736866617,0.5509266871008748
1681500702045508600,5.113508544921875,-0.1644786298274994,1.246158480644226,1.6730215549468994,0.9410914182662964,0.21990934014320374,-0.25687935948371887,-0.01801091432571411,-0.11932340264320374,-0.06814813613891602,0.5680722274448947,-0.5134015219304907,0.3286018921307944,0.5529319131360872
1681500702055506400,5.12350634765625,0.04610312730073929,1.2787375450134277,1.657246470451355,0.947796642780304,0.20435436069965363,-0.24478724598884583,-0.04900825023651123,-0.07615005970001221,-0.10111424326896667,0.561186465332722,-0.5143274589111833,0.3362642460883899,0.5544937636593685
1681500702065505500,5.133505615234375,0.4017869234085083,1.2671667337417603,1.617793083190918,0.9540632367134094,0.18825460970401764,-0.2330743372440338,-0.07064038515090942,-0.019675523042678833,-0.14084230363368988,0.5550205229913673,-0.5144777055496128,0.34463824894444434,0.5554182627666517
1681500702075504600,5.143504638671875,0.8572788834571838,1.2155725955963135,1.5667403936386108,0.9597645401954651,0.17158004641532898,-0.2222890704870224,-0.08009535074234009,0.04352310299873352,-0.1814432144165039,0.5500295384175897,-0.5134225397643134,0.3539106636129226,0.5555287155219465
1681500702085502700,5.153502685546875,1.3141305446624756,1.1451325416564941,1.5001657009124756,0.9648303389549255,0.15445618331432343,-0.21271054446697235,-0.07538026571273804,0.10854429006576538,-0.21992188692092896,0.5464471250731285,-0.5109583572494211,0.3640965296514804,0.5547529834931816
1681500702095501600,5.16350146484375,1.6712422370910645,1.094760775566101,1.428829550743103,0.9692922830581665,0.13717634975910187,-0.20409584045410156,-0.0693289041519165,0.16181959211826324,-0.24197958409786224,0.5441518762704699,-0.5072553287271101,0.37502548178398026,0.5531244610412968
1681500702105500400,5.17350048828125,1.870856523513794,1.081085443496704,1.3654271364212036,0.9732577800750732,0.12005866318941116,-0.19584517180919647,-0.07509493827819824,0.19132745265960693,-0.22902053594589233,0.5427333822212905,-0.5027529561861339,0.38641541847467237,0.5507841318761532
1681500702115498500,5.18349853515625,1.9061583280563354,1.0909301042556763,1.3157411813735962,0.9768361449241638,0.10335550457239151,-0.18737350404262543,-0.09547322988510132,0.1927870661020279,-0.19696484506130219,0.5416655945884853,-0.497967577390847,0.39792152175899875,0.5479828068413514
1681500702125497600,5.19349755859375,1.8190265893936157,1.1115083694458008,1.261539101600647,0.9800768494606018,0.08731921017169952,-0.17839522659778595,-0.1246996521949768,0.17201915383338928,-0.16527847945690155,0.5405579937312522,-0.49331131346408597,0.4092020721196144,0.5449722397202327
1681500702135496700,5.20349658203125,1.6664375066757202,1.144761323928833,1.1998361349105835,0.9830167293548584,0.07220210880041122,-0.16871583461761475,-0.1482388973236084,0.14935550093650818,-0.14036618173122406,0.5391600713781154,-0.4891121921658524,0.4200135074855311,0.5419080695272421
1681500702145494500,5.21349462890625,1.5019739866256714,1.1756733655929565,1.1293710470199585,0.9856771230697632,0.05814019590616226,-0.15830446779727936,-0.16617333889007568,0.13346441090106964,-0.11638420820236206,0.5373953690847428,-0.48551621064675815,0.4302578030557193,0.5388491802053996
1681500702155493400,5.223493408203125,1.3618448972702026,1.1703522205352783,1.046587586402893,0.9880375862121582,0.04521710053086281,-0.14743533730506897,-0.1699528694152832,0.1278938353061676,-0.10480771958827972,0.5353742856277648,-0.48247443126447354,0.4398872072161622,0.5358097471840544
1681500702165492500,5.233492431640625,1.2368347644805908,1.110216736793518,0.9722790122032166,0.9900583028793335,0.03338468447327614,-0.13663828372955322,-0.1511300802230835,0.12579499185085297,-0.11024890840053558,0.5332638803758033,-0.47981286378976873,0.4488434849601492,0.5328684398150697
1681500702175490600,5.243490478515625,1.08620023727417,1.0180248022079468,0.9111523032188416,0.9917191863059998,0.022534288465976715,-0.12643282115459442,-0.11525440216064453,0.1224089190363884,-0.1309829205274582,0.5311438165969016,-0.4774094621388986,0.4570161843387741,0.5301911565049756
1681500702185489700,5.25348974609375,0.8477444052696228,0.9551234841346741,0.8796074390411377,0.9930728077888489,0.012469543144106865,-0.1168365329504013,-0.07426488399505615,0.1120574101805687,-0.1461181640625,0.5288280629518859,-0.47537244908096965,0.4643304531355936,0.5279763976076727
1681500702195488500,5.263488525390625,0.5034461617469788,0.947521448135376,0.8644575476646423,0.9942018985748291,0.0030498942360281944,-0.10748562961816788,-0.05061370134353638,0.08685487508773804,-0.13772308826446533,0.5259411903417317,-0.4740304460728566,0.470693447564245,0.5264300814594675
1681500702205486600,5.273486572265625,0.09992531687021255,0.9790114760398865,0.847888171672821,0.9951786994934082,-0.005780410952866077,-0.09790746867656708,-0.04940849542617798,0.05280798673629761,-0.11241964995861053,0.5221286691607482,-0.47374079361428734,0.4760419366954467,0.5256760725073644
1681500702215485700,5.283485595703125,-0.27834612131118774,0.9925356507301331,0.8189277648925781,0.9960142374038696,-0.013994875364005566,-0.08809073269367218,-0.056423723697662354,0.026827484369277954,-0.09289377927780151,0.5173532963842778,-0.47458656488655704,0.48033553582536104,0.5257290840849573
1681500702225484500,5.293484619140625,-0.5529800653457642,0.9633503556251526,0.7928565144538879,0.9966864585876465,-0.021669916808605194,-0.07840099930763245,-0.05346435308456421,0.026293307542800903,-0.09261947870254517,0.5118641341577119,-0.4763136047715541,0.4836577808116434,0.5264937709030191
1681500702235482400,5.303482421875,-0.6706051826477051,0.9007985591888428,0.7651961445808411,0.9971781373023987,-0.028968049213290215,-0.06925850361585617,-0.027207374572753906,0.06014173477888107,-0.11276358366012573,0.5060698237579789,-0.47846547588716537,0.486252543075178,0.5277524354166594
1681500702245481500,5.3134814453125,-0.6414576768875122,0.826813280582428,0.7368038892745972,0.9974959492683411,-0.03603256493806839,-0.060856081545352936,0.0036789774894714355,0.12256515026092529,-0.15273642539978027,0.5003843630589838,-0.4805893545384346,0.4884729597846839,0.5291913823891793
1681500702255480600,5.32348046875,-0.5067062973976135,0.754935085773468,0.7041761875152588,0.9976630210876465,-0.04288468882441521,-0.05319003388285637,0.023775458335876465,0.19159682095050812,-0.21493737399578094,0.4951455294949726,-0.4823650040396793,0.4906414033902921,0.5304958341935191
1681500702265478700,5.333478759765625,-0.3480207622051239,0.7059747576713562,0.6622804403305054,0.9977094531059265,-0.04947962611913681,-0.046125903725624084,0.035432636737823486,0.2431594282388687,-0.28210586309432983,0.4905170030299491,-0.4836683457948504,0.49295230876279633,0.5314659369996377
1681500702275477800,5.343477783203125,-0.22924378514289856,0.6765024065971375,0.6292584538459778,0.997664749622345,-0.05580003559589386,-0.03939083591103554,0.038346052169799805,0.27154403924942017,-0.3214642405509949,0.4864035839158804,-0.4846050972549941,0.49544170421708433,0.5320780856686026
1681500702285476600,5.3534765625,-0.18051911890506744,0.6457346081733704,0.5928469300270081,0.9975441098213196,-0.061828870326280594,-0.032910265028476715,0.03958052396774292,0.2808382511138916,-0.333773672580719,0.4826454593885965,-0.48533363203101365,0.4979921006039553,0.5324552515589716
1681500702295474400,5.363474365234375,-0.1867682933807373,0.5937135219573975,0.5368960499763489,0.9973640441894531,-0.06742187589406967,-0.026821287348866463,0.05031973123550415,0.2793664336204529,-0.3381994366645813,0.47914704681223275,-0.48601104823029423,0.5003824714022732,0.5327558619596886
1681500702305473500,5.3734736328125,-0.22202721238136292,0.5096010565757751,0.44853928685188293,0.9971520900726318,-0.07230453938245773,-0.021448535844683647,0.07284009456634521,0.27362895011901855,-0.3413901925086975,0.4759481668571804,-0.4867307770705425,0.5023632975174463,0.5331020213791987
1681500702315472600,5.38347265625,-0.2800348699092865,0.40504539012908936,0.3444594442844391,0.9969452023506165,-0.07621719688177109,-0.017068887129426003,0.0984528660774231,0.2718653678894043,-0.34844011068344116,0.4731277234599006,-0.4875461750666903,0.5037502196575435,0.533558494912543
1681500702325470500,5.393470458984375,-0.3327587842941284,0.315260112285614,0.23772631585597992,0.9967749118804932,-0.07906505465507507,-0.013731584884226322,0.12044310569763184,0.2727753520011902,-0.35981881618499756,0.470700759975295,-0.4884945504441101,0.5044871472865969,0.5341410291053914
1681500702335469600,5.403469482421875,-0.4143528938293457,0.28427034616470337,0.1269056648015976,0.9966664910316467,-0.08082831650972366,-0.011083804070949554,0.13095808029174805,0.2695794999599457,-0.36278706789016724,0.46855887051017175,-0.4897012242119819,0.5046293776510565,0.5347845785790547
1681500702345468400,5.413468505859375,-0.5137311816215515,0.3068816661834717,0.03250672295689583,0.9966312050819397,-0.08156979829072952,-0.008534474298357964,0.12203645706176758,0.2557336091995239,-0.3455457091331482,0.4664696046682671,-0.4913716822165674,0.5042684135042346,0.5354189313023262
1681500702355466500,5.423466552734375,-0.5909843444824219,0.3118884861469269,-0.03925807774066925,0.9966574311256409,-0.08148271590471268,-0.005887365434318781,0.1064462661743164,0.23353654146194458,-0.31462347507476807,0.4643294826065629,-0.49351066810521105,0.503491348175457,0.5360427961837537
1681500702365465600,5.433465576171875,-0.5879771113395691,0.2558444142341614,-0.09186562150716782,0.9967243075370789,-0.08079926669597626,-0.0034907248336821795,0.12740594148635864,0.21986787021160126,-0.30434006452560425,0.4623079131659789,-0.49582901127776446,0.5024024573939564,0.5366719573794336
1681500702375464700,5.443464599609375,-0.4815915822982788,0.11800044029951096,-0.1322220414876938,0.9968205094337463,-0.0796561986207962,-0.002008074428886175,0.20673179626464844,0.225225031375885,-0.3262389898300171,0.4607813226101403,-0.49788156974949593,0.5011086761637172,0.5372938883469972
1681500702385463600,5.453463623046875,-0.26046106219291687,-0.07943913340568542,-0.14345099031925201,0.9969314932823181,-0.07825169712305069,-0.00210366677492857,0.31651461124420166,0.2512710690498352,-0.35309040546417236,0.46016710007132344,-0.49915501853683036,0.4997923909448043,0.5378644594218487
1681500702395461600,5.463461669921875,0.00902688317000866,-0.2909913957118988,-0.12355045229196548,0.9970302581787109,-0.07690580934286118,-0.004060567356646061,0.4239598512649536,0.2951217293739319,-0.375349223613739,0.46068209043339853,-0.4992776929702668,0.4986897848451173,0.5383330588136258
1681500702405460500,5.47346044921875,0.24046969413757324,-0.46578237414360046,-0.14063942432403564,0.9971053600311279,-0.07563486695289612,-0.007787823211401701,0.4935411810874939,0.34179389476776123,-0.3943880796432495,0.4623059508023166,-0.49826548989294506,0.49783289355024934,0.5386717901298952
1681500702415459600,5.48345947265625,0.35650503635406494,-0.5768961906433105,-0.24102374911308289,0.9971893429756165,-0.07382252812385559,-0.012808565981686115,0.48607194423675537,0.3727421760559082,-0.39301419258117676,0.46487379696108344,-0.4965985728438948,0.4969764324425469,0.5387920078895608
1681500702425457400,5.49345751953125,0.3436068296432495,-0.6477195024490356,-0.394974946975708,0.997320830821991,-0.0707237496972084,-0.018694613128900528,0.4011930227279663,0.3708030581474304,-0.3654301166534424,0.46813848871730473,-0.4948926576028734,0.49571559486173555,0.5386963371231287
1681500702435456500,5.50345654296875,0.2463410198688507,-0.7026709914207458,-0.5807604193687439,0.9975058436393738,-0.06591597944498062,-0.025240646675229073,0.27730488777160645,0.334196001291275,-0.3120853900909424,0.4718631505590607,-0.4935797919626692,0.49371921777395855,0.5384844164306608
1681500702445455600,5.51345556640625,0.16255052387714386,-0.7463710904121399,-0.7584574222564697,0.997717022895813,-0.05927400663495064,-0.0323609858751297,0.16275960206985474,0.27510955929756165,-0.2563962936401367,0.4759569800430264,-0.49279918128106176,0.49088539795456104,0.5381871515671715
1681500702455453700,5.52345361328125,0.15767620503902435,-0.7837609052658081,-0.9116847515106201,0.997900664806366,-0.05098528414964676,-0.0399353988468647,0.08042269945144653,0.21468156576156616,-0.2178770899772644,0.4804689471762929,-0.49240618087475685,0.4874099443907069,0.5376962936433606
1681500702465452500,5.53345263671875,0.21354906260967255,-0.8118324875831604,-1.04037344455719,0.9980010986328125,-0.04129600152373314,-0.04783688113093376,0.035705506801605225,0.17027853429317474,-0.20114076137542725,0.4854938570655602,-0.49218895709612354,0.48356136093289076,0.5368557874813187
1681500702475451400,5.543451416015625,0.29150140285491943,-0.8528938293457031,-1.1321566104888916,0.9979597330093384,-0.030547505244612694,-0.05606481060385704,0.02810227870941162,0.14880311489105225,-0.19030362367630005,0.4910453716768511,-0.491962038195728,0.4795215829021553,0.5356368584727864
1681500702485449500,5.553449462890625,0.33869659900665283,-0.9214785099029541,-1.1801095008850098,0.9977108240127563,-0.01914999634027481,-0.06485750526189804,0.06127971410751343,0.14105243980884552,-0.16896814107894897,0.49705873987670834,-0.49156878625033795,0.47532239143745514,0.5341922959905403
1681500702495448600,5.563448486328125,0.31940174102783203,-1.0201336145401,-1.1714953184127808,0.9971922636032104,-0.007625802885740995,-0.07449456304311752,0.13121044635772705,0.1398737132549286,-0.1364734172821045,0.5033179451067379,-0.49093370578095624,0.47088938528014807,0.5328398842084937
1681500702505447700,5.57344775390625,0.21336930990219116,-1.1402469873428345,-1.123616099357605,0.9963502883911133,0.003621920943260193,-0.08528342843055725,0.212924063205719,0.1354008913040161,-0.09971410036087036,0.5095850509233742,-0.49005499728035207,0.4660519123270953,0.5319444759064519
1681500702515445500,5.583445556640625,0.04060303419828415,-1.2439631223678589,-1.081427812576294,0.9951572418212891,0.014477580785751343,-0.0972246527671814,0.2784481644630432,0.12572015821933746,-0.065128855407238,0.5156152739383593,-0.48908413729447764,0.46063475745420296,0.5317455033742238
1681500702525444600,5.593444580078125,-0.18067102134227753,-1.303439974784851,-1.0905669927597046,0.9936147332191467,0.02534199133515358,-0.10994391143321991,0.30077308416366577,0.10516642779111862,-0.037745893001556396,0.5212594678298529,-0.4883432509489796,0.4544765289618702,0.5322223090056561
1681500702535443500,5.603443359375,-0.392261803150177,-1.321605920791626,-1.1484609842300415,0.9917276501655579,0.03679927438497543,-0.12297273427248001,0.2672903537750244,0.07870975136756897,-0.018903493881225586,0.526511910314688,-0.48811150789405644,0.44750507046165044,0.5331713569036524
1681500702545441500,5.613441650390625,-0.544246256351471,-1.3185701370239258,-1.2205228805541992,0.9894838333129883,0.04922565445303917,-0.1360098421573639,0.19145488739013672,0.052733562886714935,-0.011573180556297302,0.5315005835248805,-0.48844434870223286,0.43979222006039626,0.5343333020836027
1681500702555440600,5.623440673828125,-0.618865430355072,-1.3042696714401245,-1.2864876985549927,0.9868758320808411,0.06257495284080505,-0.14886349439620972,0.10791170597076416,0.03621041774749756,-0.0015423744916915894,0.5363585183789438,-0.48920204581989885,0.43156645964730256,0.5354915858223874
1681500702565439500,5.633439453125,-0.6242010593414307,-1.2841856479644775,-1.3583883047103882,0.9839061498641968,0.07668791711330414,-0.1613934189081192,0.04034018516540527,0.02791108936071396,0.01600770652294159,0.5412145388905021,-0.49020906440823453,0.42308198378752204,0.5364546884172877
1681500702575437600,5.6434375,-0.5665842890739441,-1.269657015800476,-1.4400657415390015,0.9805498123168945,0.09152544289827347,-0.1736244261264801,-0.013829171657562256,0.026775941252708435,0.02240985631942749,0.5462392885402495,-0.49130720628873953,0.4144936906263081,0.53706144166246
1681500702585436700,5.653436767578125,-0.47741687297821045,-1.2617015838623047,-1.5221478939056396,0.9767600297927856,0.10706090182065964,-0.1856822669506073,-0.057494282722473145,0.03260279446840286,0.024503707885742188,0.5515917852216403,-0.4923518477783233,0.4058922578569834,0.5372036019039544
1681500702595435500,5.663435546875,-0.35631370544433594,-1.2663770914077759,-1.5979151725769043,0.9724938273429871,0.1231796145439148,-0.1976933777332306,-0.09686815738677979,0.032566845417022705,0.02427726984024048,0.5573554388144804,-0.4932250708243938,0.3973441054220043,0.536844176881691
1681500702605433300,5.673433349609375,-0.22188399732112885,-1.2906800508499146,-1.662642002105713,0.9676966071128845,0.1396877020597458,-0.2098827362060547,-0.12539613246917725,0.025870144367218018,0.021894454956054688,0.5635938867971666,-0.4937826390405459,0.3888924495859485,0.5360068645168736
1681500702615432400,5.683432373046875,-0.12275536358356476,-1.31784188747406,-1.7023483514785767,0.9623318910598755,0.15640799701213837,-0.2223825305700302,-0.137579083442688,0.01003485918045044,0.018021583557128906,0.5702562086364225,-0.4939836666269874,0.3805113277669652,0.5347889559452021
1681500702625431600,5.693431640625,-0.09123179316520691,-1.3358819484710693,-1.7139406204223633,0.9564505815505981,0.1730964630842209,-0.235032320022583,-0.14186006784439087,-0.004883572459220886,0.03167843818664551,0.5770969588915595,-0.49393689125305096,0.3721695641840878,0.5333623799691529
1681500702635429600,5.7034296875,-0.11405794322490692,-1.3595830202102661,-1.7066291570663452,0.9500753283500671,0.18967610597610474,-0.2477499544620514,-0.13620197772979736,-0.01377280056476593,0.06024998426437378,0.5839077381573656,-0.49377405704658195,0.36374743996519243,0.5319087258618278
1681500702645428700,5.7134287109375,-0.18688902258872986,-1.391210913658142,-1.6901881694793701,0.9431986808776855,0.20616738498210907,-0.26052191853523254,-0.12592250108718872,-0.029989376664161682,0.08263495564460754,0.5905445740995046,-0.4936018482632715,0.35510035113712396,0.5305829839688617
1681500702655427300,5.72342724609375,-0.297163188457489,-1.3956427574157715,-1.6620393991470337,0.9358663558959961,0.22258669137954712,-0.27314749360084534,-0.10821425914764404,-0.05998899042606354,0.10780325531959534,0.5968498868408382,-0.4935554111147393,0.3461637057555688,0.5294753464738865
1681500702665425700,5.73342578125,-0.43266430497169495,-1.3750355243682861,-1.6226962804794312,0.9281904101371765,0.23892295360565186,-0.28526920080184937,-0.08723270893096924,-0.09750449657440186,0.14803165197372437,0.6026770973816178,-0.49377372184147106,0.33697613799700193,0.5285971899144879
1681500702675424500,5.743424560546875,-0.5548060536384583,-1.3386644124984741,-1.5754858255386353,0.9202811121940613,0.2551480233669281,-0.2966178357601166,-0.07303690910339355,-0.1342984437942505,0.19359049201011658,0.6079420775826887,-0.49433519160454237,0.3276031129129894,0.5279350007743773
1681500702685423600,5.753423583984375,-0.6568825840950012,-1.3023457527160645,-1.5427896976470947,0.9121860861778259,0.27126652002334595,-0.30713364481925964,-0.06393474340438843,-0.16402778029441833,0.22238638997077942,0.6126901412592826,-0.49521521882056474,0.31811171393178955,0.5274254901486014
1681500702695421400,5.76342138671875,-0.7203885316848755,-1.268750786781311,-1.5187021493911743,0.9038940072059631,0.28731784224510193,-0.31689777970314026,-0.05552053451538086,-0.17795810103416443,0.23567521572113037,0.6170313597676528,-0.4963403818432303,0.30854066475704867,0.5269926371597686
1681500702705420500,5.773420654296875,-0.74888676404953,-1.245156168937683,-1.5000113248825073,0.8953870534896851,0.3032759428024292,-0.3260454833507538,-0.048585355281829834,-0.1794356405735016,0.23772767186164856,0.6210903737428645,-0.4975999963183741,0.29895065717987984,0.5265638215442
1681500702715419600,5.783419677734375,-0.7597719430923462,-1.2238008975982666,-1.4640083312988281,0.8866890668869019,0.31899091601371765,-0.3347046971321106,-0.03709501028060913,-0.17436814308166504,0.23346266150474548,0.6249296726958696,-0.49888391201311566,0.28941750319207804,0.5261322985883019
1681500702725418500,5.79341845703125,-0.7726374268531799,-1.1965419054031372,-1.419187068939209,0.877872109413147,0.33430764079093933,-0.34289780259132385,-0.020374000072479248,-0.17039775848388672,0.22685471177101135,0.6285331096834552,-0.5001494882817438,0.28000284197593833,0.5257328271952726
1681500702735416600,5.80341650390625,-0.7933117747306824,-1.15505051612854,-1.3648532629013062,0.8690265417098999,0.349190890789032,-0.3505118191242218,0.003928780555725098,-0.17269250750541687,0.22715982794761658,0.6318566349874472,-0.5014384967563836,0.27074623056953306,0.5253694399454232
1681500702745415400,5.81341552734375,-0.8321837782859802,-1.0998488664627075,-1.2965569496154785,0.8602834939956665,0.3635846674442291,-0.35737743973731995,0.02674049139022827,-0.18368354439735413,0.23980849981307983,0.6348187161219154,-0.5028193453031762,0.2616944442350351,0.5250657754095206
1681500702755414500,5.82341455078125,-0.8851761221885681,-1.0307340621948242,-1.2095417976379395,0.8517966866493225,0.37742048501968384,-0.3633129298686981,0.04149860143661499,-0.19870954751968384,0.263962984085083,0.6373186375365595,-0.5043697939828296,0.25289256242935937,0.5248633302951041
1681500702765412600,5.83341259765625,-0.9161766171455383,-0.9651827812194824,-1.1196211576461792,0.8436707258224487,0.3905995488166809,-0.3683091402053833,0.054614126682281494,-0.2160084843635559,0.2948686182498932,0.6393406890270142,-0.5060778428193753,0.24439853964589459,0.5247837767138491
1681500702775411700,5.84341162109375,-0.9118692278862,-0.9131946563720703,-1.0498666763305664,0.8358907699584961,0.4030945599079132,-0.3725607395172119,0.0641031265258789,-0.22673344612121582,0.3046743869781494,0.6409903354178457,-0.5078482412836144,0.23624095393883326,0.5247969906065927
1681500702785410600,5.85341064453125,-0.8741666078567505,-0.8574522733688354,-0.9803566336631775,0.8284122943878174,0.4148995876312256,-0.3762865960597992,0.07092559337615967,-0.2327553629875183,0.2913256287574768,0.6424150946090693,-0.5095690404711104,0.22846465404358382,0.5248297717947097
1681500702795408400,5.863408447265625,-0.8323253393173218,-0.7835519313812256,-0.8983283638954163,0.8213456273078918,0.42589160799980164,-0.37948352098464966,0.07219380140304565,-0.24180957674980164,0.27827197313308716,0.643633369938028,-0.5112126100794452,0.22117843601851317,0.524859903611802
1681500702805407500,5.873407470703125,-0.786054253578186,-0.7098574638366699,-0.7963911294937134,0.8148377537727356,0.43592438101768494,-0.38211196660995483,0.07435297966003418,-0.25318512320518494,0.27240127325057983,0.6446050891460151,-0.5127826917610124,0.2144712676278837,0.5249194271313962
1681500702815406600,5.883406494140625,-0.7659845352172852,-0.635665774345398,-0.6911723017692566,0.8089866042137146,0.4449240267276764,-0.3841659724712372,0.08594143390655518,-0.2614218294620514,0.2647506594657898,0.6452791417534776,-0.5142983096328035,0.20836090989843584,0.5250694968446658
1681500702825404700,5.89340478515625,-0.7699571847915649,-0.5588908195495605,-0.5772385597229004,0.8038365840911865,0.4529946446418762,-0.385542094707489,0.11162978410720825,-0.27271202206611633,0.2578107714653015,0.6455858477088029,-0.515856151981632,0.20278408242026447,0.5253475218779148
1681500702835403800,5.90340380859375,-0.7946767210960388,-0.46234291791915894,-0.4643239974975586,0.7994746565818787,0.460196316242218,-0.3860824704170227,0.13718611001968384,-0.29073217511177063,0.2608230710029602,0.6454529609541745,-0.5175543738251288,0.1977276956584847,0.5257677695012851
1681500702845402400,5.91340234375,-0.8137907385826111,-0.35670730471611023,-0.35257911682128906,0.795995831489563,0.4665684700012207,-0.38562214374542236,0.15465718507766724,-0.312988817691803,0.27372944355010986,0.6448420681313419,-0.5194736241442817,0.1932254849136047,0.5262981006251898
1681500702855400400,5.923400390625,-0.7920612692832947,-0.2497980147600174,-0.2519645094871521,0.7934178709983826,0.47206851840019226,-0.3842385709285736,0.15606021881103516,-0.33446478843688965,0.284629225730896,0.6438248498710931,-0.5215648833743346,0.1893430305616919,0.526885928172056
1681500702865397800,5.933397705078125,-0.7149094939231873,-0.15583664178848267,-0.16965097188949585,0.7916588187217712,0.4766281843185425,-0.3822327256202698,0.14784008264541626,-0.34262552857398987,0.28019723296165466,0.6425817194026043,-0.5236702846915583,0.1861533376227869,0.5274514842391287
1681500702875396600,5.943396728515625,-0.5613877773284912,-0.07818691432476044,-0.10169688612222672,0.7905619144439697,0.48014354705810547,-0.38009756803512573,0.13169455528259277,-0.33648204803466797,0.25525015592575073,0.641362950514829,-0.5255438741848021,0.18372494650316312,0.5279228089072427
1681500702885394700,5.953394775390625,-0.3695765733718872,0.013680958189070225,-0.02440396323800087,0.7901231050491333,0.4824197590351105,-0.37812283635139465,0.11569970846176147,-0.321729451417923,0.21280908584594727,0.640341835494897,-0.5270051618735153,0.1822200418184598,0.5282271278641044
1681500702895393500,5.9633935546875,-0.20672829449176788,0.13897296786308289,0.08654744923114777,0.7905400395393372,0.4832707941532135,-0.3761594295501709,0.12288165092468262,-0.3071233332157135,0.1629178524017334,0.6394489055168637,-0.5280870963501367,0.18178092661308914,0.5283794996328891
1681500702905392600,5.973392578125,-0.11986290663480759,0.2745979130268097,0.23313502967357635,0.7920825481414795,0.48262226581573486,-0.3737393617630005,0.1689465045928955,-0.30496418476104736,0.1462308168411255,0.6384228369294981,-0.5290035386682255,0.18244335879296072,0.5284752575406129
1681500702915391700,5.983391845703125,-0.12212947010993958,0.36433637142181396,0.4250870943069458,0.7948654890060425,0.480448842048645,-0.37061819434165955,0.2608901262283325,-0.316752552986145,0.16734057664871216,0.636956247703405,-0.5299247361276881,0.18403988085108652,0.5287682657182893
1681500702925389800,5.993389892578125,-0.21987120807170868,0.36328017711639404,0.632418692111969,0.7987620234489441,0.4768480658531189,-0.36687225103378296,0.3789418339729309,-0.3305162489414215,0.20779937505722046,0.6347756160037662,-0.5309427122562037,0.18618191869003312,0.5296188785518015
1681500702935389000,6.003388916015625,-0.4018164277076721,0.29678070545196533,0.8409628868103027,0.8034792542457581,0.47204872965812683,-0.3627547323703766,0.49837005138397217,-0.3428831398487091,0.24166104197502136,0.6316902741268673,-0.5321033356502586,0.1883843658881771,0.5313611687844317
1681500702945387500,6.013387451171875,-0.6197929382324219,0.24511884152889252,1.0126681327819824,0.8088079690933228,0.46637725830078125,-0.35822030901908875,0.5877984166145325,-0.36025241017341614,0.264790803194046,0.6275969491011224,-0.5335350662519016,0.19034227649090477,0.5340712911220339
1681500702955385600,6.023385498046875,-0.82804936170578,0.2899431884288788,1.1192189455032349,0.8146890997886658,0.46027421951293945,-0.35274550318717957,0.5903401970863342,-0.36948442459106445,0.25994154810905457,0.6225403525786941,-0.5354787242484269,0.19206712672848023,0.5374163145623706
1681500702965384700,6.033384765625,-0.9807787537574768,0.40433207154273987,1.1631437540054321,0.8211190104484558,0.4540979266166687,-0.3457726836204529,0.47676312923431396,-0.3714410364627838,0.22199338674545288,0.6166906824190563,-0.5381190055181015,0.19375653400770174,0.5409057315640022
1681500702975383800,6.0433837890625,-1.015341877937317,0.5226500630378723,1.180247187614441,0.8279890418052673,0.44786930084228516,-0.3374127149581909,0.30087143182754517,-0.35897159576416016,0.1644391119480133,0.6103419293980455,-0.5413227948172287,0.19561002224152887,0.544232616324589
1681500702985381600,6.053381591796875,-0.9083976149559021,0.6080328822135925,1.1890404224395752,0.8351431488990784,0.44124650955200195,-0.3283861577510834,0.14421170949935913,-0.33028459548950195,0.09852781891822815,0.6039196621476017,-0.5446481600111205,0.19790225300144662,0.5472423052554205
1681500702995380700,6.063380615234375,-0.699394702911377,0.6782884001731873,1.2129255533218384,0.8424673676490784,0.43380600214004517,-0.31946998834609985,0.04719632863998413,-0.30227527022361755,0.05027446150779724,0.5977843059902619,-0.5476398872073246,0.2008869394511697,0.549899003705257
1681500703005379600,6.073379638671875,-0.43153372406959534,0.7506371736526489,1.250818133354187,0.8500025868415833,0.4251781702041626,-0.3109969198703766,0.0005985498428344727,-0.2723614275455475,0.027900606393814087,0.5921142085901935,-0.5500438192032784,0.2048251455460127,0.5521767358787056
1681500703015377700,6.083377685546875,-0.14576201140880585,0.8162060379981995,1.2967405319213867,0.8577693104743958,0.4151805341243744,-0.30307936668395996,-0.0038568973541259766,-0.230152428150177,0.02047133445739746,0.5869844130011841,-0.5517431763582867,0.20985657035555536,0.5540659726890904
1681500703025376800,6.093376708984375,0.11527357250452042,0.8348303437232971,1.3485182523727417,0.8656648397445679,0.40383288264274597,-0.2958776652812958,0.023724257946014404,-0.18065780401229858,0.021250009536743164,0.582399598035926,-0.5526762166020871,0.21589388915015742,0.5556524582597033
1681500703035375600,6.103375732421875,0.33748361468315125,0.804097056388855,1.3869770765304565,0.8735249042510986,0.3912513554096222,-0.2896147072315216,0.06823229789733887,-0.13624650239944458,0.020068198442459106,0.5783143640546613,-0.552805850111045,0.22270684985340172,0.5570995469931627
1681500703045373700,6.113373779296875,0.512971043586731,0.7342404723167419,1.3900258541107178,0.8810852766036987,0.3778180181980133,-0.2845034599304199,0.1267576813697815,-0.10865303874015808,0.01036408543586731,0.5747466107184628,-0.5521452318451148,0.22996501830895397,0.5584961932496587
1681500703055372800,6.123372802734375,0.6295645833015442,0.6908039450645447,1.3932002782821655,0.8882489204406738,0.3638758361339569,-0.2803718149662018,0.18038517236709595,-0.09744212031364441,0.0043555498123168945,0.5716191415654424,-0.5508468920951612,0.23744849998026896,0.5598549180976778
1681500703065371600,6.13337158203125,0.6569410562515259,0.6821702122688293,1.4042649269104004,0.8951424360275269,0.349599152803421,-0.2765871286392212,0.20336824655532837,-0.09615069627761841,0.02022424340248108,0.5686639015067355,-0.5492253675125558,0.2450672033367702,0.5611728367923345
1681500703075369500,6.143369384765625,0.593991756439209,0.6896892786026001,1.413673996925354,0.9018614292144775,0.33518606424331665,-0.2725733816623688,0.18909621238708496,-0.10853204131126404,0.04056355357170105,0.5655721525560129,-0.547611516838267,0.252655765869618,0.5625076164413608
1681500703085368600,6.15336865234375,0.45467454195022583,0.6962393522262573,1.3974214792251587,0.9083561897277832,0.3210162818431854,-0.2680254280567169,0.1442561149597168,-0.13441655039787292,0.05551624298095703,0.5621625184030093,-0.5462726682212155,0.259948958106054,0.5639025420248358
1681500703095367700,6.16336767578125,0.2562095820903778,0.695558488368988,1.3565447330474854,0.914537250995636,0.30750522017478943,-0.2627967298030853,0.09161204099655151,-0.15923559665679932,0.0486396849155426,0.5583326241405684,-0.5454228261228564,0.2666750511328895,0.5653875178005197
1681500703105366800,6.17336669921875,0.01955389231443405,0.6869431734085083,1.3209755420684814,0.9203649163246155,0.294856995344162,-0.2568811774253845,0.0447993278503418,-0.1781425178050995,0.02537482976913452,0.5539924303762246,-0.5451836906598944,0.272642917817011,0.5670388792948161
1681500703115364900,6.18336474609375,-0.2052583396434784,0.6824622750282288,1.3007389307022095,0.9258854985237122,0.2830022871494293,-0.2502914369106293,0.003405272960662842,-0.1769384741783142,0.010514885187149048,0.5490712895995409,-0.5455850504038082,0.27783310358692004,0.568916899944169
1681500703125363700,6.19336376953125,-0.3806445598602295,0.6795229315757751,1.296606183052063,0.931160569190979,0.27168214321136475,-0.24316400289535522,-0.03575962781906128,-0.14953556656837463,0.0034789741039276123,0.5436147646453927,-0.5465109055198794,0.2823894942775255,0.571020965902859
1681500703135362600,6.203362548828125,-0.48378756642341614,0.6908304691314697,1.2975400686264038,0.9362494349479675,0.2606167793273926,-0.2356182038784027,-0.07569950819015503,-0.11124852299690247,0.0009991079568862915,0.5377360593810704,-0.5478029912763775,0.2865358262316811,0.5732792095188908
1681500703145360600,6.213360595703125,-0.5136690139770508,0.7106896638870239,1.2930071353912354,0.9411790370941162,0.24961750209331512,-0.22775714099407196,-0.11363375186920166,-0.07389725744724274,-0.0013841092586517334,0.5316228254328463,-0.5492912363428035,0.29051775492271575,0.5755483321313176
