,seconds_elapsed,rotationRateX,rotationRateY,rotationRateZ,gravityX,gravityY,gravityZ,accelerationX,accelerationY,accelerationZ,quaternionX,quaternionY,quaternionZ
0,6.0,-0.340150698784757,0.3193190189145586,0.7702821082526388,0.8018804682146374,0.4736753432366669,-0.36415026114678894,0.4578928786648899,-0.3386916950620096,0.23018448668431876,-0.5317099717149896,0.18763790213299011,0.5307706635905861
1,6.01,-0.5459436418625665,0.2626216095596751,0.9544952977022056,0.8070026285036377,0.46829872299490566,-0.35975654782357963,0.5575005563914996,-0.35436779265729257,0.2569545616324407,-0.5330500034473453,0.18967894666688637,0.533153115914869
2,6.02,-0.7575304169825579,0.27476495004095675,1.0831391418305014,0.8126976551863916,0.46234080573268477,-0.3545993597136274,0.5894795097010422,-0.3663583173452756,0.26158358318093344,-0.5348205706677026,0.19148306494286627,0.536283636303747
3,6.029999999999999,-0.9290796475874689,0.3656112796026371,1.148275146805819,0.818942476977075,0.45618861013142586,-0.34813299249251656,0.5152091206082091,-0.3707787206928416,0.2348388907898175,-0.537225266730525,0.19318466735440362,0.5397245591805115
4,6.039999999999999,-1.0036453035371629,0.4826098403080413,1.1744591812217042,0.825664141067758,0.4499771422631509,-0.340241828291011,0.3603952848907945,-0.36319140355991575,0.1839161665601023,-0.5402385942193697,0.19498277966606123,0.5431067587510529
5,6.049999999999999,-0.9445697471762675,0.5791535525658822,1.1860662558609083,0.8327233902275828,0.4434865594204239,-0.3314392417753001,0.1971992754676773,-0.3399874999559241,0.12082122615507045,-0.5435234101075622,0.19712694377198614,0.5462243276387331
6,6.059999999999999,-0.7700574464185981,0.6545353931122703,1.2048501209718325,0.839991089276403,0.4363215970744481,-0.32248449654394284,0.07999669925137991,-0.31174507017861464,0.06658865820821998,-0.5466284005756746,0.1998778332574659,0.5490007884636586
7,6.0699999999999985,-0.5220698977708385,0.7261835143285805,1.2380105597291262,0.8474557063043755,0.4280943504338839,-0.31386079053424704,0.016348453443996006,-0.28247221288085056,0.035462899497217176,-0.5492312977016669,0.2034940441940513,0.5514068695226879
8,6.079999999999998,-0.24230556592784622,0.7940546110051079,1.2812263596177755,0.8551454429841631,0.4185580808904403,-0.30575418960675055,-0.002351693408775915,-0.24441208596017908,0.02298119910968223,-0.5511690748189345,0.2081567812795626,0.5534277232440893
9,6.089999999999998,0.027120843695372765,0.8285408434673155,1.3310327154169077,0.8629984888964426,0.40766502854670383,-0.29830970776836263,0.014409994859861535,-0.19737233049074906,0.020987047943266272,-0.5523611252940489,0.21385506318453104,0.5551166959311761
10,6.099999999999998,0.26246412417612114,0.8144728050941389,1.3739931386061213,0.8708712976505548,0.3954989571542387,-0.2917291207717668,0.05320610714610913,-0.15124003368671207,0.020467185208761365,-0.5527620850331966,0.2204067520009791,0.556611000848091
11,6.109999999999998,0.4537538922871527,0.7578131460638906,1.3889970629068287,0.8785340755502543,0.38235101504621016,-0.28622821882996025,0.10700865142725675,-0.11796428298483365,0.013638678560456806,-0.5523681534073558,0.2275157940979911,0.558024903578372
12,6.119999999999997,0.590236041667563,0.7054556596848579,1.3921295030617196,0.8858325287127735,0.36857871837868494,-0.28176547340893826,0.16229591101031193,-0.10122371124201629,0.006382308276019585,-0.5512848392493175,0.23492422272445063,0.5593966022520045
13,6.129999999999997,0.6477097269525498,0.6850815014864812,1.4005339344172725,0.892817946947939,0.3544132413590276,-0.27786332246599804,0.19561836852969636,-0.09658616364271506,0.01487332999800408,-0.5497721445723971,0.2424981814016372,0.5607284354451676
14,6.139999999999997,0.6152064590523478,0.6871552590555201,1.4105030224613238,0.8995970443405259,0.3400434556432384,-0.2739260646744465,0.19390606668993765,-0.10435937293174914,0.03370895125073975,-0.5481554047324791,0.2500983252328586,0.5620577789786315
15,6.149999999999997,0.5016091056516915,0.6940326985197037,1.4028967884330479,0.9061681704499386,0.3257899385455124,-0.2695575877327393,0.15936229129840004,-0.12569632048900775,0.050478832807625884,-0.546723712809884,0.25749195523771784,0.5634326056720559
16,6.159999999999997,0.3230526736107743,0.6957878036353027,1.370312040322985,0.9124554666629657,0.3120557520786382,-0.2645577578261018,0.10934258978668226,-0.15087653024172074,0.05095571289567779,-0.5457090533399864,0.2644096998482851,0.5648873772631184
17,6.169999999999996,0.09923652640989644,0.6898439741045026,1.3329517883718556,0.9184027250733529,0.2991156880977155,-0.2588729604922998,0.060561299583101906,-0.17177650445820675,0.03320817170851606,-0.5452642082405724,0.2706335203764864,0.5664828612509063
18,6.179999999999996,-0.129599954684312,0.6839702780922327,1.3075493667700526,0.924027599913924,0.2869918746748251,-0.25250915042338734,0.017336042263511545,-0.17734368342973966,0.015515855987822411,-0.5454499766591651,0.2760863967037159,0.5682848702364768
19,6.189999999999996,-0.32164291560421304,0.6805117555353405,1.2979964798858308,0.9293859836930375,0.2754903506334481,-0.2455617415871847,-0.022584171159628876,-0.15875417339155604,0.005845923583973145,-0.5461994387802259,0.28085667977085393,0.5703131374826308
20,6.199999999999996,-0.4491009926376343,0.6870277902215737,1.2972260067044061,0.9345380700823566,0.2643380162160302,-0.23815582541083166,-0.06226788879443239,-0.12412430009641652,0.0018330768603960878,-0.5473684680893607,0.28514143165215083,0.572519771371567
21,6.2099999999999955,-0.5036251058510415,0.7040144876853593,1.2945307685711087,0.9395220734893637,0.25331463657092984,-0.2303994424836929,-0.10088309587577574,-0.08645195978880733,-0.0005830498483195266,-0.5487909996427796,0.28917932826633347,0.5747856227945307
22,6.219999999999995,-0.4906372171378756,0.7188975031081214,1.2743049450479857,0.9443186276123208,0.2423379176820504,-0.22246084069008068,-0.13517253250365954,-0.052453619517290814,-0.004238647643243474,-0.5502949880187205,0.29315690105504355,0.5769719389528964
23,6.229999999999995,-0.4221100903286048,0.7267572283919425,1.2386849861217866,0.9488764721174355,0.23144252834705165,-0.21453009938743545,-0.16173795877646052,-0.020538678664021422,-0.010589224733615947,-0.551732468490464,0.29719036523762404,0.5789545249726443
24,6.239999999999995,-0.311602126480549,0.7227487178609338,1.1966811591506519,0.953156348944366,0.2206395316617728,-0.20680525668453587,-0.18104566830085297,0.01064028980792888,-0.023288763750785254,-0.5529662275628411,0.3013659518722463,0.5806626101027783
25,6.249999999999995,-0.18012942944978133,0.7172499967731547,1.1632871774447184,0.9571577353436241,0.2098741087706388,-0.19940127762343623,-0.1943133754421169,0.041808578662251614,-0.041709708669673155,-0.5539001950823389,0.30576023357674004,0.5820744105867246
26,6.2599999999999945,-0.049683034641943846,0.7309532471423796,1.1481100876549795,0.9609343869933047,0.19901927894894988,-0.19223825021995045,-0.20124290709628467,0.07232161456178332,-0.058050820615783115,-0.5545150595294178,0.31046527559028453,0.5831850249934017
27,6.269999999999994,0.06092455338176926,0.7610257269480026,1.1466392127068894,0.9645580406020343,0.18796574634859425,-0.1850800354384518,-0.20380488741931058,0.09480014124319802,-0.06385330359201594,-0.5548739059312658,0.3155453432705722,0.5839940214694195
28,6.279999999999994,0.13510363859730043,0.7987000024517849,1.14779495147977,0.9680618240739828,0.17670385220915674,-0.17773171477361321,-0.20255496345325033,0.1091628201073845,-0.06347001075540946,-0.5550737771071851,0.3209679545267566,0.5845328093898734
29,6.289999999999994,0.17762484762457967,0.8296992699782407,1.1381871944084445,0.9714333392677489,0.16533897552119278,-0.17010521965283917,-0.1962764358739438,0.11926191655181831,-0.0631640439026987,-0.5552103034341328,0.3266215314694289,0.584846085551898
30,6.299999999999994,0.20208034197329056,0.8467766040643849,1.1209459105933473,0.9746317529403531,0.15402842736449832,-0.16224643174129277,-0.1798494021206622,0.1292167608758024,-0.06864920911302416,-0.5553331535998622,0.332376956432117,0.5849742710340966
31,6.309999999999993,0.21590441275133218,0.8538856266136119,1.1111565408411683,0.9776354830726702,0.14280644294503686,-0.15424419274556436,-0.15147492394981713,0.1407107922551366,-0.08095050052410946,-0.5554426786751968,0.33816248425189116,0.5849717499654699
32,6.319999999999993,0.2075373196835579,0.8702125865306007,1.122761282296761,0.9804597784014278,0.13156128694266478,-0.14610160782127893,-0.11703773139818227,0.15254148687471122,-0.09406077406654688,-0.5555438588372594,0.3439661335178521,0.5849063138484287
33,6.329999999999993,0.1845909008062663,0.8951622072207315,1.145415906311738,0.9831375862343826,0.12014392743675009,-0.13769201059697742,-0.08304103353700946,0.1637769967761388,-0.0992602677615817,-0.5556829245539203,0.3498040199069108,0.5848271949143822
34,6.339999999999993,0.15280016958257583,0.9237859050151234,1.1606041843809793,0.9856692523413331,0.10854769436871511,-0.12893666743848572,-0.05811763332125174,0.17149780435051631,-0.1071144404221907,-0.5559036546189396,0.35566154861904586,0.5847409616723923
35,6.3499999999999925,0.127749561286817,0.9460455465063993,1.1534981910967783,0.9880240818737414,0.09693604842188316,-0.11984198659256735,-0.041065249926341085,0.17472566077697238,-0.12288106372061236,-0.5562347147928238,0.3614891469735751,0.5846080436040948
36,6.359999999999992,0.12115317385085948,0.9476922943450317,1.1267399066756152,0.9901574877442655,0.08550879507908506,-0.11057954057011257,-0.026350542587150173,0.18073446779281208,-0.141766591316098,-0.5566372623799017,0.3672300442607737,0.5843942998813051
37,6.369999999999992,0.1327514231307826,0.9160202014813689,1.0928197481388506,0.9920343363061775,0.07438237889184726,-0.10143593162493961,-0.006079704762222211,0.19751199106397468,-0.17172883505672987,-0.5570171447582992,0.37283647941501546,0.5841119829319722
38,6.379999999999992,0.1376594472336788,0.8643114569350314,1.0582076087916306,0.9936429326284809,0.06356938051515715,-0.09268373144938336,0.022676112954225617,0.21715734740152606,-0.20587135233758252,-0.5572897845510835,0.37825896156876754,0.583825900879826
39,6.389999999999992,0.12007743953753999,0.8110355038028833,1.0158962066347934,0.9949923950756652,0.05312183360601707,-0.08443807347669878,0.05225051158390194,0.22980191178493,-0.22929827252363486,-0.5574623101436457,0.3834201728356926,0.5835922073170015
40,6.3999999999999915,0.0878901697215606,0.7733595172064728,0.9596324545211915,0.9961080198296456,0.04318735951114276,-0.0766108039849212,0.07232259565566042,0.23559246875613182,-0.24294783426933528,-0.557629445023247,0.38825127689284733,0.5833966776848958
41,6.409999999999991,0.06472540606953166,0.7491776973288715,0.8861862436579417,0.9970213511263971,0.03392712667068365,-0.06904252640654777,0.07419222450103097,0.2429639254329571,-0.2531464096085529,-0.5578831475095469,0.39273511568669534,0.5831697870240495
42,6.419999999999991,0.07321688704843651,0.7079837916040845,0.8069851817419931,0.9977527056340049,0.025446349738837463,-0.06177052112480717,0.06476861615257308,0.2555793021856007,-0.26160384388870633,-0.5581982419669377,0.3968951793737636,0.5828555760899478
43,6.429999999999991,0.11073095512378449,0.6357221207335111,0.7341526823921718,0.998314958365856,0.017712745002573655,-0.05505892358764,0.06280683825756386,0.2750333763182304,-0.2756609374930982,-0.5584304278557602,0.4007777284930905,0.5824675499460944
44,6.439999999999991,0.15614044672107416,0.5459966635096589,0.659882880169792,0.9987249233815536,0.010687435488891053,-0.04916395741563036,0.07869841986820415,0.29152977119840223,-0.2924982131509711,-0.5584624754797921,0.40439451109313534,0.5820501810076302
45,6.44999999999999,0.1814607582700233,0.4578974301030678,0.5718405954551598,0.9990073279519949,0.004459919327573626,-0.04417855669290424,0.10163235780501052,0.29543394012305263,-0.2993518214595288,-0.5582986335008768,0.4076899570117097,0.5816261865869126
46,6.45999999999999,0.17276134212453803,0.3900303141221495,0.45927037095640466,0.9991961011189332,-0.0007772723260236654,-0.03997063657791024,0.11298374015581163,0.29206355701775233,-0.2991995102121007,-0.5580836553506294,0.4105553270149308,0.5811879038624437
47,6.46999999999999,0.12529937098413307,0.35364883636831634,0.32886960635789064,0.9993275697960619,-0.004790365680530489,-0.03627418914243837,0.10360848196279125,0.2918580897318515,-0.2937209677272457,-0.5580210921497638,0.41288539477395514,0.5806898980341687
48,6.47999999999999,0.04342197665091243,0.3530031267827415,0.1955170408023627,0.9994341084699585,-0.007444325582123689,-0.03275004465365076,0.07708627029795313,0.2934443172980975,-0.2871128692298926,-0.558317305311947,0.41461573235634414,0.5800870127096556
49,6.4899999999999896,-0.057836025350264955,0.36308250557410154,0.07386180171297645,0.9995348690246298,-0.008777199963213885,-0.029157096632130685,0.04765747413762568,0.29319938095924214,-0.2800020380479641,-0.5590992685885922,0.4157271651771599,0.5793820352245833
50,6.499999999999989,-0.13348026205188573,0.3447337329462237,-0.02749500327600657,0.9996306617551124,-0.00897429383972987,-0.025596043404868717,0.037319787015288215,0.2872203947048069,-0.2814436649046564,-0.5602968382567582,0.4162559538436814,0.5786369232972006
51,6.509999999999989,-0.14574514447246845,0.2913692076293344,-0.10172963169166879,0.9997134475972301,-0.008280824356331476,-0.02241019672577939,0.06728784849373637,0.28014059532564056,-0.29991517889236496,-0.561663657591749,0.4163272840922321,0.5779016693279038
52,6.519999999999989,-0.09276284304953744,0.20588767313659354,-0.1428491240247579,0.9997764323922307,-0.007005258675490209,-0.0199133447218065,0.14425912765822843,0.28251790238261393,-0.3276032662452464,-0.5629085394341774,0.41614539092570346,0.5771921584510805
53,6.529999999999989,0.01734262256538667,0.08730654625552291,-0.13533802507191706,0.9998145118198559,-0.005563390254598504,-0.018424840280498102,0.24818332643934196,0.3020904004059737,-0.3464355508819089,-0.5637221017180706,0.4159385465524087,0.5765547004354971
54,6.5399999999999885,0.15709067033906704,-0.07719693556604969,-0.07922320332709631,0.9998216769653776,-0.004488609188736004,-0.018346214794846404,0.3544535437815849,0.3346888501602616,-0.35367488909981526,-0.5637879910238975,0.4158966017832297,0.5761238979002189
55,6.549999999999988,0.28078038016866375,-0.2525788728461933,-0.03083079901351426,0.9997916123208992,-0.004014138482682831,-0.019993655840104235,0.44837465682619343,0.3692628944021036,-0.35692700231979585,-0.5629515712189925,0.4160389425609091,0.5760210723942387
56,6.559999999999988,0.35054884394896785,-0.38773359018067893,-0.05735503657003562,0.99972198029284,-0.0037032414931193673,-0.02322432987956369,0.4980108739997267,0.39557822703686696,-0.3532400634448669,-0.5614184875361071,0.4161687813423265,0.5761853045565173
57,6.569999999999988,0.33099529390225113,-0.4593347804059198,-0.15479698604342332,0.9996159012677287,-0.002768404234024557,-0.027488420707201203,0.46594129465774714,0.3967703140491485,-0.33309539924256093,-0.5596646733706194,0.4159693794514173,0.576447308806101
58,6.579999999999988,0.2603417048763618,-0.4891024889399589,-0.303333856082071,0.9994762855270348,-0.0005846379077733429,-0.03224905339566195,0.35192458315048236,0.3683311673837256,-0.2907791169625175,-0.5581282865389924,0.4151717843670039,0.5766768566236211
59,6.589999999999987,0.2137297109080521,-0.5127705953958899,-0.4822230300292366,0.9992948764585312,0.0032483290176590954,-0.03727275023745756,0.20765834716426296,0.3310330139517398,-0.24614201143093936,-0.5569888393082892,0.4136739903618027,0.576751193250376
60,6.599999999999987,0.2442407317711331,-0.5314037813414598,-0.6702931445714668,0.9990475505377943,0.008920882660020139,-0.04253671404665319,0.08590680790027885,0.29897870053163467,-0.21696507718113525,-0.5561805175487506,0.4115745503535463,0.5765045704047607
61,6.609999999999987,0.37203449975883207,-0.5396082287320166,-0.837790768799188,0.9987053047081099,0.016346878629881795,-0.0479567642909728,0.0003156499714608574,0.2772744539703762,-0.1976854844126152,-0.5555225481140509,0.40916362449398175,0.5757280853628425
62,6.619999999999987,0.5764936091713172,-0.560014084675671,-0.9570494299229799,0.9982361636865958,0.025112638962185095,-0.05355758065945918,-0.0504767479450344,0.2649353562371095,-0.18521627157692103,-0.5547408487031541,0.40679534357621183,0.574307942213265
63,6.629999999999987,0.8069613626932107,-0.6143127507728467,-1.0318898638725191,0.9976034369301493,0.03467587507917121,-0.059625611478400856,-0.063191356161047,0.2512783072561579,-0.1809217296067727,-0.5535381152925828,0.4046992180117216,0.5723036658707742
64,6.639999999999986,0.9929164439184353,-0.6946495772280111,-1.0819193801675309,0.9967666958351493,0.04466845953402895,-0.06653459575992225,-0.032625861193117014,0.23734109427202088,-0.17523429078020164,-0.5517544439557047,0.40286247925391355,0.5698931291473427
65,6.649999999999986,1.0906251873141564,-0.78667688714943,-1.1039672982635516,0.9956956356574662,0.05484201551531582,-0.0744607393587984,0.033046594913134456,0.22830429355059922,-0.15379814032131853,-0.5494298954705404,0.4011164162882404,0.567308931590493
66,6.659999999999986,1.0898353190263133,-0.8914796887949024,-1.0940174385175985,0.9943702853190893,0.06493753461138797,-0.08347969082749086,0.10933342015862355,0.22087216592711462,-0.1146531767947506,-0.5466918923135327,0.3992311022830131,0.5648422108527953
67,6.669999999999986,1.0007597702418627,-0.9951678323252964,-1.0673641834908643,0.9927747603735538,0.07476230431435363,-0.09361226799495596,0.1784365313500476,0.2047086874887048,-0.06965651150430899,-0.5436823000937998,0.39698874690874564,0.5627570219706667
68,6.6799999999999855,0.8466138236764684,-1.076012678583454,-1.0535955046315137,0.9908966367722982,0.08437188757128929,-0.10467108235556524,0.22405521593279706,0.1721280801956793,-0.02387006772217215,-0.5406172183726227,0.3941997486805224,0.5611798370233614
69,6.689999999999985,0.6550085592779892,-1.1140758801941957,-1.0765937134393024,0.9887263112950576,0.09409273293360589,-0.11625170356312695,0.2297190876183267,0.12584865224777064,0.02022643561932124,-0.5377743249149436,0.3907278164706386,0.560062018886147
70,6.699999999999985,0.4554425094060277,-1.1109358904702855,-1.1342172181713548,0.9862549337445244,0.10436183963719246,-0.12788429524264228,0.1906131682659056,0.0793412509305412,0.057144171459215715,-0.535405891361464,0.38651381312067107,0.559236664990209
71,6.709999999999985,0.2774813613317602,-1.092800710432167,-1.2108536597362989,0.9834687578915685,0.11548599301591789,-0.1392605005988785,0.1241438061462816,0.049363430557454596,0.08181386744208055,-0.5336327092401312,0.3815749249228713,0.5585394205672858
72,6.719999999999985,0.13708285981593807,-1.0818817785084613,-1.295805472800787,0.9803424201515022,0.12756855219065089,-0.15030771821505634,0.05441770238141378,0.036029910950533296,0.09288250516568956,-0.5324256173210583,0.3759806291343072,0.5578620667099563
73,6.729999999999984,0.04450622829997888,-1.0816997048514314,-1.384496909964339,0.9768303824466089,0.14061467052209867,-0.16112763667268254,0.0033108899459646894,0.03018210282101298,0.09652325019609724,-0.5316588567563492,0.36981897979511674,0.5571240257483879
74,6.739999999999984,0.0024373904518028913,-1.0906449010817467,-1.473976128702012,0.9728769442749196,0.15458733223884466,-0.17186918582934807,-0.028181585794122367,0.026272956854475053,0.09487064803734593,-0.5311775572004406,0.36318815816033473,0.5562474110103317
75,6.749999999999984,0.009308713813959448,-1.0998367446005646,-1.5595484048340738,0.9684413210508713,0.1693819609812036,-0.18262266447028094,-0.05167467380373328,0.024075511868983754,0.09289098358142261,-0.5308343089902577,0.35621982819027737,0.5551483119995165
76,6.759999999999984,0.06093957539128485,-1.10486573518824,-1.6299499583199044,0.9635052554080941,0.1847959454272081,-0.19344981567443714,-0.0689909630313836,0.0265707210562054,0.09346833647543105,-0.530480771776652,0.34907567189929417,0.5537594859942995
77,6.769999999999984,0.12610092209114904,-1.101079231157761,-1.6784840258539357,0.9580886313803341,0.20056583956194304,-0.204331006777986,-0.0849997418934076,0.030213496069183787,0.09842090693746429,-0.5300160091805152,0.34191547496110986,0.5520474270670799
78,6.779999999999983,0.17301811590821875,-1.092352443835561,-1.7076921166771823,0.9522336411718397,0.21645677449547351,-0.21519317539298707,-0.10038060835275783,0.02220172496588408,0.11644630840758137,-0.5294278724375773,0.33481096916202174,0.5500559381737693
79,6.789999999999983,0.20262330496379008,-1.0815556918374722,-1.7335152407652212,0.945960294198676,0.23237971564432025,-0.22598292481753018,-0.11095384686033243,0.002225240214537053,0.14192603835316855,-0.5287558269242052,0.32774182943885816,0.5478456153539324
80,6.799999999999983,0.23107441971190704,-1.068424626339343,-1.7537048869049345,0.9392718075425356,0.24832762113370008,-0.2366651321749029,-0.11891911517991467,-0.02058765379920382,0.1670209597044465,-0.5280277119786958,0.32069160505849276,0.5454290803716272
81,6.809999999999983,0.2663824119845617,-1.0507953518142594,-1.7635596755252017,0.9321891329341292,0.2642108898301697,-0.24723417658191868,-0.12458100738490807,-0.04009542242462551,0.1896685885612784,-0.5272251239252314,0.3136968586587811,0.5428127014762064
82,6.8199999999999825,0.29515863069213033,-1.0302571606338957,-1.7512514267442696,0.9247714972974668,0.2798382382209591,-0.2576798453225039,-0.1237155395443446,-0.05418435539015305,0.20369853225101678,-0.526318894717103,0.3068191916241536,0.5400411759706607
83,6.829999999999982,0.2831913385177638,-1.0151545591397904,-1.719628884669435,0.9170889940711897,0.2950715514514226,-0.2679443817121955,-0.11889883117253848,-0.06250211635494549,0.21196488114329085,-0.5253449838772587,0.30005038928045225,0.5372126000426201
84,6.839999999999982,0.20785298468443464,-1.0103348446714329,-1.6742746852632455,0.9091856120090188,0.3098960865497185,-0.27796149607635035,-0.10818221839115379,-0.07306827615828933,0.21540086981938839,-0.5244061183110986,0.29326966234194324,0.534482786702228
85,6.849999999999982,0.06579109295293964,-1.0095687509965678,-1.614475350038924,0.901104858646098,0.3243971933281764,-0.28757001241473346,-0.08700075213285885,-0.09687943463863852,0.2165800298821877,-0.5236696648315267,0.28631115395802453,0.5320120078388744
86,6.859999999999982,-0.13148827332961166,-0.9971594112034949,-1.5366253696153083,0.8929424284084075,0.33863979195816984,-0.2964820611793443,-0.061020884977199055,-0.13924646550897485,0.23000517654970767,-0.5233227995799162,0.27907048536277235,0.5299258040440044
87,6.8699999999999815,-0.350990771227778,-0.9677893903386803,-1.4404072635240608,0.8848442676113784,0.35260427301580316,-0.30438752486916565,-0.037066871656265224,-0.1864786718444158,0.2511265522378716,-0.5235043839094418,0.2715448402071931,0.5283001154242524
88,6.879999999999981,-0.5337287711020366,-0.9288813852917668,-1.3402637144310041,0.876929036259305,0.36622945741522284,-0.31114106914346595,-0.017847720858545316,-0.21704865953716934,0.2716190946511885,-0.5242266796928368,0.26382261547933195,0.5271182366208035
89,6.889999999999981,-0.6401400084325333,-0.8849074681677452,-1.2395780378145504,0.8692736923163492,0.37936035590636175,-0.3168488397580349,-0.0035088489566527624,-0.22397745432997887,0.28957644660886905,-0.5253412371419756,0.2560834115068013,0.5262913319626871
90,6.899999999999981,-0.6631881955993942,-0.8398883495360883,-1.1383331250840134,0.861935394737369,0.3917568991591313,-0.32178461435387046,0.0048130785612271205,-0.21521090802370582,0.29669927882883473,-0.5266056793974709,0.2485591475943852,0.5257069441756002
91,6.909999999999981,-0.6159005807573014,-0.7951744345119244,-1.0388065310985977,0.8549573418262117,0.40319493326813594,-0.3262520173961229,0.009280226332254685,-0.20185089951640428,0.29499211461036656,-0.5277897424398593,0.24145617500130326,0.5252686351732854
92,6.91999999999998,-0.5273734961897174,-0.7526977936437307,-0.9375836419647873,0.8483799264058841,0.41349277463662926,-0.3305157813574923,0.016031991480717035,-0.1891017099845169,0.2903247415612037,-0.5287169757106225,0.23492874790110643,0.5249172856517829
93,6.92999999999998,-0.43811333197247393,-0.7065665827911122,-0.8281856415317762,0.8422641678349329,0.42255559421580635,-0.3346786944282511,0.026141813092900257,-0.1780188592133912,0.2877935655102155,-0.5293298558815264,0.2290489936458991,0.5246480496148502
94,6.93999999999998,-0.37310026305624217,-0.6527761423748449,-0.7178197624350523,0.8366825946467912,0.4303976236283482,-0.33867113476607225,0.03854206080708345,-0.17557625759391585,0.2894404997250645,-0.5296855834882217,0.2238124930451361,0.5244866109795125
95,6.94999999999998,-0.34852739594589843,-0.5885587902738304,-0.6118013238359459,0.8316874058000584,0.4371586040874523,-0.34230359687575335,0.05348443304468102,-0.18218211909267215,0.2960054676989435,-0.5299170091450826,0.21916151124714184,0.5244411209015402
96,6.9599999999999795,-0.36161251186236665,-0.5160192311230811,-0.5129831646321628,0.8273219527281261,0.44302621084127985,-0.34533163083963714,0.07226039767610454,-0.19425655384444238,0.30339910128392755,-0.5301892090395824,0.21501177211955277,0.5245190321672414
97,6.969999999999979,-0.3962615398015947,-0.4388932142819917,-0.4279286910554589,0.8235745699672659,0.44821742929579955,-0.34758754384603124,0.09356876131724315,-0.2092292028073611,0.31085976964313033,-0.5306319693087025,0.21126522034676218,0.5247078288195202
98,6.979999999999979,-0.43977144053901424,-0.35597893656835977,-0.35753098808190653,0.8204176769544338,0.4529047724508243,-0.3489779331626634,0.11860103247364223,-0.2253904465405417,0.31219899518900535,-0.5313193282904868,0.20786604214416124,0.5249639109577835
99,6.989999999999979,-0.4863759029636005,-0.2808946904395411,-0.28899483899992673,0.8178313884576337,0.45717806829432356,-0.34947840927645707,0.14712081697326065,-0.24236506986635362,0.3067753057003545,-0.5322799703950833,0.20478434840124402,0.5252623982611495
100,6.999999999999979,-0.5185998875511264,-0.21903060100973176,-0.21198066838613133,0.8158099072449064,0.4609915841100135,-0.3491951532473637,0.17674527876013607,-0.254658431414334,0.30317992891035633,-0.5334719290527468,0.20201040035525014,0.5256386620720984
101,7.0099999999999785,-0.5224252652334459,-0.1588346040832173,-0.12932531480904658,0.8143577590673557,0.46420640738165303,-0.34832645352158365,0.1979962142169637,-0.2610897413170239,0.3004588282334533,-0.5347918081027174,0.1995818814433179,0.526131068958092
102,7.019999999999978,-0.4873782333840122,-0.07203162216308065,-0.051954782674501765,0.8135257271196791,0.466700922133472,-0.34693569074601593,0.19831586332484238,-0.2700111643745798,0.2970032893293778,-0.5361650771022215,0.19763110403103404,0.5266709037378859
103,7.029999999999978,-0.40861320443228644,0.06706153960193754,0.011781447279870766,0.8134105721007193,0.46841080111043054,-0.3448955876144031,0.16634824103098544,-0.2847278059208247,0.28576446270664735,-0.5375779258545703,0.1963708573926545,0.5270755776727765
104,7.039999999999978,-0.2993608894341652,0.24977923987879827,0.08027375124227507,0.8141645496842638,0.46925566870028146,-0.3419539831401981,0.11538869934973572,-0.29137938985709255,0.255532102252844,-0.5390603121570308,0.19605225278496086,0.527144832602942
105,7.049999999999978,-0.19052840115125744,0.40852666713248686,0.17293264823501367,0.8158763581427719,0.4690754341869601,-0.3380964250846135,0.08409225433367107,-0.28675030299836246,0.21552110126199095,-0.5405812416271564,0.1967814487729581,0.5268792438146986
106,7.059999999999977,-0.11039965509696656,0.5192975518110501,0.31727609980081617,0.818572246040367,0.46760782204579,-0.33357876194138086,0.12393427695928963,-0.27885212192233977,0.17976753315148938,-0.5420394805830804,0.19850055702855499,0.5265141764882624
107,7.069999999999977,-0.0765006684839823,0.5435380229308444,0.518962435366336,0.8222840675205956,0.4644976471251503,-0.32875386217090075,0.25098021757009237,-0.2723667462195434,0.16574992929741106,-0.5433169144245704,0.2010664941651168,0.5264375971913284
108,7.079999999999977,-0.13628560588081895,0.46950445768010746,0.7648737559887471,0.8269140944168526,0.45954421146015767,-0.3240609590849464,0.4198668174574729,-0.27256560781432343,0.18413976719828043,-0.5443301545016632,0.20413668372855545,0.5271308559554103
109,7.089999999999977,-0.2897229169620387,0.34962314406980416,1.013194977657384,0.832291083805983,0.45283440796998287,-0.3197033434242655,0.579411696288014,-0.2851165716687642,0.23261550983933502,-0.5451443441415552,0.20727690985526614,0.5289757907342142
110,7.0999999999999766,-0.4807318753093829,0.28784524074039114,1.2062922787775336,0.8382834899725773,0.4447383564129498,-0.3153732690598584,0.6773053106631335,-0.3077002020865459,0.2805955206803677,-0.5459886094847023,0.2102564615555875,0.5319505325530811
111,7.109999999999976,-0.6516899492809964,0.3481394532102536,1.3050069294007116,0.8448159432756839,0.4358836881550627,-0.31025336671009,0.65048535373619,-0.3330525443551805,0.28322421624418614,-0.5472134152999952,0.21313979719800147,0.5355498213418242
112,7.119999999999976,-0.7486550421822153,0.4810414612115096,1.3015006913613647,0.8517203332521586,0.42695809343224445,-0.3037110508064731,0.4847312776309716,-0.3478776590520195,0.23344350415424486,-0.5490489561425668,0.21607145555797688,0.5391241922439446
113,7.129999999999976,-0.7440376197045089,0.5986256698265131,1.2407359225016064,0.8587244745896108,0.41833400017503697,-0.2958846026938952,0.26552288318123296,-0.3374108478469629,0.15436307061284124,-0.5513837305320197,0.21915786453161354,0.5422546825911785
114,7.139999999999976,-0.6371463557142591,0.6654307171244594,1.1741587495940429,0.865580729304306,0.4099567735400849,-0.28751453379201664,0.09075802009315821,-0.3060487472377687,0.0750690371576358,-0.5538393865110487,0.2224877371062788,0.5448360426791901
115,7.1499999999999755,-0.48096238192862917,0.7022324090229541,1.1309137427664473,0.8721910460565134,0.4015543198449499,-0.2792804164469983,-0.010074288002060623,-0.2669416620407165,0.014374896984513628,-0.5560645181997973,0.2261590327015784,0.5469338385882438
116,7.159999999999975,-0.3254987200907886,0.7356114738900905,1.127600431244284,0.8786437036539695,0.3928043727061227,-0.27138632600997714,-0.046372906881805204,-0.23109218043449858,-0.017679646837127964,-0.5579174609233386,0.23028303916939732,0.5486617790489957
117,7.169999999999975,-0.1977734456075687,0.7529533390130633,1.15690131961977,0.8850660783542017,0.383448478221888,-0.2637880230856833,-0.0345851572409602,-0.20033847702297589,-0.021533049363074874,-0.5593932134436291,0.23490383637155518,0.550162183260183
118,7.179999999999975,-0.09537628683808806,0.7289256083476442,1.2057085747793956,0.8914666064177101,0.37333969343097406,-0.2566355774907606,0.010556273682680025,-0.17599545206129605,-0.012205076041734441,-0.5604542959595183,0.23993168940605858,0.5516284429693111
119,7.189999999999975,-0.01238860495032322,0.6683134357813445,1.2538222430203676,0.8977997137197402,0.3624071144710952,-0.25014611641314066,0.07509278757140429,-0.16262363079048273,-0.00023174902510479135,-0.3330838937339946,0.4653623670779503,0.17532904989066117
120,7.199999999999974,0.05595859117253456,0.604570834097604,1.2868217222885103,0.903919625426659,0.35086991488521707,-0.24449121046220768,0.1392253592322422,-0.1569151855949439,0.006553148457572171,-0.22451308216888513,0.5721379909669132,0.0029061179031832436
121,7.209999999999974,0.1049554699115044,0.564632923146733,1.3019617737816522,0.909799846131742,0.33892188752738345,-0.2394838694934786,0.1800854849284803,-0.1502394646293586,0.008062497066964753,-0.22048558557534867,0.5758798453925724,0.007126097561836332
122,7.219999999999974,0.12317236246195912,0.5553575972373037,1.305002953314812,0.9154680900605369,0.326735022096754,-0.23477400547724614,0.1893953318084456,-0.13896437185448543,0.0068394041459910624,-0.2162838490930739,0.5795063622492764,0.011311855988839669
123,7.229999999999974,0.11228019126713634,0.5620346273044079,1.3004574673638014,0.9209443804580218,0.31448546918135933,-0.23003634717298496,0.16774621796257558,-0.12880878885771818,0.006056852039793863,-0.21206292226858753,0.5830990881425043,0.015484144628119628
124,7.239999999999974,0.09969632870398563,0.5864884920453094,1.295474127774744,0.9262544902457823,0.30225061664030095,-0.22506310221961381,0.12270077112109687,-0.1230403957032679,0.0018284476239261247,-0.20790116864042,0.5867188579915047,0.019657825376286887
125,7.249999999999973,0.10284763089280434,0.6232568564003175,1.3033569070705495,0.9314426823581521,0.2899650642576811,-0.21974960176033861,0.06851756734571313,-0.11839798733044649,-0.007047038236068116,-0.20375693842836878,0.5904249260675224,0.02382024198864482
126,7.259999999999973,0.13345260231813835,0.671883192597521,1.3246124695223138,0.9365713048441022,0.2774511544052187,-0.21402717823658382,0.0118710758137177,-0.1075974285370073,-0.016719879310208505,-0.19950296414288735,0.5942875430232886,0.02794460556399062
127,7.269999999999973,0.20544551407833478,0.736892702487496,1.3418837470813707,0.9416694609805859,0.26458373011867864,-0.20785435434147995,-0.04521525328958734,-0.08411884302483638,-0.028761813343175825,-0.19499022777013883,0.5983672357259358,0.03193770339982841
128,7.279999999999973,0.3331217877158994,0.7971436275870495,1.3456949808714245,0.9467100946872705,0.2513428676147231,-0.2012791808479029,-0.10010875037320327,-0.049122338740083524,-0.042972752120186405,-0.19005186966239046,0.6026864541757075,0.0356133240073895
129,7.2899999999999725,0.5230966339556776,0.8418149928864962,1.334720652729144,0.9516172755339573,0.23777159252712116,-0.19450983874496572,-0.14672420064503225,-0.009832232334909652,-0.06114369398682448,-0.18450529097288104,0.6071995239990658,0.03874256133018378
130,7.299999999999972,0.7400470231694597,0.8728363333229489,1.3210017219142887,0.9563244343944947,0.22389706345614854,-0.18776950662781175,-0.17740232131986008,0.02585336680656199,-0.0805105886084223,-0.17820099267934583,0.6118379844599297,0.04116267038631604
131,7.309999999999972,0.9604448204135404,0.8928666113817054,1.3110883569777023,0.9608080060779306,0.20970657482508234,-0.1811450568755423,-0.1904829610405872,0.05849935677029326,-0.09125096138196337,-0.1710689719205794,0.6165600296592043,0.0428321081499892
132,7.319999999999972,1.165745045430599,0.9059698030707014,1.3079796841054054,0.9650603416245055,0.19520064994738792,-0.17463254644648177,-0.1910941137060799,0.0873917285454496,-0.09387633856683644,-0.1631290863837187,0.6213318693365486,0.04380065878765854
133,7.329999999999972,1.3494535081271453,0.9228127726345856,1.2986472814571863,0.969078473610136,0.18043094602174878,-0.16814233265853387,-0.1855533443562714,0.10742238297261655,-0.09197796236694418,-0.154453759330198,0.6261396516648454,0.04413073361966149
134,7.339999999999971,1.5161956080563517,0.9565584921360675,1.2732356713467299,0.9728530560888259,0.16557157520779908,-0.1615019294226376,-0.18319502885464675,0.11860355136025609,-0.08807484071987873,-0.1451548190457439,0.6309949992178904,0.04382625675665117
135,7.349999999999971,1.6659275895432302,0.9988110766073687,1.2357943739826434,0.976383371343534,0.15082135269016222,-0.1544935454311426,-0.18589419223000428,0.1276241927218106,-0.08491358318698987,-0.1353421483774331,0.6359316801270651,0.04286641209109263
136,7.359999999999971,1.7831145734194338,1.0256032645439837,1.1963636777355302,0.9796613267779153,0.13631766097154444,-0.1470434222225438,-0.18821976040242572,0.13858595527563192,-0.08566062467610305,-0.12513283096103286,0.6409304001643764,0.04130216106362119
137,7.369999999999971,1.8523117843304275,1.00169233799366,1.1508854549713599,0.982637071090175,0.12219007790869953,-0.1394185149363055,-0.18313246737774266,0.1509440833337355,-0.09370745652979634,-0.11468290527929752,0.6458403707810075,0.03926192600718708
138,7.379999999999971,1.8322675751183712,0.9295211120211627,1.1006690509753267,0.9852513379032111,0.10860445311992634,-0.13203608565934902,-0.16241409266949058,0.15443684796238258,-0.11848640276272396,-0.10425770609472898,0.6504496755269142,0.036970816627832644
139,7.38999999999997,1.6682557039077421,0.8649969711539365,1.0567621210763352,0.9875042608334047,0.095709378690842,-0.12501712522292194,-0.12653546007904304,0.13858504247910808,-0.15054611372510215,-0.09430088509334604,0.6546562136727767,0.0348297307360208
140,7.39999999999997,1.34616120241136,0.8570518648431018,1.0237039240437216,0.9894770531292635,0.08359546254681509,-0.1179191023792009,-0.09113654596981803,0.10742469707648103,-0.156340380122062,-0.08536343866802218,0.6585852984607405,0.03335141803534204
141,7.40999999999997,0.9022097306880354,0.9140325112797058,0.991515678945755,0.9912680364036919,0.07231913799073453,-0.11007563928851362,-0.07421787995500446,0.06869465972873154,-0.13381039439936387,-0.0779651163057229,0.6624728165577031,0.03301560685664689
142,7.41999999999997,0.4172589865978129,0.997010950397859,0.9483078279923839,0.9929281463074525,0.06198266023651079,-0.1010472505095656,-0.08111241911057339,0.030781754653186204,-0.10050561792079768,-0.07245206176012986,0.6664970756090592,0.034075709163343786
143,7.4299999999999695,0.0037756598678760356,1.0417467494042267,0.8950185737337721,0.9944384997623766,0.05262756425155504,-0.09100297842382007,-0.09262494154766897,0.005684137669687533,-0.07266054656107551,-0.06880893619756756,0.6706400531480624,0.03645018953106502
144,7.439999999999969,-0.24765526853461386,1.0133920179637992,0.8348359897291068,0.9957450652136433,0.044127798052123426,-0.08066359909247628,-0.08306321981255745,0.011585910714751938,-0.06730221358279069,-0.06658814239125725,0.6747073680106043,0.03973548572050533
145,7.449999999999969,-0.3032741726274564,0.9338327918092201,0.7761531848973868,0.9968117780409457,0.0363080474536795,-0.07081897952208571,-0.04825969696087162,0.05459937259725246,-0.09242050705630206,-0.06511162827139345,0.6784892931170168,0.04333670491327616
146,7.459999999999969,-0.20681315096009367,0.8313362160872616,0.7187248066491168,0.9976453607860112,0.02902632124574515,-0.06192194924627449,-0.010960581955773818,0.11203783477247095,-0.1426115274141207,-0.06372066678664227,0.6818914580925587,0.04666641718592507
147,7.469999999999969,-0.05327303674431451,0.73920308046243,0.6615668851698443,0.9982796003487111,0.022220043485301447,-0.05405772887461968,0.0066740818541174635,0.1604139471629359,-0.21301236508226667,-0.06202131073733131,0.6849247771547285,0.04936400124367802
148,7.4799999999999685,0.0637335636835632,0.694188673978163,0.6098447592290398,0.9987625616106591,0.015881192887762442,-0.04693050756186774,0.011839731225199414,0.1880589066998065,-0.27485072144855244,-0.059987547546835156,0.6877017475729398,0.05140490496136355
149,7.489999999999968,0.10912953690242218,0.6883699886048644,0.5695717349724219,0.9991396817993923,0.009967677638102322,-0.040040985503060365,0.0080214995660492,0.20080937613474198,-0.2926237318443272,-0.057815341320678205,0.6903870892540191,0.05300747294764123
150,7.499999999999968,0.10525950039159314,0.6856953925611117,0.5314692958094795,0.9994321630585288,0.0044271540651195105,-0.03315500589649196,-0.00033565718266243775,0.20692581130805607,-0.27578808993490356,-0.055706790942607456,0.6930489308472624,0.054411908135631216
151,7.509999999999968,0.09684219255879184,0.6533164899869729,0.4826186269124633,0.9996430193581457,-0.0006859905808372438,-0.026432347840000144,0.0004747735875143687,0.2114804847343001,-0.25863408644435737,-0.053766355931674586,0.6956226494969326,0.05569741243387618
152,7.519999999999968,0.10618267211898214,0.5911212588315861,0.4159154842416011,0.9997765918398099,-0.005213526899772522,-0.02019402669868901,0.019751050975955083,0.21830184175282435,-0.2570281972443983,-0.052011160089818965,0.6979943259662861,0.05678606408836876
153,7.529999999999967,0.1305181073299499,0.5083261673628642,0.33344048150777167,0.9998476820322474,-0.008977444269843251,-0.014678429904894446,0.046003277020188485,0.22920452602338073,-0.2714841443453733,-0.050436741675304306,0.700082549147289,0.057559626468891414
154,7.539999999999967,0.14679077334087312,0.4082208717597057,0.24574528316402164,0.9998758323917266,-0.011879098421192743,-0.010084120984396297,0.06832393884000074,0.2372037579867758,-0.29750450780474125,-0.04905831507409267,0.7018192709392471,0.05797445381559151
155,7.549999999999967,0.09658971650362184,0.30968021003982793,0.1693225638992942,0.9998799189161144,-0.013956662360490823,-0.006495175587115275,0.07911185885744952,0.23556174650907874,-0.33260350928697874,-0.047986964076090585,0.7031707771559379,0.058173339527327596
156,7.559999999999967,-0.051737561563560366,0.2657271438780251,0.10056151002504117,0.9998752660955678,-0.015302278327500229,-0.0036630606807117323,0.08457152008528379,0.22038313876496077,-0.3555676281793652,-0.047495220424143204,0.7042105240561399,0.0584795545657903
157,7.5699999999999665,-0.27133290264515514,0.2947075880583245,0.039305968068268464,0.999870643951431,-0.01599605155207961,-0.0009157615936142189,0.08491683155891847,0.1942871050283398,-0.3438693597732779,-0.047893183215850094,0.705158184877486,0.05922052541494145
158,7.579999999999966,-0.4913001318089578,0.34768295949961453,-0.006975519981593292,0.9998655800653353,-0.016159599985650593,0.0022343706061641487,0.08598940401751125,0.16341149593572757,-0.30950825489083306,-0.0492867653139179,0.7061778406129212,0.060555309752526494
159,7.589999999999966,-0.624702001832269,0.36262356850092686,-0.034134349688939414,0.9998544808919221,-0.0159724445495389,0.005736229866520001,0.118874376229707,0.14454428507677186,-0.27674464261894804,-0.05146099805207756,0.7072612017921851,0.06239072691916527
160,7.599999999999966,-0.5989883025594793,0.2895881871067215,-0.032009135808523895,0.9998359099046504,-0.015668342128266587,0.008970606024912373,0.2142796129455829,0.1543157761081753,-0.2646449037869257,-0.05387134935936401,0.708224366629642,0.0643802965554301
161,7.609999999999966,-0.38587828407138286,0.09791007381710531,0.008962424334885564,0.9998190974753731,-0.015575615034057784,0.01089071187767508,0.3589791944985588,0.19760309735996653,-0.2778963685052455,-0.055744453342344714,0.7087575873796167,0.0660538677911435
162,7.6199999999999655,-0.041998865715356215,-0.1719838569868667,0.08206660040894213,0.9998156447241421,-0.01605092575497983,0.010510382724731477,0.5192884092903706,0.26265732894470806,-0.305283642174248,-0.056340427893009686,0.7085766754672214,0.06699927394045334
163,7.629999999999965,0.32190744743515964,-0.43981700300891013,0.1281202772223009,0.9998235089978869,-0.01714153953192676,0.007431656335887667,0.648850492000936,0.3306786705910856,-0.3423229779620586,-0.05534549704246506,0.7075675792419899,0.06696621124457698
164,7.639999999999965,0.570339648710562,-0.611119299900235,0.07849020135865631,0.999827818640166,-0.01821991896884098,0.002174068281249118,0.6849328323073224,0.38074691087878326,-0.3831362911539737,-0.05317896593533951,0.7058732023328174,0.06588536728010473
165,7.649999999999965,0.6422502537503849,-0.6845000095286145,-0.06160069315031118,0.9998177736342705,-0.01835541550747953,-0.004244528601481081,0.5867016620561339,0.389767756253947,-0.396907003977899,-0.05075273571322545,0.7037752697049736,0.06392991563555529
166,7.659999999999965,0.5892645829834113,-0.7115225720635459,-0.25003731871922696,0.9997900064899014,-0.01687146232585542,-0.011138967437126336,0.38944491100514506,0.3543811222451346,-0.36437451257490244,-0.04887875230688565,0.7014553502101255,0.061383832570307495
167,7.669999999999964,0.5174302367377818,-0.7191628358806187,-0.46744249346618105,0.9997371336042633,-0.01338446747606049,-0.0182211763501846,0.18551817549230687,0.29889557384530563,-0.31642691233536346,-0.04795618479260379,0.6989908443813275,0.05835999030083048
168,7.679999999999964,0.5174084909086184,-0.7176905344022961,-0.7129804541067497,0.9996390310924039,-0.0076066640870263505,-0.02537392610443351,0.030761009931022085,0.244088206528186,-0.27861439746837297,-0.04799024114776526,0.6964255298635919,0.05465476381154033
169,7.689999999999964,0.6261795520340708,-0.7179117975894492,-0.9521626279846722,0.9994555347467317,0.0005820008002069112,-0.03255876489849728,-0.07442741355297491,0.202643288129793,-0.2611480897751991,-0.04868312541767308,0.693793135993359,0.049873765198291425
170,7.699999999999964,0.8031018892770555,-0.7362756525834452,-1.128157185358529,0.9991282588130421,0.010774053850354577,-0.0398771555967001,-0.13053408599744992,0.18067818962456697,-0.25925017570346637,-0.049574290532917245,0.6910875835672934,0.04382909820216709
171,7.7099999999999635,0.9876548976462098,-0.8060298080924501,-1.2144608512987338,0.9985939241009895,0.02214435671134763,-0.04771704290406354,-0.12894549994393248,0.17385147580367508,-0.2498248750797467,-0.050245639114248716,0.6881968584546483,0.03668005608945655
172,7.719999999999963,1.1195421825218241,-0.9416099400798197,-1.2357946811028129,0.9977914423248231,0.03385978207367665,-0.056718653922010656,-0.06756373194730246,0.17485686226774474,-0.22139913619118726,-0.05048515775676999,0.6849010086458703,0.028809528090493426
173,7.729999999999963,1.1442032029752884,-1.1258724386976613,-1.2174293885230676,0.9966585528502484,0.045407737625151656,-0.06748236737910522,0.03326506566444072,0.17275779058266758,-0.18641820448395469,-0.05040484785697925,0.6809658480465912,0.02070288918180203
174,7.739999999999963,1.032680873975628,-1.3094868777880584,-1.177287392679893,0.9951409641093497,0.05654666737862209,-0.0802028060726626,0.13661614995075694,0.15648396536852305,-0.14863312351108246,-0.050357138355432415,0.6762821907892907,0.012894925182947053
175,7.749999999999963,0.7873805457328197,-1.444657021596327,-1.1249502975336378,0.9932162471728422,0.06721161070722839,-0.09451461943418718,0.2140831538728415,0.12166219585704856,-0.09237899658612359,-0.05079308449179124,0.6709367688281213,0.005902774975726489
176,7.7599999999999625,0.4329281702429455,-1.5294084603784512,-1.0780131426632469,0.990890042569826,0.0775283617549703,-0.10977919586160732,0.2482324492719323,0.07467576414430858,-0.023501181921790133,-0.052166721396276594,0.6651172012349544,0.00013528180630409566
177,7.769999999999962,0.022848691342025496,-1.563282732051664,-1.06223601401312,0.9881710594911964,0.08786797527423887,-0.12538093778520945,0.23307451855464784,0.02454966156227662,0.03979304490912632,-0.05486978516164816,0.6590057594096618,-0.0042144004398929555
178,7.779999999999962,-0.3595378542487635,-1.5471024917324865,-1.0920275039122258,0.9850803460615823,0.0987330729851928,-0.14068211271761125,0.17727768008269917,-0.016926916424854208,0.08943855956629802,-0.05908976862204706,0.6528050664334022,-0.007264437922043725
179,7.789999999999962,-0.6656320007200341,-1.5029243669430068,-1.1616981962434492,0.9816338550836197,0.11059490846875913,-0.15519674279467732,0.10070699911814864,-0.04225471222861819,0.11990469176211548,-0.06477749182675169,0.6466758222594123,-0.00938176217910142
180,7.799999999999962,-0.8656218013700663,-1.4561792672911973,-1.244831262716135,0.9778190530521099,0.12365299011010979,-0.16881954207321798,0.027173129044912224,-0.05440618716492622,0.12557085535710874,-0.07166949173908316,0.6406519776566039,-0.010986641894962828
181,7.809999999999961,-0.9614991700139993,-1.4370772709682513,-1.3281440977574692,0.9735939900260018,0.1378302605074961,-0.18175251519836336,-0.027029963407372296,-0.052286410382979306,0.1192403484714567,-0.07938141640683069,0.6346663436899703,-0.012445821585865442
182,7.819999999999961,-0.977485178572264,-1.4467678188866528,-1.4072181692644643,0.9688818725918937,0.152957297044065,-0.19437807395786327,-0.05671582871774847,-0.036665784760652284,0.10797531702189116,-0.08754688938416523,0.6285889003086531,-0.014048351609753412
183,7.829999999999961,-0.9482557418053619,-1.4622761268658926,-1.4827854429174183,0.9636154752805209,0.16887080534923954,-0.20696028165237093,-0.06716602271403738,-0.018025672346183075,0.08317429436354638,-0.09591357927667536,0.6223318544526577,-0.015968120014938733
184,7.839999999999961,-0.9042282372333588,-1.4586120372708966,-1.5452921568256566,0.9577871000892728,0.18542274849455326,-0.21945820036851915,-0.0723596401443294,-0.008166546559628968,0.061235935570033484,-0.10434241622872574,0.615921741245115,-0.018272336552381724
185,7.849999999999961,-0.861739804685155,-1.4212044508026695,-1.5835628457652213,0.9514757633436514,0.20238628676997622,-0.2315864640244195,-0.0783479261478398,-0.01206683708690445,0.06160939580228383,-0.11274151288743342,0.6094853663577154,-0.020920804410931453
186,7.85999999999996,-0.808429361746448,-1.371372361741339,-1.6025646393141113,0.9447698058427224,0.21951207839648673,-0.24315533779802936,-0.08462020057929838,-0.024401531730996608,0.081350167326401,-0.12102334293140556,0.6031191789274759,-0.023847503458083993
187,7.86999999999996,-0.7296065774702103,-1.3229241745244782,-1.6129495255022024,0.9377291103231059,0.23659235629970657,-0.25414698813736164,-0.08889103087875726,-0.0351786930155955,0.10972282620597174,-0.12907059485985684,0.5968631373833202,-0.02705241246058771
188,7.87999999999996,-0.6091915163735258,-1.283168583829073,-1.6236676230876288,0.9303716174288476,0.25345871628011024,-0.2647121501470316,-0.0871430379561115,-0.03870543269857641,0.13883951498071864,-0.1367289560216269,0.5907022136544229,-0.030611259690495485
189,7.88999999999996,-0.45614945053961614,-1.2593741694629887,-1.6259690115071317,0.9226813887460282,0.2699649995690944,-0.2751093825030091,-0.08136117461839189,-0.03614917161719411,0.1603750066218186,-0.14384201614354766,0.5845824668760826,-0.0346201400827351
190,7.8999999999999595,-0.29808295684932157,-1.2581000424290374,-1.6123028951810154,0.9146473773383718,0.28590201246585323,-0.2856388662545926,-0.0701451886211879,-0.034663754627684715,0.17276657427939024,-0.1502877190839621,0.5784270405518289,-0.03907498247744309
191,7.909999999999959,-0.18237378928468573,-1.2765986062800911,-1.5713691821104467,0.9062813697608507,0.30108860707978413,-0.29649851607058114,-0.053578620026319176,-0.04345585750416383,0.17958668992639665,-0.1560760713968584,0.5721677696725482,-0.043817467608616066
192,7.919999999999959,-0.15386152835631395,-1.2886417089575402,-1.514274005432571,0.8976411557957632,0.31550506056040534,-0.3075899273342221,-0.030541642180048113,-0.06621786190558421,0.1839582131984616,-0.16141724965023363,0.5658047768681312,-0.048556590400581925
193,7.929999999999959,-0.2248850443596377,-1.2789083802825618,-1.4476921535328808,0.8888363272670299,0.32932592129039784,-0.3184861120950356,-0.008463458092461264,-0.10087200433369184,0.2000734287755801,-0.16665677601137985,0.5594354872822155,-0.05298097079846
194,7.939999999999959,-0.3722452173165022,-1.2415817496554726,-1.372132728124946,0.8800144984522482,0.34275767010160757,-0.3286587843986292,0.0039834119353685995,-0.1391181586848423,0.22719351444841376,-0.17212269735911606,0.5531995341842166,-0.05681679886678815
195,7.949999999999958,-0.5506451655564961,-1.1823991611726319,-1.2954663160417648,0.8713138822929655,0.35597915860766693,-0.33767208544309535,0.00714261979170007,-0.17361721045333364,0.25809826723332596,-0.1780220646912888,0.5472266618839621,-0.05992213741305014
196,7.959999999999958,-0.7180714828580819,-1.11463299293546,-1.2238037867645875,0.8628262191193254,0.3690749047020412,-0.3453293034828741,0.005230252024997561,-0.20231903042588623,0.2838756710909969,-0.18439619234857516,0.5415883175601217,-0.06229758716907506
197,7.969999999999958,-0.8461358818400733,-1.0500672164455966,-1.1550410680598864,0.8545921667641153,0.3820250914103103,-0.3516703944085548,0.0034782337042820587,-0.2219603200015975,0.2995084887083669,-0.19115538524669118,0.5362916394323962,-0.06403623260558025
198,7.979999999999958,-0.9288625385175904,-0.9981170807927643,-1.0912961347771415,0.8466059744642194,0.3947425371851088,-0.35690953744123727,0.0025919999559378282,-0.23470021441161204,0.3052238904029655,-0.19813912265830888,0.5312913667990568,-0.06527435676224841
199,7.989999999999958,-0.9775137293585966,-0.952252571924415,-1.0297596970696872,0.8388519811624753,0.40711714601776416,-0.36129633715744486,0.005837917025142908,-0.24260920487526164,0.29705650958882407,-0.20519048896328645,0.526529656607372,-0.06612574154379013
200,7.999999999999957,-1.001641186100051,-0.9135009871026263,-0.9572687081167749,0.8313633054698939,0.419016205814995,-0.36498913053631993,0.015056246622671498,-0.24350048053495826,0.28302688952843563,-0.21218129779553266,0.5219866233123578,-0.06664643052186751
201,8.009999999999957,-1.0164752335543965,-0.873461838817365,-0.874741140695458,0.8241981069455826,0.4303025810004437,-0.3681015018340401,0.02968464075797464,-0.2414266175176272,0.2740863453181715,-0.21901745952660057,0.5176553017562342,-0.06683797689804302
202,8.019999999999957,-1.0341563801423939,-0.8364661088176086,-0.7827005404795737,0.8174229445113939,0.4409041306823377,-0.3706614200707153,0.04740099293519398,-0.24241430255199428,0.26909617489744697,-0.22567183557074144,0.5135453695032123,-0.066665537329443
203,8.029999999999957,-1.052149064194201,-0.788180685707866,-0.68588043516675,0.8111174211948079,0.4507723500402386,-0.3726451554617603,0.06867129067049507,-0.251431763225224,0.2676147076924132,-0.23212951438992624,0.5096877873648104,-0.066101717532091
204,8.039999999999957,-1.0714427120416028,-0.7121093960712127,-0.5855637398985534,0.8054146235773271,0.4598821250652063,-0.37388813914054186,0.08971879648900057,-0.2652752928463352,0.2728464374508717,-0.23838054823164107,0.5061819018725231,-0.06514721908096655
205,8.049999999999956,-1.0804689490539112,-0.6030853068801472,-0.48049527795594615,0.8004766018996787,0.4681899476674429,-0.3741883455667918,0.10276183353475622,-0.2801940727468117,0.2893844556165212,-0.24438982015451918,0.5031602846802962,-0.06383272779791022
206,8.059999999999956,-1.0524510353127314,-0.4707853711557498,-0.37451673196738344,0.7964539428406624,0.4755951540988371,-0.3734386618749346,0.10560499857454513,-0.2934634790445358,0.3126276962393239,-0.25004683601942,0.500749167355488,-0.062251696566755624
207,8.069999999999956,-0.9728172435082915,-0.32314215292579557,-0.2786567345233634,0.7934174975757028,0.48196515616177443,-0.3717367625063106,0.10353495174495123,-0.3004487029368097,0.3257388789966866,-0.2551750523208474,0.49901066464995003,-0.060559050882454744
208,8.079999999999956,-0.8465879879871124,-0.17965569133198314,-0.20012521852374576,0.7913414938327226,0.4872324633806513,-0.3692911980481502,0.10544821492207415,-0.2994887028684616,0.32211606989666114,-0.2596109582780802,0.4979484376647811,-0.05894526337920193
209,8.089999999999955,-0.6771182124606283,-0.07677100070952098,-0.12452858175865181,0.7900808108710194,0.4913454871614989,-0.36653390638545147,0.12367859530126542,-0.290621998501957,0.30197424921222327,-0.2632074636121131,0.4974459865207022,-0.05756249893957086
210,8.099999999999955,-0.4944385049914849,-0.02375152699849482,-0.028926001020188538,0.7895083782064919,0.4941183533895969,-0.36403464254373835,0.1664025083637493,-0.2802820361889881,0.2630690326798864,-0.26583106210334206,0.4973081422606879,-0.0563772132349547
211,8.109999999999955,-0.34291240109494375,0.033613921349773465,0.09366866810583611,0.7896663640134717,0.4953857256158857,-0.36196550146957096,0.22849458883773988,-0.2751457193092558,0.22731106860923303,-0.2674636659827358,0.4974736601081486,-0.055223820305192045
212,8.119999999999955,-0.2552829827053623,0.14362722762549818,0.234155078174847,0.7907696254455844,0.4951683612659137,-0.35984732427367394,0.2857322007074038,-0.2807416367318512,0.21424044114753832,-0.26824816279306646,0.4981155054701935,-0.05393851291186623
213,8.129999999999955,-0.22280725570684162,0.3066674407242837,0.39308388466259875,0.7931058810971178,0.4935480894666735,-0.3569154818865018,0.32443186093142007,-0.29328149824313093,0.2154027193475274,-0.2683840856492628,0.49951142962915207,-0.0523669497211763
214,8.139999999999954,-0.2054884298216842,0.46865894687226994,0.5753094966151417,0.7968602567637328,0.4904674969993591,-0.35276729100998816,0.35685265753683687,-0.3070476183524884,0.22778118461505795,-0.26795650761528983,0.5018109030792411,-0.050366277763114684
215,8.149999999999954,-0.17244414568052985,0.5746392778181534,0.7752458428747967,0.8019928791164415,0.4857398918814521,-0.34762849882329394,0.3999131728112955,-0.31100254804205335,0.2439991109704594,-0.26691090158979125,0.5049174648634043,-0.0478236193028093
216,8.159999999999954,-0.11331102435405388,0.5906922663202108,0.9796749357168544,0.8082594130104515,0.4791606839111786,-0.3421919720587953,0.4507489250653689,-0.299657574460594,0.2538340780606739,-0.26513597064423333,0.5085303698102618,-0.04464850247170486
217,8.169999999999954,-0.02527194713393968,0.5395909685541693,1.1550826233930442,0.8152721057090705,0.47069948173525844,-0.33725424703212414,0.4908920812999874,-0.27355230780335615,0.24572228667903318,-0.262564175556655,0.5122775521486228,-0.04084316006214626
218,8.179999999999954,0.0655673590916099,0.4856795739822409,1.2676986493057758,0.8226478137636835,0.46066475749073105,-0.33316747832394955,0.48989832468819094,-0.24306863929112424,0.20219163816402116,-0.25925075511668483,0.5159456397929685,-0.036601298679853775
219,8.189999999999953,0.11165101214937785,0.4643607448613403,1.3138528679982824,0.8301108445793941,0.4496496803655223,-0.3296821023619579,0.4188992916022741,-0.22772721439350865,0.12809288779455455,-0.2554368841059486,0.5195238357346432,-0.03216937917979051
220,8.199999999999953,0.0751873039729798,0.4886413854025203,1.3141188360783942,0.8375138958568445,0.4383428113129718,-0.32616667336542116,0.2859373542036253,-0.23915478597765122,0.058967146369700754,-0.2515313596635978,0.5231087127739362,-0.02766383456160878
221,8.209999999999953,-0.01906344895057919,0.5560810116955985,1.287077535442739,0.844835812772194,0.4272853174006462,-0.3219298945261919,0.13608252261854575,-0.2593084533851166,0.03383985559993745,-0.24792188633224113,0.526843618276267,-0.02309531442228363
222,8.219999999999953,-0.11077814379031058,0.653003820192688,1.2502562634187677,0.8521182274188763,0.4167315894714221,-0.3165252175053754,0.010284849006232916,-0.2675745954892739,0.04945512475791976,-0.24477722724502468,0.5308634800849809,-0.018507812861812942
223,8.229999999999952,-0.13983888643385647,0.7516343042647154,1.2117112841281068,0.8593885919066284,0.4066127811163627,-0.3099597577926089,-0.0746275374753563,-0.26167083557600507,0.07018818919326053,-0.24197121496457577,0.5352235929858734,-0.014032012048600204
224,8.239999999999952,-0.07753908152198109,0.8124570567123658,1.1819277787508418,0.8665964128749145,0.3966472674534862,-0.3027182635256134,-0.11220386473774788,-0.24364166328960762,0.07402958310547758,-0.23917327493018442,0.5398432189788988,-0.009840308478474152
225,8.249999999999952,0.04785463539042694,0.7947321530724049,1.183659497736468,0.8736421575237833,0.3864222445579762,-0.2956078430697365,-0.09623862712176404,-0.21823679008262195,0.062251735393570415,-0.23600941892920044,0.5445078271017567,-0.0059943795754728735
226,8.259999999999952,0.17126619599325532,0.7091844793454491,1.2084962535978825,0.8804112187393478,0.375609472612343,-0.28939816506771743,-0.02825241517823472,-0.1882285623958145,0.04384508728990488,-0.2322760416348895,0.54894586709712,-0.0023791993074398017
227,8.269999999999952,0.22798170813776344,0.6083789750834403,1.2394304223931634,0.8868324323988404,0.3642029564217151,-0.2843291920109659,0.0690430968000834,-0.16231589975729144,0.029523221119287173,-0.22808083869021814,0.5529985316949706,0.0012101202410458678
228,8.279999999999951,0.19444788239790167,0.5458517286382881,1.2622372063105445,0.8929355561353084,0.3524545762992591,-0.28000205477828866,0.15667182976122934,-0.14826163314521495,0.028712428010815146,-0.2237488584469495,0.5567124099930316,0.004968963481686786
229,8.289999999999951,0.07943260298847139,0.5398741915176761,1.2792113733973105,0.8988389048242276,0.34067383889176095,-0.2756619942480708,0.2034728230732493,-0.14952020280533906,0.040229347019672804,-0.21965378306388805,0.560281385339607,0.009056693693485284
230,8.299999999999951,-0.07116901298482138,0.57703805518134,1.2938920703584642,0.9046706715846737,0.3290496890933326,-0.27065889105102886,0.20609050688338404,-0.16196828519543194,0.05095193217895165,-0.21604803145246704,0.563904693182575,0.01357278678228692
231,8.30999999999995,-0.19780046588390632,0.6210594111231711,1.2949671232075082,0.9104627882123953,0.3176608908698553,-0.2647775897530174,0.18266616600487998,-0.1740960530685333,0.056270668810586705,-0.21298076807493987,0.567666784925329,0.018476813008469112
232,8.31999999999995,-0.2591494401710588,0.662112388263413,1.2888660851755087,0.9161689642211827,0.3064722218077909,-0.25819923316124904,0.1490418631596577,-0.17233107072228082,0.054168572606581256,-0.2102961902088371,0.5715516280704835,0.023592452225954547
233,8.32999999999995,-0.228994670891533,0.712616432155263,1.2933692423884415,0.9218023091034067,0.2952399133464916,-0.2511368423973573,0.11141735748605508,-0.1498062245359117,0.0406933888777481,-0.20767060295965628,0.5755862485538966,0.028702279209033503
234,8.33999999999995,-0.11638024762894929,0.772148360962648,1.3052218345263662,0.9274034410706091,0.28365412714233634,-0.24375408405860383,0.06946491863335023,-0.10917699915086904,0.014903239620008196,-0.204727962750574,0.579830606491906,0.033578466293082074
235,8.34999999999995,0.05707014181481118,0.8174480596904553,1.3084521415070258,0.9329505296797173,0.2715597306892137,-0.23623856108042882,0.017852472476881855,-0.06090724074015865,-0.01897696282494729,-0.20119213280835466,0.5842903573689591,0.03801330770664324
236,8.35999999999995,0.2587104377323294,0.8201704716372757,1.2847603074793155,0.9383058491922994,0.2590569278164444,-0.22895737069684924,-0.03522137796556765,-0.014144966024993294,-0.05931459157956512,-0.19693509153223696,0.5888372554626891,0.041819547540034425
237,8.36999999999995,0.4460385233784203,0.7892982135631926,1.2472666517718876,0.9433248663280183,0.24634753531223313,-0.2222675124988854,-0.07831490634614945,0.022415574478232985,-0.10737164222990941,-0.19197939882160175,0.5932962804929803,0.04493116269696168
238,8.37999999999995,0.5661016936175647,0.7558819310947034,1.2168364526152509,0.9479716913674547,0.2335885163258537,-0.21619447598368963,-0.10741907214075275,0.04317674581274056,-0.142266616600583,-0.1864978852301997,0.5975875763281312,0.04747117842267828
239,8.389999999999949,0.5911366831315744,0.7394781617124773,1.204460640665897,0.9523128564453833,0.22084631387337883,-0.21043383166477786,-0.12480634295751464,0.05096069368083783,-0.14486267008139073,-0.18077668847345696,0.6017411020378621,0.04973220580374932
240,8.399999999999949,0.5250281772266809,0.7395819811047466,1.2060818651485579,0.956433298599013,0.20817420848074658,-0.20458388932103805,-0.1383037080879232,0.051969029183070684,-0.12219043865370538,-0.17514697069225046,0.6058230896370261,0.05205169339043012
241,8.409999999999949,0.40796954340921154,0.7519152881355771,1.207422823036937,0.9603739221739211,0.195653789983229,-0.19838700990351124,-0.1529954418456253,0.04831632226053244,-0.09170731152059677,-0.1698659725340013,0.6098713369050361,0.05465727967375955
242,8.419999999999948,0.30062719563260387,0.7763903510684029,1.1980410294690067,0.9641432141096112,0.18338553942496172,-0.19171237036973215,-0.1666913853490261,0.04188734978321018,-0.06802247541765678,-0.16504193249145266,0.613919326529563,0.057581626498438884
243,8.429999999999948,0.24037782525014456,0.8024754210989811,1.1811543645182756,0.9677407603483386,0.17138515282915556,-0.18455650517314823,-0.17918260627481358,0.03836481113586305,-0.05652025644468423,-0.16058831812271906,0.618001334385082,0.06069553757409921
244,8.439999999999948,0.2480433291947722,0.8252008421605348,1.167795986675776,0.9711580949597332,0.15955759325126387,-0.17705791308331884,-0.1886326755203192,0.04355226346142828,-0.05674147046486615,-0.15627964097278174,0.6221256132904107,0.06380723190620328
245,8.449999999999948,0.3190640259803514,0.8482653625349724,1.155396624941226,0.9743944669910072,0.1477627722624017,-0.1693444954100256,-0.18614666492248264,0.05994470780958872,-0.06613945943419255,-0.15185183631013466,0.6263073203764968,0.06672014859838069
246,8.459999999999948,0.43106056011101945,0.8707386647257244,1.1376692261393262,0.9774465558817247,0.13595167471283873,-0.16146566190425662,-0.17521286967194077,0.08829036124513326,-0.07712790517261668,-0.14712196470832453,0.6305660683281644,0.06926477311845769
247,8.469999999999947,0.5717147535779077,0.8847086378027882,1.1103525228114473,0.9802943802445624,0.12415619925817638,-0.15350662012070024,-0.16150463822655103,0.12035926166867776,-0.08475386328055999,-0.14197876804275436,0.6348850043794652,0.07130659083121355
248,8.479999999999947,0.692922370873208,0.8900644885240766,1.076936979640491,0.98292001073469,0.11246193247072142,-0.14552482681587608,-0.14739587568012355,0.15039985082625845,-0.10198655582509782,-0.1364152003744684,0.6392321574562851,0.0727947556272521
249,8.489999999999947,0.7534636862545707,0.8832667205538336,1.0388269126817575,0.9853076007234783,0.1010078576048036,-0.13756780627086282,-0.13228206007411136,0.17355312292213598,-0.12900955291380548,-0.13060557845034063,0.6435427212406789,0.0738488239261289
250,8.499999999999947,0.7265334422593109,0.8714282350980589,0.991489415407376,0.9874500129460463,0.09000097852591496,-0.12962784699593582,-0.11653228961923104,0.1856197164990763,-0.15544918538591995,-0.12486172113153755,0.6477539656267235,0.07468290691675622
251,8.509999999999946,0.6044264551652767,0.8557242043332759,0.9454078580563913,0.9893567336084339,0.07958947611306703,-0.12166650851613131,-0.0963916145742015,0.17988451103960323,-0.18202804875452286,-0.1195342295905411,0.6518200241820374,0.07558518594212896
252,8.519999999999946,0.40194472510298995,0.8429350513786841,0.9139487272549557,0.9910497497605216,0.06979652185702974,-0.11364496778692035,-0.06554512895421603,0.15888345362061757,-0.1935716678631645,-0.11493417046265704,0.6557138090690616,0.07687974273445049
253,8.529999999999946,0.1631117933394334,0.824703696387995,0.8953707412981959,0.9925527830924373,0.06052311138778868,-0.10556544430521167,-0.028554401135717274,0.13520898815940566,-0.18396265209690188,-0.11124052125922441,0.6594221731440206,0.07882532319948461
254,8.539999999999946,-0.04426428933604691,0.8030955960426185,0.8740113654462103,0.9938770927769643,0.05166138027087798,-0.09751678964163459,0.007213555498894842,0.11611307541714284,-0.16405836782864808,-0.10843271368587663,0.6629329550257798,0.08146591097538138
255,8.549999999999946,-0.1604830358018875,0.7937497809581553,0.8350844899509199,0.9950307230728487,0.04324059488552929,-0.08953300973456482,0.029660447783176502,0.10653481453636525,-0.14670274367950795,-0.10631838400606881,0.6662783522511132,0.0845497472704646
256,8.559999999999945,-0.15610404879731735,0.7920280837343829,0.7650317556244626,0.99602595078483,0.03539687994244602,-0.08157052236044078,0.029091646186165124,0.11674125870623059,-0.1477849082219917,-0.10458976173228542,0.6695319067858694,0.0876219619609169
257,8.569999999999945,-0.04492490006013672,0.7726304180712787,0.6733031279311518,0.9968660417793158,0.028308571079802315,-0.07371531873188943,0.009719575217958104,0.15165974535348453,-0.1739073014880945,-0.10290895618758551,0.6727179165759918,0.09019163463113128
258,8.579999999999945,0.1119267917698118,0.7073443779920293,0.5972041731591595,0.9975484803225793,0.021961612144408355,-0.06630048480032229,-0.008283763886588878,0.2014227199042687,-0.21584393094066914,-0.1009855517862713,0.6757580664701329,0.09199794352633638
259,8.589999999999945,0.2111230065916277,0.5957988390406839,0.5471877195288141,0.9980718119479074,0.016150468059037915,-0.05980989713329184,-0.00036108966932241714,0.24455184482899844,-0.26351134205459137,-0.09874501763075719,0.6784850088736648,0.09317087990221291
260,8.599999999999945,0.179412963448635,0.48674580190012834,0.508694971068721,0.99845283293016,0.010761096037113881,-0.054452239327937024,0.032370888522427164,0.2629179565866867,-0.29723347695380803,-0.096467852797059,0.6807832233135057,0.09411886501907862
261,8.609999999999944,0.017218297405986766,0.4206482745908733,0.4709429801158791,0.9987298770107,0.005803775880924367,-0.04996106054867579,0.06989542445453037,0.25150762748483346,-0.306111761711237,-0.09462752187254748,0.682688691888958,0.09530738178990897
262,8.619999999999944,-0.21764023890030443,0.3854309012822792,0.4308513364883252,0.9989398230695404,0.0013413309302225556,-0.04593862520043892,0.08958499182152783,0.22168199089662,-0.2879655064136172,-0.09363132628616307,0.6842976458303994,0.0970733510673923
263,8.629999999999944,-0.4374081305071885,0.35482309763155817,0.3837052290702078,0.9991011738625801,-0.0025874345895970175,-0.0422420356070227,0.08968984571076442,0.19402079081700432,-0.25944659936507747,-0.09360433630634513,0.6856506802809678,0.09949624886858678
264,8.639999999999944,-0.5839545727678975,0.3255743768512711,0.32434754677036404,0.9992242270655103,-0.005922391748551934,-0.038878893475175015,0.09059306655074666,0.1854638174479742,-0.23944398246344048,-0.09439995422473985,0.6867668864404303,0.10237284824808225
265,8.649999999999944,-0.6472202778218431,0.3140871236255913,0.24843276662431252,0.9993224736098495,-0.008566811729789896,-0.035747514830853894,0.09925573441289832,0.19677318728802637,-0.23666207159438146,-0.09578306853347943,0.6877144646053763,0.1053751528762585
266,8.659999999999943,-0.6462834130590518,0.31246459741694654,0.16594397287384033,0.9994102459375782,-0.010423475425651665,-0.0326779644981249,0.1121986771551193,0.21776826547403738,-0.25304267064505814,-0.09754931337415872,0.6885813499763164,0.10820363039903884
267,8.669999999999943,-0.5863856368440039,0.2899218186067025,0.09985904757846677,0.999490940113274,-0.011537704379196604,-0.029711938489637057,0.13847343093150943,0.23584728692867754,-0.27660698979272863,-0.09946327275225877,0.6893839136530019,0.11065302925673569
268,8.679999999999943,-0.47944022804080816,0.220138066509249,0.07488907953461688,0.9995545450336402,-0.012240450934775637,-0.02719120962548619,0.19740145300600304,0.24802032422182102,-0.29745159646067915,-0.10120391988243148,0.6900445719341171,0.11266805112079797
269,8.689999999999943,-0.34431984563116547,0.08904807652448721,0.08621951410635986,0.9995868276702073,-0.012929016309414152,-0.02566310600965029,0.2873212003474088,0.2648155504742285,-0.31409459210476626,-0.10247920080755213,0.6904101589750724,0.11429604365192844
270,8.699999999999942,-0.1983632228657235,-0.09719011091497542,0.10966653828418968,0.9995733107149503,-0.01384051116469567,-0.025715803878036667,0.39563564365018,0.293853782611433,-0.3276699067433308,-0.10310076809770957,0.6902986883117459,0.1155832638839892
271,8.709999999999942,-0.05312493681404956,-0.3005107818726921,0.1115308100401076,0.9995029109605085,-0.014937633216513611,-0.027728202131151954,0.4988955638368267,0.33201732594360517,-0.3419564665127065,-0.10304012405060693,0.6895784549591416,0.11652072805305645
272,8.719999999999942,0.07438244452838805,-0.4702488662701333,0.05805186744843942,0.9993723026125857,-0.015833187647651226,-0.03162368591512038,0.555611765729106,0.36602954767025137,-0.35320882883166876,-0.1024603196696652,0.6882510187052875,0.11699303505599551
273,8.729999999999942,0.15687048860613242,-0.577604374761636,-0.06627305471438173,0.9991902501835471,-0.015868448020038964,-0.03688381764147183,0.5293298805975417,0.38584783300557673,-0.3489936329407683,-0.10172701627743126,0.68644651351914,0.11684699326925245
274,8.739999999999942,0.20887123291276877,-0.6297730195318397,-0.248902185947239,0.998970599912861,-0.014398611527911317,-0.04291219504225683,0.4150941760432331,0.38182234914292934,-0.32743273273249257,-0.10124565223496079,0.6843187675190763,0.11597073218278486
275,8.749999999999941,0.27474163248632816,-0.6462162311671142,-0.4705900992762088,0.9987185731717942,-0.010946215125046153,-0.04928644647939319,0.2549142242593972,0.3542748582191661,-0.29590279640492756,-0.101241166897501,0.6819866696528885,0.11420461774331171
276,8.759999999999941,0.40063766237987897,-0.6553107155235973,-0.7164701180930343,0.998420271249702,-0.005220711033274636,-0.05578782073084303,0.10255117727772764,0.3183881241044124,-0.2702421069769482,-0.10168957348679558,0.6795321694536439,0.11128366466812097
277,8.769999999999941,0.586629935101098,-0.6633495673113318,-0.967104790257618,0.9980338870509807,0.00287758965889529,-0.06240766750764189,-0.020312678431674343,0.28638767239751245,-0.26027565027941696,-0.10240711179310337,0.6769840814715087,0.10692886703826297
278,8.77999999999994,0.7908897826725041,-0.6758804274702965,-1.1896964531226226,0.9974988501965422,0.013191145842248411,-0.06919037380628013,-0.11086622501910964,0.26127614722939946,-0.257643367563609,-0.10320966451708842,0.6743522647842257,0.10104427840417228
279,8.78999999999994,0.9569182753094239,-0.708836443168255,-1.357634709942075,0.9967431584330414,0.025285740978990973,-0.07628865092017102,-0.16100898309930778,0.24245313915825834,-0.25282540355495814,-0.10398339283481625,0.6715961474111869,0.0938158073965599
280,8.79999999999994,1.0475792241224757,-0.7724520500701996,-1.4551411567418362,0.9956943414542674,0.0385356319977881,-0.08400347511504314,-0.16267257506175561,0.22394088322791483,-0.23764699938829484,-0.1047057453745175,0.6686051950622358,0.08568209927131266
281,8.80999999999994,1.0436682996953057,-0.8632303853724823,-1.4916592646021145,0.9942973759423824,0.052312669136504744,-0.0926248695020818,-0.12070965926734904,0.20360886761393665,-0.20979427201367695,-0.10544550986159568,0.6652564921579525,0.07718612979567878
282,8.81999999999994,0.9559115605467241,-0.958521999244808,-1.4795198372183391,0.9925241041664415,0.06612618433131713,-0.10228587775291562,-0.05067215050099034,0.17833342750842254,-0.1742876233754414,-0.106350150650801,0.6614705760967042,0.06885080177678661
283,8.82999999999994,0.8085742015228461,-1.0464042895994652,-1.4322465328674576,0.9903801973981676,0.07963538016333346,-0.11288309955002643,0.022163777535956986,0.14510806022077316,-0.1336997572467196,-0.10755367552985769,0.6572567265235307,0.06106577272614789
284,8.83999999999994,0.6365935531649977,-1.1309975458230817,-1.3576340153803783,0.9878855732024675,0.09257947714163066,-0.12428978927558167,0.0846897826398574,0.11113802633284921,-0.0939208262248128,-0.10911345728710903,0.6526439667766942,0.05408817627009154
285,8.84999999999994,0.4756878298765043,-1.2173289223388932,-1.2747666814308185,0.9850521858458108,0.1048381664373008,-0.1364460966077011,0.1348574748360452,0.08668224099644448,-0.05928615699574214,-0.11101245046853131,0.6476472420542825,0.04800108426862595
286,8.859999999999939,0.3479685545779555,-1.2998569266942595,-1.2005376667854604,0.9818768542845253,0.11642695914750603,-0.14932501340038587,0.16625698584973553,0.07561687260636143,-0.03183804878072988,-0.11316778142924601,0.64227977289375,0.04271411344179282
287,8.869999999999939,0.24205621686618828,-1.3584129632995063,-1.1457570304303473,0.9783581331544229,0.1274652155666796,-0.16279528693846773,0.17702396249519,0.07349857613466207,-0.008735093320825643,-0.11552735345673681,0.6365906518722676,0.03808221634067876
288,8.879999999999939,0.12050165001184371,-1.3942658605721816,-1.1160477131929571,0.9745037117872247,0.13819922425376824,-0.1765699866746791,0.1622767920216744,0.07010692904643176,0.011338519588882481,-0.11816046057208557,0.6306696159548282,0.03399129222749672
289,8.889999999999938,-0.032884010943273714,-1.4129795970040853,-1.1103560595836333,0.9703195448976467,0.14894287211415352,-0.19033921352891492,0.12497882155473951,0.05956259105575946,0.029974107517265855,-0.12124875573058902,0.624595241413331,0.030410306380791917
290,8.899999999999938,-0.20323851171631185,-1.4189868206803495,-1.1287389985865068,0.9657905464215844,0.16001615684103115,-0.20390049848891378,0.08086135462168374,0.04262167237553605,0.04727731131994009,-0.12497595466855703,0.6184007886996156,0.027319336353176564
291,8.909999999999938,-0.37022782167167323,-1.4169655835303896,-1.1609640101517769,0.9608989037511062,0.17165512859109516,-0.21711317877491534,0.041966043401269,0.024519724863914384,0.06972901202165431,-0.12943093390745972,0.6121096842989782,0.02465489896442569
292,8.919999999999938,-0.5077032251453006,-1.4087478049490825,-1.2034624192741883,0.9556287079307629,0.18398151447382338,-0.22989733650761676,0.012407560695162911,0.005342429324369758,0.09673491377041857,-0.13458691945904638,0.6057419500926032,0.022301511736863046
293,8.929999999999938,-0.5992228997881938,-1.3950524512197915,-1.2547437134441621,0.9499676427455138,0.19700782142319648,-0.24223007204515806,-0.013789387909500465,-0.010203522281564128,0.12053234333053356,-0.1403221059072621,0.5993153563709761,0.02010740109627038
294,8.939999999999937,-0.6452283982563768,-1.3646211830202946,-1.312583225959303,0.9439164829324388,0.2107120926352795,-0.2540587205555484,-0.03642482668497225,-0.022343869772812937,0.1382223261999478,-0.14647992337822377,0.5928722901683637,0.017889588322890154
295,8.949999999999937,-0.6384078344900386,-1.3253031832782218,-1.3741659246385542,0.9374824287161033,0.22503492990938026,-0.265344622404239,-0.05470010838208654,-0.029286175263236024,0.15218257072531133,-0.1528849827745518,0.5864612288455938,0.015459480895054542
296,8.959999999999937,-0.5763663873661696,-1.2857191157014567,-1.4273172256140374,0.9306708495341703,0.23979818749558116,-0.2761684832213076,-0.06881451473284975,-0.030389225342864735,0.1679564533324557,-0.15931225908453397,0.5801021803128182,0.012659983263213607
297,8.969999999999937,-0.4664037425806426,-1.2557938598658507,-1.4603420704471266,0.9235025228844327,0.25467970906015225,-0.286708382947637,-0.07234241312526041,-0.02485727669225018,0.18298286308053052,-0.16550195565733716,0.5737935476070516,0.009408159727916336
298,8.979999999999936,-0.3448789001732748,-1.234833703251484,-1.4786142209737765,0.9160007628077637,0.26939154064961507,-0.2971397561878669,-0.065665389829478,-0.020621962468375374,0.1948483770341006,-0.17127812216433935,0.5675202540862334,0.005701799989054032
299,8.989999999999936,-0.2442674462628694,-1.222980850375609,-1.496779108532861,0.9081565885528495,0.28384983827728216,-0.30757501052504155,-0.052021304859576525,-0.02810489697826814,0.20685438244336507,-0.17663709704828906,0.5612468354690219,0.0015962197889286063
300,8.999999999999936,-0.17401781309384218,-1.2117490920486647,-1.5147168852699935,0.8999558747257675,0.2981079271663907,-0.31801327529333706,-0.03835944077080069,-0.04703905636057698,0.21874953395261154,-0.1816787855501897,0.5549530550846671,-0.0028340489217137665
301,9.009999999999936,-0.14844358565722315,-1.1857699929192698,-1.5217539065924015,0.8914372781275097,0.31222940323006476,-0.3282903517620673,-0.029075451349012963,-0.07050548713061758,0.22871262946630563,-0.1865451969665443,0.5486736508874083,-0.007471871654567133
302,9.019999999999936,-0.16487445527770483,-1.1455196979534723,-1.5089593443916738,0.8827056631993714,0.3261975744109869,-0.33815733859322666,-0.02218421712059131,-0.09608965373174777,0.24204429425762447,-0.19136752680646774,0.542482418779504,-0.012141336939865249
303,9.029999999999935,-0.2265819262732732,-1.1013821722395418,-1.4807628479301902,0.873872672732085,0.34000206859130466,-0.34738034245255156,-0.014150079249203439,-0.1204877395804582,0.2625487011857057,-0.1962769977870098,0.5364445166250672,-0.01665819715246833
304,9.039999999999935,-0.3036418418770522,-1.0627610829613623,-1.444254109321077,0.8649975629172646,0.3536570152796718,-0.35586136307949645,-0.0055273783511063995,-0.14427352553859019,0.2838597681210951,-0.20136994269096736,0.5305723185629089,-0.020890310701363293
305,9.049999999999935,-0.37492904619307765,-1.025500364493612,-1.4070314373848405,0.8561050090768829,0.36715509767503873,-0.3636150767828611,0.004766917668149344,-0.16663330371673477,0.2997072686599188,-0.2066563226461598,0.5248553103352724,-0.024802273510842947
306,9.059999999999935,-0.4239709177735549,-0.9801052048507519,-1.367600936315975,0.8472289082093483,0.38046220060949554,-0.370660859329898,0.01432737451406469,-0.18665246102145916,0.30669473344544973,-0.21207568359622297,0.5193083092744012,-0.028443364097079676
307,9.069999999999935,-0.4481096060634204,-0.9254823109524954,-1.318531631958036,0.8384657981620061,0.3934294927490774,-0.377002231467416,0.020492137770727684,-0.19867724441593596,0.31407692936176196,-0.2175047312440143,0.5139832925372694,-0.03185559558732325
308,9.079999999999934,-0.4586455052530695,-0.8591186145669901,-1.257275583319111,0.8299290031914875,0.40589252333528714,-0.38264463578248004,0.021998407533252894,-0.20305058742332258,0.32313797173644443,-0.22282427047042694,0.5089363510120916,-0.03506131987073807
309,9.089999999999934,-0.47534575334491563,-0.7896437590038705,-1.189632614919788,0.8217154577839237,0.4177963623539958,-0.38753504272165645,0.021223614293048986,-0.20618312006110215,0.3298494466349501,-0.22801403299280004,0.504214438038381,-0.03803732275572189
310,9.099999999999934,-0.5028463137683146,-0.719229779046918,-1.1149696376499882,0.8138988479739147,0.42913115560041915,-0.3916299916005416,0.02257844022723584,-0.21402438625835063,0.33323475036371236,-0.23309411753087983,0.49984310197445936,-0.04073750619671834
311,9.109999999999934,-0.5386968573737245,-0.6497638676869976,-1.0353853674141713,0.8065329136524091,0.4398946995481812,-0.39491953765160726,0.03294535939638691,-0.227012917224303,0.33184560170732724,-0.2380821065125017,0.4958315526303507,-0.043123062394645896
312,9.119999999999933,-0.5714437217686135,-0.5854145673863648,-0.9480474062522323,0.7996692085728184,0.4500772714698603,-0.39740222649993406,0.05996138257913369,-0.24398183450063407,0.32815335831887105,-0.24298972690329107,0.4921863381526947,-0.04515587595690199
313,9.129999999999933,-0.6020506054454899,-0.5254436267149241,-0.8377498319664836,0.7933899763157354,0.45955006523113995,-0.39914923968031407,0.10117821520962386,-0.26059333928117284,0.3241571851780073,-0.24776530981606187,0.48890802502154135,-0.04677296782885758
314,9.139999999999933,-0.6315228867736143,-0.47010740369425497,-0.7006020866057384,0.787827331122337,0.46811069108570813,-0.40022509598794276,0.15213443710563768,-0.2769050468984511,0.31921650263502416,-0.25234124453676743,0.4860098345066121,-0.047860378222535443
315,9.149999999999933,-0.6603407054471779,-0.40579032328509335,-0.5523055391594732,0.7831232411101142,0.47561897829528543,-0.4006116736409649,0.20273948082624632,-0.29274688543676086,0.32410859086614835,-0.2566662213860949,0.48354087302473936,-0.04834990058209391
316,9.159999999999933,-0.6833225728689485,-0.33655128576835375,-0.40327034828610825,0.7793617224886223,0.4820272668297771,-0.4002932257152091,0.23888451937320895,-0.30844148072255156,0.3392501094842394,-0.2607130340099296,0.4815372811987491,-0.04823168794684468
317,9.169999999999932,-0.695786946754558,-0.2509761251650758,-0.26109257748931736,0.7765823611161984,0.487362681015998,-0.39923740554951853,0.24925228515844092,-0.32137328083705397,0.3518739145479108,-0.264465806783129,0.4800374890893101,-0.047562179054182446
318,9.179999999999932,-0.6787380259440455,-0.13089004324643538,-0.13293199178265652,0.7748550614632347,0.49162925408124586,-0.39736091054992706,0.23433267348972414,-0.32837795714242807,0.35477514886474354,-0.26785744173118997,0.47913423072350325,-0.04647327195679308
319,9.189999999999932,-0.6249587257202025,0.015531843184079352,-0.015506645990745402,0.7742599607500686,0.4947901399000579,-0.3945891036861364,0.2004161917362891,-0.3304146974329218,0.34156678556363534,-0.2707754988587333,0.47894101400832,-0.045135790345451676
320,9.199999999999932,-0.5372848153493532,0.15987045865215516,0.10592570930593716,0.7748326017400375,0.4967257303702024,-0.39101690313864995,0.16370755917813679,-0.3279348444206597,0.304056766233969,-0.27307465896594674,0.47950050961419327,-0.043669690819196215
321,9.209999999999932,-0.4365351501241573,0.2997083493806982,0.23775884367772204,0.7765808220162899,0.49729019003774116,-0.3868071792238137,0.15003296670828187,-0.3206821209102487,0.2592165400523829,-0.2746393739672653,0.4808001442026782,-0.04210490815226046
322,9.219999999999931,-0.3446811915100567,0.42373540071831495,0.4004073443417865,0.7795611576507401,0.4963157135145246,-0.38203057620777114,0.18899341233618303,-0.3094374942175264,0.22992650541955906,-0.2754177538493415,0.48283399987455966,-0.04034817414837382
323,9.229999999999931,-0.2758656842742981,0.5019809383931353,0.5970104405343108,0.7837925183433917,0.4935973680049295,-0.37685374711929587,0.2727263984828136,-0.29582128553809567,0.22087661623491428,-0.2754008686039332,0.4855160060271231,-0.03818223646327287
324,9.239999999999931,-0.23078545194067462,0.5220011113540032,0.8085548421977796,0.7891711607503703,0.4890079409385045,-0.3715672563695992,0.3740195779951885,-0.28258892246031264,0.2241176471451378,-0.27463374718960365,0.4886617351895367,-0.03536960491004915
325,9.24999999999993,-0.22008502702312793,0.5056379177595838,1.0062911496131999,0.7954926321259829,0.4826188461188227,-0.3663965727355483,0.46929165635364534,-0.27414390845753556,0.23173827010407302,-0.2732365074065448,0.49207777351335236,-0.03177002707816258
326,9.25999999999993,-0.24771088006102698,0.4803933458851494,1.1625274399865775,0.8024861792070854,0.4747664269345347,-0.3613627735616309,0.5326506986559976,-0.27611182327057865,0.23417331881268816,-0.2714311071313236,0.4956212393078632,-0.027380334299532808
327,9.26999999999993,-0.30537545919185777,0.4848437130284119,1.2598945433889306,0.8099204582415048,0.4659613024949834,-0.35619473166134974,0.5237340691382656,-0.2859725043284836,0.2192996168374126,-0.26948531107539114,0.499276196017014,-0.022341403084542973
328,9.27999999999993,-0.3626501726519679,0.5193506382638395,1.2966775108555373,0.8175950144457629,0.45672341759300805,-0.35057823229969504,0.4295862943499104,-0.2973473546086778,0.1762424674656036,-0.2676034606461416,0.5030859982488641,-0.016910405894338055
329,9.28999999999993,-0.40652273409149875,0.560233153092505,1.290685076904868,0.8253262033567242,0.44742584374069705,-0.3443958261579248,0.2841947403228661,-0.3037492073846451,0.11440626296680584,-0.2658776407629542,0.5070574806503902,-0.011343912210042363
330,9.29999999999993,-0.42175322913840435,0.6022941110681594,1.2689276870857966,0.83297939872783,0.4382298345073641,-0.3377297083612448,0.14068621114918017,-0.30416581575330826,0.06284251462337365,-0.2642967944290703,0.5111539594354512,-0.005815533742469327
331,9.30999999999993,-0.3988407484893505,0.6660661737330523,1.2499844449822157,0.8405515163394879,0.42908467625519814,-0.33063563290754505,0.03213917359541012,-0.29438677676325914,0.043463924028717245,-0.26274738719524665,0.5154044172265615,-0.0004506102640942241
332,9.31999999999993,-0.32757650660445936,0.7591985424038058,1.2392311633792243,0.8481531071556412,0.41978059086632585,-0.3230765321031389,-0.0400875811315562,-0.27520694738735557,0.043901249798337726,-0.26102914472447947,0.5199235706876174,0.004634254644926116
333,9.329999999999929,-0.20421924991665752,0.8593159257502759,1.2445908661848748,0.8558927958692005,0.4100582297381933,-0.31504549536569443,-0.08402081734825576,-0.25176452262725185,0.04968703570923023,-0.25890630317813473,0.5248224231017204,0.009324970544674299
334,9.339999999999929,-0.03587153169116447,0.9308216406561036,1.263998606999167,0.863766976409019,0.399653998874234,-0.3068116292465356,-0.09422633118601202,-0.23134659950511494,0.05629059759309295,-0.25614430702171337,0.5300722879833297,0.013565369709944777
335,9.349999999999929,0.16397015140699356,0.9411210973190831,1.2888171443516865,0.8716471026212494,0.3883861691555086,-0.29888970417966865,-0.06375982867157722,-0.20839322587383963,0.05843260549194169,-0.25255971275487016,0.5354994123231784,0.017348584544313633
336,9.359999999999928,0.36179409103488647,0.9090288771225858,1.3160551699849017,0.8793683264561901,0.37619753768063446,-0.2917760493327808,-0.0015317625352109648,-0.18345628259057548,0.055039466719168685,-0.2480775646575204,0.5408872527891375,0.020717696458769745
337,9.369999999999928,0.5295887757883776,0.8667943918992688,1.3500646569668275,0.8868601262184691,0.3631269565530342,-0.2855924036132673,0.07191943803543177,-0.1566990039701056,0.050428430034917135,-0.2427517307409868,0.5461350860232334,0.023757622742053137
338,9.379999999999928,0.644605153794874,0.8498103264233997,1.3908824125224142,0.8941695172725194,0.3492472612597725,-0.28005294836439226,0.13348913769312593,-0.13079252418733123,0.045285470848510805,-0.23673630474440926,0.5512859531593819,0.026598890867840647
339,9.389999999999928,0.7079491562667013,0.8586834603403765,1.4262672190797068,0.9013620251593616,0.33470476927019394,-0.27469701382443334,0.16864535979895146,-0.11290980069466205,0.04296108837492987,-0.23023765820710249,0.5564419891202157,0.02934851377319759
340,9.399999999999928,0.734482730707832,0.8839195344836689,1.448322081338086,0.9084408184913342,0.3197125680823063,-0.26917623424006587,0.17571178588590414,-0.1033290221718974,0.04281941813844997,-0.22346562359282154,0.5616581201864023,0.0320725002639172
341,9.409999999999927,0.7324472088078209,0.9277820697527115,1.457191578181542,0.9153907344447659,0.30449049063463623,-0.2632110471115364,0.1590723789337181,-0.09592029063755168,0.041138015488830317,-0.21659352369182067,0.5669798564499035,0.034787873065536386
342,9.419999999999927,0.710198310805606,0.9784760988817062,1.451292622030375,0.9221898036696865,0.2892382317789377,-0.25659439404226314,0.12095754840988435,-0.08663687122688235,0.03630021331349746,-0.20975848607952668,0.5724408238580138,0.03748875825822903
343,9.429999999999927,0.6798341920461005,1.0152281780619181,1.4260593702150606,0.9287722231220339,0.2741472404660468,-0.24931754131686476,0.06868814643931329,-0.07482220866220812,0.023022385665869595,-0.20306066854366306,0.5780070625377475,0.040153255922688036
344,9.439999999999927,0.646888097642289,1.0234159785037158,1.3802008347818866,0.935028682332626,0.25942903664535477,-0.2415657129984116,0.012892937520023337,-0.061495971689684605,-0.0025799545185738876,-0.19657975496450733,0.5835741918070646,0.04274068651924442
345,9.449999999999926,0.6055317361007944,1.0112808468636745,1.3299507078652493,0.9408717195842616,0.24522740715614913,-0.23358887080175006,-0.035304110567398496,-0.05111656161610574,-0.03583116755509663,-0.1903690208285253,0.5890259373175326,0.045239197628752954
346,9.459999999999926,0.5464340103827964,0.9994843339412587,1.2919626680849023,0.9463042916868042,0.23154341498335823,-0.22547508531485572,-0.07060044711207215,-0.041906160519163814,-0.058800386658215444,-0.18446534995358566,0.5943252116215579,0.04770972099074598
347,9.469999999999926,0.4754725511871926,0.9988485305368912,1.2657911276514018,0.9513926161477315,0.2182688698317627,-0.21715433625775304,-0.09273705020022366,-0.027020180514529053,-0.061087423463489166,-0.17889110777787312,0.5995075131682587,0.0502598311872703
348,9.479999999999926,0.40908828223490357,1.0070431129636823,1.2427438702941778,0.9561867179360724,0.20534729098568247,-0.20853278229667588,-0.11139062218736961,-0.008473968414014833,-0.048625589229325826,-0.17365053996921265,0.6046225210071339,0.052924918266344746
349,9.489999999999926,0.3632067766163064,1.0227946458957702,1.2118733657935616,0.9607034308935363,0.192788907225998,-0.1995719885953402,-0.12841684652198035,0.00921638608839296,-0.03492617228002592,-0.16871081634155816,0.6097053355906514,0.05564534117680662
350,9.499999999999925,0.36070427509851194,1.0459824682258112,1.178666456446951,0.9649522917695768,0.18058576483977365,-0.1902745298544258,-0.14359845553720754,0.026841509468235984,-0.027859406549614423,-0.16397133356665303,0.6147896930116203,0.05829850970646378
351,9.509999999999925,0.42679181120892773,1.0732685799032218,1.14777547315663,0.9689491457127648,0.16861808461144515,-0.1807052244368661,-0.15735558414351353,0.046429627856796274,-0.029530470286085703,-0.1592068185067226,0.6199117001649396,0.060709596593450495
352,9.519999999999925,0.5592614156930051,1.1029668122938838,1.11674905655507,0.9727053743158863,0.15676343585827673,-0.17093336975213688,-0.16578090889459793,0.07215985622872222,-0.04428389154668662,-0.1541468884436206,0.6251088352387068,0.06266131103498439
353,9.529999999999925,0.7370585903040802,1.1265516457774725,1.087634015326861,0.976220820505491,0.14495303600908968,-0.16102914682111646,-0.1651420719337538,0.1034758111614301,-0.0707974444185869,-0.14857592364065725,0.6303952523764359,0.06397325582849399
354,9.539999999999925,0.9067064049650264,1.117883808562277,1.0649903074974831,0.9794742399035766,0.13314724084684046,-0.15116768277133794,-0.15350723361352847,0.13472805742676572,-0.10376591316887888,-0.14241006816153814,0.6357055920833814,0.06462088044640998
355,9.549999999999924,1.0026080687353207,1.0726337772843881,1.0499043700046928,0.9824285794388872,0.121358216569827,-0.14162663812398668,-0.12531814303826258,0.16025551170407876,-0.13739135084819618,-0.13575802096642287,0.6408913457998354,0.06477766797041909
356,9.559999999999924,0.9546140898653932,1.0202373470640178,1.0374252199982055,0.9850691591931121,0.10972515744212276,-0.13249083496589784,-0.08279902922518333,0.16783886561221104,-0.17403190905827412,-0.1290172127014517,0.645829018565769,0.06482357873373226
357,9.569999999999924,0.7316739013795026,1.0019956872746247,1.0299985506875264,0.9874366609171855,0.09843208730855187,-0.12343600120758497,-0.039197143814768964,0.15104323951330997,-0.19763235478120525,-0.12280127580303382,0.6505306343516536,0.06529126586749785
358,9.579999999999924,0.38221230475349266,1.0179545137829527,1.036428020635871,0.989595138321097,0.08754357018837867,-0.11399155409191968,-0.011385459908454843,0.116989813977255,-0.18982461766090108,-0.11766549226987551,0.6550955702459633,0.06669951969991633
359,9.589999999999923,0.006541203746444291,1.0364063236727368,1.0600086892002072,0.9915763643375172,0.07693922714475725,-0.10398160056048411,-0.0028934270854767724,0.07585238900658262,-0.17009264789296294,-0.11384877739380432,0.6595765444122014,0.06935614929691325
360,9.599999999999923,-0.28764123112070217,1.0478266958368134,1.0798374610563484,0.993374020999279,0.06644422540781868,-0.09352806230391243,-0.003410360219116776,0.045435824938949425,-0.1589967407354404,-0.1112180434972082,0.6639740496664029,0.07321063477167278
361,9.609999999999923,-0.42922396883579883,1.035866754410749,1.0692446650630498,0.9949550405646665,0.05606613611254328,-0.08292001102170468,-0.0027295718733174475,0.04621943797871424,-0.1639333698813748,-0.10937869205433708,0.6682604778617541,0.07781025577985588
362,9.619999999999923,-0.41978296179289604,0.9923148365366673,1.0270861369792719,0.9962826506946358,0.04596160953545321,-0.0725691708098298,-0.0029700357142680676,0.08481417327701787,-0.19384554019167505,-0.10785284113057679,0.6723685005038077,0.08253643711106287
363,9.629999999999923,-0.2826981972781636,0.9028873076511449,0.9588790251387118,0.9973375198023158,0.03630667283059895,-0.06295380157100666,-0.004856066243033712,0.14730925058621164,-0.24640988098409775,-0.10620027935858325,0.676196092845972,0.08683255736937268
364,9.639999999999922,-0.1157869008538463,0.7792997239283791,0.8761316325859974,0.9981266777778195,0.027273719072656837,-0.054497364236774766,-0.0037923100681483283,0.21080722788088033,-0.30777585236129384,-0.10417159905143544,0.6796296251166136,0.09036531339941174
365,9.649999999999922,-0.020631771953027685,0.6734026268742901,0.8027804887291076,0.9986916231737056,0.01893384130077412,-0.0472565181221911,0.0025185961306149877,0.25086105360981176,-0.3613642822246548,-0.1018680319687141,0.6826359345227792,0.0932156548886322
366,9.659999999999922,-0.02953331323726054,0.6138342657541255,0.7488176488055823,0.9990925408949964,0.011205784568866292,-0.0408509193949829,0.011523253296599935,0.2567076660079604,-0.3752896800493196,-0.099591149594796,0.6853128885496307,0.09573280772022516
367,9.669999999999922,-0.11669213409829482,0.5685854599328724,0.6979364669898733,0.9993729199264431,0.004009283289466003,-0.034938531702756695,0.01808142552883424,0.24055682717867694,-0.34749254473726454,-0.09764236876678269,0.68774623279067,0.0982570227625947
368,9.679999999999922,-0.22791557570288776,0.49899764151995796,0.6367288803378153,0.9995518264149345,-0.00261744067554293,-0.029586158209966986,0.02320339987379194,0.22050062436264117,-0.31538343943187985,-0.09621609821105438,0.689889992512604,0.10096565219136475
369,9.689999999999921,-0.31903745592105975,0.40832236881735606,0.552735541462273,0.9996448400410274,-0.008503564856107761,-0.02505455762664238,0.03406649004373569,0.21586118038480367,-0.2992594487728004,-0.09536728828004049,0.6916481475266608,0.10381531369559736
370,9.699999999999921,-0.375773865284965,0.3083776572665514,0.44687943554652754,0.999675178009151,-0.013433395505803043,-0.021504993606990024,0.05038926054685524,0.2293129221712433,-0.3014871387572972,-0.09505274239346148,0.6929734344255479,0.10662307238922825
371,9.709999999999921,-0.41881079291322937,0.2092216016157801,0.33932940158831804,0.9996686398162115,-0.01728285239724848,-0.018976883204601364,0.06791111633450292,0.2409053636660628,-0.31300573212960003,-0.09523086404851991,0.6938605786211267,0.10926406446664405
372,9.71999999999992,-0.4801309079236429,0.12625092321205977,0.23653147706102412,0.9996460834198814,-0.020083894185378173,-0.017392547240388988,0.08235769390770165,0.2450674651127701,-0.32427557703855825,-0.09589680677589009,0.6943395209152065,0.11175106865972964
373,9.72999999999992,-0.5933418785683574,0.08836391209152594,0.13844419241086636,0.999624872260907,-0.02186232217696322,-0.016474218067243897,0.09680945074823598,0.2355780045739764,-0.33094751411217704,-0.09718223150372653,0.6944912261426511,0.11421012437571314
374,9.73999999999992,-0.7526637638377326,0.09786056969126669,0.04701998336383427,0.9996190653559256,-0.022675707802797845,-0.01572166194451084,0.11451676775415874,0.2134660021758813,-0.31856601233026766,-0.09927587393520759,0.6944655227879112,0.11682177433684848
375,9.74999999999992,-0.9036807334721393,0.09850941680801496,-0.023946591466667676,0.9996321663234259,-0.02264846185912724,-0.014912073761537003,0.14667761748476588,0.19240650685141447,-0.28691828812145515,-0.10222199977365687,0.6943288592675797,0.11969429414951516
376,9.75999999999992,-0.9763132164176404,0.03738995434041884,-0.060946521623823,0.9996529397397245,-0.022059974146299365,-0.014398661299117552,0.2122636051106138,0.18834019280093123,-0.2605821382012756,-0.10574447849618596,0.6939856157188267,0.12278485317627968
377,9.76999999999992,-0.9241646527712803,-0.08245682490785824,-0.06993775523455653,0.9996641964221671,-0.02125645645831538,-0.014810315617061334,0.31449102818021535,0.21208789740007897,-0.2574186437960366,-0.10932498189365832,0.6932821946746899,0.1258900626891727
378,9.77999999999992,-0.7546475854818947,-0.21825463273896706,-0.07041293023551948,0.9996544861804582,-0.02043288302570753,-0.016496186093167414,0.42406648195915786,0.25864597198563294,-0.2728941911293049,-0.11243394564910794,0.6921766183857627,0.12866199243392237
379,9.78999999999992,-0.4983919969432057,-0.34607651863165106,-0.08668524935493906,0.999618202073134,-0.01956332449942629,-0.01944872942908392,0.5043836523604518,0.31354231356641427,-0.2984718928301664,-0.11471824950939212,0.6907344297089915,0.13073156310926534
380,9.799999999999919,-0.21625814966625623,-0.4653618234684981,-0.13682491685288267,0.9995501122969257,-0.01840780743017049,-0.02358487791342904,0.5296043239002779,0.3603793317958795,-0.3265959406583062,-0.1160718562990987,0.6890094261187495,0.1318127260087821
381,9.809999999999919,0.01871846137789493,-0.5672032677141775,-0.23691169212797203,0.9994454279869057,-0.01655150633515759,-0.028770025948743908,0.4940073407064165,0.3895306954316252,-0.348697500962249,-0.11669401063242833,0.6870200837069406,0.13179268509147019
382,9.819999999999919,0.16954850626948914,-0.6253246507049157,-0.3769465250419053,0.999299107084147,-0.013551079409784932,-0.03474764668922209,0.4019241328300813,0.39170817669590163,-0.34518829247742383,-0.11699002977557568,0.6847907956120549,0.13073011608566035
383,9.829999999999918,0.27633871564801604,-0.6402214150844119,-0.5460970675446211,0.9991083109441412,-0.009051203464613591,-0.041077579210828885,0.26838679104786,0.36298629424204154,-0.31021415603719044,-0.11734757021138949,0.6824145026972234,0.12870597206006457
384,9.839999999999918,0.3927451414392013,-0.6361295286770724,-0.7358182225855385,0.9988606414611338,-0.002828530536202737,-0.04745470655103309,0.12786180183911977,0.3175247113146835,-0.26782206357555605,-0.11793054930215054,0.6799733298482206,0.1256827839890409
385,9.849999999999918,0.5371427478236025,-0.641382270187729,-0.9363783630718207,0.998522652621465,0.005257803382161043,-0.053865267528911076,0.004467821540439482,0.2778518226883677,-0.2402431277536543,-0.11870873453258206,0.6774763377540086,0.12151524283467346
386,9.859999999999918,0.6897357800560068,-0.6554054766790222,-1.1113446199669674,0.9980417254902532,0.015132165369595909,-0.060440169147962144,-0.0943508239822562,0.2495624362008293,-0.22896466975188598,-0.11957696113593752,0.6748923848953949,0.11614794336248571
387,9.869999999999918,0.8126514421680907,-0.6616823737864882,-1.2212472426946748,0.9973740980679702,0.02632133959415321,-0.06719943546839048,-0.1566389994623297,0.22647008836536933,-0.21522867815392277,-0.1204233124368163,0.6722327874766282,0.1097877047040624
388,9.879999999999917,0.884783323395041,-0.6882346291879242,-1.2585338331348415,0.9964944580006696,0.038108291078095546,-0.07421337798016114,-0.17549952979100764,0.20575778563696867,-0.1935338077304528,-0.12114337328156205,0.6694893241409963,0.10283360452411634
389,9.889999999999917,0.9090062573458403,-0.751516462144566,-1.2378445495460064,0.9953822373194229,0.049862904924070035,-0.08177779938920551,-0.15444419282735197,0.1884056964025704,-0.17233720317676068,-0.12169116494475522,0.6665587017299223,0.09571591145231137
390,9.899999999999917,0.8902043641841614,-0.8430375907679105,-1.1856350514560172,0.9940232076558737,0.06115528639443275,-0.09020640289385154,-0.10012345681789799,0.1730070407615495,-0.15125092250280248,-0.12206465059394009,0.6633210075965935,0.08877272059581079
391,9.909999999999917,0.8426839869464401,-0.9348258542288075,-1.1110239645635593,0.9924151232545151,0.0717446874694836,-0.09961746464149086,-0.030834164402907302,0.1634047011992229,-0.12976687652656954,-0.12230094867692018,0.659720371909139,0.08222840813209265
392,9.919999999999916,0.7773404718004296,-1.0296533625879132,-1.0275559191378336,0.9905636390400656,0.0815134489127193,-0.1099879111338166,0.035198365747613106,0.15888586392559934,-0.11035295470673062,-0.12243684033922647,0.6557529438760907,0.07620569462131942
393,9.929999999999916,0.6990861304432044,-1.1322440537938665,-0.9410351611443178,0.9884645265214081,0.0904056907388148,-0.12133275162604824,0.09210073981479408,0.15813606110993272,-0.08971311370190153,-0.1225086950240142,0.6513994364311149,0.07078989196451695
394,9.939999999999916,0.585522192293318,-1.2396232744517086,-0.8581503038579755,0.9860988043111476,0.09846965860824022,-0.13366863360570758,0.13793115869832748,0.15833743853233484,-0.06722232317213048,-0.12261246719561177,0.6466274399633994,0.06606130340664536
395,9.949999999999916,0.413024899644266,-1.33292889260813,-0.798380787757932,0.9834416746185304,0.10591549972788812,-0.1468862304521965,0.17296100446887314,0.1533967560798659,-0.04309195632286675,-0.12297148424200009,0.6414274398207833,0.06212029913738566
396,9.959999999999916,0.18321332065423881,-1.3883940941977135,-0.7715316778260449,0.9804792777555462,0.11315173549211843,-0.16064166431973412,0.1873315149585203,0.13603881101035395,-0.009957992097405322,-0.12392021131017218,0.6358586520179706,0.05903590720132823
397,9.969999999999915,-0.08298650069220158,-1.4067247805854057,-0.7813097995894567,0.9772206880650959,0.12065091518789224,-0.1744440649518955,0.1733484091978561,0.11022437937797036,0.03068050151393763,-0.1257682297273361,0.6300416383264676,0.056798372907162706
398,9.979999999999915,-0.33881203692196504,-1.4062675403230909,-0.8274706897611569,0.9736634981448572,0.1288689195957681,-0.18793336357775312,0.13848296004652658,0.08253020781069997,0.06926446142668434,-0.12870210682743438,0.6240670537996765,0.055283609591919705
399,9.989999999999915,-0.5495010941065226,-1.4020280661505888,-0.9090618314075709,0.969770447210379,0.1381699267243248,-0.2009938011568125,0.0972222996669759,0.057257056423852135,0.10192149065244055,-0.13273644336873125,0.6179585365721848,0.05425067372550289
400,9.999999999999915,-0.6968972129682224,-1.3990994905259084,-1.0181340472257967,0.9654774353838471,0.14879986804668888,-0.2136623935743967,0.061624975593151506,0.04012074393450573,0.1245577217190185,-0.13775266963200428,0.6117020676287315,0.05339064038385056
401,10.009999999999915,-0.7827600539488733,-1.3908152628141441,-1.1416580100840044,0.9607295940685151,0.16084194654491746,-0.2259701797338104,0.03486093741750448,0.03021606394954522,0.1402666496426568,-0.14356478760730368,0.6053002841831363,0.05242300800763329
402,10.019999999999914,-0.8301418359841242,-1.3751293551203778,-1.2638087752824245,0.9554983066101745,0.17424343284451435,-0.23788696009321528,0.00940930563924217,0.023746717858816203,0.15172354365531962,-0.14999248998146353,0.5987833017773723,0.05116211744760647
403,10.029999999999914,-0.8572245024179816,-1.3472028897372321,-1.3779443224040286,0.9497726645387742,0.1888926333688933,-0.24934656793171447,-0.013547537178529622,0.01608398128848427,0.16135239328688727,-0.15690744583859068,0.5921891728646194,0.049522010561310996
404,10.039999999999914,-0.8611150938838174,-1.3065461446046138,-1.492688201587884,0.9435555634183624,0.20468535208888958,-0.2602374587218472,-0.03715979251600644,0.007691709183028223,0.17367214647309814,-0.16421601199142122,0.5855719754336453,0.04744242074544742
405,10.049999999999914,-0.8326831199046517,-1.2564510953612538,-1.603183965230773,0.9368458006159393,0.221500941122841,-0.2704971656704485,-0.0594456080828968,-0.006284009431529743,0.18686585660511495,-0.1718027256263817,0.5789773464213793,0.0448458165124406
406,10.059999999999913,-0.7549528035183845,-1.2056675791325642,-1.6945456092466404,0.9296451536449788,0.23909984659413422,-0.28017567843335967,-0.07433422599257174,-0.022084466337111915,0.20243630799628493,-0.17946385677644816,0.572437385143381,0.04164010899181615
407,10.069999999999913,-0.6372606811552276,-1.1632485519295799,-1.7680298448860365,0.9219599178625327,0.2571350561817336,-0.2894411247856983,-0.07971106046126765,-0.033162889165415835,0.21632722013807365,-0.18695389466240853,0.5659578053923723,0.037774235074263085
408,10.079999999999913,-0.5059922248348332,-1.1364015105048666,-1.8230415358041852,0.9137829566435128,0.27532365762208505,-0.2984971744920212,-0.07446922686207491,-0.039766176445354365,0.22505953175508886,-0.19410576650076475,0.5595141507150916,0.03325191496599633
409,10.089999999999913,-0.3948998561180467,-1.1213131539974943,-1.8587651077983196,0.905114594947916,0.29345028787096933,-0.3075010571632116,-0.05825783708088788,-0.04702676405845619,0.2300379056201622,-0.20086704564753016,0.5530684279003766,0.028175979765613948
410,10.099999999999913,-0.3220068280328079,-1.1132562887258424,-1.8684359920909386,0.8959812447908015,0.3113621045616082,-0.3165025638421486,-0.038449782129930526,-0.05983954822025231,0.23526621253775837,-0.2072911860440351,0.5465917964517278,0.02273968660229068
411,10.109999999999912,-0.2984317168048449,-1.104500978093689,-1.8484557612776762,0.8864619341321477,0.32893193249214886,-0.3254127443412294,-0.014567153739760683,-0.08066987405831921,0.24176697170592185,-0.2134826019555836,0.5400951586674962,0.017181859939500478
412,10.119999999999912,-0.3207951090106479,-1.0750199171631372,-1.7945897604229863,0.8767125391881259,0.3460197985915888,-0.33399749380585814,0.008924273960696174,-0.11194659618190086,0.25554960931605136,-0.21955011107457859,0.5336510259275675,0.01175571795747424
413,10.129999999999912,-0.3684543831816277,-1.0196577262308781,-1.7172990754488309,0.8669432461224773,0.36249818044087806,-0.3419357344910615,0.027364725875035592,-0.14972627206704367,0.28186584963810585,-0.2255655177919529,0.5273873270987344,0.006650289394168819
414,10.139999999999912,-0.4148738278580083,-0.9477921281210278,-1.6297382180775721,0.8573476123431062,0.3782834239694399,-0.3489705375901247,0.03530149209224896,-0.1856173034570091,0.31281811250619596,-0.23154098942050721,0.5214302356195059,0.0019405908193522604
415,10.149999999999912,-0.43373013257229887,-0.8741977083312571,-1.545057260744924,0.848021218270608,0.39331877185376707,-0.3550946476839994,0.029787377188569004,-0.20961404686470986,0.3378038909120063,-0.23740808538028746,0.5158267179786195,-0.002413848685349316
416,10.159999999999911,-0.42546175971309785,-0.8076825129003923,-1.4673706561498865,0.8389829834533967,0.40756799346810707,-0.36046502617650883,0.016457490276222137,-0.22274500439029443,0.34502005589310725,-0.24306513321793807,0.5105636289143038,-0.006507163874886621
417,10.169999999999911,-0.4028199984628712,-0.7477423070306295,-1.369963723557666,0.8302876329862848,0.4209210432556097,-0.3652321925103136,0.008529591148841921,-0.2286977297318171,0.33686138692293505,-0.2484150651099993,0.5056319231619979,-0.010358125218969325
418,10.179999999999911,-0.402678018400455,-0.6910336364191537,-1.2431898266933235,0.8220689829077958,0.43320089010254575,-0.3694515719785298,0.015621897842448378,-0.23739942251421522,0.331373541004449,-0.25340826552585904,0.5010485507667424,-0.013853838748450042
419,10.18999999999991,-0.43614466837211413,-0.6469743642818124,-1.1035966673912518,0.8144380256132249,0.4443592076720618,-0.3730931600645288,0.039038380988609414,-0.2522042139982949,0.33114016719417294,-0.25811267416298517,0.49681339014641496,-0.016823424319666314
420,10.19999999999991,-0.501805084768034,-0.6064259230072535,-0.966281153767139,0.8074478966433154,0.45449449099895,-0.3760749037916762,0.070445766489375,-0.2719116615227329,0.3342349144490344,-0.26266107789346155,0.49291451952530246,-0.01913951697477801
421,10.20999999999991,-0.5805074256850574,-0.559966800811779,-0.8374661385430361,0.801117470169834,0.46378231630127326,-0.3782748962695134,0.10028281493522123,-0.2894850960049943,0.33638023216298274,-0.26717620344929705,0.489359741753349,-0.02077561371605101
422,10.21999999999991,-0.6543761958933226,-0.48764113536128584,-0.7129018398510955,0.795507567801382,0.47231410426746334,-0.3795616741212582,0.12819917742331224,-0.3026292594790874,0.3378769927131306,-0.27169198324083793,0.48620644987065015,-0.021773522871663023
423,10.22999999999991,-0.713799256499459,-0.39083492044906787,-0.5839056160277525,0.7907482500621695,0.4800681932458893,-0.3797843090011776,0.14559742718244606,-0.3153587304165844,0.3425864132157234,-0.276164546743891,0.4835656949502695,-0.02219896555553307
424,10.23999999999991,-0.747032594373196,-0.2760085878217324,-0.4513344397249648,0.7869816894252836,0.4869293203067987,-0.37887731612978437,0.15256374047062568,-0.32994503932157815,0.34975776920549034,-0.280493707944774,0.48153948625231824,-0.02210977548322597
425,10.24999999999991,-0.7356007220249474,-0.14412219152665112,-0.325924405858693,0.7842927000999176,0.4927862427297141,-0.37687952802370306,0.15701820000399555,-0.3424230394016086,0.3535771532328581,-0.28454016576006513,0.48020177831862354,-0.02162491788674445
426,10.25999999999991,-0.6614644776471942,-0.01702370528253376,-0.20996999666807248,0.782679015307077,0.4975204849057931,-0.3740064225206142,0.1640850226559079,-0.3495183229176674,0.3507942679178838,-0.2881031711841703,0.4795737565270213,-0.02093701245272886
427,10.269999999999909,-0.5301098976749048,0.07884949304115754,-0.08827549799704654,0.782054568887843,0.5009266208048949,-0.3707549777746338,0.18181153217629303,-0.3484533507501298,0.3353609051489857,-0.290938886449557,0.4795578207265986,-0.02017335022522581
428,10.279999999999909,-0.37469501646433395,0.16407046473738096,0.05221492505253587,0.7824036296138014,0.5027469896471413,-0.367542614335266,0.21903246176443447,-0.33952227377105665,0.30745678149861333,-0.2928440911134598,0.4800733345822878,-0.01934304801956406
429,10.289999999999909,-0.24468658585112252,0.2817894215704486,0.2103463941471777,0.7838600814998772,0.502856805915146,-0.3642738717722963,0.2667671185580801,-0.3268543859460414,0.27692293044392857,-0.2937842799991207,0.48119999089321686,-0.01838723221403995
430,10.299999999999908,-0.1595358201464308,0.4348421107061562,0.3940758932153604,0.7866706897334514,0.5012099907167662,-0.36046003172999486,0.3144307709991,-0.31654633121324716,0.2617684142678217,-0.29385003575255847,0.48313682364469973,-0.01718423451595338
431,10.309999999999908,-0.10996291018309129,0.5786690017224965,0.6018737681446982,0.7909839215357822,0.497762413559557,-0.3557588321132677,0.3648314077154859,-0.3101009383336451,0.2666452362407378,-0.2931562640093107,0.48598139120878703,-0.015555553138306245
432,10.319999999999908,-0.08644700364983923,0.6533042609257614,0.8218584001502366,0.7967061141793851,0.4924450777598035,-0.35033796954445345,0.4264496148114154,-0.30542037888279344,0.2785313190942359,-0.29177379951053223,0.4895872698033538,-0.013294738513954359
433,10.329999999999908,-0.0856598420123397,0.6430284176969603,1.013087337476695,0.8034795292325395,0.48536864258720647,-0.3446888191079405,0.49552184607594274,-0.29705655686736443,0.28105299080433244,-0.28981790402081553,0.49361616548737236,-0.010260000232064158
434,10.339999999999907,-0.11472847780561407,0.5600650816152377,1.1460280777969116,0.8107606711354582,0.4769552083056829,-0.3393366343815874,0.550075091897775,-0.29193448768688873,0.2614189230926082,-0.28750548628353917,0.49766245198642095,-0.006456016020204812
435,10.349999999999907,-0.20793625199223695,0.47882110987924553,1.219022683956821,0.8181071560485839,0.46781974006159477,-0.33438417759717326,0.5656093377053498,-0.3016753241916507,0.21264493057119882,-0.2851711907883047,0.5014792635216564,-0.001956521374978262
436,10.359999999999907,-0.39699468101124424,0.4309532308892869,1.2548930863635768,0.8253494616550292,0.45861592356188435,-0.3292979776004024,0.5204912890207625,-0.3307804735109556,0.14462686755176704,-0.28326273285496223,0.5050842554000045,0.0032048866306879004
437,10.369999999999907,-0.6662131614736408,0.4280934284285005,1.2759063831643596,0.8324956566088867,0.449833526666018,-0.3233697308731229,0.4130313585910149,-0.3682062962707632,0.09505405144167055,-0.28221462890143484,0.508593639286579,0.009099978706537986
438,10.379999999999907,-0.9584830915794057,0.49568951233597347,1.296747398591655,0.8396964509179972,0.4416675136809319,-0.31591745515320147,0.26910810805603774,-0.39883129959653296,0.09850251225869963,-0.2822651583730642,0.5122157168581796,0.015763500912847003
439,10.389999999999906,-1.1829484258076195,0.6423901195478972,1.3170669673299733,0.8471822602354753,0.4339895323130626,-0.30641797225775746,0.12091321282103949,-0.41342863479434694,0.13427923395513872,-0.2833261812752553,0.516249434312727,0.02303324255466844
440,10.399999999999906,-1.2444454810938361,0.8223775166999553,1.3349856486809248,0.8550899665645869,0.42638332303975407,-0.29489802887443856,-0.01146467573931445,-0.4110986421356363,0.15677871344415878,-0.2849298731438796,0.5209229047505468,0.03052030807492318
441,10.409999999999906,-1.1007031705726091,0.9538967018180766,1.3500159679386543,0.8633351061295159,0.4182735710600444,-0.2822036266904488,-0.10611861534841309,-0.3905777372786115,0.14573380114353154,-0.2863263829109426,0.5262215656915038,0.0377320362357059
442,10.419999999999906,-0.7735041342721992,0.9990211853418878,1.3606628905004008,0.8716538060524494,0.40913490442212774,-0.269753005459405,-0.14803326115043774,-0.3469909238302256,0.10256710296030797,-0.28671989162436873,0.5318915629922766,0.044232558017926075
443,10.429999999999906,-0.3560270265317788,0.9753366276641636,1.3852733527962668,0.8798177400473052,0.3986205629702003,-0.2587731593460569,-0.13020484257329018,-0.281385356416402,0.04702471306874291,-0.2855326827638571,0.5376591267807819,0.04977370956462562
444,10.439999999999905,0.03158102396465384,0.9339638834954845,1.4442297702823885,0.8877935622203689,0.38653626001645547,-0.24970776872312053,-0.06813860963787427,-0.20579449183454623,0.0008550518915967781,-0.28258321223843785,0.5434003842458157,0.05442274513897584
445,10.449999999999905,0.31286993151843356,0.907056550995303,1.5431918442401855,0.8957206083154875,0.3727882632560971,-0.24217886149287504,0.008965083497784736,-0.1447472904660675,-0.024484857668492246,-0.2780584971090154,0.5491653438496819,0.05851410843611016
446,10.459999999999905,0.4498283021904852,0.9065569065774675,1.6599042016031182,0.9037278573899271,0.35744652860241766,-0.2354507649985459,0.07989381013961441,-0.11583640737493008,-0.02990417757010964,-0.2723794409512111,0.5550406019566619,0.06247261938916299
447,10.469999999999905,0.4772013321773035,0.928905362390712,1.774490593040783,0.9118522651830948,0.3407576507979609,-0.2287570742312991,0.13095720843095465,-0.12009485943141929,-0.019445771569844016,-0.26604444608172595,0.5610936560363321,0.0666466280699414
448,10.479999999999905,0.45750093662333235,0.9716185486453222,1.876083114707733,0.9200492077934829,0.32297746945763384,-0.2215996624284288,0.15892120957455647,-0.13395703561183825,0.0003187869022661712,-0.2593991340005247,0.567358256109645,0.07119858083302369
449,10.489999999999904,0.4602574438938929,1.0376626064282994,1.9562401161941043,0.9282486448036592,0.3042530042788256,-0.21374557509071668,0.16670150360031957,-0.1345611483296472,0.017251235321907823,-0.2525259792459195,0.5738812363444564,0.07606630015968341
450,10.499999999999904,0.5444437567578365,1.1297647103050932,2.0090884620266554,0.93635926887477,0.28470636579864583,-0.205103905823023,0.14342559719096104,-0.11428222283331127,0.017907640671115273,-0.24530002609757628,0.5807371950050246,0.08096189905138397
451,10.509999999999904,0.7407710298040568,1.2334518812032491,2.0371017388526798,0.9442847589002417,0.2644033162793189,-0.19571203654798677,0.08721470458438277,-0.07578581013440402,-0.0011349299453067563,-0.23743596774624517,0.5880003900354072,0.08547561010714103
452,10.519999999999904,1.063743231767869,1.3129036503320861,2.0343874094251966,0.9518930401515161,0.2433760459936634,-0.1858700445840216,0.016809824369117175,-0.016962012900106502,-0.040165159362254725,-0.2285357223678715,0.5956573112714459,0.08915656782058586
453,10.529999999999903,1.4219930639529288,1.3438110388268905,1.9742162525959832,0.9589882775416739,0.22193308519150604,-0.1759732603621668,-0.04384719155475264,0.0554600733895094,-0.09027404713319656,-0.2183766156172431,0.603564883937809,0.09160505315847793
454,10.539999999999903,1.7701711611259832,1.2997377065878772,1.9214349132949986,0.9653685529317879,0.20046311517043577,-0.16662202102233414,-0.0840509178215718,0.1272118652413881,-0.13435923879781653,-0.20696299137795454,0.6114048804951988,0.09269370411636908
455,10.549999999999903,2.1958098600763485,1.2742877873452805,1.8193673789898692,0.9710215556116624,0.17911599322471292,-0.15787375165804884,-0.10567494818996594,0.18398965334400225,-0.15819683428637482,-0.1943468372967334,0.6190700939922581,0.09244316034061288
456,10.559999999999903,2.687837268357325,1.200892278440348,1.6913534868886706,0.9758988132754269,0.15827232965258362,-0.14990179504017273,-0.11259304305013547,0.2167950402347931,-0.17424079656457908,-0.18021034824582094,0.6265145192926571,0.09025798325588937
457,10.569999999999903,2.902179917509881,1.1613667609667067,1.5860171447251648,0.9800557326885293,0.13811439357922703,-0.14255778506204378,-0.1130364364765249,0.2678560540059598,-0.24002549120854233,-0.16497787995747284,0.6335979813925556,0.08653610813470226
458,10.579999999999902,2.851130229420291,1.19411829740868,1.4535596830829423,0.983649910970527,0.11916026417560521,-0.13472228087379853,-0.13044072434956633,0.28841962183671305,-0.2638207788168199,-0.1497907055078828,0.6404276127617504,0.08211232117983124
