time,seconds_elapsed,rotationRateX,rotationRateY,rotationRateZ,gravityX,gravityY,gravityZ,accelerationX,accelerationY,accelerationZ,quaternionW,quaternionX,quaternionY,quaternionZ
1681265668300780500,0.118780517578125,-0.1366361677646637,0.09657308459281921,0.03526517003774643,0.2313365340232849,0.09230004996061325,-0.9684854745864868,-0.0064830780029296875,-0.01878322660923004,0.008707642555236816,0.9920900691472541,-0.0465179799986137,0.11659048657883948,-4.028479432718592e-17
1681265668310825500,0.128825439453125,-0.15567944943904877,0.09693841636180878,0.03287551552057266,0.23228242993354797,0.09346553683280945,-0.9681472182273865,-0.010236591100692749,-0.02751707285642624,0.007224977016448975,0.9920048311477241,-0.04713832629542901,0.11706562977251259,0.0002449720145367665
1681265668320869400,0.138869384765625,-0.1482473611831665,0.09961701929569244,0.03169919550418854,0.23326176404953003,0.09477666765451431,-0.9677842259407043,-0.010071516036987305,-0.025120310485363007,0.005198776721954346,0.9919131917702845,-0.04783130664246715,0.11755870248576576,0.0004778018112193633
1681265668330913500,0.14891357421875,-0.11702127009630203,0.1085468977689743,0.03564653545618057,0.23430877923965454,0.09594254195690155,-0.9674163460731506,-0.008539795875549316,-0.015727102756500244,0.0031371712684631348,0.991820359104429,-0.04845037020105979,0.11808632335932093,0.0007011344004863123
1681265668340958700,0.158958740234375,-0.07454917579889297,0.11422768235206604,0.02821578085422516,0.23544104397296906,0.09679379314184189,-0.9670566320419312,-0.009824663400650024,-0.007285758852958679,0.001251518726348877,0.9917295715698214,-0.048906675095155575,0.1186584818726905,0.0008874005866425862
1681265668351003600,0.169003662109375,-0.05524395778775215,0.11822860687971115,0.02791644260287285,0.23656107485294342,0.09732640534639359,-0.9667297601699829,-0.010288521647453308,-0.002386234700679779,0.00385439395904541,0.9916475338818346,-0.049073085032203936,0.11927679220639589,-1.68570773072712e-17
1681265668361047800,0.1790478515625,-0.04878019914031029,0.12117113918066025,0.025655684992671013,0.2376805543899536,0.09768516570329666,-0.9664189219474792,-0.011102825403213501,-0.002699226140975952,-0.0008661746978759766,0.9915691614842346,-0.0492751640938321,0.11984360393737281,0.0001431076948006062
1681265668371091700,0.189091796875,-0.06537101417779922,0.12010498344898224,0.02942991629242897,0.23879988491535187,0.09804828464984894,-0.9661061763763428,-0.008361682295799255,-0.005137525498867035,-0.0062448978424072266,0.9914902598876751,-0.049480191020319496,0.12041022530627321,0.0002905576083365611
1681265668381135600,0.199135498046875,-0.09275230020284653,0.11478745192289352,0.033983390778303146,0.23985576629638672,0.09851385653018951,-0.9657971858978271,-0.008563056588172913,-0.008731156587600708,-0.010643243789672852,0.991412315301668,-0.0497420586449487,0.12094265808285819,0.0004792499381207347
1681265668391180800,0.209180908203125,-0.1190849170088768,0.10799404978752136,0.0377805233001709,0.24083080887794495,0.09915771335363388,-0.965488612651825,-0.006776273250579834,-0.011892713606357574,-0.014659702777862549,0.9913343044801156,-0.050098734899879614,0.121432326355148,0.0007060605322266229
1681265668401224700,0.219224609375,-0.1317564994096756,0.10397560894489288,0.0360417477786541,0.24174992740154266,0.10001558810472488,-0.9651703834533691,-0.0020801573991775513,-0.011178933084011078,-0.01325368881225586,0.9912539066055364,-0.05056564893097449,0.12189309606186559,0.0009483992956250747
1681265668411267600,0.229267578125,-0.12691110372543335,0.09885317087173462,0.03640154004096985,0.2426239401102066,0.1010015606880188,-0.9648483395576477,0.0015776753425598145,-0.010516948997974396,-0.014262378215789795,0.9911724039831759,-0.0510971624803652,0.12233116461358282,0.0011879067001899727
1681265668421311500,0.2393115234375,-0.10939896106719971,0.09699561446905136,0.04050254076719284,0.24346302449703217,0.1019522175192833,-0.9645369648933411,0.004705891013145447,-0.0038839951157569885,-0.011659383773803711,0.991093550395223,-0.0516117036715884,0.12275082039647071,0.0014331324340390887
1681265668431356400,0.2493564453125,-0.08978328853845596,0.10621482133865356,0.041445035487413406,0.24434137344360352,0.10275773704051971,-0.9642292857170105,0.0031408965587615967,-0.0005543828010559082,-0.008335411548614502,0.9910155555006943,-0.05205252872848198,0.12319044570897945,0.0016721783850862752
1681265668441400600,0.259400634765625,-0.07284372299909592,0.11895965039730072,0.039323825389146805,0.24529998004436493,0.10337112843990326,-0.9639202952384949,-0.002654746174812317,0.0015482902526855469,-0.001152336597442627,0.9909372034427617,-0.05239386705220984,0.1236718978832452,0.001887791516877033
1681265668451444500,0.269444580078125,-0.07342330366373062,0.12151181697845459,0.03990492969751358,0.24637098610401154,0.10386139154434204,-0.963594377040863,-0.007601484656333923,0.009160444140434265,0.004381120204925537,0.9908545889058316,-0.05267202936068565,0.12421136053960241,0.002090187434937692
1681265668461488400,0.27948828125,-0.10975201427936554,0.10481858998537064,0.05923761427402496,0.24736064672470093,0.10446872562170029,-0.963275134563446,-0.006317585706710815,0.011223405599594116,0.005831897258758545,0.9907733924629705,-0.05301916304311408,0.12470524465025923,0.002370507350744217
1681265668471533600,0.289533447265625,-0.1603173017501831,0.09617225080728531,0.046967897564172745,0.2482507973909378,0.10548727959394455,-0.9629350900650024,0.008218899369239807,-0.017413564026355743,0.0026689767837524414,0.9906866870405906,-0.053581841224626184,0.12514570034574937,0.002710242138926053
1681265668481577500,0.299577392578125,-0.1689976006746292,0.08745519071817398,0.03610672801733017,0.249077707529068,0.10685861110687256,-0.9625702500343323,0.01817995309829712,-0.031907446682453156,0.005127012729644775,0.9905938235416041,-0.054317424136272364,0.12555668247877935,0.003004229013833145
1681265668491621400,0.309621337890625,-0.12706336379051208,0.075102798640728,0.02719445899128914,0.24982577562332153,0.10807204991579056,-0.9622408747673035,0.014029175043106079,-0.006265424191951752,0.004828155040740967,0.9905099758394256,-0.05496515179103882,0.1259301020615278,0.0032359671377096533
1681265668501665300,0.319665283203125,-0.0922025814652443,0.061969954520463943,0.02479042485356331,0.25047266483306885,0.10895463824272156,-0.9619731307029724,0.008056968450546265,0.018837712705135345,0.0009593367576599121,0.9904417868571441,-0.05543863847981801,0.1262536434734962,0.0034171401164555856
1681265668511710500,0.32971044921875,-0.06728147715330124,0.051383115351200104,0.025263933464884758,0.25101161003112793,0.10958847403526306,-0.9617606401443481,0.010142534971237183,0.026016369462013245,-0.0032204389572143555,0.99038755786662,-0.055783333893789415,0.1265223239889903,0.0035794601411144817
1681265668521754600,0.339754638671875,-0.04233911633491516,0.044057294726371765,0.03219800814986229,0.2514399290084839,0.10998973250389099,-0.9616029262542725,0.013101667165756226,0.025691404938697815,0.0008485913276672363,0.9903472034888933,-0.05601005164357772,0.1267335723537811,0.0037443318316274167
1681265668531798300,0.34979833984375,-0.024558674544095993,0.040016863495111465,0.03977656364440918,0.25179392099380493,0.11023524403572083,-0.9614821672439575,0.013235926628112793,0.02500338852405548,0.006953418254852295,0.990315927955771,-0.0561591286583865,0.12690569195425694,0.003921486318001611
1681265668541842400,0.359842529296875,-0.02972174435853958,0.03873268887400627,0.05462954565882683,0.252150297164917,0.11042904108762741,-0.9613665342330933,0.01854059100151062,0.021788351237773895,0.013032793998718262,0.9902858016181142,-0.0562885573980121,0.12707605511484005,0.004149000707020743
1681265668551887600,0.3698876953125,-0.060403186827898026,0.02836914360523224,0.06711897253990173,0.2525864243507385,0.11051886528730392,-0.9612417221069336,0.025474458932876587,0.01573234796524048,0.016280174255371094,0.990252866120391,-0.05637922924584445,0.12728123485093476,0.004480326963310206
1681265668561931300,0.37993115234375,-0.09996098279953003,0.022128291428089142,0.07844433188438416,0.25305861234664917,0.11080529540777206,-0.9610845446586609,0.031426191329956055,0.006504260003566742,0.02094477415084839,0.9902111269470016,-0.05658350220202166,0.1274991423344922,0.004917406280091287
1681265668571975400,0.389975341796875,-0.12468957155942917,0.017722951248288155,0.09180541336536407,0.25345322489738464,0.11159685254096985,-0.9608889818191528,0.03907299041748047,-0.0010621920228004456,0.025845646858215332,0.9901591502084155,-0.05705099994766173,0.12767419598952864,0.005413342591048252
1681265668582019600,0.40001953125,-0.1165059506893158,0.023603476583957672,0.1069641262292862,0.25379812717437744,0.11264974623918533,-0.960675060749054,0.03915533423423767,-0.003137432038784027,0.024365246295928955,0.9901020385724325,-0.05765814310097133,0.12782023734716813,0.005965976783495245
1681265668592064300,0.410064208984375,-0.09976828098297119,0.02689792588353157,0.11205582320690155,0.25422197580337524,0.11358152329921722,-0.9604532122612,0.03589335083961487,0.005681164562702179,0.02475374937057495,0.9900422266242646,-0.058211207451972405,0.12800326092266714,0.006568524228299949
1681265668602108400,0.4201083984375,-0.10960253328084946,0.023980431258678436,0.1222195103764534,0.2546830475330353,0.11445267498493195,-0.9602276086807251,0.041291624307632446,0.01622357964515686,0.027793586254119873,0.9899807475528034,-0.058737817048932627,0.12820315983641645,0.007199292045818439
1681265668612152600,0.430152587890625,-0.1370929330587387,0.026882536709308624,0.13466578722000122,0.25516706705093384,0.11547910422086716,-0.9599761962890625,0.044027239084243774,0.01632630079984665,0.0269622802734375,0.9899120238230414,-0.05935211464961163,0.12841033824609582,0.007895143460113035
1681265668622196500,0.440196533203125,-0.1635197550058365,0.026827409863471985,0.14001154899597168,0.2557210326194763,0.11673101782798767,-0.9596773386001587,0.042649298906326294,0.002730034291744232,0.03179037570953369,0.9898301075409683,-0.060091288452017305,0.1286482023881451,0.008664390783104879
1681265668632241400,0.450241455078125,-0.1810324341058731,0.0381074957549572,0.14040330052375793,0.25640562176704407,0.11812666058540344,-0.9593238234519958,0.03784480690956116,-0.010124966502189636,0.03746408224105835,0.9897334380302643,-0.06090871062344823,0.12895041112466382,0.00946144345003761
1681265668642285600,0.46028564453125,-0.18657580018043518,0.04827890917658806,0.13650736212730408,0.25724607706069946,0.11954884231090546,-0.9589225649833679,0.03048887848854065,-0.015087194740772247,0.044356584548950195,0.989624051069692,-0.061742851120547636,0.1293310783755196,0.010266586401844347
1681265668652329500,0.47032958984375,-0.1851179599761963,0.0641147717833519,0.12999513745307922,0.2582160532474518,0.12095508724451065,-0.9584854245185852,0.02459031343460083,-0.016569726169109344,0.049488842487335205,0.9895053499458742,-0.06256735492725314,0.12977906654604912,0.011043291565709521
1681265668662373600,0.48037353515625,-0.16776640713214874,0.0923653170466423,0.12190738320350647,0.25930044054985046,0.12227044999599457,-0.9580256938934326,0.01607489585876465,-0.02241694927215576,0.05548357963562012,0.9893808572128212,-0.06334074086620141,0.13028854509128493,0.011765347509391727
1681265668672418300,0.490418212890625,-0.1496705859899521,0.12556709349155426,0.11701808869838715,0.2606235444545746,0.12348359823226929,-0.9575109481811523,0.0025142431259155273,-0.02491183578968048,0.059760093688964844,0.9892425712954978,-0.06405876700140783,0.1309236845660765,0.01243364532473061
1681265668682462500,0.50046240234375,-0.15292710065841675,0.164454847574234,0.11687774211168289,0.2622707486152649,0.12464781105518341,-0.9569101333618164,-0.01541408896446228,-0.030455313622951508,0.0677804946899414,0.9890827062503768,-0.06475101929743218,0.1317279116153169,0.013058806807581756
1681265668692506600,0.510506591796875,-0.1661669760942459,0.20764362812042236,0.12348157912492752,0.26429834961891174,0.1258666217327118,-0.9561924338340759,-0.02865689992904663,-0.039288267493247986,0.07591289281845093,0.9888926435963177,-0.065478758272535,0.1327264530166152,0.0136984712364506
1681265668702550500,0.520550537109375,-0.18709303438663483,0.2500973343849182,0.13710737228393555,0.26672911643981934,0.12717114388942719,-0.9553444981575012,-0.03865605592727661,-0.04629959166049957,0.07970362901687622,0.9886684692570237,-0.0662629882144864,0.13392899754576643,0.014384898991081682
1681265668712595500,0.530595458984375,-0.23886720836162567,0.2929629683494568,0.15327516198158264,0.26956528425216675,0.12877851724624634,-0.9543325901031494,-0.048404425382614136,-0.04900556802749634,0.08151459693908691,0.9884010431894054,-0.0672196666773855,0.1353337829264191,0.015153148671847116
1681265668722639600,0.5406396484375,-0.31744110584259033,0.32960328459739685,0.17533598840236664,0.2727809548377991,0.13096436858177185,-0.9531205892562866,-0.05732688307762146,-0.055128201842308044,0.08426988124847412,0.9880802867632651,-0.06849584458604253,0.1369234131558547,0.016046990599674682
1681265668732683500,0.55068359375,-0.4046376049518585,0.3632065951824188,0.20549015700817108,0.2763504683971405,0.13385915756225586,-0.9516890645027161,-0.06190350651741028,-0.06276848912239075,0.09081876277923584,0.9877000176905316,-0.07016675859337211,0.13867977099076584,0.01711951856444088
1681265668742727400,0.5607275390625,-0.501467227935791,0.4052334129810333,0.23835037648677826,0.2803044319152832,0.13754883408546448,-0.9500051140785217,-0.06427055597305298,-0.06882327795028687,0.0998464822769165,0.987250782052298,-0.07228322633371435,0.1406149654036705,0.0183995519334079
1681265668752772600,0.570772705078125,-0.6449015736579895,0.4458218216896057,0.28127148747444153,0.2847236096858978,0.1422424465417862,-0.9479976296424866,-0.06472241878509521,-0.07469180226325989,0.11642414331436157,0.9867124029234471,-0.07496332838856176,0.14276439401563792,0.019935099847926317
1681265668762816500,0.58081640625,-0.8745155930519104,0.4810653030872345,0.3425185978412628,0.2895950973033905,0.1484946459531784,-0.9455601572990417,-0.06211712956428528,-0.0871695876121521,0.13837021589279175,0.9860543287751333,-0.07851117174045148,0.14510657096568708,0.02183883881630673
1681265668772860400,0.5908603515625,-1.2095102071762085,0.5045251250267029,0.40979909896850586,0.29485538601875305,0.15721890330314636,-0.9425192475318909,-0.05689460039138794,-0.11370085179805756,0.16746431589126587,0.9852266481668301,-0.08342084430816099,0.1475850437560342,0.024250320260066457
1681265668782904300,0.600904296875,-1.637683391571045,0.5201905965805054,0.49605727195739746,0.300433874130249,0.16927559673786163,-0.9386613965034485,-0.04745844006538391,-0.15854868292808533,0.2020586133003235,0.9841667837116332,-0.09016739714367611,0.15013036935200505,0.02732262405510263
1681265668792949500,0.610949462890625,-2.1245784759521484,0.532871425151825,0.5960701704025269,0.3063696622848511,0.18528640270233154,-0.9337058663368225,-0.03844061493873596,-0.20640458166599274,0.23788976669311523,0.9827917755840754,-0.09911355109440266,0.15272060237088042,0.031199340350828025
1681265668802993400,0.620993408203125,-2.613490104675293,0.5469664931297302,0.7123501896858215,0.3127095401287079,0.20540986955165863,-0.927372395992279,-0.02772119641304016,-0.24059666693210602,0.27568477392196655,0.981015871320366,-0.1103881797741803,0.15533275500932636,0.03597193147456187
1681265668813037300,0.631037353515625,-3.0877699851989746,0.5577316284179688,0.8364838361740112,0.3195265829563141,0.22941742837429047,-0.9193859100341797,-0.019645631313323975,-0.25570833683013916,0.3086528778076172,0.9787514502773956,-0.12392807661414572,0.15795215764487197,0.04169663690988022
1681265668823081500,0.64108154296875,-3.51733660697937,0.5501275062561035,0.9659401178359985,0.32683703303337097,0.2568565607070923,-0.909506618976593,-0.01035451889038086,-0.2537742853164673,0.3333194851875305,0.9759157646462652,-0.13955793183127782,0.16053122744271278,0.048392509351059675
1681265668833126700,0.651126708984375,-3.9190704822540283,0.5243338942527771,1.10472571849823,0.33454781770706177,0.2871648669242859,-0.8975600600242615,0.003708958625793457,-0.24807187914848328,0.353202760219574,0.9724378807867453,-0.1570493663530855,0.1629584449735032,0.05607757041877856
1681265668843170300,0.66117041015625,-4.26072359085083,0.4977041780948639,1.251025915145874,0.3427053391933441,0.319793701171875,-0.8833374381065369,0.019492506980895996,-0.2409820556640625,0.36408084630966187,0.9682327162741838,-0.17619186504372952,0.16518992948135236,0.06476110435573589
1681265668853214500,0.67121435546875,-4.546901226043701,0.4655905067920685,1.4117196798324585,0.351443350315094,0.353889137506485,-0.8667468428611755,0.03205573558807373,-0.23261234164237976,0.37744325399398804,0.9632406300769807,-0.19662064098559026,0.16723310485973003,0.07443752103372327
1681265668863258400,0.68125830078125,-4.788425922393799,0.4248281419277191,1.5892173051834106,0.3608923554420471,0.38873711228370667,-0.8477264642715454,0.04123774170875549,-0.23587456345558167,0.3965393304824829,0.9573988271474494,-0.2180554821093189,0.16908155083181323,0.08515124782560513
1681265668873303300,0.69130322265625,-4.965198993682861,0.3728475868701935,1.7608156204223633,0.37109795212745667,0.4236213266849518,-0.8263360261917114,0.05709415674209595,-0.24661940336227417,0.4147607088088989,0.9506736246432723,-0.2401974851870393,0.17069605432194931,0.09689003309665518
1681265668883347500,0.701347412109375,-5.084150791168213,0.32516050338745117,1.9349865913391113,0.38213369250297546,0.45778802037239075,-0.8027477264404297,0.08130621910095215,-0.24872735142707825,0.4278850555419922,0.9430634605720697,-0.2627060548351787,0.17208038729552602,0.10956779524921173
1681265668893391400,0.711391357421875,-5.156590938568115,0.27673810720443726,2.1106743812561035,0.39417073130607605,0.4905511140823364,-0.7771673202514648,0.09708595275878906,-0.24760067462921143,0.43196773529052734,0.9345705813284678,-0.28527968097387296,0.1732969644126562,0.12313221958652636
1681265668903435500,0.721435546875,-5.191330432891846,0.22934503853321075,2.2900047302246094,0.40730637311935425,0.5213924646377563,-0.7498342990875244,0.10981398820877075,-0.24395716190338135,0.4222433567047119,0.9252009229103856,-0.30769681198825777,0.17437178905060038,0.13755180269306827
1681265668913480400,0.73148046875,-5.197301864624023,0.1837884783744812,2.4704654216766357,0.4216530919075012,0.5498597621917725,-0.721015214920044,0.1258017122745514,-0.23922133445739746,0.41191792488098145,0.9149670630210873,-0.3297619732963528,0.17535513866800498,0.15278404017875666
1681265668923524400,0.7415244140625,-5.194471836090088,0.13861940801143646,2.6451401710510254,0.43726322054862976,0.5756780505180359,-0.6909382939338684,0.14229604601860046,-0.2360631823539734,0.4054921269416809,0.9038715280795363,-0.35136628249276286,0.176274172905206,0.16877659215355403
1681265668933568500,0.751568603515625,-5.162389755249023,0.10712121427059174,2.820915460586548,0.4542248249053955,0.5986061692237854,-0.6598109006881714,0.15344113111495972,-0.23688137531280518,0.3917139768600464,0.891910279051704,-0.3724225028314146,0.17718928522741176,0.18547609807686988
1681265668943612700,0.76161279296875,-5.099686622619629,0.07530283182859421,2.99038028717041,0.4725680947303772,0.618291974067688,-0.6280083060264587,0.16125145554542542,-0.2309170961380005,0.37275922298431396,0.8791332427119807,-0.3927492453273913,0.1781681392905005,0.2028024636420407
1681265668953657300,0.7716572265625,-5.031095027923584,0.05992816761136055,3.150813102722168,0.4923354387283325,0.634551465511322,-0.5957770347595215,0.17030799388885498,-0.22529548406600952,0.354001522064209,0.8655587034221861,-0.4122673610224084,0.17929612988851962,0.22067329640974814
1681265668963701500,0.781701416015625,-4.9252190589904785,0.023126741871237755,3.2814114093780518,0.5133061408996582,0.6473081111907959,-0.5634793043136597,0.18618720769882202,-0.20248395204544067,0.33117949962615967,0.8512564795199181,-0.4308883756967356,0.1805423722162487,0.23896026485619334
1681265668973745700,0.79174560546875,-4.778584957122803,-0.021836915984749794,3.3873512744903564,0.5351565480232239,0.656444251537323,-0.5316844582557678,0.20890772342681885,-0.15217185020446777,0.3101115822792053,0.8363792841667113,-0.4484246373245076,0.18186017355270398,0.2575108141996981
1681265668983789600,0.80178955078125,-4.646244525909424,-0.06959591805934906,3.4913675785064697,0.557702362537384,0.6619963645935059,-0.5007283091545105,0.2371889352798462,-0.10588985681533813,0.274089515209198,0.8210062342493338,-0.4648191481926295,0.1832457671360635,0.2762477685162121
1681265668993834500,0.81183447265625,-4.526930809020996,-0.1216425746679306,3.5855627059936523,0.5808156132698059,0.6641262769699097,-0.4707328677177429,0.2664133310317993,-0.06459319591522217,0.21487349271774292,0.8051351737779936,-0.4801342746534678,0.18467440929341628,0.2951673379792323
1681265669003878400,0.82187841796875,-4.430878639221191,-0.16473011672496796,3.6705455780029297,0.6043473482131958,0.6630640625953674,-0.441712886095047,0.2849805951118469,-0.02478891611099243,0.1690688133239746,0.788753847238262,-0.4944690215067446,0.18612885494396664,0.31420336396482673
1681265669013922600,0.831922607421875,-4.321556568145752,-0.2245701104402542,3.761491298675537,0.6281749606132507,0.6588718295097351,-0.41386470198631287,0.292189359664917,-0.0018742084503173828,0.11001643538475037,0.7718807860360608,-0.5078153618683752,0.18759319226264765,0.3333650332924514
1681265669023966500,0.841966552734375,-4.214557647705078,-0.24947412312030792,3.861384153366089,0.6523106694221497,0.6515363454818726,-0.38728708028793335,0.29565680027008057,0.014189362525939941,0.07536685466766357,0.7545194711491073,-0.520164464408768,0.18917028110228076,0.3526243699937603
1681265669034011400,0.852011474609375,-4.083662986755371,-0.2816842198371887,3.9661636352539062,0.6767458319664001,0.6410247683525085,-0.36208072304725647,0.30654579401016235,0.040524303913116455,0.05046570301055908,0.7366773534157182,-0.5314986481875619,0.19096813233129592,0.37195017773531336
1681265669044055600,0.8620556640625,-3.907372236251831,-0.3555685579776764,4.0522942543029785,0.7011813521385193,0.6273459196090698,-0.3387943208217621,0.31923478841781616,0.0853310227394104,0.023547738790512085,0.7185218615784994,-0.5416373789124315,0.1929554233556967,0.39130976801903217
1681265669054099500,0.872099365234375,-3.7437798976898193,-0.4410865604877472,4.1338114738464355,0.7253464460372925,0.610609233379364,-0.31785058975219727,0.34217363595962524,0.13203608989715576,0.010202884674072266,0.7001787809782442,-0.5504689393645794,0.1950862502071584,0.4107006915735388
1681265669064143400,0.882143310546875,-3.687020778656006,-0.5536367893218994,4.2171950340271,0.749026358127594,0.591156005859375,-0.29915565252304077,0.38204658031463623,0.1672515869140625,-0.04335838556289673,0.6815276394243249,-0.558164683316495,0.1971658042118778,0.4302300586118475
1681265669074188500,0.8921884765625,-3.719299793243408,-0.6282859444618225,4.253899097442627,0.7720098495483398,0.5695638656616211,-0.2821308672428131,0.4251183867454529,0.1925058364868164,-0.088154137134552,0.6623126867070375,-0.5651172740688528,0.19893975420006993,0.449897036959437
1681265669084232400,0.902232421875,-3.8366897106170654,-0.6523736715316772,4.248472213745117,0.794087827205658,0.5464850068092346,-0.2660428285598755,0.46253442764282227,0.22193241119384766,-0.07396882772445679,0.6423674504408328,-0.5717267285025895,0.2002676731757659,0.4694524011773357
1681265669094276400,0.9122763671875,-4.040319442749023,-0.649078905582428,4.216368675231934,0.8151311278343201,0.5224682092666626,-0.2501768469810486,0.485909640789032,0.23603105545043945,-0.056387513875961304,0.6214717218908493,-0.5783835976809576,0.20095767024936562,0.4887345406170956
1681265669104320500,0.922320556640625,-4.272623062133789,-0.6278455257415771,4.154792785644531,0.8350372910499573,0.49786144495010376,-0.23419396579265594,0.49891650676727295,0.22958612442016602,-0.03901469707489014,0.5994990369648148,-0.5852932227531831,0.2008354042130026,0.50763961318785
1681265669114365700,0.93236572265625,-4.484602451324463,-0.5948150157928467,4.045074939727783,0.8536567091941833,0.4730087220668793,-0.2180200070142746,0.5076102018356323,0.22062522172927856,-0.006513074040412903,0.5765069090145403,-0.5925149073754318,0.1997900873266065,0.5259749411153036
1681265669124409300,0.942409423828125,-4.6204938888549805,-0.5579981803894043,3.889986038208008,0.8708099722862244,0.44824257493019104,-0.20191176235675812,0.5034574866294861,0.23591575026512146,0.009727314114570618,0.5527679789751053,-0.5999345397565513,0.1977945009435991,0.543510160963382
1681265669134453500,0.95245361328125,-4.638659954071045,-0.5017654895782471,3.7063074111938477,0.8864216804504395,0.4237394630908966,-0.18628287315368652,0.487082839012146,0.2739380896091461,0.013095632195472717,0.5287066443457819,-0.6073075427452191,0.19502849625574886,0.5600094660268188
1681265669144497400,0.962497314453125,-4.528775691986084,-0.456045925617218,3.5145840644836426,0.9004940390586853,0.39958488941192627,-0.1715874820947647,0.45782798528671265,0.32629093527793884,0.0017724186182022095,0.504791989760237,-0.614353025479675,0.19177230250131072,0.5753075097141509
1681265669154542300,0.972542236328125,-4.3232879638671875,-0.4285810887813568,3.336273193359375,0.9131096005439758,0.37571197748184204,-0.15833914279937744,0.4178382158279419,0.38824984431266785,-0.02215707302093506,0.48144713049316495,-0.620769257976649,0.1883506141973355,0.5893879938363228
1681265669164586500,0.98258642578125,-3.994950771331787,-0.43261149525642395,3.156522274017334,0.9243243336677551,0.3521287441253662,-0.1470707505941391,0.3779979944229126,0.4454024136066437,-0.04572403430938721,0.4590849218413086,-0.626278804359884,0.18503913757072432,0.6023092176719802
1681265669174630400,0.99263037109375,-3.585066318511963,-0.4255099594593048,3.0033693313598633,0.9342444539070129,0.32880523800849915,-0.13810959458351135,0.34012371301651,0.48961517214775085,-0.06547318398952484,0.4380964169173847,-0.6306718484045241,0.18220380326939087,0.6141060420573287
1681265669184674600,1.002674560546875,-3.2418510913848877,-0.39766445755958557,2.8605284690856934,0.9430365562438965,0.3057354986667633,-0.1311790645122528,0.291872501373291,0.5188189744949341,-0.08436661958694458,0.41855452322301745,-0.6340254042982734,0.18006180415437384,0.6248213122036912
1681265669194719500,1.012719482421875,-2.874729871749878,-0.35071468353271484,2.736614227294922,0.9508481025695801,0.2830319404602051,-0.12562210857868195,0.23520231246948242,0.5290408134460449,-0.07408493757247925,0.400231185380003,-0.6366418329568764,0.1785388523651005,0.6345282590184614
1681265669204763400,1.022763427734375,-2.412271738052368,-0.3255518078804016,2.61405611038208,0.9577445387840271,0.26061657071113586,-0.12167366594076157,0.1794014573097229,0.531360387802124,-0.029632508754730225,0.3834625130909044,-0.6383521409115396,0.1779598539709885,0.6432677200016261
1681265669214807600,1.0328076171875,-1.9532917737960815,-0.23285214602947235,2.510849952697754,0.9638535976409912,0.23841913044452667,-0.11892249435186386,0.1361219882965088,0.5069422125816345,-0.01338648796081543,0.36836423808654434,-0.6392490217078529,0.17860414906591499,0.6509754459588166
1681265669224851500,1.0428515625,-1.5097126960754395,-0.12481649965047836,2.417915105819702,0.9692866802215576,0.2164851725101471,-0.11669421195983887,0.10358923673629761,0.4879368543624878,0.011194944381713867,0.3548502066686521,-0.639580504200734,0.18052609793222993,0.6575929283654152
1681265669234896400,1.052896484375,-1.0682978630065918,-0.02598511427640915,2.3180878162384033,0.9740959405899048,0.19484464824199677,-0.11477229744195938,0.07813489437103271,0.5121713876724243,0.0653643012046814,0.34292218592288887,-0.6394174584696789,0.18373667191025644,0.6631670650287307
1681265669244940500,1.0629404296875,-0.6525459289550781,0.07176754623651505,2.222714424133301,0.9783274531364441,0.17354954779148102,-0.11294224113225937,0.06494641304016113,0.5254250764846802,0.09396029263734818,0.33255359556229125,-0.6388334617387894,0.18820384477066554,0.6677418864309523
1681265669254984400,1.072984375,-0.2618387043476105,0.17165079712867737,2.126326322555542,0.9820297956466675,0.15262994170188904,-0.11100200563669205,0.05865001678466797,0.5252722501754761,0.11237527430057526,0.32365840033022847,-0.6379030899047073,0.19385212184250167,0.6713763059890133
1681265669265028400,1.0830283203125,0.11817732453346252,0.286079078912735,2.0222296714782715,0.9852520823478699,0.1321912407875061,-0.10864429175853729,0.048744380474090576,0.5283769965171814,0.1330278515815735,0.31618897940812735,-0.6367317679259165,0.20062529280919628,0.6740523479583749
1681265669275073500,1.093073486328125,0.47293975949287415,0.38294219970703125,1.8949332237243652,0.9880242347717285,0.1124354898929596,-0.10567130893468857,0.02731078863143921,0.5312107801437378,0.14314687252044678,0.31014800056979785,-0.6353906856195619,0.20842990099923697,0.6757543256979254
1681265669285117400,1.103117431640625,0.7572042346000671,0.42272689938545227,1.7602558135986328,0.99034184217453,0.09362389892339706,-0.10226189345121384,0.0022270679473876953,0.5356791019439697,0.13419854640960693,0.30548282971947294,-0.6338630687443089,0.21699461902872985,0.6766174047386028
1681265669295161600,1.11316162109375,0.9035314321517944,0.4100430905818939,1.6351442337036133,0.9922102093696594,0.07588044553995132,-0.09879815578460693,-0.0143049955368042,0.5350967645645142,0.10931146144866943,0.3019230860491786,-0.6321199745031935,0.22588771184654072,0.6769354158400945
1681265669305205500,1.12320556640625,0.927777111530304,0.3731881380081177,1.5153381824493408,0.9936618208885193,0.05926499888300896,-0.09551886469125748,-0.023401260375976562,0.5243989825248718,0.06992983818054199,0.29903752865510913,-0.6302371055021466,0.23460980258288036,0.6770051596530462
1681265669315250400,1.13325048828125,0.8658142685890198,0.33446004986763,1.406959891319275,0.9947519898414612,0.04382391646504402,-0.09245569258928299,-0.03399759531021118,0.5014641880989075,0.03799706697463989,0.29649432322151276,-0.6283396538059165,0.24281975412115112,0.6769926211925391
1681265669325294600,1.143294677734375,0.7204157710075378,0.3167785406112671,1.3100817203521729,0.9955486059188843,0.02952459827065468,-0.08950622379779816,-0.0553019642829895,0.4634563624858856,0.027341894805431366,0.2939844643618797,-0.6265812120707116,0.2502855851460978,0.6769980104119036
1681265669335338200,1.153338134765625,0.5378386974334717,0.30469635128974915,1.2362583875656128,0.9961150288581848,0.016235167160630226,-0.08655142039060593,-0.07826840877532959,0.4308931529521942,0.029376745223999023,0.29124785493321853,-0.6250856227193168,0.25688957266145246,0.6770896190179594
1681265669345382400,1.16338232421875,0.3672406077384949,0.30871692299842834,1.1771098375320435,0.9964962005615234,0.0037719998508691788,-0.0835527628660202,-0.09984397888183594,0.42008668184280396,0.037059247493743896,0.2881667394293704,-0.6238871095376005,0.26265660785368605,0.6773007375640151
1681265669355427600,1.173427490234375,0.211770698428154,0.3343788981437683,1.1182076930999756,0.9967356324195862,-0.007967740297317505,-0.08034135401248932,-0.11857706308364868,0.4267452359199524,0.046741485595703125,0.28473138531204883,-0.6230324281115582,0.2676936979107605,0.6775682727877561
1681265669365471500,1.183471435546875,0.07820171117782593,0.36290374398231506,1.0599004030227661,0.996863067150116,-0.01898493431508541,-0.0768343135714531,-0.13439059257507324,0.44450679421424866,0.04262411594390869,0.2810098901188434,-0.6225346054531506,0.2720909931387376,0.677827832794994
1681265669375515400,1.193515380859375,-0.04924454167485237,0.3925613462924957,1.0044169425964355,0.996896505355835,-0.02933548204600811,-0.0730532631278038,-0.14487624168395996,0.46886491775512695,0.025873124599456787,0.27702028080402213,-0.6223778485829872,0.2758970508135796,0.6780754868300504
1681265669385559600,1.2035595703125,-0.16321612894535065,0.4133840799331665,0.9473602771759033,0.9968480467796326,-0.03903547674417496,-0.0690644308924675,-0.1504584550857544,0.49080246686935425,0.004016175866127014,0.27280164221996916,-0.6225333902989711,0.2791414767985367,0.6783150647367249
1681265669395604500,1.2136044921875,-0.24977387487888336,0.41652023792266846,0.8836010098457336,0.9967284798622131,-0.048059530556201935,-0.06498031318187714,-0.1496521234512329,0.5028783082962036,-0.02069777250289917,0.2684480035394551,-0.6229462906827611,0.28186479645116064,0.6785467921165957
1681265669405648400,1.2236484375,-0.3204493820667267,0.40848681330680847,0.8252884149551392,0.9965422749519348,-0.056411564350128174,-0.061000388115644455,-0.1438964605331421,0.5085448026657104,-0.04391902685165405,0.264052909088448,-0.6235269278337566,0.28410205218100076,0.6788049588777144
1681265669415694300,1.2336943359375,-0.356216162443161,0.4052809178829193,0.7688848376274109,0.9963013529777527,-0.064170241355896,-0.05714718997478485,-0.13295912742614746,0.511069655418396,-0.06803596019744873,0.2596931231079934,-0.6242192224447812,0.28596637393972507,0.6790678153728353
1681265669425738200,1.24373828125,-0.36198216676712036,0.41594019532203674,0.7119067311286926,0.9960272908210754,-0.07134092599153519,-0.053293656557798386,-0.11971503496170044,0.5157684087753296,-0.09052050113677979,0.2554549308460335,-0.6250239378028424,0.2875730332136132,0.6792566971208862
1681265669435783400,1.253783447265625,-0.3407045006752014,0.4397907257080078,0.6535454392433167,0.9957366585731506,-0.07797442376613617,-0.04927823320031166,-0.11524355411529541,0.5210744142532349,-0.10727697610855103,0.25140006093401024,-0.6259472705989982,0.28905172080371816,0.679291558257869
1681265669445827300,1.263827392578125,-0.29065680503845215,0.4631916582584381,0.5948333740234375,0.9954432845115662,-0.08405426144599915,-0.04502967745065689,-0.11488908529281616,0.5260098576545715,-0.11758321523666382,0.2476232423483889,-0.6269744654037881,0.29049643766942096,0.6791153168475217
1681265669455871200,1.273871337890625,-0.21743682026863098,0.49739205837249756,0.532258152961731,0.9951582551002502,-0.0895744189620018,-0.04045175760984421,-0.1087142825126648,0.5340172052383423,-0.12647944688796997,0.24419702810614638,-0.6281029406802244,0.2919945502544189,0.6786704816606218
1681265669465916400,1.28391650390625,-0.1386338770389557,0.5324727892875671,0.4529532194137573,0.9948995113372803,-0.09443102777004242,-0.03546132892370224,-0.1003531813621521,0.5448399782180786,-0.13519299030303955,0.2412003355775749,-0.6293514259518975,0.2935747227502835,0.6779033533279588
1681265669475960300,1.293960205078125,-0.08383451402187347,0.5409981608390808,0.3618134558200836,0.9946838617324829,-0.09845747798681259,-0.030165651813149452,-0.08895277976989746,0.5553209185600281,-0.14872843027114868,0.23867212356089212,-0.6307211498194167,0.29514065258063316,0.676844390748463
1681265669486004500,1.30400439453125,-0.04724081605672836,0.5115366578102112,0.2682717740535736,0.9945138096809387,-0.10158959031105042,-0.02493896149098873,-0.061621904373168945,0.5608028769493103,-0.1666198968887329,0.2366060367749927,-0.6321301724874481,0.29655010372667545,0.6756383047595566
1681265669496048000,1.314048095703125,-0.0356823168694973,0.4658070206642151,0.1480814665555954,0.9944097995758057,-0.10365463048219681,-0.0201183520257473,-0.0060065388679504395,0.5567949414253235,-0.1700977087020874,0.2350457206437331,-0.6335190920119366,0.29764808708179263,0.6743979736380714
1681265669506092300,1.32409228515625,-0.03802882879972458,0.46101492643356323,0.02147904969751835,0.9944061636924744,-0.10447211563587189,-0.015552456490695477,0.03276968002319336,0.538569450378418,-0.16360104084014893,0.2339592713738258,-0.6349988331365575,0.29832910256648637,0.6730819130151688
1681265669516137500,1.334137451171875,-0.044075269252061844,0.5084227919578552,-0.08184973895549774,0.9945038557052612,-0.10414285212755203,-0.010782715864479542,0.020434439182281494,0.5153824687004089,-0.15887975692749023,0.2332121009667036,-0.6367239225134362,0.29864910610965,0.6715678920316884
1681265669526181000,1.34418115234375,-0.04996645078063011,0.5874595046043396,-0.16482318937778473,0.9946791529655457,-0.10288065671920776,-0.00536237470805645,-0.023136913776397705,0.49522992968559265,-0.1567012071609497,0.23266624579207143,-0.6388110568326569,0.2987293864943242,0.6697369142380911
1681265669536225300,1.354225341796875,-0.04046604037284851,0.6502561569213867,-0.229023739695549,0.9948974847793579,-0.1008877158164978,0.000800487759988755,-0.05989992618560791,0.4859280288219452,-0.1539071798324585,0.23224961983800163,-0.6412534789081655,0.2986540133034775,0.6675776198992741
1681265669546270500,1.3642705078125,0.004035914782434702,0.6658329963684082,-0.29059308767318726,0.9951307773590088,-0.09828609228134155,0.007384005934000015,-0.05351090431213379,0.49179500341415405,-0.160200834274292,0.23206436652584583,-0.6438791013883156,0.2985158384256811,0.6651722187784302
1681265669556314000,1.374314208984375,0.07523248344659805,0.6566728949546814,-0.3644809126853943,0.9953771233558655,-0.09501101821660995,0.014045681804418564,0.0021814703941345215,0.5043128132820129,-0.17327117919921875,0.23228090823963732,-0.6465366508721213,0.29835080007560066,0.6625878972948569
1681265669566358300,1.384358154296875,0.1793130785226822,0.6157571077346802,-0.4430239200592041,0.9956439733505249,-0.09094742685556412,0.0205374862998724,0.06478089094161987,0.5207875370979309,-0.19149696826934814,0.23307928273695672,-0.6491112675110747,0.2982001104296967,0.6598525473903373
1681265669576402200,1.394402099609375,0.27200135588645935,0.5525999069213867,-0.5119513273239136,0.9959316253662109,-0.08610013127326965,0.026591317728161812,0.11771595478057861,0.5332589745521545,-0.22043895721435547,0.23453412828928452,-0.6514949299955818,0.29807719658788384,0.6570373857167563
1681265669586447400,1.404447265625,0.3277980387210846,0.47942399978637695,-0.5842292308807373,0.996239185333252,-0.08052028715610504,0.03199942409992218,0.16568702459335327,0.5376736521720886,-0.23446834087371826,0.23655566842758302,-0.6536575865428961,0.2978782826510854,0.6542489410474348
1681265669596491300,1.4144912109375,0.365286648273468,0.4003826677799225,-0.66621994972229,0.9965741038322449,-0.07413400709629059,0.03666624426841736,0.20130199193954468,0.5300666093826294,-0.22804200649261475,0.23909154903112956,-0.6556204284949586,0.2974810515617377,0.6515383328370999
1681265669606535200,1.42453515625,0.38190051913261414,0.323566198348999,-0.782560408115387,0.996946394443512,-0.06672978401184082,0.04055621102452278,0.2182939648628235,0.5073120594024658,-0.2141859531402588,0.24214971264996735,-0.6574339109241082,0.29674695929799005,0.6489108539623747
1681265669616579300,1.434579345703125,0.4110027253627777,0.2333817183971405,-0.9415138959884644,0.9973677396774292,-0.05793992429971695,0.04359103739261627,0.20903772115707397,0.47415396571159363,-0.20016145706176758,0.2458388334025919,-0.6591368732724959,0.2955234347422135,0.6463494267219828
1681265669626624300,1.444624267578125,0.4544535279273987,0.15090015530586243,-1.1352615356445312,0.9978323578834534,-0.04732394590973854,0.04573054239153862,0.18275552988052368,0.44925573468208313,-0.18798828125,0.2503566609494105,-0.6607560954586985,0.29371185575415903,0.6437828740571947
1681265669636668200,1.454668212890625,0.49187523126602173,0.0643039420247078,-1.3534055948257446,0.9982954859733582,-0.03459864854812622,0.04700172320008278,0.14266526699066162,0.4264443814754486,-0.17720496654510498,0.2558036896822628,-0.6623297395337447,0.29123903743893836,0.6411424687162766
1681265669646712300,1.46471240234375,0.5227319598197937,-0.021175801753997803,-1.5801631212234497,0.9986860752105713,-0.019603505730628967,0.047348733991384506,0.10325789451599121,0.39423733949661255,-0.1603095531463623,0.2621901509606005,-0.6638764608333213,0.28799724371985835,0.6384214668761318
1681265669656756500,1.474756591796875,0.5379840731620789,-0.09122368693351746,-1.8027445077896118,0.9989014863967896,-0.0023079621605575085,0.046802226454019547,0.08195477724075317,0.3559151589870453,-0.13110709190368652,0.2694859930885307,-0.6654139083108783,0.28394619773859375,0.6355912155787139
1681265669666801200,1.48480126953125,0.5470622777938843,-0.13310587406158447,-2.006528615951538,0.9988130331039429,0.0171482115983963,0.04559175670146942,0.06681513786315918,0.3067806363105774,-0.08941495418548584,0.27755987901910645,-0.6670043319998212,0.27910768513091555,0.6325857192711081
1681265669676845300,1.49484521484375,0.5641542673110962,-0.16397835314273834,-2.181394338607788,0.9982919096946716,0.03852241486310959,0.04392395541071892,0.052809715270996094,0.2529815137386322,-0.04677736759185791,0.28630337930062216,-0.6686641472968566,0.27358771233946344,0.6293396620874155
1681265669686889500,1.504889404296875,0.6020697355270386,-0.18748819828033447,-2.322993516921997,0.9972306489944458,0.06149117648601532,0.04183284938335419,0.0483931303024292,0.20884880423545837,-0.015450477600097656,0.29565748780867723,-0.6703243321865134,0.2675475918139405,0.6258356484467749
1681265669696933400,1.514933349609375,0.643531858921051,-0.22303788363933563,-2.436487913131714,0.9955431222915649,0.08573589473962784,0.03928770124912262,0.05993795394897461,0.18004173040390015,0.012134436517953873,0.30554500473807866,-0.6719134012316401,0.2611057854513513,0.6220920670165191
1681265669706978300,1.524978271484375,0.6958206295967102,-0.27100059390068054,-2.533735513687134,0.9931659698486328,0.11099092662334442,0.03609047457575798,0.08689695596694946,0.15936431288719177,0.027111414819955826,0.31593368809233513,-0.6733166961918556,0.2543420228333913,0.6181753366565862
1681265669717022500,1.5350224609375,0.7172855138778687,-0.31851333379745483,-2.6095046997070312,0.9900435209274292,0.13702867925167084,0.03220464289188385,0.1269303560256958,0.13831616938114166,0.035376548767089844,0.32673168244079104,-0.6744996884033577,0.24729029829812513,0.6141206428070936
1681265669727066400,1.54506640625,0.680583655834198,-0.3512451946735382,-2.6626851558685303,0.9861440062522888,0.1635507345199585,0.02776508964598179,0.15535062551498413,0.10889492928981781,0.04596531391143799,0.33767796375890785,-0.675524143535991,0.23989513652232597,0.609992567088762
1681265669737110300,1.5551103515625,0.5923009514808655,-0.3762974143028259,-2.69537353515625,0.9814642667770386,0.19025936722755432,0.02300768345594406,0.16447079181671143,0.07109321653842926,0.057238221168518066,0.348483289529837,-0.6764878082679305,0.23209499612244028,0.6058511184637184
1681265669747155200,1.5651552734375,0.4882219433784485,-0.38522326946258545,-2.7148616313934326,0.9760002493858337,0.21701392531394958,0.018124328926205635,0.16297674179077148,0.0386776328086853,0.07078862190246582,0.3589821879158247,-0.67746373482868,0.2238415799035873,0.601722220477738
1681265669757199400,1.575199462890625,0.39272305369377136,-0.3766198754310608,-2.724193572998047,0.9697600603103638,0.24369442462921143,0.01335899904370308,0.15728461742401123,0.017520800232887268,0.08344268798828125,0.36910895960443973,-0.6785046689183465,0.21519970664824636,0.5975609331384157
1681265669767243300,1.5852431640625,0.32057616114616394,-0.360542893409729,-2.7177534103393555,0.9627719521522522,0.2701694369316101,0.00885777734220028,0.14942580461502075,0.006045103073120117,0.0893019437789917,0.3788595389951992,-0.679614488558691,0.20628387183398358,0.593326610854842
1681265669777287200,1.595287109375,0.2660147249698639,-0.35358449816703796,-2.712977647781372,0.9550666809082031,0.29635536670684814,0.004586542956531048,0.1455497145652771,0.0023201704025268555,0.08684408664703369,0.3882853975022919,-0.6807433797375986,0.19718448804623212,0.5890170973082148
1681265669787332400,1.605332275390625,0.22205311059951782,-0.37476757168769836,-2.711918354034424,0.9466423988342285,0.3222852349281311,0.000381381280021742,0.15511828660964966,-0.002598404884338379,0.07957470417022705,0.3974634733314795,-0.6818245277898191,0.18789891948927626,0.5846639831624064
1681265669797376500,1.61537646484375,0.21613717079162598,-0.41142022609710693,-2.724409818649292,0.9374818205833435,0.3480105698108673,-0.004076793324202299,0.18022453784942627,-0.007678508758544922,0.07063561677932739,0.4065252331656934,-0.6827346159755074,0.1784237865093595,0.5803237749811849
1681265669807420200,1.625420166015625,0.23440726101398468,-0.4342229962348938,-2.7321579456329346,0.9275635480880737,0.3735602796077728,-0.008875924162566662,0.21083372831344604,-0.01186591386795044,0.07398515939712524,0.4155942411219002,-0.683414525802916,0.16883904778173714,0.5759509240276998
1681265669817464300,1.63546435546875,0.2571413815021515,-0.4283163547515869,-2.7301483154296875,0.9169071912765503,0.398860901594162,-0.013827996328473091,0.2191401720046997,-0.0257529616355896,0.08151596784591675,0.4246662651893822,-0.6839063258742897,0.1592423919683461,0.5714652790956651
1681265669827509500,1.645509521484375,0.2858861982822418,-0.3990871012210846,-2.707001209259033,0.9055977463722229,0.4237235188484192,-0.018741561099886894,0.2036551833152771,-0.0473349392414093,0.08554452657699585,0.4337009215735403,-0.6842477958852294,0.14978041796715477,0.5668107037407017
1681265669837553200,1.65555322265625,0.3175911605358124,-0.3588120937347412,-2.688628673553467,0.8936970233917236,0.4480561316013336,-0.023487484082579613,0.1860303282737732,-0.07651972770690918,0.09383051842451096,0.44266181488225,-0.6844787365941185,0.1405173192505089,0.5619558994765755
1681265669847597300,1.665597412109375,0.3533896505832672,-0.31312236189842224,-2.667790174484253,0.8812263011932373,0.4718616306781769,-0.028048641979694366,0.17379683256149292,-0.10436895489692688,0.10939323902130127,0.4515737982493705,-0.6846075234090226,0.13148466643754572,0.5568710612826769
1681265669857641200,1.67564111328125,0.4113105535507202,-0.2757739722728729,-2.6337063312530518,0.8682475090026855,0.4950675964355469,-0.032469846308231354,0.16732066869735718,-0.12701037526130676,0.12391573190689087,0.4604581216636369,-0.6846150713532067,0.1227488538199358,0.5515552607870634
1681265669867686100,1.68568603515625,0.48275572061538696,-0.2540316581726074,-2.5818424224853516,0.8548879623413086,0.5174886584281921,-0.037041474133729935,0.17437833547592163,-0.15210169553756714,0.13544541597366333,0.46934192316048085,-0.6843932176487323,0.11439049662493986,0.5461125465758596
1681265669877730300,1.695730224609375,0.5584138035774231,-0.22337952256202698,-2.530240297317505,0.8412193655967712,0.5390717387199402,-0.04185234755277634,0.18926763534545898,-0.18151253461837769,0.14875537157058716,0.4782409683994703,-0.6839173523166707,0.10644661608427912,0.5405661389008445
1681265669887774200,1.705774169921875,0.6295356154441833,-0.17693932354450226,-2.4660236835479736,0.8273310661315918,0.5597589015960693,-0.04683130979537964,0.18348729610443115,-0.2077386975288391,0.16119593381881714,0.4871409094940878,-0.6832182104066779,0.09898091999397181,0.534891865302145
1681265669897818400,1.715818359375,0.6898730397224426,-0.11777037382125854,-2.3891351222991943,0.8133660554885864,0.5794389247894287,-0.051825687289237976,0.16019034385681152,-0.2293718457221985,0.16583937406539917,0.4959615830899363,-0.6823586934264175,0.09205308261214272,0.5290886397815843
1681265669907863300,1.72586328125,0.7361896634101868,-0.07221247255802155,-2.3039257526397705,0.7994431257247925,0.5980483889579773,-0.0568215548992157,0.14007097482681274,-0.2517501711845398,0.1696602702140808,0.5046473718739396,-0.6813590734038107,0.0856681691682986,0.523203339679458
1681265669917907200,1.7359072265625,0.7658194899559021,-0.0329621247947216,-2.212797164916992,0.7856423258781433,0.6155849099159241,-0.06181453913450241,0.12455958127975464,-0.2692562937736511,0.172837495803833,0.5131382658145497,-0.6802420037360818,0.07977184202989841,0.5172970538463225
1681265669927951400,1.745951416015625,0.7984842658042908,-0.0010161744430661201,-2.1145169734954834,0.7720646262168884,0.6320203542709351,-0.06683196872472763,0.1200709342956543,-0.28280770778656006,0.17425382137298584,0.5214019993139737,-0.6790105179462514,0.0743554486544579,0.5114254318422182
1681265669937995300,1.755995361328125,0.8336407542228699,0.04158061370253563,-2.011807918548584,0.7588076591491699,0.6473324298858643,-0.07191401720046997,0.1108974814414978,-0.29273349046707153,0.17234736680984497,0.5294464799559121,-0.6776570572951456,0.06945432164241946,0.5056119060237556
1681265669948040200,1.766040283203125,0.8689707517623901,0.08124040812253952,-1.8998284339904785,0.7459865212440491,0.6614885926246643,-0.07705319672822952,0.0938267707824707,-0.30173206329345703,0.16741573810577393,0.5372651512092764,-0.676190382281267,0.0651150371350673,0.4998728490702559
1681265669958084400,1.77608447265625,0.9107763171195984,0.11937252432107925,-1.7847423553466797,0.7336974143981934,0.6744765043258667,-0.08227600902318954,0.07300412654876709,-0.31162261962890625,0.16220152378082275,0.5448537061391446,-0.6746090209556465,0.06135684873754115,0.4942391864868928
1681265669968128300,1.786128173828125,0.9437062740325928,0.1550053507089615,-1.664068341255188,0.7220228314399719,0.6862991452217102,-0.08761506527662277,0.0531541109085083,-0.3219345808029175,0.15887361764907837,0.5522087672404571,-0.6729094737487269,0.058183400033666656,0.48874634024231234
1681265669978173200,1.796173095703125,0.9707813858985901,0.19030551612377167,-1.535029649734497,0.7110546231269836,0.6969548463821411,-0.09303347766399384,0.03648871183395386,-0.3303319811820984,0.15675413608551025,0.5593033083136447,-0.6711124777665677,0.05559948725467238,0.48342167825287646
1681265669988217300,1.80621728515625,0.9887968897819519,0.21784766018390656,-1.4118152856826782,0.7008626461029053,0.706464409828186,-0.0984855517745018,0.027210354804992676,-0.3401315212249756,0.153997004032135,0.5661034274423815,-0.6692429458793487,0.053582668619049104,0.4782986234271788
1681265669998261200,1.81626123046875,1.0032362937927246,0.24063992500305176,-1.2813187837600708,0.6914726495742798,0.7148803472518921,-0.10397878289222717,0.02408820390701294,-0.3484100103378296,0.15471422672271729,0.5726024353962457,-0.6673058079050104,0.052091894166214736,0.47340871522541467
1681265670008305400,1.826305419921875,1.0184396505355835,0.2607726454734802,-1.1479884386062622,0.6829605102539062,0.7221947312355042,-0.1095438227057457,0.02295684814453125,-0.35563284158706665,0.1585855334997177,0.5788003168058627,-0.6652915454594452,0.05113950230443637,0.4687879929827086
1681265670018350300,1.836350341796875,1.0328930616378784,0.27892494201660156,-1.011789321899414,0.675377607345581,0.7284224629402161,-0.11517658829689026,0.025092244148254395,-0.36065518856048584,0.16154801845550537,0.5846883723781906,-0.663203940655507,0.050717263074787626,0.46446497346836524
1681265670028394200,1.846394287109375,1.0478187799453735,0.2992059886455536,-0.8717451691627502,0.6687752604484558,0.7335741519927979,-0.12086577713489532,0.026735544204711914,-0.3661425709724426,0.16435331106185913,0.5902709191891966,-0.6610464184423336,0.05084037933900907,0.4604488090862396
1681265670038438400,1.8564384765625,1.0633010864257812,0.31676313281059265,-0.7259964942932129,0.6631813049316406,0.7376707196235657,-0.12661965191364288,0.022396087646484375,-0.3680417537689209,0.167253777384758,0.595556247092023,-0.6588149848722691,0.05150716599408969,0.45675228497282144
1681265670048482300,1.866482421875,1.0766764879226685,0.3304706811904907,-0.5750301480293274,0.6587292551994324,0.7406328916549683,-0.13243356347084045,0.022102653980255127,-0.36947810649871826,0.17087042331695557,0.6005072322672554,-0.6565061724293904,0.052752854257561606,0.4534399818008207
1681265670058527200,1.87652734375,1.0952997207641602,0.3570094704627991,-0.4192408323287964,0.6554673314094543,0.7424554228782654,-0.1382831484079361,0.025883257389068604,-0.36939334869384766,0.1727069765329361,0.6051296342505459,-0.6541226448202541,0.05460763185692179,0.4505102903498349
1681265670068571400,1.8865712890625,1.103188157081604,0.39282792806625366,-0.2582559287548065,0.6534521579742432,0.7431380152702332,-0.14403438568115234,0.033086419105529785,-0.36981654167175293,0.17208005487918854,0.6094011135880383,-0.6517064267721114,0.05710987725527676,0.44793674386705673
1681265670078615300,1.896615234375,1.09860360622406,0.4278152883052826,-0.08443726599216461,0.652757465839386,0.7426555752754211,-0.1495668739080429,0.04574406147003174,-0.3654125928878784,0.1700136810541153,0.6132693561003966,-0.6492950273634203,0.06027045651891136,0.4457399138140762
1681265670088659200,1.9066591796875,1.0800797939300537,0.4563353657722473,0.098088338971138,0.6534687876701355,0.7409598231315613,-0.15478090941905975,0.06309914588928223,-0.3611227869987488,0.17036014795303345,0.6166644299907192,-0.64691800226833,0.06408308398343779,0.4439768653099594
1681265670098704400,1.916704345703125,1.0580976009368896,0.48636114597320557,0.2933686077594757,0.6556623578071594,0.7379923462867737,-0.15960612893104553,0.0809556245803833,-0.3524332642555237,0.17227089405059814,0.6195392331606864,-0.6445897498375327,0.0685637847347425,0.44268966880542665
1681265670108748300,1.926748291015625,1.037669062614441,0.5189020037651062,0.4981505274772644,0.6593948006629944,0.7336813807487488,-0.16404248774051666,0.09908896684646606,-0.33776164054870605,0.16889478266239166,0.6218732731711232,-0.6422942854469892,0.07373468725896414,0.4419216802550241
1681265670118792200,1.936792236328125,1.002902626991272,0.5452782511711121,0.7123983502388,0.664722204208374,0.7279560565948486,-0.16800029575824738,0.12275326251983643,-0.3245595693588257,0.16319377720355988,0.6236115280000715,-0.6400487598223065,0.07960801703084872,0.44171108347350596
1681265670128836400,1.94683642578125,0.9612659215927124,0.5609583854675293,0.9370836615562439,0.6716536283493042,0.7207592725753784,-0.1714271754026413,0.15814971923828125,-0.3117017149925232,0.15842673182487488,0.6247035009599456,-0.6378578920922967,0.08616103812084261,0.44210744157656795
1681265670138881300,1.95688134765625,0.9058622717857361,0.5679216384887695,1.1613612174987793,0.6801825761795044,0.7120122313499451,-0.17432765662670135,0.20801621675491333,-0.29672908782958984,0.15565085411071777,0.6251089601238794,-0.6357033758016539,0.0933669767248658,0.44317329308413245
1681265670148925200,1.96692529296875,0.8476200103759766,0.5766392350196838,1.3868987560272217,0.6902478933334351,0.7016862034797668,-0.17661939561367035,0.25921499729156494,-0.27900248765945435,0.15331923961639404,0.6247791671955089,-0.6336027882463537,0.10118205104668494,0.44492782205088405
1681265670158969300,1.97696923828125,0.7742887735366821,0.5860120058059692,1.6083369255065918,0.7017626762390137,0.6897611021995544,-0.17820969223976135,0.30310481786727905,-0.25853246450424194,0.15219342708587646,0.6236891031121927,-0.6315734030017598,0.10959102985449547,0.447344047891546
1681265670169013200,1.98701318359375,0.6888207793235779,0.5795853137969971,1.8132349252700806,0.7145453095436096,0.6762757301330566,-0.17909763753414154,0.3363732099533081,-0.23563247919082642,0.14885474741458893,0.6218233275294619,-0.6296125295363194,0.11848730174184968,0.4504269944835539
1681265670179058400,1.997058349609375,0.5817960500717163,0.5856826305389404,2.0031070709228516,0.7284194827079773,0.6612899303436279,-0.17916591465473175,0.35925740003585815,-0.21648108959197998,0.14571864902973175,0.6191394641256209,-0.6277658738967894,0.1277773568295826,0.45414661820455626
1681265670189102300,2.007102294921875,0.45064520835876465,0.6082336902618408,2.191287040710449,0.7432237267494202,0.6448826193809509,-0.17817150056362152,0.36961501836776733,-0.19879192113876343,0.14191657304763794,0.6155769123341729,-0.6261269953075496,0.13740174151868279,0.45842219291245145
1681265670199146200,2.017146240234375,0.28632286190986633,0.6384680271148682,2.388901948928833,0.7589569687843323,0.6269513368606567,-0.17583075165748596,0.3691710829734802,-0.18314945697784424,0.13502871990203857,0.6109897216879268,-0.6247947018323229,0.14736419032444714,0.4632569331404577
1681265670209190400,2.0271904296875,0.14183010160923004,0.6473065614700317,2.575589656829834,0.7754786610603333,0.6074455380439758,-0.17217104136943817,0.3739811182022095,-0.16671067476272583,0.12685245275497437,0.6053479242758125,-0.6237565734801711,0.15761413447629286,0.46865710621714557
1681265670219235300,2.0372353515625,0.03098265454173088,0.6230114102363586,2.757075548171997,0.7925485372543335,0.5863056182861328,-0.16766846179962158,0.40229105949401855,-0.14567750692367554,0.11794005334377289,0.5987805076289022,-0.6228261198664649,0.16808745523303642,0.4746537755512675
1681265670229279200,2.047279296875,-0.08303739875555038,0.5909562706947327,2.9254183769226074,0.8099657297134399,0.5634739398956299,-0.16264283657073975,0.43615853786468506,-0.12160992622375488,0.11123597621917725,0.5913456892170871,-0.6218842182849491,0.17871373686965747,0.48128132603593904
1681265670239323400,2.057323486328125,-0.22346599400043488,0.5713775753974915,3.081033229827881,0.8275305032730103,0.5390069484710693,-0.15705008804798126,0.4617302417755127,-0.09435057640075684,0.11043448746204376,0.5830278437452228,-0.6209588008622906,0.18943369602328955,0.48847062255258106
1681265670249367300,2.0673671875,-0.41270700097084045,0.5619789958000183,3.2109222412109375,0.845035195350647,0.5130615234375,-0.15060994029045105,0.47474318742752075,-0.06669622659683228,0.10553546249866486,0.5737074532471874,-0.6202026717518878,0.200109159278562,0.4961498803356201
1681265670259412200,2.077412109375,-0.635566234588623,0.53697669506073,3.3050360679626465,0.8622115850448608,0.48586952686309814,-0.1432551145553589,0.4865127205848694,-0.051146626472473145,0.09949290752410889,0.5633194116091265,-0.6197183683265081,0.21052692540033469,0.5042805067120861
1681265670269456400,2.087456298828125,-0.8568581342697144,0.4873974621295929,3.362196683883667,0.8787533640861511,0.4577173590660095,-0.1352306306362152,0.5027315616607666,-0.03886362910270691,0.09830433130264282,0.5519150020879288,-0.6195051284491362,0.220449716678962,0.5128402721276393
1681265670279500300,2.097500244140625,-1.0465989112854004,0.42586299777030945,3.3585598468780518,0.8943430781364441,0.4290061891078949,-0.1269027292728424,0.5159352421760559,-0.02431255578994751,0.09455406665802002,0.5396847223485759,-0.6195075293709776,0.22969340109259523,0.5217200828609072
1681265670289545200,2.107545166015625,-1.1978566646575928,0.3811629116535187,3.2990620136260986,0.9087172746658325,0.4002115726470947,-0.11859025061130524,0.5036209225654602,-0.003910273313522339,0.08605849742889404,0.5269082622153418,-0.6196625028542765,0.2381664508894121,0.5307191876149967
1681265670299589400,2.11758935546875,-1.316056489944458,0.3695496618747711,3.201117515563965,0.9217600226402283,0.37174907326698303,-0.11027687788009644,0.45545244216918945,0.019272655248641968,0.06886447221040726,0.5137900217504775,-0.6200023130162776,0.2458834914789881,0.5395907786473804
1681265670309633300,2.12763330078125,-1.3822598457336426,0.38750869035720825,3.0717945098876953,0.9334462285041809,0.3439413607120514,-0.10189412534236908,0.3669840097427368,0.049338698387145996,0.047862708568573,0.5005274606660963,-0.6205485998584848,0.25292760413068416,0.5481051785928485
1681265670319677400,2.137677490234375,-1.3844294548034668,0.4246942698955536,2.908038377761841,0.9437717795372009,0.3171108365058899,-0.09346402436494827,0.2627864480018616,0.07584875822067261,0.019794583320617676,0.4873881666137969,-0.6212683459479523,0.25941015871819134,0.5560438463227978
1681265670329722400,2.147722412109375,-1.3124433755874634,0.4564061164855957,2.727240800857544,0.9527791738510132,0.2914886772632599,-0.0851239338517189,0.16791778802871704,0.09310910105705261,-0.020527951419353485,0.474660147067251,-0.6220659850998629,0.2654655237498586,0.5632580673321144
1681265670339766300,2.157766357421875,-1.1495110988616943,0.46198251843452454,2.530541181564331,0.960530161857605,0.2672407925128937,-0.07722730189561844,0.09728533029556274,0.11519023776054382,-0.06182605028152466,0.4626919146711719,-0.6227473014406841,0.2712418589552448,0.5696751612367661
1681265670349810400,2.167810546875,-0.9063562750816345,0.4435105621814728,2.317368507385254,0.9670960903167725,0.24453982710838318,-0.07018215954303741,0.06146836280822754,0.14761105179786682,-0.10190647840499878,0.45186905577243425,-0.6230864377888237,0.27689747249065816,0.5752438335191224
1681265670359854300,2.177854248046875,-0.6157938838005066,0.39927124977111816,2.0985093116760254,0.9725764989852905,0.22352899610996246,-0.06426312029361725,0.05281412601470947,0.18519292771816254,-0.13638997077941895,0.4424794862447095,-0.622922986947871,0.2825515715719176,0.5799512767096662
1681265670369899300,2.187899169921875,-0.3279935419559479,0.3404819667339325,1.8695801496505737,0.9770743250846863,0.20438292622566223,-0.05961037427186966,0.06699305772781372,0.21302127838134766,-0.15132713317871094,0.43467682637106725,-0.6221994339247919,0.28820596332501897,0.5838332147311034
1681265670379943400,2.197943359375,-0.09249070286750793,0.29969272017478943,1.6432557106018066,0.9807143807411194,0.18723620474338531,-0.056051429361104965,0.08431845903396606,0.22200456261634827,-0.14695149660110474,0.4284024287154317,-0.6210225295216005,0.2937776408393076,0.5869386815563554
1681265670389987300,2.2079873046875,0.05472138524055481,0.28153395652770996,1.411447525024414,0.9836304187774658,0.17217499017715454,-0.05316878855228424,0.08013606071472168,0.21503205597400665,-0.12398576736450195,0.42342423693807785,-0.6196297237993652,0.2991230695486756,0.5893184691424438
1681265670400031200,2.21803125,0.0974462479352951,0.26733481884002686,1.1889667510986328,0.9859374761581421,0.15927715599536896,-0.0505748875439167,0.05584096908569336,0.19674089550971985,-0.09278148412704468,0.4194062666770675,-0.6183075449712463,0.3039873942294374,0.5910885867390923
1681265670410076400,2.228076416015625,0.07679716497659683,0.2337193340063095,0.973981499671936,0.9877329468727112,0.14851978421211243,-0.048223622143268585,0.03401076793670654,0.17870496213436127,-0.06220430135726929,0.4160909595939464,-0.6172023223806079,0.3081387382235613,0.5924357736030166
1681265670420119300,2.238119384765625,-0.005416823085397482,0.19382649660110474,0.7732779383659363,0.9890974760055542,0.13984298706054688,-0.04615381360054016,0.0220261812210083,0.16254043579101562,-0.03508400917053223,0.4132823557198455,-0.6164016462304713,0.3114034432916945,0.5935272590671221
1681265670430163200,2.2481630859375,-0.11425861716270447,0.15099060535430908,0.5965173244476318,0.9901126027107239,0.1330762803554535,-0.04435909911990166,0.019546210765838623,0.1505693793296814,-0.015455365180969238,0.41079015476283415,-0.6159653289015616,0.3136991613816879,0.5945006335464356
1681265670440207400,2.258207275390625,-0.223382368683815,0.11245325207710266,0.43905124068260193,0.9908469319343567,0.128013476729393,-0.0428386814892292,0.003843069076538086,0.15160390734672546,0.0016246996819972992,0.40851616588485895,-0.6158891375456588,0.3150575024510463,0.5954275952065597
1681265670450252300,2.268252197265625,-0.31949105858802795,0.08169028162956238,0.3072729706764221,0.9913583397865295,0.12443230301141739,-0.04153811186552048,-0.029703617095947266,0.1591523289680481,0.011554595082998276,0.40641084478121436,-0.6161453370895924,0.3155881293760351,0.5963215327878809
1681265670460296200,2.278296142578125,-0.37871161103248596,0.06999742984771729,0.19902613759040833,0.9917004108428955,0.12207158654928207,-0.04035671800374985,-0.07557809352874756,0.16619747877120972,0.011258188635110855,0.4044513427884101,-0.6166862826230185,0.31546738353408244,0.5971577761792856
1681265670470340400,2.28834033203125,-0.41092440485954285,0.07315807044506073,0.11927191913127899,0.9919220209121704,0.12065137177705765,-0.039161376655101776,-0.12995320558547974,0.18058766424655914,0.0052716173231601715,0.40263859815120856,-0.6174510321895539,0.3149182978966323,0.5978818446685996
1681265670480384000,2.298384033203125,-0.440617173910141,0.08459382504224777,0.0656675472855568,0.9920628666877747,0.11990820616483688,-0.03785973787307739,-0.17814385890960693,0.1992599368095398,-0.0025913119316101074,0.40092212515127346,-0.6184018739204731,0.31408478768595655,0.598490914994623
1681265670490429200,2.30842919921875,-0.49728283286094666,0.08719227463006973,0.026924148201942444,0.9921515583992004,0.11961866170167923,-0.03642375022172928,-0.22028577327728271,0.21491503715515137,-0.009123802185058594,0.3991881480428613,-0.6195328616118968,0.3129970590400485,0.5990498596867639
1681265670500473300,2.318473388671875,-0.5783785581588745,0.0669000893831253,0.002268604002892971,0.9921965599060059,0.11966882646083832,-0.03500281646847725,-0.2531982660293579,0.21999183297157288,-0.015366431325674057,0.3973572952807404,-0.620815254369891,0.31158788841289137,0.5996736853932823
1681265670510517200,2.328517333984375,-0.6733186841011047,0.037994135171175,-0.00600903294980526,0.9922120571136475,0.11990737169981003,-0.03372431918978691,-0.27692586183547974,0.21363449096679688,-0.02581554651260376,0.39532870522541314,-0.6222232425695724,0.3098000597119639,0.6004809115463465
1681265670520561200,2.33856103515625,-0.767240583896637,0.007918345741927624,-0.005872945301234722,0.9922117590904236,0.12021347135305405,-0.032626181840896606,-0.29822683334350586,0.20917804539203644,-0.03931903466582298,0.393056129772211,-0.6237306954289105,0.3076474110858776,0.601514692650201
1681265670530606300,2.3486064453125,-0.8583606481552124,-0.033620044589042664,0.005285433027893305,0.9922047853469849,0.12049736082553864,-0.031776994466781616,-0.3178580403327942,0.21348699927330017,-0.04872840270400047,0.3905374344136326,-0.6252909360847636,0.30516020192426363,0.6028008742143798
1681265670540650200,2.358650146484375,-0.94227534532547,-0.07252980768680573,0.02599363960325718,0.9922046661376953,0.12064161896705627,-0.031227143481373787,-0.3396170139312744,0.22185714542865753,-0.06308745592832565,0.3877473791644931,-0.6268641201688064,0.3023703085496748,0.6043718715598638
1681265670550694100,2.368694091796875,-1.0270177125930786,-0.09978698939085007,0.06035001575946808,0.9922288656234741,0.12052059918642044,-0.030925244092941284,-0.35517460107803345,0.23383428156375885,-0.0767560601234436,0.3846462958920449,-0.6284381118120917,0.29933746477323997,0.6062257977060282
1681265670560739300,2.3787392578125,-1.1067864894866943,-0.0996188297867775,0.08694007992744446,0.9922847151756287,0.1201324462890625,-0.030642513185739517,-0.369756817817688,0.2470398247241974,-0.07876300066709518,0.38120146147077866,-0.630076299243441,0.29611247906152505,0.6082816325967666
1681265670570783200,2.388783203125,-1.1590394973754883,-0.09019257128238678,0.11353866755962372,0.9923750162124634,0.11949006468057632,-0.030230360105633736,-0.38679951429367065,0.25636446475982666,-0.07246136665344238,0.3774428801906871,-0.6317988325524422,0.2927713365604787,0.6104523136294342
1681265670580827100,2.3988271484375,-1.1762291193008423,-0.07755802571773529,0.14202836155891418,0.9924992322921753,0.11859797686338425,-0.02966531179845333,-0.40268588066101074,0.26503854990005493,-0.06789940595626831,0.37346050518168056,-0.6335673897846732,0.2894126931640417,0.6126663127730826
1681265670590871000,2.40887109375,-1.136577844619751,-0.05120578408241272,0.16503940522670746,0.9926610589027405,0.11742066591978073,-0.0289254579693079,-0.4075168967247009,0.27794983983039856,-0.06709814071655273,0.3693895149541149,-0.6353134993984462,0.28620626852407327,0.6148286411997116
1681265670600916200,2.418916259765625,-1.0433727502822876,-0.02870369702577591,0.17961356043815613,0.9928503036499023,0.11602278053760529,-0.028056321665644646,-0.4053105115890503,0.2969564199447632,-0.0667617917060852,0.3654246545808876,-0.6369577593310061,0.283296049463645,0.6168412098470054
1681265670610960100,2.428960205078125,-0.9051803350448608,-0.00491527933627367,0.18630555272102356,0.9930582642555237,0.11446315050125122,-0.027086574584245682,-0.39561551809310913,0.3165366053581238,-0.07360613346099854,0.3617545222924917,-0.6384293112771349,0.2808286437236689,0.6186089629617721
1681265670621004000,2.439004150390625,-0.7420728802680969,0.017104890197515488,0.17989319562911987,0.993269681930542,0.11285168677568436,-0.026076143607497215,-0.3811328411102295,0.33105704188346863,-0.08220022916793823,0.35852876208601697,-0.6396835165741178,0.27886722064382846,0.6200768120501853
1681265670631048200,2.449048095703125,-0.5726138353347778,0.03576592728495598,0.15974265336990356,0.993468701839447,0.11131826043128967,-0.025068342685699463,-0.36088496446609497,0.3367103338241577,-0.09036439657211304,0.3558439804557252,-0.6407089451128841,0.277412826335933,0.6212160207264806
1681265670641093400,2.45909326171875,-0.41880515217781067,0.051594629883766174,0.12679429352283478,0.9936403036117554,0.1099947988986969,-0.02408125437796116,-0.3375277519226074,0.3385067880153656,-0.097805917263031,0.3537421635841473,-0.6415238707305881,0.27641725039912934,0.6220184919647034
1681265670651137000,2.469136962890625,-0.31283053755760193,0.05380905047059059,0.0729702040553093,0.9937629699707031,0.10908390581607819,-0.02314828895032406,-0.3105964660644531,0.334763765335083,-0.10484248399734497,0.3521784722804642,-0.6421991460692027,0.27569206127240975,0.6225306663751063
1681265670661181200,2.47918115234375,-0.2326151728630066,0.05248682200908661,0.003684074617922306,0.9938177466392517,0.10875964164733887,-0.02230832166969776,-0.2808660864830017,0.3268025517463684,-0.111846923828125,0.35111113393514864,-0.642793014506572,0.27506904561121603,0.6227962283564834
1681265670671225000,2.48922509765625,-0.18445323407649994,0.05370042473077774,-0.07653859257698059,0.9937901496887207,0.10916047543287277,-0.021562565118074417,-0.24887144565582275,0.312622994184494,-0.12241935729980469,0.3504871959753343,-0.6433672546086425,0.27440352247237226,0.6228482212100974
1681265670681270000,2.49927001953125,-0.1662587821483612,0.06195222958922386,-0.1609267145395279,0.9936719536781311,0.11037923395633698,-0.02079237811267376,-0.21997517347335815,0.2920713424682617,-0.13019335269927979,0.35021356769696116,-0.6440183007273809,0.27357675276405463,0.6226930083695056
1681265670691314200,2.509314208984375,-0.1569872498512268,0.08443383872509003,-0.24548447132110596,0.9934602975845337,0.11243467777967453,-0.019874881953001022,-0.19814175367355347,0.27823615074157715,-0.13130921125411987,0.3502230546762398,-0.6448111554986554,0.2725456527594883,0.6223192023886818
1681265670701358000,2.519358154296875,-0.13888056576251984,0.11617427319288254,-0.3278470039367676,0.9931516051292419,0.11532572656869888,-0.01870165392756462,-0.17904949188232422,0.2677462100982666,-0.1322077512741089,0.3505038168007812,-0.6457770158302061,0.2713323039118974,0.6216895023420816
1681265670711403000,2.529403076171875,-0.11127185076475143,0.15998594462871552,-0.40133053064346313,0.9927480816841125,0.11898122727870941,-0.017168231308460236,-0.15989285707473755,0.2565223276615143,-0.13372594118118286,0.35103676418931484,-0.6469298911308876,0.2699955568051338,0.6207715540996925
1681265670721447200,2.539447265625,-0.062013864517211914,0.19255922734737396,-0.46686187386512756,0.9922481775283813,0.1233283206820488,-0.015286892652511597,-0.12994349002838135,0.2486656904220581,-0.13864374160766602,0.3518619587087537,-0.6482280297508101,0.2686205038633956,0.6195454951046266
1681265670731491000,2.549490966796875,0.008463229984045029,0.21959137916564941,-0.5215269923210144,0.9916524887084961,0.12826377153396606,-0.01318270992487669,-0.08460909128189087,0.24781958758831024,-0.14694303274154663,0.353033317769513,-0.6495872423050386,0.2672920864474959,0.6180282144910806
1681265670741535200,2.55953515625,0.10548081994056702,0.23989753425121307,-0.5707980990409851,0.9909588098526001,0.1337166577577591,-0.010968976654112339,-0.03122687339782715,0.2561911642551422,-0.15631312131881714,0.3546104329310847,-0.650933046471692,0.266085852051336,0.6162271147676035
1681265670751580200,2.569580078125,0.22409509122371674,0.25261548161506653,-0.6152198910713196,0.9901673793792725,0.13961343467235565,-0.008739609271287918,0.019659101963043213,0.26765888929367065,-0.16923892498016357,0.3566578104221339,-0.6521934108306616,0.265092342878009,0.6141375221739546
1681265670761624000,2.5796240234375,0.3497917652130127,0.2520407736301422,-0.647009551525116,0.9892812967300415,0.14587080478668213,-0.0066371215507388115,0.07013630867004395,0.27739274501800537,-0.1834263801574707,0.3592063217792277,-0.653296078288748,0.2643589856298096,0.6117918791649591
1681265670771668200,2.589668212890625,0.45960187911987305,0.23161138594150543,-0.6830170750617981,0.9883005023002625,0.15244299173355103,-0.0048268805257976055,0.12104398012161255,0.28357696533203125,-0.1927592158317566,0.3622554722124951,-0.6541867625644184,0.26386784481941733,0.6092490670778651
1681265670781712400,2.59971240234375,0.5348379611968994,0.1871589720249176,-0.7278665900230408,0.9872044324874878,0.15942147374153137,-0.0035191355273127556,0.1710292100906372,0.283998966217041,-0.19769853353500366,0.3657749100116782,-0.6548498731950756,0.26346171612488983,0.6066039570134714
1681265670791757000,2.609757080078125,0.5534409284591675,0.1285121738910675,-0.7811172604560852,0.98597252368927,0.16688328981399536,-0.0028504664078354836,0.2178695797920227,0.2748587131500244,-0.19736015796661377,0.36966164602635354,-0.6553167473249828,0.2629348349233454,0.6039664739148142
1681265670801801200,2.61980126953125,0.5093693733215332,0.07611095905303955,-0.8413366675376892,0.9845835566520691,0.1748921424150467,-0.0027665889356285334,0.2600756883621216,0.2576639950275421,-0.19173723459243774,0.3737416689180471,-0.6556942175185033,0.26207212488077675,0.6014152762464063
1681265670811845000,2.62984521484375,0.4071817696094513,0.040443237870931625,-0.8949700593948364,0.9830201268196106,0.18347281217575073,-0.0030482360161840916,0.2930571436882019,0.22437939047813416,-0.17790579795837402,0.3778128949856997,-0.65613140049333,0.2607057100278139,0.5989837996114343
1681265670821889300,2.63988916015625,0.26257312297821045,0.020229635760188103,-0.937509298324585,0.9812872409820557,0.19251933693885803,-0.0033934067469090223,0.31964653730392456,0.18289263546466827,-0.15375685691833496,0.38164338675361686,-0.656774343544885,0.2587484459567926,0.5966950339941833
1681265670831934200,2.649934326171875,0.10701654851436615,0.020862137898802757,-0.9604175090789795,0.9794073104858398,0.20186297595500946,-0.0035575348883867264,0.35363101959228516,0.14655624330043793,-0.12498247623443604,0.3850708263789219,-0.6577061876301399,0.2562104667476809,0.594557992652715
1681265670841978000,2.65997802734375,-0.024605773389339447,0.026577960699796677,-0.9705082178115845,0.9774039387702942,0.21135249733924866,-0.003397553227841854,0.39378130435943604,0.12850649654865265,-0.09738677740097046,0.3880384999162278,-0.658942598197194,0.25317163286630684,0.5925578776704391
1681265670852022300,2.670022216796875,-0.0690467432141304,0.028318336233496666,-0.9960945844650269,0.9752687215805054,0.22100192308425903,-0.0030078128911554813,0.42976051568984985,0.13611477613449097,-0.07960331439971924,0.3907421293714177,-0.6603755127509584,0.24980047172981046,0.5906136651772486
1681265670862066200,2.680066162109375,0.002212182153016329,0.04072023183107376,-1.0176762342453003,0.9729738831520081,0.2309008091688156,-0.0026020160876214504,0.4417448043823242,0.15961742401123047,-0.0674206018447876,0.3935755239118079,-0.6618054176307496,0.2463992313010453,0.5885570555646612
1681265670872111000,2.690111083984375,0.09817599505186081,0.043508827686309814,-1.0076478719711304,0.9705433249473572,0.24091583490371704,-0.0023491850588470697,0.4289776682853699,0.17514561116695404,-0.0800178050994873,0.39673082220317873,-0.6630766401089376,0.24321755030245604,0.5863270251434103
1681265670882155300,2.7001552734375,0.2093041092157364,0.03126639872789383,-1.0046989917755127,0.9680444002151489,0.25076794624328613,-0.002369525609537959,0.41133493185043335,0.17861443758010864,-0.10319077968597412,0.40016101545696625,-0.6641117611735133,0.24035558210352478,0.5840000182463266
1681265670892199200,2.71019921875,0.3361278474330902,0.010707858949899673,-0.998788058757782,0.9654643535614014,0.26051875948905945,-0.002891691168770194,0.3900195360183716,0.18255063891410828,-0.1146925687789917,0.40400299923032296,-0.6648161932928471,0.2378520203710275,0.5815731527987543
1681265670902244000,2.720244140625,0.3851326107978821,-0.02327398769557476,-0.9975313544273376,0.9628002047538757,0.270185649394989,-0.003912117797881365,0.3639208674430847,0.1772173047065735,-0.1311129331588745,0.4081388398552725,-0.6652466119395778,0.23556503644831087,0.5791188499748955
1681265670912288300,2.730288330078125,0.4268273413181305,-0.08870119601488113,-1.0339995622634888,0.9599941372871399,0.2799648344516754,-0.005554716568440199,0.33260834217071533,0.1652560830116272,-0.1530909538269043,0.4124987503458412,-0.6654500693002964,0.233235603994194,0.5767339869423109
1681265670922332200,2.740332275390625,0.4598599672317505,-0.1489846557378769,-1.0908348560333252,0.9569400548934937,0.2901751399040222,-0.00799660012125969,0.2848353385925293,0.15823489427566528,-0.16415303945541382,0.41720646595569877,-0.6654097640134853,0.23071962663042397,0.5744014315511056
1681265670932376000,2.7503759765625,0.5059494972229004,-0.22528713941574097,-1.1528650522232056,0.9535853862762451,0.30091503262519836,-0.011178540997207165,0.22916901111602783,0.14770862460136414,-0.17911386489868164,0.42224605453366076,-0.665170055006421,0.22794632608591758,0.5720992155271297
1681265670942421200,2.760421142578125,0.663269579410553,-0.2970800995826721,-1.1679648160934448,0.9499638676643372,0.3119742274284363,-0.015504705719649792,0.17509698867797852,0.14176109433174133,-0.177747905254364,0.42784035585402874,-0.6644894064897265,0.22516988225716733,0.5698287718190808
1681265670952465400,2.77046533203125,0.8007971048355103,-0.3518080711364746,-1.136767029762268,0.9462188482284546,0.32284730672836304,-0.020963415503501892,0.13909298181533813,0.11875730752944946,-0.1439536213874817,0.4339634918960088,-0.6632632050758303,0.2227110523810277,0.5675890853197811
1681265670962509000,2.780509033203125,0.8615107536315918,-0.38251617550849915,-1.0794004201889038,0.9424737095832825,0.3331690728664398,-0.027232183143496513,0.12762510776519775,0.04833117127418518,-0.12004566192626953,0.44031264770023437,-0.6616092373536921,0.22058360105910405,0.5654562743690694
1681265670972553200,2.79055322265625,0.8876171708106995,-0.3836813271045685,-1.0271971225738525,0.9387820959091187,0.3428463041782379,-0.033828604966402054,0.11361640691757202,-0.025982290506362915,-0.09610002487897873,0.4466256832237326,-0.6597328680466954,0.21871954588695566,0.5634178511719679
1681265670982598100,2.80059814453125,0.9251512885093689,-0.3965480923652649,-1.0010559558868408,0.9351006150245667,0.35204216837882996,-0.04065747186541557,0.0959356427192688,-0.06783196330070496,-0.07845264673233032,0.45290796197791233,-0.6576955841528106,0.21704327410789057,0.5614294609408972
1681265670992642000,2.81064208984375,0.9816233515739441,-0.4310392141342163,-0.9912849068641663,0.9313514232635498,0.3609514534473419,-0.04794073849916458,0.08135896921157837,-0.0722246766090393,-0.07866143435239792,0.45930116509522323,-0.655431878398599,0.21549636462342334,0.5594753449646224
1681265671002686200,2.820686279296875,1.0244500637054443,-0.47011950612068176,-0.9903128147125244,0.9274808764457703,0.36967870593070984,-0.05582841485738754,0.07618117332458496,-0.05322664976119995,-0.09366196393966675,0.46586856945599764,-0.6529036340046548,0.2140155081352201,0.5575667102449643
1681265671012730000,2.830730224609375,1.0299090147018433,-0.5124108195304871,-0.9971758127212524,0.9234521985054016,0.3782939910888672,-0.06426191329956055,0.07641041278839111,-0.0248851478099823,-0.10349321365356445,0.4725446644567763,-0.6501671658501189,0.21248929279445464,0.5557269647149332
1681265671022775300,2.840775390625,0.9706102609634399,-0.5641717910766602,-1.0230669975280762,0.9192014932632446,0.3869461417198181,-0.07308362424373627,0.0742982029914856,0.002015620470046997,-0.09406112879514694,0.4792004513566691,-0.6473459980745008,0.21071626960383807,0.5539933918451554
1681265671032819200,2.850819091796875,0.8591098189353943,-0.639566957950592,-1.0556279420852661,0.9146496057510376,0.3957965672016144,-0.08222733438014984,0.07930797338485718,0.009705841541290283,-0.06976545602083206,0.48570082713946433,-0.644543830697231,0.20844563242978295,0.5524567424947129
1681265671042863000,2.860863037109375,0.7078284025192261,-0.7284907698631287,-1.1038463115692139,0.9097160696983337,0.4049873948097229,-0.09166222810745239,0.10381847620010376,-0.005268126726150513,-0.03255957365036011,0.49193933271457546,-0.6418369281942505,0.20546105214813054,0.5512049052802319
1681265671052908300,2.870908203125,0.5354059934616089,-0.804978609085083,-1.1647688150405884,0.9043070673942566,0.4147062599658966,-0.10123022645711899,0.1328938603401184,-0.03814983367919922,0.014041483402252197,0.4978652388840962,-0.6393198317568743,0.20163095120429175,0.550223006982703
1681265671062952200,2.8809521484375,0.33926376700401306,-0.8527590036392212,-1.2281432151794434,0.89837646484375,0.42507073283195496,-0.11060965061187744,0.14018243551254272,-0.08000850677490234,0.05874502658843994,0.5034129359581396,-0.6371156335558358,0.19692344404613255,0.5494362529404229
1681265671072996000,2.89099609375,0.11657341569662094,-0.8778680562973022,-1.30527925491333,0.8918987512588501,0.43619298934936523,-0.11938263475894928,0.11959099769592285,-0.12846899032592773,0.09643340855836868,0.5084782232879149,-0.6353823812183044,0.19130580907821898,0.5487633289394765
1681265671083040300,2.901040283203125,-0.09428136795759201,-0.8778349757194519,-1.3888237476348877,0.8848284482955933,0.44820135831832886,-0.12725532054901123,0.08483695983886719,-0.17155954241752625,0.12891854345798492,0.5130422999160427,-0.6342149037207669,0.18478038885427364,0.548101402912382
1681265671093085200,2.911085205078125,-0.2519732713699341,-0.8644725680351257,-1.4752411842346191,0.8771435618400574,0.46110424399375916,-0.13417179882526398,0.04991942644119263,-0.19837841391563416,0.15492373704910278,0.5172155087990452,-0.6335727595846363,0.17748142329103117,0.5473335511245997
1681265671103129000,2.921129150390625,-0.33607202768325806,-0.8329120874404907,-1.5616077184677124,0.8688279390335083,0.4748426079750061,-0.14022304117679596,0.0113295316696167,-0.2058606743812561,0.17064905166625977,0.5211855739952953,-0.6333395957269443,0.1696155484999886,0.5463305664353104
1681265671113173200,2.93117333984375,-0.3610154390335083,-0.7887944579124451,-1.6418341398239136,0.8599014282226562,0.4892600476741791,-0.1455819010734558,-0.024879515171051025,-0.20212015509605408,0.1795479655265808,0.5251363326344616,-0.6333661250687023,0.16141994791081402,0.5449979546125775
1681265671123217200,2.941217041015625,-0.3289716839790344,-0.7339464426040649,-1.6997909545898438,0.850426971912384,0.5041401386260986,-0.15038801729679108,-0.055444180965423584,-0.19542431831359863,0.18525435030460358,0.5291990180600334,-0.6335271576505405,0.1531317587944554,0.5432700148611783
1681265671133262000,2.951261962890625,-0.2623649537563324,-0.6698092818260193,-1.7354637384414673,0.8405131697654724,0.5192007422447205,-0.15481635928153992,-0.08395195007324219,-0.19186925888061523,0.19259710609912872,0.5334593953459682,-0.6336984278956307,0.14497629148264227,0.5411369067328609
1681265671143306200,2.96130615234375,-0.15703268349170685,-0.605980634689331,-1.7449301481246948,0.8302867412567139,0.5341554880142212,-0.15906526148319244,-0.10459405183792114,-0.19954556226730347,0.19933320581912994,0.5379664630198164,-0.6337667240029292,0.1371390138143338,0.5386322204900931
1681265671153350100,2.97135009765625,-0.05255020782351494,-0.5418599843978882,-1.732204794883728,0.8198878765106201,0.5487509369850159,-0.16326689720153809,-0.11923491954803467,-0.20902931690216064,0.20995880663394928,0.5427194147530942,-0.633663241700173,0.12975917895033823,0.5358068789133416
1681265671163394300,2.981394287109375,0.04432767629623413,-0.48135924339294434,-1.7054493427276611,0.8094316124916077,0.5628368258476257,-0.16743691265583038,-0.13021725416183472,-0.22345083951950073,0.22200234234333038,0.5476527050416655,-0.6333899888268659,0.12287662765841294,0.5327240610619259
1681265671173439200,2.991439208984375,0.12896853685379028,-0.4145873785018921,-1.6596554517745972,0.799031674861908,0.5762948393821716,-0.17155982553958893,-0.14229333400726318,-0.23689359426498413,0.23207615315914154,0.5526920779489598,-0.6329650333421973,0.11651331018837408,0.5294444880013165
1681265671183483100,3.001483154296875,0.20495228469371796,-0.34754639863967896,-1.5919289588928223,0.788840115070343,0.5889809727668762,-0.1755920648574829,-0.1530522108078003,-0.2470468282699585,0.2426239401102066,0.557760561409751,-0.6324112830403483,0.11072460520487369,0.526021975908179
1681265671193527300,3.01152734375,0.2664766311645508,-0.290083110332489,-1.5112782716751099,0.7789861559867859,0.6007922887802124,-0.1795244961977005,-0.15854865312576294,-0.2578815817832947,0.249455526471138,0.5627755281101496,-0.6317470349209419,0.10551510846050505,0.5225378607192562
1681265671203572200,3.021572265625,0.3259318768978119,-0.23879988491535187,-1.4281556606292725,0.7695377469062805,0.6117004156112671,-0.1833956092596054,-0.15901851654052734,-0.25990909337997437,0.2530519366264343,0.5677049820414382,-0.6309733075019435,0.10087060677784702,0.5190459407877823
1681265671213616000,3.0316162109375,0.37714794278144836,-0.19996006786823273,-1.3435121774673462,0.7605326771736145,0.6217062473297119,-0.1872730851173401,-0.15349239110946655,-0.2605612874031067,0.2562580704689026,0.5725376982109391,-0.6300794450550565,0.09676439293283809,0.5155938322821719
1681265671223660300,3.041660400390625,0.42594024538993835,-0.16192014515399933,-1.251692533493042,0.7520169615745544,0.6308087110519409,-0.19118213653564453,-0.14583122730255127,-0.2609967589378357,0.2551775276660919,0.5772495143873533,-0.6290689623217753,0.09317280432656032,0.5122244854307827
1681265671233704200,3.0517041015625,0.47031301259994507,-0.1273602992296219,-1.1537885665893555,0.7440444231033325,0.6389943361282349,-0.19515153765678406,-0.1385604739189148,-0.26075947284698486,0.25505757331848145,0.5818307616291635,-0.6279384421446944,0.09009740491454432,0.5089683311865666
1681265671243749000,3.0617490234375,0.5151031017303467,-0.09517664462327957,-1.0543876886367798,0.7366213202476501,0.6463046669960022,-0.19919650256633759,-0.12674283981323242,-0.2596774697303772,0.2547079920768738,0.5862765112855891,-0.6266935432449363,0.08750399160874048,0.5058439365715902
1681265671253793300,3.071793212890625,0.540262758731842,-0.05489473417401314,-0.9518248438835144,0.7298763394355774,0.652673065662384,-0.20321965217590332,-0.11485570669174194,-0.2632230520248413,0.2561218738555908,0.5905296550760225,-0.6253723921281987,0.08543736080572638,0.5028761929431754
1681265671263837200,3.081837158203125,0.5612285733222961,-0.01623939536511898,-0.848903238773346,0.7238605618476868,0.6581239104270935,-0.2071201205253601,-0.10562026500701904,-0.2683839201927185,0.2598087191581726,0.5945488142430843,-0.6240216072950296,0.08388665926078316,0.5000717344050378
1681265671273881000,3.091881103515625,0.5691496133804321,0.028219949454069138,-0.7345593571662903,0.7186103463172913,0.6626816987991333,-0.21083681285381317,-0.09432756900787354,-0.2760545015335083,0.26058048009872437,0.5983035596822872,-0.6226716350256104,0.08283496075511013,0.4974447294858152
1681265671283926300,3.10192626953125,0.5581411719322205,0.07586712390184402,-0.6143301725387573,0.7142068147659302,0.6663416624069214,-0.2142373025417328,-0.06981289386749268,-0.2878931164741516,0.2607002854347229,0.6017321857707372,-0.6213778833242035,0.08228533397755854,0.49501226181841684
1681265671293970200,3.11197021484375,0.5339439511299133,0.13608385622501373,-0.4786703288555145,0.7107494473457336,0.6690894961357117,-0.21715059876441956,-0.04390996694564819,-0.29956746101379395,0.26198089122772217,0.6047532728133359,-0.6202101958262454,0.08224362429053376,0.49279682971790917
1681265671304014000,3.12201416015625,0.5298948287963867,0.19624754786491394,-0.32777535915374756,0.7083808183670044,0.6708168983459473,-0.21954737603664398,-0.016471147537231445,-0.30266815423965454,0.2619363069534302,0.6073414545530043,-0.6191695753430672,0.08279701943921237,0.4908256898360737
1681265671314059300,3.132059326171875,0.5257613658905029,0.24119903147220612,-0.1601778268814087,0.7072042226791382,0.6713950634002686,-0.2215646356344223,0.019846558570861816,-0.30233073234558105,0.254905104637146,0.6095028222223742,-0.6181917903480724,0.08400351335502206,0.48917136606109485
1681265671324103200,3.142103271484375,0.5190225839614868,0.2789310812950134,0.010692982003092766,0.7072831988334656,0.67076176404953,-0.22322483360767365,0.0718458890914917,-0.30435240268707275,0.24910369515419006,0.6111926415878672,-0.6172659144890776,0.08585090129721153,0.48790990145600854
1681265671334147300,3.152147216796875,0.527085542678833,0.3188856840133667,0.18686534464359283,0.7086063623428345,0.6688935160636902,-0.22462965548038483,0.13187819719314575,-0.3003937602043152,0.24403882026672363,0.6124445399532649,-0.6163441499336012,0.08834625747841982,0.4870590652381151
1681265671344191000,3.16219091796875,0.5042164325714111,0.36744871735572815,0.38265642523765564,0.7112786173820496,0.6657049059867859,-0.2256539911031723,0.19629883766174316,-0.28722596168518066,0.2314218431711197,0.613204440886215,-0.6154605313846391,0.09154964715741562,0.48662853051728316
1681265671354236200,3.172236083984375,0.3885950744152069,0.39543160796165466,0.5751888751983643,0.7153504490852356,0.6612375378608704,-0.22591745853424072,0.25902998447418213,-0.27245885133743286,0.22491039335727692,0.6132431996134063,-0.6147813682775511,0.09531598887092572,0.48671504674875304
1681265671364280300,3.1822802734375,0.2607267498970032,0.3935745656490326,0.7235689759254456,0.7205563187599182,0.6558034420013428,-0.22521233558654785,0.3261508345603943,-0.2600055932998657,0.22390004992485046,0.6124564344876173,-0.6144315543220698,0.09933626799051924,0.48734317788109144
1681265671374324000,3.192323974609375,0.17422886192798615,0.39369016885757446,0.8690569400787354,0.7266534566879272,0.6495383381843567,-0.22377344965934753,0.3840489387512207,-0.24585193395614624,0.22273583710193634,0.6109734127414018,-0.6143257996125946,0.10352336475333689,0.4884650859235721
1681265671384368000,3.2023681640625,0.12694744765758514,0.4052637815475464,1.0085057020187378,0.7336298823356628,0.6423296928405762,-0.22181038558483124,0.4173862934112549,-0.22828245162963867,0.21019840240478516,0.6089136203109816,-0.61435385951569,0.10800067543246174,0.4900300827708491
1681265671394413300,3.212413330078125,0.08221594244241714,0.4205167591571808,1.168117642402649,0.7415026426315308,0.6340482234954834,-0.2194458246231079,0.4303569793701172,-0.20806866884231567,0.1969391256570816,0.6063425920027663,-0.6144393630872125,0.11287761100013803,0.492007590052681
1681265671404457200,3.222457275390625,-0.011550158262252808,0.4607761800289154,1.3594980239868164,0.750447690486908,0.6245000958442688,-0.21639704704284668,0.42769855260849,-0.21080386638641357,0.17641903460025787,0.6030735403956035,-0.6146789015166962,0.11820035452004975,0.4944700950536602
1681265671414501000,3.232501220703125,-0.13498128950595856,0.5178066492080688,1.5551503896713257,0.760550856590271,0.6136103272438049,-0.21223784983158112,0.410408616065979,-0.22570133209228516,0.15423917770385742,0.5989248410759056,-0.6152302040264921,0.123987392955223,0.49740127972072845
1681265671424546300,3.24254638671875,-0.23388101160526276,0.5739316344261169,1.7518751621246338,0.7717908024787903,0.6012852191925049,-0.2068692296743393,0.38863998651504517,-0.23248034715652466,0.1322079449892044,0.5938462815189299,-0.6161138952766491,0.13026532803855376,0.5007805024363785
1681265671434590200,3.252590087890625,-0.28879669308662415,0.5822532176971436,1.9334646463394165,0.7839832901954651,0.5874248147010803,-0.20075474679470062,0.40167051553726196,-0.21259260177612305,0.11452731490135193,0.587989831038873,-0.6171256186705895,0.13703501615362762,0.5046240593164745
1681265671444634000,3.262634033203125,-0.3404104709625244,0.5563892722129822,2.106658935546875,0.7968754172325134,0.5720078349113464,-0.19441384077072144,0.45165979862213135,-0.17134249210357666,0.09697118401527405,0.5814772136060481,-0.6180663727780186,0.1441771053996177,0.509010064232663
1681265671454678000,3.272677978515625,-0.42347395420074463,0.5218654274940491,2.2761073112487793,0.8103160858154297,0.5550394654273987,-0.18793384730815887,0.503023087978363,-0.1301279067993164,0.07904708385467529,0.5742709170859431,-0.6189172268903694,0.15157356714928166,0.5139843430666104
1681265671464723200,3.28272314453125,-0.5553620457649231,0.5191280245780945,2.429676055908203,0.8241909742355347,0.5366090536117554,-0.18099728226661682,0.5314760804176331,-0.10168778896331787,0.06611382961273193,0.5662354336815218,-0.6198244027747911,0.15911966287517604,0.5194959925963898
1681265671474767000,3.29276708984375,-0.7197637557983398,0.538215160369873,2.5735890865325928,0.8383681178092957,0.5168505311012268,-0.1732175201177597,0.5284988284111023,-0.0892534852027893,0.06228609383106232,0.5572569862674356,-0.6209588001195884,0.16673754111492659,0.5254268093762546
1681265671484811000,3.30281103515625,-0.9071226716041565,0.5491307973861694,2.6835083961486816,0.8526766896247864,0.49588534235954285,-0.16443857550621033,0.5097041726112366,-0.08246374130249023,0.05977852642536163,0.5472623756081839,-0.6224135017877237,0.1743047484269312,0.5317171131671253
1681265671494856200,3.312856201171875,-1.080190896987915,0.5183694362640381,2.749732732772827,0.866811990737915,0.47395357489585876,-0.15493549406528473,0.5012909770011902,-0.07260161638259888,0.053540825843811035,0.5363394125309817,-0.624136841759054,0.18161898013731637,0.5383379882628304
1681265671504900000,3.322900146484375,-1.1994160413742065,0.4546600878238678,2.748891830444336,0.8803558945655823,0.45149868726730347,-0.14533588290214539,0.509536623954773,-0.05652490258216858,0.0438191294670105,0.5247993340883998,-0.6259515292785555,0.1884588500667984,0.5452097484673895
1681265671514944000,3.332944091796875,-1.2674036026000977,0.4237802028656006,2.695193290710449,0.8930184841156006,0.42898061871528625,-0.13599133491516113,0.5018636584281921,-0.040537625551223755,0.03271985054016113,0.5129877056031111,-0.6277489777076014,0.19477052091680586,0.5521225509322388
1681265671524988200,3.34298828125,-1.3006823062896729,0.4388604760169983,2.6065855026245117,0.9047159552574158,0.4067288339138031,-0.12673120200634003,0.43228960037231445,-0.030492812395095825,0.008094072341918945,0.5011088709563016,-0.6295814842922178,0.20065281401781945,0.5587983063680516
1681265671535033300,3.353033447265625,-1.3111754655838013,0.4924323558807373,2.4947307109832764,0.9154367446899414,0.38498997688293457,-0.11729640513658524,0.3166341781616211,-0.022715777158737183,-0.02821141481399536,0.4892916830990487,-0.6315313959815494,0.20620352708371217,0.5650149618931941
1681265671545077000,3.363076904296875,-1.2777578830718994,0.5360167622566223,2.364032745361328,0.9251678586006165,0.36397379636764526,-0.1076446920633316,0.20370781421661377,-0.017904430627822876,-0.06630551815032959,0.47768880415276066,-0.6336045205533444,0.21147804831241518,0.5706449927905461
1681265671555121200,3.37312109375,-1.175555944442749,0.5505088567733765,2.2091116905212402,0.9338688254356384,0.34387776255607605,-0.0981673076748848,0.12661683559417725,-0.009984970092773438,-0.0994034856557846,0.4665879086649572,-0.6356373041559166,0.21652151000309203,0.5756554914223673
1681265671565165300,3.383165283203125,-0.9880967736244202,0.5313536524772644,2.0361030101776123,0.941513180732727,0.324899822473526,-0.08940303325653076,0.08660870790481567,0.012014240026473999,-0.13148319721221924,0.45635497753618404,-0.6373959976247912,0.22141550459592707,0.5800358449022051
1681265671575210000,3.3932099609375,-0.7220121026039124,0.4986591339111328,1.8544234037399292,0.9481338858604431,0.30717355012893677,-0.08177101612091064,0.07406759262084961,0.04856988787651062,-0.15911948680877686,0.4473380196705784,-0.6386673352946778,0.22631510223317053,0.5837586860425971
1681265671585254100,3.403254150390625,-0.41996562480926514,0.4516116678714752,1.6743382215499878,0.9538071751594543,0.2907751202583313,-0.07550875842571259,0.0775189995765686,0.0887109637260437,-0.1746896505355835,0.43977836044131086,-0.6393095204579125,0.23136325684585937,0.5868128294575158
1681265671595298300,3.41329833984375,-0.15893295407295227,0.41247037053108215,1.50400972366333,0.9586449265480042,0.2757216989994049,-0.07055030018091202,0.08914554119110107,0.1174362301826477,-0.17481106519699097,0.43366847764820504,-0.639340566583226,0.2365766010219878,0.5892425386651761
1681265671605343000,3.423343017578125,0.0060021644458174706,0.36449041962623596,1.3440754413604736,0.9627587199211121,0.26202914118766785,-0.06660668551921844,0.09929877519607544,0.12517789006233215,-0.15722447633743286,0.42875483066441633,-0.638935350075271,0.24178145948278787,0.5911621219316273
1681265671615387100,3.43338720703125,0.0820537880063057,0.30886712670326233,1.198522686958313,0.9662421345710754,0.2496957927942276,-0.06346766650676727,0.10367363691329956,0.1110830157995224,-0.1269925832748413,0.4247259869340271,-0.6382737003098813,0.24672424187739184,0.5927408165098733
1681265671625431000,3.44343115234375,0.08302998542785645,0.24606406688690186,1.0618972778320312,0.9691887497901917,0.2386510819196701,-0.06098024547100067,0.1066320538520813,0.0848352462053299,-0.09116517752408981,0.42128623123563874,-0.6375037794886227,0.251194760241945,0.5941446631869013
1681265671635475200,3.45347509765625,0.021588999778032303,0.17963071167469025,0.9328439235687256,0.9716606736183167,0.22888971865177155,-0.059035524725914,0.10263442993164062,0.06679514050483704,-0.0603950098156929,0.41821566983755204,-0.6367525629386613,0.2550066883352572,0.5954943572775202
1681265671645520100,3.46352001953125,-0.10538549721240997,0.10681983083486557,0.8146834373474121,0.9737141728401184,0.22038139402866364,-0.05755552649497986,0.07959997653961182,0.06437811255455017,-0.03846805915236473,0.4152970847646022,-0.6361341762091048,0.2579836167035478,0.596913753554044
1681265671655564000,3.47356396484375,-0.29606544971466064,0.043085064738988876,0.7154799103736877,0.9754170179367065,0.2130253165960312,-0.0564083531498909,0.03987228870391846,0.06592060625553131,-0.029712259769439697,0.41227973117029787,-0.6357724981892234,0.2599791399026657,0.5985228527241939
1681265671665608200,3.483608154296875,-0.5287439227104187,-0.009291681461036205,0.6364971995353699,0.9768492579460144,0.20663446187973022,-0.05538751184940338,-0.015179336071014404,0.06399542093276978,-0.024675369262695312,0.40891624941728444,-0.6357829315679397,0.26093353006454045,0.6004009422780855
1681265671675653000,3.493653076171875,-0.7561309933662415,-0.059209976345300674,0.5837991237640381,0.9780797958374023,0.200998917222023,-0.054399579763412476,-0.07509523630142212,0.06039939820766449,-0.016324877738952637,0.405057699299185,-0.6361991352778753,0.26086561700776484,0.6026010618532004
1681265671685697000,3.503697021484375,-0.9295971989631653,-0.09965809434652328,0.5499362349510193,0.9791639447212219,0.1959013044834137,-0.05348556116223335,-0.1302260160446167,0.0624605268239975,-0.013561546802520752,0.4007402776156563,-0.6369340921489032,0.2599464969618419,0.6051033286632624
1681265671695741200,3.5137412109375,-1.0699132680892944,-0.13171537220478058,0.5385845303535461,0.9801589846611023,0.19108767807483673,-0.05267012491822243,-0.17809587717056274,0.07594120502471924,-0.014758534729480743,0.3960255750280112,-0.6378817215418651,0.25840249131543147,0.6078642420104942
1681265671705785300,3.523785400390625,-1.1668624877929688,-0.1572018414735794,0.5351396799087524,0.9811001420021057,0.1863895207643509,-0.05197327584028244,-0.21785563230514526,0.10412256419658661,-0.015317972749471664,0.3909758548664675,-0.6389594660100926,0.2564062456808675,0.6108391051806483
1681265671715830000,3.533830078125,-1.2391530275344849,-0.18049278855323792,0.5378090143203735,0.982003927230835,0.18172705173492432,-0.05141482502222061,-0.25347310304641724,0.13850919902324677,-0.019035041332244873,0.385677943686558,-0.640099125217047,0.25409780974848867,0.6139706082811793
1681265671725874200,3.543874267578125,-1.2899162769317627,-0.19851244986057281,0.5444700717926025,0.9828808307647705,0.177038311958313,-0.05101623758673668,-0.2839825749397278,0.1579531580209732,-0.02219545468688011,0.38017788097476296,-0.6412551898345256,0.25156244222082785,0.6172299901583769
1681265671735918300,3.55391845703125,-1.3404666185379028,-0.20924578607082367,0.5499772429466248,0.9837387800216675,0.17229610681533813,-0.05071386322379112,-0.31085681915283203,0.16908876597881317,-0.02406948059797287,0.3744868572992954,-0.6424288473565268,0.24885386280083469,0.6205774847655535
1681265671745962200,3.563962158203125,-1.3762694597244263,-0.21975038945674896,0.5594133734703064,0.9845786690711975,0.167493999004364,-0.050501272082328796,-0.33391350507736206,0.17741571366786957,-0.026952378451824188,0.36862843754065006,-0.6436075047580367,0.2460055778214132,0.6239900510580119
1681265671756007200,3.574007080078125,-1.3924411535263062,-0.22573797404766083,0.5628951787948608,0.9853962063789368,0.16264373064041138,-0.050411324948072433,-0.34702956676483154,0.18699614703655243,-0.029163237661123276,0.36265581683681264,-0.6447616996126749,0.24305696634515556,0.627444323266313
1681265671766051300,3.58405126953125,-1.3937808275222778,-0.22359521687030792,0.5631476640701294,0.9861901998519897,0.15776507556438446,-0.0503883957862854,-0.3577112555503845,0.20211346447467804,-0.0288047194480896,0.35662722847048545,-0.6458870873035567,0.24007430552550546,0.6308812691087877
1681265671776095200,3.59409521484375,-1.3845924139022827,-0.21670615673065186,0.556826651096344,0.9869515895843506,0.15292511880397797,-0.05040154978632927,-0.36369121074676514,0.21752777695655823,-0.03071415051817894,0.35060020718441565,-0.6469861707029898,0.2370825192978343,0.6342556339916825
1681265671786140200,3.60414013671875,-1.3463654518127441,-0.20582903921604156,0.5486621856689453,0.9876829385757446,0.14812198281288147,-0.05042096599936485,-0.3619810938835144,0.23247799277305603,-0.03171706199645996,0.3446298763701262,-0.6480467120548505,0.23414733968934553,0.6375270554727356
1681265671796184000,3.61418408203125,-1.2816972732543945,-0.19290897250175476,0.5358664989471436,0.9883778095245361,0.143390953540802,-0.05048089846968651,-0.34984326362609863,0.24785968661308289,-0.030390679836273193,0.3388292061350995,-0.6490279331351293,0.23134885595855628,0.640652168499326
1681265671806228200,3.624228271484375,-1.1787407398223877,-0.18076691031455994,0.520071268081665,0.9890318512916565,0.13876761496067047,-0.05059301480650902,-0.3310880661010742,0.2620808184146881,-0.02884424477815628,0.3333187769711385,-0.6498947214205524,0.22878012269021292,0.643579970817622
1681265671816272400,3.6342724609375,-1.0409810543060303,-0.161839559674263,0.5039266347885132,0.9896471500396729,0.13424000144004822,-0.050775304436683655,-0.31246209144592285,0.27695387601852417,-0.02953171730041504,0.32823156284883465,-0.6505967044625793,0.22657509857612054,0.6462597916074585
1681265671826317000,3.644317138671875,-0.890656054019928,-0.13506491482257843,0.4867439270019531,0.9902296662330627,0.1297941505908966,-0.05097922310233116,-0.2929181456565857,0.2911195755004883,-0.033203549683094025,0.32363029211740785,-0.651128460161961,0.2248157403562009,0.6486548535297115
1681265671836361200,3.654361328125,-0.738839328289032,-0.10522312670946121,0.46085110306739807,0.9907754063606262,0.12549848854541779,-0.051129844039678574,-0.2748025059700012,0.2996724545955658,-0.031664371490478516,0.31955655017851525,-0.6515183384493276,0.22351494793609888,0.6507292282081548
1681265671846405400,3.6644052734375,-0.5985892415046692,-0.06788252294063568,0.43146389722824097,0.9912833571434021,0.1214086264371872,-0.05115996673703194,-0.2578238248825073,0.3057917058467865,-0.027239687740802765,0.31600958807468654,-0.651803306198535,0.22264875034097925,0.6524706764471311
1681265671856450000,3.674449951171875,-0.48043280839920044,-0.029588401317596436,0.392753005027771,0.9917529225349426,0.11758136004209518,-0.05099869146943092,-0.23963189125061035,0.3062010407447815,-0.026119239628314972,0.31295046045106106,-0.6520334082097743,0.22215554931575063,0.6538818199746615
1681265671866494200,3.684494140625,-0.38684582710266113,0.012186387553811073,0.34426748752593994,0.9921776056289673,0.11412663757801056,-0.050583284348249435,-0.22147148847579956,0.30460506677627563,-0.026946663856506348,0.31033653007979173,-0.6522682352007947,0.22193356547188958,0.6549678202063011
1681265671876538400,3.694538330078125,-0.3156754970550537,0.05649872124195099,0.2850281298160553,0.9925504922866821,0.1111675277352333,-0.04985364153981209,-0.20507490634918213,0.3012165427207947,-0.028790175914764404,0.3081201271917039,-0.6525703320797619,0.22186739588012935,0.6557353316295567
1681265671886582000,3.70458203125,-0.247612863779068,0.10630752891302109,0.2158871442079544,0.9928679466247559,0.10880113393068314,-0.04874037206172943,-0.19280391931533813,0.29464128613471985,-0.03405386209487915,0.30628048137221237,-0.6529894156242665,0.22188879323725416,0.656172596692919
1681265671896627200,3.714627197265625,-0.19180312752723694,0.16548216342926025,0.15186874568462372,0.9931310415267944,0.10708655416965485,-0.04714975506067276,-0.1877722144126892,0.28265345096588135,-0.044952332973480225,0.3048080467219931,-0.6535696438017712,0.22197261603340995,0.656252162680117
1681265671906671400,3.72467138671875,-0.12977711856365204,0.22659988701343536,0.0883379727602005,0.9933493137359619,0.10597677528858185,-0.045013852417469025,-0.18463343381881714,0.2725175619125366,-0.05793720856308937,0.303664439388459,-0.6543332452407126,0.22212851748121143,0.6559686840035652
1681265671916715300,3.73471533203125,-0.05633699521422386,0.28595268726348877,0.03230320289731026,0.9935258626937866,0.10541658848524094,-0.04235491529107094,-0.17733311653137207,0.27059051394462585,-0.07234543561935425,0.302871346806377,-0.6552533564219998,0.22240859145819955,0.6553216877393394
1681265671926760200,3.74476025390625,0.03577638044953346,0.3383229076862335,-0.01720442995429039,0.9936613440513611,0.1053500548005104,-0.03922384977340698,-0.16382735967636108,0.2743649184703827,-0.08534890413284302,0.302466235926474,-0.6562886522889453,0.22287503033180037,0.6543134491936055
1681265671936804400,3.754804443359375,0.1442437469959259,0.3734300434589386,-0.056534525007009506,0.9937557578086853,0.10569168627262115,-0.03575633093714714,-0.13459450006484985,0.28400251269340515,-0.10091668367385864,0.302482159935893,-0.6573673765404039,0.22358436133418425,0.6529797542868943
1681265671946848300,3.76484814453125,0.27383190393447876,0.3950044810771942,-0.09261423349380493,0.9938088059425354,0.1063571497797966,-0.03212669864296913,-0.08896267414093018,0.3001522421836853,-0.11681437492370605,0.302984739283286,-0.6583950905650164,0.22461646144860128,0.6513551466148982
1681265671956892200,3.77489208984375,0.4114997386932373,0.39876192808151245,-0.11951509118080139,0.9938158988952637,0.1073153093457222,-0.02852165326476097,-0.03643369674682617,0.3181150257587433,-0.12525641918182373,0.3040190153723736,-0.6592921935373204,0.22599331232346698,0.6494869637428681
1681265671966937000,3.78493701171875,0.5291504859924316,0.37776613235473633,-0.15273961424827576,0.993772029876709,0.10855706036090851,-0.025147808715701103,0.02159351110458374,0.3290192782878876,-0.13467276096343994,0.3055835930762342,-0.6599943935803513,0.2276697080607078,0.6474507691845969
1681265671976981200,3.794981201171875,0.6132795214653015,0.33052751421928406,-0.19461596012115479,0.9936665296554565,0.1101461797952652,-0.02223154716193676,0.08738791942596436,0.3320840001106262,-0.14271599054336548,0.30763961196139955,-0.6604627367450809,0.22950642639630653,0.6453475471272013
1681265671987025200,3.805025146484375,0.6487382054328918,0.28626424074172974,-0.2491963803768158,0.9934849739074707,0.11221786588430405,-0.019862767308950424,0.14822328090667725,0.32964614033699036,-0.14511525630950928,0.31010190763049955,-0.6607324417727611,0.23130338685411214,0.6432480776313679
1681265671997070000,3.815070068359375,0.6323240995407104,0.21910253167152405,-0.3213081359863281,0.9932097792625427,0.11492583900690079,-0.018070148304104805,0.19902050495147705,0.3224826753139496,-0.14023977518081665,0.31285650559989975,-0.6608735681827983,0.23283267060963983,0.6412144599212503
1681265672007114200,3.8251142578125,0.550923764705658,0.16747596859931946,-0.3848807215690613,0.9928269982337952,0.1183638945221901,-0.01686728186905384,0.23153817653656006,0.3061966896057129,-0.1295560598373413,0.3157513016281505,-0.6609627193816987,0.2338688569423803,0.639323654493775
1681265672017158100,3.835158203125,0.41009262204170227,0.15513727068901062,-0.4276324510574341,0.9923588633537292,0.12236177176237106,-0.015858221799135208,0.24815016984939575,0.2808670401573181,-0.1165575385093689,0.31847166159222595,-0.6611890348147307,0.2343073825341605,0.6375773732013674
1681265672027202000,3.8452021484375,0.25637999176979065,0.14637716114521027,-0.45385339856147766,0.991830587387085,0.12670555710792542,-0.014757992699742317,0.26529526710510254,0.2578922510147095,-0.09052765369415283,0.32080621113440616,-0.6616611669958468,0.23414846504522957,0.63597357670093
1681265672037247200,3.855247314453125,0.13749566674232483,0.11501923203468323,-0.4713769853115082,0.9912473559379578,0.13130557537078857,-0.013694079592823982,0.30184340476989746,0.24013914167881012,-0.061714887619018555,0.3227749316542587,-0.662315910317026,0.23343220661132144,0.6345576320996629
1681265672047291400,3.86529150390625,0.06153565272688866,0.07402998954057693,-0.48902469873428345,0.9906108975410461,0.13610289990901947,-0.012888487428426743,0.3489581346511841,0.2316644787788391,-0.040883541107177734,0.3245263070334741,-0.6630228583576151,0.232285267815087,0.6333458572543778
1681265672057335000,3.8753349609375,0.014546575024724007,0.052250124514102936,-0.4987308382987976,0.9899253845214844,0.14105093479156494,-0.01234741322696209,0.3767891526222229,0.23642103374004364,-0.041104137897491455,0.326164938059346,-0.6637300228600506,0.23084356172127238,0.6322896453138626
1681265672067380200,3.885380126953125,-0.0461946539580822,0.06420546770095825,-0.49504023790359497,0.9892011284828186,0.14608941972255707,-0.011797010898590088,0.3736528754234314,0.2457563281059265,-0.05897325277328491,0.327664281721254,-0.6645077373276513,0.22919633891715488,0.6312960398587034
1681265672077424400,3.89542431640625,-0.09634436666965485,0.08089203387498856,-0.49307483434677124,0.9884650111198425,0.15105150640010834,-0.010979770682752132,0.34959352016448975,0.25353533029556274,-0.08112227916717529,0.3289189118209653,-0.665425853113267,0.22741712525474267,0.6303192532062324
1681265672087468000,3.905468017578125,-0.1288772076368332,0.07758273184299469,-0.5013836026191711,0.9877060055732727,0.156002476811409,-0.010014137253165245,0.33219456672668457,0.2509342432022095,-0.08993089199066162,0.33002266249688506,-0.6664317190854645,0.2255253755775637,0.6293585769640152
1681265672097512200,3.91551220703125,-0.13759107887744904,0.06502832472324371,-0.5361634492874146,0.9868876934051514,0.16115199029445648,-0.00908935721963644,0.32637518644332886,0.24285496771335602,-0.09763062000274658,0.331123446111586,-0.6674666920522455,0.22348050595687755,0.6284121996624772
1681265672107557000,3.92555712890625,-0.09925676882266998,0.06360244005918503,-0.5914690494537354,0.9859675168991089,0.1667315661907196,-0.008292620070278645,0.3079625368118286,0.2409374862909317,-0.10712486505508423,0.332423588373518,-0.6684859318026845,0.2213148187075749,0.627408088535988
1681265672117601300,3.935601318359375,-0.01835073158144951,0.11070390045642853,-0.6562240719795227,0.9849080443382263,0.17292220890522003,-0.007363941520452499,0.24301254749298096,0.24442094564437866,-0.11861264705657959,0.33409640565862014,-0.6695405760785131,0.21916533981069294,0.6261482675575516
1681265672127645200,3.945645263671875,0.08833257108926773,0.19038112461566925,-0.7150328159332275,0.9837002754211426,0.1797172576189041,-0.00596051337197423,0.13719511032104492,0.2379005402326584,-0.13365739583969116,0.3362069723015852,-0.6707018585497732,0.2172067221581053,0.6244558657738917
1681265672137690000,3.955690185546875,0.23405835032463074,0.2749421000480652,-0.7650850415229797,0.9823463559150696,0.1870296448469162,-0.003942856565117836,0.031920552253723145,0.22440838813781738,-0.1366668939590454,0.338805733417414,-0.6719720205040943,0.21559725288544243,0.6222396092413943
1681265672147734300,3.965734375,0.4313212037086487,0.3445448577404022,-0.8182300329208374,0.980835497379303,0.19483128190040588,-0.001498528989031911,-0.04547184705734253,0.21295984089374542,-0.1277281641960144,0.3420496419292502,-0.6732378530614149,0.2144796696504697,0.6194765419959344
1681265672157778200,3.975778076171875,0.6961951851844788,0.38350236415863037,-0.8520734906196594,0.979164719581604,0.20306439697742462,0.0009949549566954374,-0.08832627534866333,0.20689347386360168,-0.12312626838684082,0.34614133070978464,-0.6743103596718466,0.21401639268084433,0.6161887298764397
1681265672167822000,3.985822021484375,1.023473858833313,0.41821011900901794,-0.8869124054908752,0.9773422479629517,0.21164236962795258,0.0031189084984362125,-0.10263216495513916,0.21232309937477112,-0.12349557876586914,0.35130666859758514,-0.6749732710323607,0.21440741050085527,0.6123922027212978
1681265672177867300,3.9958671875,1.368369221687317,0.4422624409198761,-0.9139176607131958,0.9753652215003967,0.2205449491739273,0.004762652795761824,-0.09395653009414673,0.22769728302955627,-0.11946296691894531,0.35765931844622845,-0.6751451307387398,0.21577854104122893,0.608028378315989
1681265672187911200,4.0059111328125,1.705151915550232,0.40201863646507263,-0.9437557458877563,0.9732422828674316,0.2297171950340271,0.00544704170897603,-0.056097447872161865,0.24827969074249268,-0.10555994510650635,0.36524054818060653,-0.6746572500225329,0.21808511150568444,0.6032212915150764
1681265672197955000,4.015955078125,1.9628574848175049,0.31101495027542114,-0.9867540597915649,0.9709526300430298,0.23922787606716156,0.004602169152349234,0.00989764928817749,0.2623133361339569,-0.07819533348083496,0.3739892619837969,-0.6733815184470907,0.2210393971530699,0.5981898178826043
1681265672208000300,4.026000244140625,2.1021032333374023,0.20782895386219025,-1.0321385860443115,0.9684633016586304,0.24914786219596863,0.002115359529852867,0.07882386445999146,0.24268877506256104,-0.04648792743682861,0.3836201077575799,-0.6714023202123938,0.22422445048746056,0.5931088223940975
1681265672218044200,4.036044189453125,2.1335887908935547,0.10344208031892776,-1.0799702405929565,0.9657681584358215,0.2594006359577179,-0.0018009226769208908,0.12631869316101074,0.197127103805542,-0.010802865028381348,0.39371753569123114,-0.6689149685779606,0.2272714312575638,0.5881215938118307
1681265672228088000,4.046088134765625,2.0796406269073486,-0.012812765315175056,-1.1411441564559937,0.9628148078918457,0.27007240056991577,-0.006968566682189703,0.1625056266784668,0.13013511896133423,0.028758108615875244,0.40401203866885893,-0.6660968615047125,0.22984927176448158,0.5833168466814121
1681265672238132200,4.05613232421875,1.9600104093551636,-0.13005389273166656,-1.2285741567611694,0.9595276713371277,0.2813023030757904,-0.013257634826004505,0.19057303667068481,0.053292423486709595,0.06690752506256104,0.41429846487148847,-0.6631067132023977,0.23164772743188408,0.5787794473447134
1681265672248177400,4.066177490234375,1.8091719150543213,-0.23386268317699432,-1.3248671293258667,0.955809473991394,0.2932734489440918,-0.02046886458992958,0.19479477405548096,-0.0005945861339569092,0.09940260648727417,0.4244788258442631,-0.6600911759595497,0.2324762506156884,0.5745016856904218
1681265672258221000,4.076220947265625,1.6333073377609253,-0.3022556006908417,-1.4347443580627441,0.9515880942344666,0.3060755431652069,-0.02824724279344082,0.17318296432495117,-0.04109141230583191,0.12199723720550537,0.4344630978404363,-0.65720779837358,0.23228062396797458,0.5704081594543298
1681265672268265200,4.08626513671875,1.4376295804977417,-0.35625171661376953,-1.5493977069854736,0.9467905163764954,0.3198046088218689,-0.03623198717832565,0.13369953632354736,-0.08004319667816162,0.12783050537109375,0.4441719577383021,-0.6546079332536442,0.2310248022318849,0.5664161918788712
1681265672278310100,4.09631005859375,1.216221570968628,-0.3994641602039337,-1.6559672355651855,0.9413654804229736,0.33448249101638794,-0.04418770968914032,0.09420269727706909,-0.11170414090156555,0.13334476947784424,0.4535159107325101,-0.6523926058870003,0.2286701380129735,0.5625097472103716
1681265672288354000,4.10635400390625,0.9839903712272644,-0.4430731534957886,-1.7560474872589111,0.9352914690971375,0.35004428029060364,-0.051953185349702835,0.0658225417137146,-0.13921356201171875,0.14144599437713623,0.46240301254762517,-0.6506190905401693,0.22520702845525206,0.5587129746843923
1681265672298398200,4.116398193359375,0.7431892156600952,-0.476213276386261,-1.8464847803115845,0.9285493493080139,0.3664321005344391,-0.059361740946769714,0.04860830307006836,-0.1692579984664917,0.14598584175109863,0.4707744789093024,-0.6493292178355988,0.22065968517623955,0.5550246602971618
1681265672308443100,4.126443115234375,0.5392742156982422,-0.5018784999847412,-1.923123836517334,0.9211346507072449,0.3835535943508148,-0.06631609052419662,0.0375446081161499,-0.19443610310554504,0.14697402715682983,0.4786370737577754,-0.6485088932908223,0.21512361176178293,0.5514206354668767
1681265672318487000,4.136487060546875,0.36937013268470764,-0.5203568935394287,-1.9837523698806763,0.9130693674087524,0.4012470245361328,-0.07283762842416763,0.030518949031829834,-0.20994752645492554,0.14484381675720215,0.4860593146150651,-0.6480721116070967,0.2087671535383643,0.547873402918574
1681265672328531200,4.14653125,0.22358861565589905,-0.5201836824417114,-2.030510902404785,0.9043890833854675,0.41936519742012024,-0.07882443815469742,0.022475481033325195,-0.21724724769592285,0.14375054836273193,0.49307382211483813,-0.6479832475595125,0.20175601971821397,0.5443256889130492
1681265672338575000,4.1565751953125,0.09973326325416565,-0.5087928175926208,-2.063831090927124,0.8951447010040283,0.4377560019493103,-0.08417705446481705,0.00577998161315918,-0.2195705771446228,0.14505958557128906,0.4996939459994535,-0.648215324937509,0.19423790784839273,0.540735179694195
1681265672348620300,4.166620361328125,-0.00876578688621521,-0.4931330382823944,-2.0835165977478027,0.8853951096534729,0.4562668800354004,-0.08885937929153442,-0.011860013008117676,-0.2236924171447754,0.14910107851028442,0.5059324279242914,-0.6487285049607734,0.18633743174130057,0.5370866145410289
1681265672358664200,4.176664306640625,-0.09890926629304886,-0.4658103585243225,-2.0853209495544434,0.8752083778381348,0.47475147247314453,-0.09285090118646622,-0.02327972650527954,-0.23541739583015442,0.15173453092575073,0.5117979872081306,-0.6494853223357046,0.1781666776193044,0.5333743879420458
1681265672368708000,4.1867080078125,-0.15945257246494293,-0.42642226815223694,-2.0702855587005615,0.864680826663971,0.49303948879241943,-0.09612007439136505,-0.03443491458892822,-0.24387872219085693,0.15433233976364136,0.5173085961441037,-0.6504476322040643,0.16987596049960904,0.529577002306911
