,seconds_elapsed,rotationRateX,rotationRateY,rotationRateZ,gravityX,gravityY,gravityZ,accelerationX,accelerationY,accelerationZ,quaternionW,quaternionX,quaternionY,quaternionZ
0,6.0,-1.3343900676230669,0.07537624096791629,0.7890589766736034,0.9743621928692328,0.22086918186566556,-0.042638909299127094,-0.31349177932359124,0.22224804525497802,-0.05595489866972188,0.7175384254592374,-0.076988093996355,0.687569620650673,-0.08027553522558482
1,6.01,-1.1312112040118667,0.09162310599469423,0.8320465733197112,0.9761671287027098,0.21342239270061897,-0.03911419124476056,-0.31526941338035164,0.24562772373348757,-0.06000760820815153,0.7170751705577265,-0.07858221325279406,0.68867053266181,-0.07313199619053877
2,6.02,-0.8999856972693828,0.1115181246381551,0.8728756641849603,0.9780004779991336,0.20542849904778185,-0.03597236047691411,-0.3154015875457254,0.26277646048526054,-0.06293342198886517,0.7166180741332024,-0.07923735116857729,0.6897354383634597,-0.06659510050918788
3,6.029999999999999,-0.6608630425818127,0.13233200942033715,0.9031617302485941,0.979835359521258,0.19697608612767534,-0.033192646630679175,-0.30926439112178017,0.2739220618486008,-0.06565739813595915,0.7161684667724333,-0.07891940996811463,0.6907785303781339,-0.06075723560782327
4,6.039999999999999,-0.43587340641453515,0.1589469546080189,0.9189372559555089,0.9816400112206667,0.1881976900873769,-0.030695561355313223,-0.29723695189665683,0.28533334715712416,-0.0667476496952862,0.7157125610487128,-0.0776794941485285,0.6918216081516401,-0.05565555477897478
5,6.049999999999999,-0.23588789436451799,0.19116971181154002,0.919786362862896,0.9833835764123208,0.17924961944071124,-0.028347596621992658,-0.28672377188451936,0.2961193891379543,-0.07143349065659053,0.7152207835622512,-0.07564143367181139,0.6928945304746711,-0.05127084642642435
6,6.059999999999999,-0.05910447611334474,0.22553541342728314,0.901792460703915,0.985035303467924,0.17031140905681819,-0.026026305866036784,-0.27996913422528885,0.3015544143970656,-0.081180340129152,0.7146653353513008,-0.07295273132994859,0.6940188586361601,-0.04757716098472756
7,6.0699999999999985,0.09126512029121016,0.2590055802590697,0.8637261791049557,0.9865628953152628,0.1615976098901436,-0.023652186763182936,-0.27279399287391026,0.29824862942871605,-0.09480708420382111,0.7140293182498616,-0.06976677621613668,0.6952001376948772,-0.044567760195610186
8,6.079999999999998,0.21100167808027623,0.2911490981340762,0.8094159993054878,0.9879438496566687,0.1532984485717595,-0.02116667026919373,-0.2663615614806753,0.2901605567970158,-0.11277760501207845,0.713302639530141,-0.06624802062369294,0.6964367240272474,-0.042206670781579754
9,6.089999999999998,0.3017337779732646,0.31936160154773274,0.7433087762396918,0.9891672374730207,0.145562440764284,-0.018531153190812267,-0.259226868253736,0.2856242410031891,-0.13179314421453914,0.7124815159561473,-0.06255685093516489,0.6977228014477638,-0.04043194771620205
10,6.099999999999998,0.37345007665696806,0.3457232286582643,0.6695751398508576,0.9902292752234633,0.1385098781458701,-0.015722594612053095,-0.25070160727771257,0.2828108328642152,-0.14954924068365016,0.7115646331851326,-0.05881770117170001,0.6990530692524679,-0.03919839544713239
11,6.109999999999998,0.4378926888032405,0.36984982334374095,0.5930081233978216,0.9911355889346843,0.13220024902425026,-0.012722775606477072,-0.2385766811020397,0.2794806801413091,-0.16617514572894,0.7105495593938506,-0.05509806700565922,0.7004276394613177,-0.03847562301414145
12,6.119999999999997,0.5082460230343179,0.3848542042970197,0.515749420432615,0.9918962190110361,0.12665214022493296,-0.009577620969600464,-0.21674163389762877,0.2784197268067072,-0.180424592993007,0.7094536547115734,-0.051407957312648134,0.7018293953676883,-0.03826206379520005
13,6.129999999999997,0.5861165108213167,0.3892804190772562,0.44506141946028227,0.9925247264573701,0.12184426362911768,-0.006403479433381691,-0.1834780203864169,0.28305899042123106,-0.19124290797911778,0.7083171929333926,-0.047710687407488704,0.7032197425232187,-0.038574795595440664
14,6.139999999999997,0.6668949018088713,0.38335213844596383,0.382339310519015,0.9930391590189758,0.1177113261094211,-0.0033087529006159706,-0.1356553895099093,0.29320798821286814,-0.20127354766018282,0.7071781738086982,-0.04396642088218194,0.7045626728897427,-0.039403359618807005
15,6.149999999999997,0.7434515408502277,0.3671146778387388,0.32424483894868833,0.9934564028581272,0.11418950211282637,-0.0003890737301192441,-0.07404186280593611,0.30593079908575443,-0.20893844664495073,0.7060704071030913,-0.04015590218984155,0.7058249659564135,-0.040718790336708964
16,6.159999999999997,0.8096600742856737,0.3318793931287229,0.26466461982313033,0.9937863049493463,0.1112681097528757,0.0022149497376073345,-0.001797587691511504,0.320521334939644,-0.20935127840557116,0.7050430149147527,-0.036299816698227946,0.7069552897241219,-0.042491600707760785
17,6.169999999999996,0.8512645660874608,0.27683700931613386,0.19425107451483595,0.994031181837322,0.10900212550009758,0.004329391557602129,0.07788406482409846,0.33256472177335966,-0.20491876952209037,0.7041573326030004,-0.03248266516656012,0.707888317559663,-0.04467785073282201
18,6.179999999999996,0.8409622957617102,0.19887862843276663,0.09728976667714274,0.994178916996863,0.10758290408227404,0.005792877357079182,0.15857474535776678,0.33747088281594595,-0.19932969277938792,0.703472139472752,-0.028915672509843292,0.7085601437380193,-0.047207389008577814
19,6.189999999999996,0.7613656361386347,0.09883819125048023,-0.021810129108780482,0.9942092215284654,0.10726972341240446,0.006417178435467923,0.22935226781596493,0.3317225155585005,-0.188127803420007,0.703060375675059,-0.025917329335021867,0.7088971774313548,-0.049955308052682314
20,6.199999999999996,0.6029259309492302,0.0236568632525296,-0.13744046273855665,0.9941176688694293,0.1081211723979441,0.00625378125260964,0.2794271541861529,0.3106929581201382,-0.1711342616630712,0.7029194465500231,-0.023775556952971122,0.7089153561821947,-0.05268379303925365
21,6.2099999999999955,0.37458370100487604,-0.003953518771963027,-0.2504143187277489,0.9939040120309434,0.11008757283891289,0.0057841914751996185,0.29892514230327494,0.27402105299299206,-0.15145944253341,0.7029003214687409,-0.022732911479135653,0.7087843636079225,-0.055115347749691714
22,6.219999999999995,0.12062670637005028,-0.019269942159640084,-0.3508842018719985,0.9935669507340548,0.11310227430078139,0.00539701255323625,0.291601492478313,0.23096006487651707,-0.13046057121118323,0.7028836810758963,-0.022933850093770032,0.7086411878805131,-0.057054782383123476
23,6.229999999999995,-0.10725392102424597,-0.052598932817894545,-0.4359027064869051,0.9931140156498106,0.11702157190312915,0.00504688952828098,0.29219951046051124,0.198506012356112,-0.11293447233255521,0.7028937046568281,-0.024327342985819143,0.70847060682515,-0.05845165628246318
24,6.239999999999995,-0.2706569427478658,-0.09137836084400441,-0.5101742887260484,0.9925505714278017,0.12171966957519105,0.004546453408681707,0.3180619856105507,0.18680384985759393,-0.10141157296176798,0.7029904735352601,-0.026711039522080576,0.7082073817805316,-0.059420710300604564
25,6.249999999999995,-0.34436033128836346,-0.10028774427521525,-0.5684163020589331,0.9918800098373295,0.1270822070712825,0.003956222476475948,0.33958382502915146,0.19331388499769903,-0.09963678523760197,0.7031338661851778,-0.029759465890168743,0.7078769540475455,-0.060202794531191095
26,6.2599999999999945,-0.3363616186956805,-0.08172916381450025,-0.603661553748899,0.9911137284860732,0.13293715428743275,0.003469481685473745,0.3332838754551356,0.21146943412401328,-0.11052972486736073,0.7032333520910448,-0.03308688832341562,0.7075572023346413,-0.06105626682998451
27,6.269999999999994,-0.2787208469570903,-0.06628562282715213,-0.6115813019000778,0.990281814363433,0.13900611596987472,0.0031382049318989676,0.3181665004192139,0.23861136159530166,-0.13088735624575742,0.7032586845985437,-0.03636469002278707,0.7072794849215903,-0.062110321851642836
28,6.279999999999994,-0.19599241441439982,-0.0744038004960562,-0.6132586673476174,0.9894116055971514,0.14507753419072789,0.0027809251007994526,0.3225158214693577,0.2715172125852014,-0.14845141669570233,0.7032689208139439,-0.039392666059265447,0.7069912799924195,-0.06341693331965059
29,6.289999999999994,-0.10712129600681453,-0.10826572327618585,-0.6324339523497997,0.9884923930801685,0.15122160529028578,0.0021047094028632204,0.3467981233489643,0.29430511651262725,-0.1568159096839196,0.7033601542917713,-0.04215364915039075,0.7065930156380658,-0.06504694990223371
30,6.299999999999994,-0.013486386784063178,-0.16139069564916617,-0.6839485024167675,0.9874788319556934,0.15770939827810945,0.0008557795371543586,0.36882992784452084,0.295127058189115,-0.16309140796167715,0.7036096371686456,-0.04473276838987015,0.7059923563387819,-0.06711192262981155
31,6.309999999999993,0.08573346171317399,-0.19957402311717684,-0.7659001963602781,0.9863087238706785,0.16485784520613295,-0.0010225512924126334,0.35704182934056766,0.2848803516435767,-0.1698760114425427,0.7040201609597145,-0.04722457446300014,0.7051644393004791,-0.06974582348241552
32,6.319999999999993,0.1874318537209561,-0.19264280761934102,-0.8601501138419264,0.9849287680521869,0.17287340081291505,-0.003214229440019311,0.2903063949850623,0.27211468328591076,-0.17616331238428817,0.7044631427201644,-0.04968211886837039,0.7042179459143425,-0.0730428721802074
33,6.329999999999993,0.30964450958674783,-0.16230226138808618,-0.956218951523669,0.983306565918516,0.1818109248483985,-0.005400204612627528,0.1851163031183992,0.2539636928406249,-0.17943761057850574,0.7048090076097252,-0.052081787173868445,0.7032680004011509,-0.07706679492381287
34,6.339999999999993,0.4739126535963841,-0.1363906565142767,-1.0482138350106571,0.9814225984333669,0.19163527262855926,-0.007583674573536321,0.08923123203233851,0.22802182127015413,-0.17591283839091706,0.7050343509719686,-0.054299668482685685,0.7023236415788168,-0.08192186533365516
35,6.3499999999999925,0.7006917272447994,-0.11638563053380536,-1.1289273811062392,0.9792634007162393,0.20226636181946672,-0.009965423309311407,0.03256614016954531,0.20652030025323354,-0.16334200327863907,0.7051729496805866,-0.056126574487298284,0.7013318191093414,-0.08776990689211521
36,6.359999999999992,0.994275888303378,-0.09761653461757562,-1.1971819621484725,0.9768270292584152,0.213563881666158,-0.012779265610246563,0.01117649926710595,0.19969311621261643,-0.14437644887243875,0.7052567794792517,-0.05728224420467395,0.7002347407234424,-0.09480452630457248
37,6.369999999999992,1.3320231109732323,-0.0898755143756706,-1.2479512164833608,0.974123390411528,0.22534421900095375,-0.016247660131490958,0.00932253941051534,0.20153473912423267,-0.12337450582464086,0.7053092797886454,-0.05751609275575247,0.6989760858281258,-0.103163046756204
38,6.379999999999992,1.667216934488746,-0.11557892164954511,-1.278670098663341,0.97117530880881,0.23737419782966962,-0.020714868734168453,0.0256392760333339,0.20442306516772607,-0.09907110013254664,0.7054066404858628,-0.0566916603446459,0.6974434441202946,-0.11284185974660481
39,6.389999999999992,1.9456216904276273,-0.17403510759566793,-1.3067380548945868,0.9679919092629653,0.24948058039940604,-0.02652493848302544,0.06414822201973303,0.20399370272842404,-0.069452866174156,0.7056466303130994,-0.05488966011354447,0.6955014248034594,-0.12367157685077432
40,6.3999999999999915,2.1390399592858236,-0.24044122091931544,-1.3465253596248499,0.9645372301681324,0.2616762528930002,-0.033764518911211225,0.1162747811982085,0.20189292675621925,-0.032684878050564546,0.7060545688559325,-0.05240196543101346,0.6930860457747386,-0.13540524728873135
41,6.409999999999991,2.250605004805164,-0.3103500646556804,-1.4053118089074592,0.9607466582885038,0.27407189682246297,-0.04231010922522335,0.161145837852678,0.19556920825950816,0.009411538172542144,0.7065929311507054,-0.04958317607803683,0.6902044896226558,-0.14779750301343708
42,6.419999999999991,2.2716347606407985,-0.39726168871513895,-1.4814250691382558,0.9565298826902622,0.2868334813764053,-0.05203835275721813,0.1926952763387322,0.1773021794593086,0.046714051389891126,0.7072368250231748,-0.04681382618525997,0.6868658840600873,-0.160612916004399
43,6.429999999999991,2.1846787461345594,-0.501941713107449,-1.5755704753390551,0.9517805776648619,0.30013602143828955,-0.0628739635579886,0.22133773884603017,0.14357101663442753,0.07188753780839725,0.7080052433550006,-0.044518152044815594,0.683064148364336,-0.1735726607132448
44,6.439999999999991,1.995755858152181,-0.6141361304194914,-1.698351526717481,0.9463658184352823,0.31422332940388076,-0.0745955786233311,0.24531090281861934,0.09781472637711854,0.09334617728150017,0.708888864687419,-0.04316559951008564,0.6788478446467525,-0.18638174406913943
45,6.44999999999999,1.7456416463488234,-0.7276786626625829,-1.849235360836033,0.9401091270707842,0.3294409851807192,-0.08693924265750487,0.2517321785628215,0.0454833580894221,0.11941233820569723,0.7098515048612143,-0.04316770064315233,0.6742859922806764,-0.19886318059133076
46,6.45999999999999,1.4724073749835835,-0.8297568667754431,-2.0092827246464027,0.9328564460712676,0.3460146378643107,-0.09966496964941822,0.2338469082701376,-0.007269383663316125,0.14653472349406454,0.7108437699209531,-0.04473046487960494,0.6694472403294921,-0.2109553890979987
47,6.46999999999999,1.213210392174136,-0.9065858446824722,-2.17149565039691,0.924499734318007,0.3640208661777711,-0.11249383768774301,0.20201641206152113,-0.05520750574354098,0.16950187205604023,0.7117836444993506,-0.04787562625787076,0.6644180495218787,-0.22266935142000438
48,6.47999999999999,0.9861581422464494,-0.9551585925829196,-2.3212072401165487,0.9149826170810453,0.3833990180526086,-0.12515903673517872,0.16484284201605243,-0.09464444621420354,0.18986596483550527,0.7125748254747594,-0.05247593196277936,0.6592831705924813,-0.2340700743422681
49,6.4899999999999896,0.8006587692805772,-0.9826383303816308,-2.4416369221773775,0.9043228061267696,0.4039066832449003,-0.13748436918065252,0.12422432548574369,-0.12714017924745744,0.20743847743225702,0.7131480861229652,-0.05828177624873532,0.6540992937582908,-0.24522527897228108
50,6.499999999999989,0.6457258221860507,-0.9971332659118872,-2.539700444785032,0.8925664635980765,0.4252626815811333,-0.149368447549912,0.08306454613777398,-0.1579902336077471,0.2204535156767223,0.7134717713186215,-0.0650673398590364,0.6488947675831266,-0.2561580030228219
51,6.509999999999989,0.5185639518756322,-1.0058629926810594,-2.6046354233790807,0.8797788909652543,0.447179435292928,-0.1607772466032826,0.048946691285188214,-0.1888000831951094,0.2290043667681247,0.7135399347555792,-0.07261974404639937,0.6436755516495594,-0.2668807814232882
52,6.519999999999989,0.40121623382934934,-1.006477428325825,-2.6424022753028527,0.8660761207907349,0.46932964177965425,-0.17166748060854983,0.02546497404316602,-0.2154687072938369,0.23432291562609472,0.7133700675344523,-0.08075976285734977,0.6384535663857539,-0.27733445689937175
53,6.529999999999989,0.28295140784639133,-1.0004955176146453,-2.6664630309667245,0.8515427677331352,0.49153004886238616,-0.18193684623738138,0.009740138566788804,-0.2391504137353257,0.2360113902550805,0.7129603393852941,-0.0893993104588912,0.6332588729330052,-0.2874633769252547
54,6.5399999999999885,0.16499985067302975,-0.9867785068441622,-2.6627026501251496,0.8362824258211713,0.5136231206821702,-0.1914534995123789,-0.0014733037851088772,-0.2568905640595666,0.23920369428023835,0.7123026387113535,-0.09846344156333965,0.6281359024959309,-0.29720849106459923
55,6.549999999999988,0.028442153219228647,-0.9668505757134549,-2.6361509208025895,0.8204669991655913,0.535395462708826,-0.20005684652023897,-0.016015279435029298,-0.27416936922082685,0.24576755186409147,0.7114091074384592,-0.10788297802780497,0.6231440932145532,-0.30644572158259703
56,6.559999999999988,-0.10121844495384755,-0.9466963254194518,-2.5997856333236538,0.8042135921188932,0.5567516919531272,-0.20763314663493762,-0.02782483922663552,-0.2901064494482484,0.25202510485267904,0.710289601047037,-0.11762850453756883,0.6183220018959752,-0.31510459550539904
57,6.569999999999988,-0.21864869706034787,-0.9175113863941962,-2.552323973820693,0.7876295248595165,0.5776055218788139,-0.2141559947368474,-0.03537874922801886,-0.2977788437468769,0.2606235547653212,0.7089553421481126,-0.12762407012125754,0.6136849300693703,-0.32318382711769267
58,6.579999999999988,-0.32343352684901255,-0.8807971318138292,-2.481226876341942,0.770885954877698,0.5978170495097933,-0.2195699146985372,-0.043977244681491744,-0.3062976089260359,0.2671994004483669,0.7074103531385272,-0.13775192859839003,0.6092741877683602,-0.3306734909668183
59,6.589999999999987,-0.4172160008293704,-0.8424712289623261,-2.394038715464661,0.7541684159302026,0.6172349260133622,-0.2238814943534761,-0.05448143837603829,-0.31299575932203755,0.2688942523722996,0.7056867132250648,-0.1479019102045154,0.6051121309711315,-0.3375471053236564
60,6.599999999999987,-0.4945997191830487,-0.80213004416581,-2.300359452882022,0.7376075824855276,0.6357846340108402,-0.22714590960392314,-0.06157499570605185,-0.3191090277020854,0.26747741009952,0.7038140450730817,-0.15799104476967304,0.6012015969090009,-0.3438184413037615
61,6.609999999999987,-0.5566289375260217,-0.7619571910933389,-2.2010091446043174,0.721311401423792,0.6534194426709502,-0.22944719805871058,-0.06343584725112698,-0.32768438591918553,0.26600132084783035,0.7018208627286092,-0.16794285570023387,0.5975369955947564,-0.3495205952844001
62,6.619999999999987,-0.5869963017268104,-0.7220750288942679,-2.0918755959026467,0.7053997240270048,0.6700591552505953,-0.23094661895367952,-0.06255516718344294,-0.3361064295287828,0.26520616906554934,0.6997548111240441,-0.17765120582161067,0.5940937542250664,-0.35469853906972926
63,6.629999999999987,-0.5835481820817934,-0.6777549319025165,-1.971729647799063,0.69000784097286,0.6856025276199528,-0.2318501683689717,-0.05896237311552916,-0.3440465757776902,0.2634100264355064,0.6976650800928966,-0.18697328536672758,0.5908458087762961,-0.359421596598798
64,6.639999999999986,-0.5433071881837109,-0.6266236448609759,-1.8450957318337722,0.6752648139692078,0.699954709539084,-0.23239765113580352,-0.05822241225896864,-0.35080622780325665,0.26018643499026783,0.6955966067607177,-0.19574835886629363,0.587766250071591,-0.36378570411684674
65,6.649999999999986,-0.46998971433222136,-0.5723036615739627,-1.7091983407111146,0.6613013475156276,0.7130326222265156,-0.2328190017184504,-0.05973650932677033,-0.35428456280238646,0.2567308323879006,0.6935935217873663,-0.20382689821576602,0.5848360299613927,-0.36787754047322835
66,6.659999999999986,-0.3686006461725346,-0.515809085567943,-1.5674865068303785,0.648241170421251,0.7247589582978972,-0.2333639601051528,-0.05911567964883581,-0.3560025341586966,0.2535729198680957,0.6917137777511111,-0.21107733820192776,0.5820267010447004,-0.3717671369269723
67,6.669999999999986,-0.24383550136884743,-0.45811103653266205,-1.4152015734624128,0.6362043110935209,0.7350716788887264,-0.2342551253003094,-0.05388297560857012,-0.35629777785641703,0.2517861634270504,0.690011897457253,-0.21738634578971625,0.5793175377026907,-0.3755107329391475
68,6.6799999999999855,-0.10444929070397962,-0.39190148782786943,-1.254444210258319,0.6253290754183003,0.7439082435716519,-0.23565846180301267,-0.045925099567481774,-0.3565251113404087,0.25035876388841544,0.6885357962495596,-0.22265456594555447,0.5767070525176462,-0.3791372758182562
69,6.689999999999985,0.04323344807114011,-0.3215847576456998,-1.1085855624666494,0.6156402095042742,0.7513278611735845,-0.23763692199360642,-0.03569902028241195,-0.352122705336385,0.24760574746704786,0.6872760087329074,-0.2268520485124207,0.5742095832933587,-0.38271071293352804
70,6.699999999999985,0.20401079967617117,-0.2598749120496901,-0.9576187267413497,0.60713831958993,0.7573638137412947,-0.24034723618480272,-0.015327318725240503,-0.3257297884406986,0.24239962048637984,0.6862598444786934,-0.2299523631783713,0.5717923127921848,-0.3862881858877042
71,6.709999999999985,0.3450404610057624,-0.20216966195128605,-0.7783724926505572,0.599968945286094,0.7619468623579337,-0.24385070521700808,0.019378783984436983,-0.29139783714778256,0.24151371952235337,0.6855518461210022,-0.2319331619257026,0.5694563940119877,-0.3897973311903085
72,6.719999999999985,0.4439260409841562,-0.14072335841285766,-0.5816416212483937,0.5943417952432438,0.7650420130003195,-0.24791455806900364,0.06221075356869728,-0.28210934540557975,0.24011691755808962,0.6851713188772143,-0.23284845803276208,0.5672950482155993,-0.39305984821694967
73,6.729999999999984,0.5041492295651283,-0.07047179025156695,-0.37618006046461966,0.5904011661530043,0.766695148645237,-0.252191641041527,0.10051897629605573,-0.2898445905095162,0.24187301748880205,0.685081937195709,-0.2327882617423045,0.5654319497499762,-0.3959260023066615
74,6.739999999999984,0.5485445547245463,-0.0036232025943562732,-0.15560262608420233,0.5882637340305623,0.7669261133838885,-0.25645024119416127,0.13059603266619602,-0.29173872471291634,0.2450244328279697,0.6852697210449348,-0.23180936895991194,0.5639491128895361,-0.39828345439801865
75,6.749999999999984,0.5705086082848705,0.05980096953654835,0.07395302830890797,0.5880234096110158,0.7657197202814283,-0.2605722997443994,0.1633694039437234,-0.2811050970971785,0.24233436371589298,0.6857511105569946,-0.22994480593242259,0.562883749005843,-0.40003887176702563
76,6.759999999999984,0.5690356849732171,0.1144878307883294,0.31298294840792257,0.589732037304592,0.7630845603291906,-0.26440886763315063,0.20247995089615858,-0.2605231648179597,0.23766043417502408,0.686538832384289,-0.22726507570840287,0.5622672181414946,-0.4010842553264562
77,6.769999999999984,0.5281261129292445,0.18150988823432726,0.5591422923799991,0.593430560152094,0.759048072162863,-0.26772465963182396,0.23909528904531496,-0.2395423060548625,0.23125455341238657,0.6876168372187237,-0.22385706764551944,0.5621594497599328,-0.40130421065404676
78,6.779999999999983,0.4427991589812679,0.2580535505968642,0.7921229907559963,0.5991277481513724,0.753706638894851,-0.2701069600394814,0.26299058649873625,-0.2274741855155364,0.2218141432793053,0.6888978450007924,-0.21984244142810278,0.5626834472758702,-0.40059029634563975
79,6.789999999999983,0.3077027558892084,0.35462317739384697,1.0211397777436368,0.6067436886459475,0.7472257112784597,-0.27109857701420803,0.2681021369772936,-0.22824451809201546,0.21063813246104623,0.6902578921477271,-0.21538269494349974,0.5639654059825329,-0.3988631880647874
80,6.799999999999983,0.13860711486774746,0.4735486086599923,1.266763288548306,0.61635564041349,0.7396218772414924,-0.27024800944208216,0.2556419556947353,-0.23541190037577805,0.19450273517621913,0.6916020270972528,-0.2105545275828912,0.5661603495826917,-0.3959898110217598
81,6.809999999999983,-0.025772129117289263,0.5961801584269801,1.5130898040264318,0.6280172135748505,0.7308142896755292,-0.26732374496101563,0.24023255701995586,-0.23443574757882066,0.1748292267754586,0.6928797321912131,-0.2053612339914492,0.5693489571726524,-0.39188692969445027
82,6.8199999999999825,-0.1463588353091327,0.6914613208986143,1.743819434632557,0.6415435474027026,0.7207080090095387,-0.2625775148676549,0.2346315098695386,-0.21831614564770857,0.15631760318174862,0.6941174751218376,-0.19976667283069655,0.5734076499909952,-0.3866316728353867
83,6.829999999999982,-0.2115588491191524,0.7662623375989934,1.963284098488848,0.6566948871302829,0.709133927464899,-0.2565417542342099,0.24445041257271835,-0.18656381742830005,0.1317353924782478,0.695391698263766,-0.19365458470170896,0.5781152836748219,-0.3803867980641165
84,6.839999999999982,-0.2673878202781283,0.8274214157445194,2.1901063917788046,0.6732977272673406,0.6959234898103376,-0.24955932621491891,0.26628399338309766,-0.14683148921499356,0.09732552223352224,0.6967580055888275,-0.18695045318127182,0.5833168521449995,-0.3732277476675006
85,6.849999999999982,-0.3436075140127524,0.8794778488881314,2.435580317929999,0.6913016886007674,0.6808915815499971,-0.24164481916498784,0.29158984588689246,-0.10885645444276812,0.062070254366642895,0.6982424048050223,-0.17965829401415107,0.5889716603771922,-0.36505954626453546
86,6.859999999999982,-0.437574312354699,0.9116517423771883,2.6849030211156184,0.7106402928143036,0.6638604921260041,-0.2327387866935373,0.32042945267747475,-0.08289760423904895,0.031557868573406984,0.69985736554098,-0.17182357104558718,0.5950572425579892,-0.3557451462422099
87,6.8699999999999815,-0.5427933548511441,0.925614215826962,2.9174780795450976,0.7310777791477915,0.6447604110360701,-0.22289754491976826,0.3612721034751729,-0.0737348403262017,0.010787294433448788,0.7016043980835772,-0.1635397164333499,0.6014906519669401,-0.34522857335473744
88,6.879999999999981,-0.6421562354598946,0.9161903128122785,3.1178715538964266,0.7522418421393476,0.6236377901340566,-0.21230201889401978,0.4100251048932751,-0.06538785051015802,-0.0009757652929307202,0.7034664159867984,-0.15491354012317832,0.6081410932484697,-0.33356564982863185
89,6.889999999999981,-0.7298565797329702,0.8758190932172406,3.25324569643727,0.7736372258295103,0.6007030650859704,-0.20125058174917715,0.4612780360508907,-0.04982930890759848,-0.00853330532956094,0.705425470579736,-0.14610238456302296,0.6148286159136561,-0.3209022403854018
90,6.899999999999981,-0.810181954965058,0.8238493363965961,3.306193537061874,0.7946500622014565,0.576431230379983,-0.19005668573681267,0.49852542572799363,-0.03461157008608943,-0.008059334292770894,0.7074178580344288,-0.13732704670500287,0.6213690938370909,-0.3075149224294588
91,6.909999999999981,-0.9051546168371621,0.8133577470719094,3.2963080469184702,0.814799962941416,0.5514061966928664,-0.17866238108215912,0.49019318484379065,-0.026664530326852717,-0.007845957599673584,0.7092700520702543,-0.12881226876612567,0.6277451233244217,-0.2936734928512287
92,6.91999999999998,-1.0094526850388637,0.8444717212904365,3.2477272917426725,0.8338919364083063,0.5260389248371222,-0.16667869683099099,0.4267077543450908,-0.03218400798076113,-0.015326673355198543,0.7107567921294354,-0.12068137081468712,0.6341021554352617,-0.27953759709956216
93,6.92999999999998,-1.1033967302396153,0.8643885997118429,3.155017754074532,0.8517587368409337,0.5006763719553217,-0.1539955884243831,0.3299583095371374,-0.050921348423344226,-0.03454773761329372,0.7117727889404162,-0.11304744515963915,0.6404785595185025,-0.26524573054848183
94,6.93999999999998,-1.1542518160386541,0.8481702430862064,3.0288403132735677,0.8681839168145334,0.475668473981841,-0.14104392803914043,0.24779668816275252,-0.07057883940556772,-0.06243079303840081,0.712381422354595,-0.10598408810922601,0.6467126594749595,-0.25102648461281596
95,6.94999999999998,-1.1467174540577094,0.7922882123959452,2.87713589336859,0.8830236671094939,0.45131008569479636,-0.12845288122907939,0.20092576599049852,-0.07791133304533097,-0.09968683261527941,0.7127183820465223,-0.09947848134576308,0.6525878659229677,-0.23715160831718113
96,6.9599999999999795,-1.0561860215322356,0.701689660419023,2.698307707129258,0.8962281172118427,0.4278292390983438,-0.11689563902221398,0.18327949337628205,-0.06614943440555233,-0.13932205468133146,0.7129423941446746,-0.09341089255252223,0.6578914826844031,-0.22393316223007695
97,6.969999999999979,-0.8782882722368014,0.5792370209029999,2.5013883085351183,0.9078024989276781,0.4054375529982257,-0.10703675790364485,0.1881972573919187,-0.03557689537421499,-0.17203524451275337,0.7132166076538864,-0.08758757441606163,0.6624240462149825,-0.21172834843742336
98,6.979999999999979,-0.6523105433250027,0.44977350133677485,2.290872557031272,0.9178161356686236,0.384328456113498,-0.09929569303458229,0.20896445349359075,0.0007591295667552138,-0.18897105294163757,0.7136548942651232,-0.08182395084065662,0.6660730139029472,-0.20083827643377863
99,6.989999999999979,-0.43439829589540724,0.33094973600865873,2.0786981862146447,0.9263889589242545,0.3646829476388124,-0.0936738962358319,0.23189907527327114,0.031024813670117515,-0.18810506983851108,0.7142854837197524,-0.07606977078380993,0.6688597004553641,-0.19138218282642994
100,6.999999999999979,-0.2973539168654476,0.23621090214310334,1.8697607984475102,0.9336819065605437,0.34663668721276647,-0.08974675928029417,0.24396703999211578,0.0440213965960845,-0.16782832519214427,0.7150525103505536,-0.07047303868679314,0.6709379470461166,-0.18321772893299107
101,7.0099999999999785,-0.27313747672105215,0.1507665321473524,1.6637181688219913,0.9398407779004632,0.33032277993148396,-0.08698646366824815,0.24864238000812017,0.03869988918380949,-0.13190722975448502,0.7158942982027909,-0.06535610226157057,0.672483269131036,-0.1760255779309034
102,7.019999999999978,-0.3631640264034344,0.06611982531284746,1.4575402605610617,0.9449817508894359,0.3158747204667404,-0.0849644639550036,0.2448064964455474,0.018751402123520007,-0.0891886183525258,0.7167818513886764,-0.06112279145266075,0.673632680414359,-0.1694191665337851
103,7.029999999999978,-0.5457941935323407,-0.014475149494981434,1.2584811534680562,0.9492128101247616,0.30338072823521334,-0.0833425083153767,0.23249207040211387,-0.008690083567246796,-0.04942277298850942,0.71769657859386,-0.05813739798323024,0.6744987487311638,-0.16303333623170224
104,7.039999999999978,-0.7762132701561328,-0.0868733022708342,1.069218565925593,0.9526443822320539,0.29284870983600486,-0.08186770950002695,0.20300242890226344,-0.03158130575182955,-0.02070539552307836,0.7186121863540051,-0.05661481562652837,0.6751747074081809,-0.15661207203078092
105,7.049999999999978,-0.9954127910683753,-0.14459117738245003,0.8963847233028571,0.9553876645494109,0.28418922660977763,-0.08041766314311015,0.15191052143046282,-0.04677094180374149,-0.004966515972114316,0.719507743244384,-0.056573567739870156,0.6757148019823525,-0.15004794471245622
106,7.059999999999977,-1.18805064318157,-0.18109060364200055,0.7465641478748697,0.9575641035975637,0.2772016109253183,-0.07891595386074089,0.08661186666139188,-0.049930343062342376,-0.0026434435534772784,0.7203519259148907,-0.057854562368490445,0.6761616230930817,-0.1433462246106833
107,7.069999999999977,-1.3206573485306414,-0.2031766453038068,0.6195875150140389,0.9592868119808494,0.27164436958770355,-0.0773088500416551,0.013427784627106644,-0.034076317829060745,-0.010524251976507634,0.7211093475046952,-0.060214887605128053,0.676549473473545,-0.136576376954234
108,7.079999999999977,-1.3987823098737426,-0.2105255542780293,0.5157700806843567,0.9606523387108696,0.2672514894110715,-0.07564816089817374,-0.057359286019773206,-0.001174538730784355,-0.019546107167616993,0.7217740371683997,-0.06335192692268173,0.6768764679080999,-0.1298611642781464
109,7.089999999999977,-1.4470752477181363,-0.20947423823900638,0.43569986888907203,0.9617557193448234,0.2637518323360347,-0.07389291974023147,-0.11747324641711768,0.032123865847051604,-0.026723972909730533,0.7223229753518596,-0.06701352614602521,0.6771720165662893,-0.1232633873406116
110,7.0999999999999766,-1.484495740374386,-0.2006681904866282,0.3856251765417621,0.9626816495392476,0.26087659756752657,-0.07202069707332642,-0.16646120459232353,0.05581586680333313,-0.02850811478840652,0.7227575381315788,-0.07104353035761417,0.6774523287258093,-0.1167478114287699
111,7.109999999999976,-1.5105610651823314,-0.1901684348509173,0.3611402585921517,0.9635085154054909,0.2583597645083907,-0.07000644334063147,-0.2035521078468424,0.07206957312420831,-0.022172102895734732,0.7230789383199974,-0.07530282790655661,0.6777355540603759,-0.11026429159331112
112,7.119999999999976,-1.5336760167084966,-0.18452213752539154,0.3562275423176681,0.9643031160307124,0.25594707476868495,-0.06789667237041326,-0.22968851753340996,0.08117646611422087,-0.01093636251714264,0.7233160129039644,-0.0796903395112365,0.6780120922389161,-0.10373306724538828
113,7.129999999999976,-1.549132269460544,-0.17765248436963674,0.37157930814015566,0.9651110215373192,0.25346008130917136,-0.06571138430488625,-0.24879259690944402,0.08489807743701097,-0.0023503130366897148,0.7234801791773502,-0.08412320014874321,0.6782823736057048,-0.09711089066264503
114,7.139999999999976,-1.5360782797266703,-0.17836119418200097,0.39530538705629203,0.9659647130102664,0.2507495611297618,-0.06353129952056231,-0.265331263333806,0.09270426796317409,0.005297370775653534,0.7235952010737947,-0.08848570382550396,0.6785308705660579,-0.09041147245352302
115,7.1499999999999755,-1.5016512974367988,-0.17987652715289193,0.43587240628884,0.9668868962738235,0.24769134471108473,-0.06146553327256461,-0.27698667602209914,0.10744797473235562,0.009795106853714491,0.7236918919428497,-0.09265320874682258,0.6787357796892902,-0.08367513645243671
116,7.159999999999975,-1.458576667494378,-0.18544993264891346,0.48301448914589745,0.9679103283321129,0.24412983979742867,-0.059577359781252816,-0.28655669724817795,0.1307854060160863,0.008916168695976836,0.7237920041894609,-0.09652206118714814,0.6788921622948287,-0.07689443689602628
117,7.169999999999975,-1.4093371172756772,-0.18531492079381362,0.5303397144746305,0.969031894922717,0.24005095722262662,-0.05789793519539903,-0.2936510217236042,0.15671116576557337,0.004074929578182023,0.7239024607359326,-0.10005576845710189,0.6789990569818692,-0.07009562324252784
118,7.179999999999975,-1.3651125969524458,-0.18879933634617282,0.5750170093880209,0.9702434063044649,0.235469060024783,-0.05640390077473752,-0.2980226038843438,0.1763333623431895,0.00027789590820609297,0.7240142753900897,-0.10325994865345313,0.6790694668597234,-0.06328196162419117
119,7.189999999999975,-1.325951987192138,-0.19451515392504098,0.616521426135513,0.9715307370067248,0.2304097246931163,-0.05512596045086289,-0.29833289685329395,0.19232091331180273,-0.0027310849286472675,0.7241382024132427,-0.10615570286798622,0.6790934718423346,-0.05644799141287411
120,7.199999999999974,-1.2759075855613387,-0.19773973723320415,0.6559584998255336,0.9728853711875787,0.2248762215532706,-0.054076279831904404,-0.2933042899686004,0.20511522864213566,-0.003076272140236481,0.724277267655323,-0.10873670445121035,0.6790715562089463,-0.04960094084724399
121,7.209999999999974,-1.1952308564007492,-0.1877022069101303,0.6932815297705066,0.9742932197125489,0.2189074791019926,-0.05321610681567057,-0.2870550519622378,0.2178750465147367,-0.0005029487090223318,0.7244129517501611,-0.11095380672292995,0.6790295930349238,-0.04282193470089493
122,7.219999999999974,-1.073207231355739,-0.16587717700001633,0.730428987391524,0.975739284514334,0.21254657311702807,-0.05250007149471935,-0.28513427765492466,0.23304160874423954,0.0025322487107131133,0.724522540604787,-0.11267346830236076,0.6790100396220509,-0.036286376307025976
123,7.229999999999974,-0.9207688855242224,-0.13283024544197536,0.768508647542254,0.9772315257590624,0.20573579070491066,-0.051868822865867026,-0.283163523181416,0.2441371514346189,0.006785094388556885,0.724588020966049,-0.11375937085993842,0.6790613967136582,-0.030099220739646614
124,7.239999999999974,-0.7626366098331909,-0.10092700970994398,0.796496685619149,0.9787573906785841,0.19849295925621024,-0.05131533585773095,-0.2807147115358206,0.2536058620412503,0.006692009188254882,0.7246136497373162,-0.1141587031457639,0.6791981443705689,-0.024330952779863614
125,7.249999999999973,-0.603492946573899,-0.06654084742527523,0.8120961123109829,0.9802821289031284,0.19095314943911235,-0.050816509449308656,-0.275627782944862,0.26370715354853447,0.003911696558673818,0.7245996758723796,-0.11390340636858574,0.6794245780779499,-0.019048804496202238
126,7.259999999999973,-0.47543457622158286,-0.02968382291690408,0.8080478907124189,0.9817745182386075,0.18327469580678002,-0.0502728694757415,-0.2702726106505892,0.2687426817687943,-0.002246313405106351,0.7245221827737683,-0.1131025333293478,0.679758313294752,-0.014258138459230274
127,7.269999999999973,-0.38294697368725955,0.014991338318115832,0.796302733678669,0.983214548373601,0.17558660509739651,-0.04956112295184721,-0.26625411941059274,0.2708355436437448,-0.011515001357156048,0.7243493666259463,-0.11191770821263014,0.6802160092089318,-0.009887789424182574
128,7.279999999999973,-0.3187599530262606,0.0585633476018113,0.7716917222884534,0.9845811976684132,0.16803271779279888,-0.04860592432377419,-0.26303868829183574,0.2708648030161641,-0.022352078039274012,0.7240633600223471,-0.1105123095538917,0.6807965862242153,-0.0058732802882649465
129,7.2899999999999725,-0.2715524037400202,0.10305413806388639,0.7467976965079663,0.9858681954859958,0.16069433665213823,-0.04731489954626214,-0.2596359347045427,0.266202346703135,-0.03307884005690034,0.7236380592334272,-0.10899070573449107,0.6815155699642139,-0.00216784737166235
130,7.299999999999972,-0.22737720248255727,0.156177680493414,0.7173936557758993,0.9870781696242584,0.15359356660084492,-0.04564093533880276,-0.24989512175338796,0.2625382085361218,-0.04392342779657463,0.7230616768926512,-0.1073968245456128,0.682382092322245,0.0012568687690740553
131,7.309999999999972,-0.17942955665812113,0.20562379202105002,0.6986840094965155,0.988222024678578,0.14669234492357425,-0.043541806552803285,-0.23478014328223004,0.265684748226711,-0.05419309114867525,0.72232318795163,-0.10572102110673344,0.6834120189361426,0.00441678350102661
132,7.319999999999972,-0.12085982813513543,0.24649963354119805,0.6833473047876768,0.9893087213805505,0.13991947615965702,-0.041087084059285926,-0.21036056590771196,0.2777132858740563,-0.05906927403302125,0.7214496866355294,-0.10390695723771061,0.6845871547701887,0.007309241683447909
133,7.329999999999972,-0.05747619542525993,0.2785966649459415,0.672246249563966,0.9903380373804638,0.13325326252768951,-0.038360188163762264,-0.16762765271421382,0.29602851172070566,-0.0623956649409649,0.7204730162561784,-0.10191874256368258,0.6858805843854475,0.009918636038452493
134,7.339999999999971,0.011417901828163733,0.29066039444345815,0.6593188529983938,0.991308960603981,0.1266601961129795,-0.03550431231924102,-0.10667062511030803,0.319298860872541,-0.06538064953882435,0.7194454037774793,-0.09972562833263504,0.6872425065929618,0.01224748860198206
135,7.349999999999971,0.07102897791789864,0.28665751864088007,0.6349639929624398,0.9922077059441518,0.12022037590685705,-0.0326767169412406,-0.0312776952221374,0.34086469721508,-0.06670085318263591,0.7184246029882106,-0.09736126971451668,0.6886087204461153,0.014284632204686981
136,7.359999999999971,0.10881868147393056,0.27267180762837273,0.5898784648888442,0.9930151089252283,0.11409860481181193,-0.02999353418221641,0.04779602180699167,0.35817165478288304,-0.06608254938083641,0.7174534057229855,-0.09493591001026254,0.6899202240696501,0.016034888404514256
137,7.369999999999971,0.10775005807109692,0.24673043992423505,0.5285592636150567,0.9937123875045385,0.10851064585313906,-0.02753871432531163,0.11830585797848714,0.3703256734515663,-0.07014094062897994,0.7165623015185233,-0.09262992344070455,0.6911221913322703,0.017536415672309087
138,7.379999999999971,0.049217836139724434,0.199368939016427,0.41317605799919355,0.9942768348740795,0.10376227197327045,-0.025393642001750313,0.18387095207718904,0.37043508222948807,-0.07383856151757803,0.7157799188299925,-0.0907178720906097,0.6921510802644072,0.01885846111275162
139,7.38999999999997,-0.08355324424004343,0.14829019726282505,0.27341640271156675,0.9946677693244238,0.10037262317887204,-0.023669017919228513,0.23326953798778952,0.35207357783482707,-0.07058142012030871,0.7151450719992134,-0.08959907373976092,0.6929194546847993,0.020045632378041453
140,7.39999999999997,-0.27098115457723343,0.152954850233175,0.15624982687376976,0.9949134177847508,0.09828794627266717,-0.02204933972394966,0.2696467207279134,0.32584918858541234,-0.05958789433738692,0.7145404209150412,-0.08951295834043081,0.6935147682767684,0.021364496372360094
141,7.40999999999997,-0.43824988770515494,0.19723889080087983,0.03890055297438018,0.9950446766524071,0.09739870718782623,-0.019976198980533745,0.28112845475048337,0.3009210262467442,-0.04193352595777933,0.7137681237859008,-0.09046581096534125,0.6941381089740504,0.022865926161401384
142,7.41999999999997,-0.5532738978799348,0.2278545469196152,-0.06768920532323966,0.9950687883111398,0.0976524449122148,-0.01736394292426768,0.276472609004141,0.28229837156164017,-0.03191059783699445,0.7128001104764516,-0.09233042319681212,0.6948328931441219,0.024447102739723746
143,7.4299999999999695,-0.5757740207405266,0.25256498319554804,-0.15691616537174202,0.9949949017463894,0.0988754558073188,-0.014416393445891401,0.28954749430857696,0.27944488095398384,-0.025356615054785026,0.7117136582727764,-0.09479022966885872,0.6955616409638151,0.025914924114988972
144,7.439999999999969,-0.5106789599373337,0.29059706229132887,-0.2256277727787809,0.994834889826014,0.10088029408382687,-0.011181560263396347,0.3165591297491639,0.2985461961355738,-0.028433370953363686,0.7105357749684198,-0.09745603153522914,0.6963553733436733,0.02700556525743682
145,7.449999999999969,-0.3785965662226146,0.3199992128732446,-0.2805220433435294,0.9946014233979272,0.10347304518086686,-0.0076853730439656615,0.33940410950383054,0.32356924165386913,-0.049339039622037464,0.7092855506278666,-0.09997691963866895,0.6972526361583274,0.02750124895349151
146,7.459999999999969,-0.21517032278649684,0.3176171073139723,-0.33860058595129844,0.9942902355662488,0.10661471018485599,-0.004196729809724693,0.36215704122685294,0.3502120230891319,-0.07939744678939296,0.7080638794686578,-0.10217461658872044,0.698184376772835,0.027268678787030987
147,7.469999999999969,-0.05596985744907207,0.297602825476177,-0.4095483591370612,0.993891275476637,0.1103473619705719,-0.0010101943806327205,0.38742407998846495,0.37899784927211977,-0.1056953360176286,0.7069763296276684,-0.1040021918144168,0.6990551027695556,0.0262544481636479
148,7.4799999999999685,0.08134187491956436,0.2861948628614079,-0.5053413160762827,0.993375255969065,0.11488535723622091,0.001877524091173212,0.3878726791082108,0.39162122145513195,-0.12746973076656568,0.7060192803997262,-0.10559029177253311,0.6998493574545261,0.024442555065132376
149,7.489999999999968,0.1922327867187943,0.2840888008224321,-0.6217913698107743,0.9927017278608001,0.12049033850941775,0.004531605674922603,0.3431396213077611,0.37759966802213163,-0.14788146182870465,0.7051648699026777,-0.10710119426315291,0.7005675057398008,0.021809324526090607
150,7.499999999999968,0.2668593894076414,0.2923548180663502,-0.7422932519163049,0.9918389772931373,0.12727339658646275,0.007091741601314016,0.25951243067673924,0.344048134748202,-0.1669669405977956,0.7043525414985952,-0.10870586868954878,0.7012335951937348,0.01843989047838051
151,7.509999999999968,0.33917320285447206,0.3091442393373988,-0.8597960707183699,0.9907598539164435,0.13524762072894847,0.00968918382220304,0.16229043459154124,0.30640604549272016,-0.17657871431606406,0.7035240258518214,-0.11047799903558969,0.701882308641856,0.014390241223374156
152,7.519999999999968,0.4236941188683313,0.28827189736759967,-0.9665978521278343,0.9894461669314906,0.14435151012286673,0.012132565127003303,0.07967878586668295,0.2752620027087061,-0.17454016278774676,0.7027353888717341,-0.1123791889490649,0.7024505098746573,0.009676434630768633
153,7.529999999999967,0.5486741087921723,0.22589821433939045,-1.0462400140092316,0.9879040808039741,0.15439054438915004,0.013971385598309967,0.034553976920455726,0.25149217727110923,-0.16958616616907535,0.7021338470503127,-0.1142384469295678,0.7028049747433068,0.004290654254201019
154,7.539999999999967,0.7244058395514938,0.15225299935987158,-1.0993905870100524,0.9861580954814833,0.1650969722201444,0.014821113679019763,0.0344902082521579,0.2459258398162598,-0.1647327423200174,0.7018412085184393,-0.1157931613430882,0.7028529096468606,-0.0018213184956813746
155,7.549999999999967,0.94619774635354,0.08483514459936231,-1.1222021751518654,0.984241220615183,0.17618207920691895,0.01457286220238811,0.05636566030643319,0.25234521500025253,-0.15492390302327647,0.7018766961090339,-0.1167684128258573,0.7026033418755748,-0.008730776913370089
156,7.559999999999967,1.1767729558382476,0.0012791690926885896,-1.1200076368429221,0.9821913033662334,0.18738083760316562,0.013073280846407138,0.08130211815789215,0.26195894672273684,-0.14453209214289853,0.7022711533789653,-0.11697489598523295,0.7020352286393275,-0.016442144709719664
157,7.5699999999999665,1.3551191770306183,-0.0907857292816494,-1.094064392464667,0.9800562181908078,0.198413410167389,0.010161904822008655,0.11176452988917503,0.27420571338114885,-0.1350114431031502,0.7030613812841146,-0.11640177429141053,0.7010929865440139,-0.024776096759249185
158,7.579999999999966,1.4406331369436414,-0.16980271862036347,-1.0576274141880615,0.9778730544973896,0.20906759208670497,0.006001452416332846,0.13881495818812967,0.2725441841880532,-0.1143482178522836,0.7041821304342987,-0.11524942712993326,0.6997984186004415,-0.03340825581903089
159,7.589999999999966,1.42850736626141,-0.2302184996915558,-1.0310409200602586,0.9756448113591557,0.21930974560123376,0.0009525362369998914,0.14873443357752864,0.24669906279528142,-0.08929259443474781,0.705513134873587,-0.11386199153366675,0.6982199176824361,-0.04200109294142447
160,7.599999999999966,1.3509875664852236,-0.28417356217180095,-1.0192764974823543,0.9733422955032799,0.22926559057297496,-0.0046752251990092725,0.133304173767204,0.20934005768610228,-0.07343047829762236,0.706961381711654,-0.11257652697717163,0.6964109325179959,-0.05032664521741441
161,7.609999999999966,1.2344888991738834,-0.33858921515384116,-1.0260350515266041,0.9709233171336062,0.23910586795991318,-0.010739975037484212,0.10591658464505559,0.1730398422069376,-0.07014540670911718,0.7084949495451972,-0.11163757904221341,0.6943819680728728,-0.05826891878289028
162,7.6199999999999655,1.0867202378845109,-0.39011813528367867,-1.050891448986381,0.9683389107401813,0.24900739838608638,-0.017106961376505615,0.07870901650833455,0.13989915824668447,-0.07218470750511465,0.710083809155503,-0.11123207835751706,0.6921511064842163,-0.06576919183197211
163,7.629999999999965,0.9464944217183192,-0.43312256442831226,-1.0991280155036314,0.9655224093778986,0.2591940840500318,-0.023671726676882592,0.0521210188477145,0.11039553927353753,-0.07486175264497599,0.7117003657516392,-0.11147618356841418,0.6897363656873678,-0.07287126553278574
164,7.639999999999965,0.8221154089817835,-0.4647475638098579,-1.1626325697718514,0.9624107539387332,0.2698483584155318,-0.030339473719016175,0.018331969199360757,0.08168346238255378,-0.07367630766775309,0.7133108479543405,-0.11239129945826548,0.6871660863165412,-0.07968487056087921
165,7.649999999999965,0.7267751866380985,-0.496908939239427,-1.2498507485667263,0.9589242752024834,0.2811726641852755,-0.03708953579286312,-0.018103511374886513,0.05650017641516743,-0.06944529033625108,0.7148969114521518,-0.11396631656197562,0.6844452080926533,-0.08636872161212511
166,7.659999999999965,0.6726119860537492,-0.5206143489292356,-1.3505338256310238,0.9549818979242237,0.2933266419900607,-0.043977384221401634,-0.05256052426927434,0.03747403255199704,-0.06074976942301207,0.7164570048250142,-0.11613165185159513,0.6815588933063286,-0.0931138999260729
167,7.669999999999964,0.654752144511968,-0.5329442942311619,-1.459998413779847,0.9505152752570839,0.3063975382580839,-0.050995375973806156,-0.08137238189062959,0.02061079175774619,-0.04658138101889986,0.7179623387887758,-0.11878722478965169,0.6785197931748032,-0.10009567397222902
168,7.679999999999964,0.6671794169555071,-0.5370772347872302,-1.5721562542420195,0.9454673641885358,0.32041086445031836,-0.05814735274416579,-0.10940175302579697,0.003498971635450503,-0.02746358970411279,0.7193866689841241,-0.1218257653228838,0.6753380341246294,-0.10745562118148344
169,7.689999999999964,0.6999310641943468,-0.5289747859473524,-1.6818439531536797,0.9397983239861536,0.3353307127010295,-0.06541183211049809,-0.13253188176841513,-0.013520860355367738,-0.00700683582655779,0.7206967024295686,-0.1251461990361788,0.672033253721854,-0.11528693742801903
170,7.699999999999964,0.7437976174906852,-0.5183820789763789,-1.7870180861858351,0.9334749090670325,0.3510891695961598,-0.07280310237751941,-0.14817938929350036,-0.03321888420507462,0.01814036189156592,0.7218758066113052,-0.12867789029182516,0.6686076509349608,-0.12362923368422649
171,7.7099999999999635,0.8017762071567158,-0.501845855950854,-1.879890687950987,0.9264868235582538,0.36756286562989826,-0.0803261577658982,-0.15542400552625285,-0.05662284600215893,0.04275618770599682,0.7229058195391512,-0.13233464848489931,0.665071332239567,-0.13249841436305057
172,7.719999999999963,0.863825522001477,-0.4813292242583763,-1.9609601807463934,0.9188419329378572,0.38459516700946766,-0.0879912683170408,-0.15399577706604325,-0.0789205809066426,0.0675464130281548,0.7237738419269761,-0.1360326673036543,0.6614338001084717,-0.1418831588712828
173,7.729999999999963,0.9185796195773003,-0.4572388572933684,-2.0267158464839046,0.9105581524943467,0.40203156032957377,-0.09578739880339215,-0.1468826720109046,-0.10006556338818136,0.092453696015578,0.7244681741700261,-0.1397291364907576,0.6577059295161845,-0.15172849772489536
174,7.739999999999963,0.9672930980283294,-0.43828865362497865,-2.0760675663556936,0.9016694574056215,0.4197024384559025,-0.1037221633614728,-0.13256679963567325,-0.12134802405781106,0.1147685145823542,0.7249926862269186,-0.1433972599677791,0.6538891524520543,-0.1619481277441142
175,7.749999999999963,1.0035990612955947,-0.41849023533732754,-2.1097266540574915,0.8922236081722013,0.43743823577919966,-0.1117928145292758,-0.1130378966055227,-0.14002247392747968,0.1370312486275902,0.7253534675937361,-0.14701484154567387,0.6499884609060173,-0.17244739372959852
176,7.7599999999999625,1.03100392373996,-0.40402289637461786,-2.127776332526734,0.8822852574442233,0.455066923837084,-0.11998881721427604,-0.09147958049285126,-0.15794961464718524,0.15821917821626327,0.7255593585720455,-0.15055581591624304,0.6460133487003237,-0.18312959259541575
177,7.769999999999962,1.044074941863665,-0.3933557360133239,-2.1308427396884655,0.8719082628400264,0.4724635073468057,-0.1283100137409773,-0.07072620303185242,-0.17445122254775497,0.17403897337671762,0.7256278202372521,-0.15402295308014397,0.6419630426282419,-0.1939000682000624
178,7.779999999999962,1.0488766205641322,-0.3873235310608383,-2.1236049446060514,0.8611476751783588,0.4895249183458555,-0.13674361065119964,-0.04760132293728396,-0.18894251821151056,0.1884354260067717,0.725575107255048,-0.15742454879868384,0.637840292912036,-0.20467144502307516
179,7.789999999999962,1.0382421292306887,-0.38291847566920706,-2.107638248905747,0.8500600751463213,0.5061727934657342,-0.1452443386982594,-0.02503710801652905,-0.20595859497646782,0.20304955334712899,0.7254083966346774,-0.160773028870041,0.633659457079763,-0.2153665669704378
180,7.799999999999962,1.0114743793394392,-0.3815537427357824,-2.0781717577721364,0.838709204034416,0.5223370618838694,-0.15375603094773385,-0.008193144521031826,-0.22316957410956273,0.21684767176755482,0.7251387947357096,-0.16409065253597793,0.6294367311374377,-0.22589862829849738
181,7.809999999999961,0.9730137578728687,-0.3801994419331501,-2.039889658662042,0.8271751482981535,0.5379429213332474,-0.16220654541778531,0.00630401703153956,-0.23946645229109104,0.22788824916013803,0.7247786547175414,-0.16739558320885642,0.6251957574201517,-0.2361748755123096
182,7.819999999999961,0.9191276342043366,-0.3798122348300573,-1.995224778379594,0.8155257730487826,0.5529563304664055,-0.17050530663375957,0.020632233312432642,-0.25584730575985826,0.23971919270331546,0.7243321965718083,-0.17071380621439466,0.6209656795107877,-0.2461219356724318
183,7.829999999999961,0.8518477499579052,-0.3766156750762153,-1.9372589989424436,0.8038389072453209,0.5673474294958353,-0.17854599587012943,0.03234860664152621,-0.2717686848033537,0.2517429188924578,0.7238027637081129,-0.1740700532329392,0.6167826428617531,-0.2556648313047874
184,7.839999999999961,0.7777946506210036,-0.36574775072688814,-1.86877706020014,0.7922221069664616,0.5810641461832351,-0.18620492660861307,0.0416140896523296,-0.287479118751658,0.2617030863707298,0.7231877954697278,-0.17745875902591485,0.612699139525195,-0.26473658222093366
185,7.849999999999961,0.7065846664594604,-0.3470885833250632,-1.7876526914365194,0.7807831611330895,0.5940620948313895,-0.19338347702206596,0.050417532720232,-0.3048905500396345,0.27068793469764035,0.7224828179459628,-0.18084794094646267,0.6087666417599011,-0.27330463424511947
186,7.85999999999996,0.6408884592235683,-0.32109770783530683,-1.6901901048248151,0.769673168685332,0.606241559522117,-0.20002642011959199,0.0623738386437452,-0.3177697657176528,0.27815407419891025,0.7217013167204409,-0.18416595170726688,0.6050327654254645,-0.28133107357002635
187,7.86999999999996,0.5841329206867455,-0.28487750376706034,-1.5720182668257048,0.7590533238454062,0.617495801176535,-0.20610965200001055,0.07620942438181794,-0.3239297151298818,0.2825676009949417,0.7208632222104974,-0.18732407301653362,0.6015400233971147,-0.2887898424225096
188,7.87999999999996,0.5379431252349027,-0.24278675114617784,-1.4379916772969386,0.7490898640898948,0.6277176343076759,-0.21163138953882932,0.08913973466914044,-0.3273191143636934,0.28701330187316376,0.7199908994574049,-0.19022173006829776,0.5983278908752733,-0.2956670748115419
189,7.88999999999996,0.5037126867116531,-0.19375505733667406,-1.284922384934754,0.7399698442694652,0.6367860967449457,-0.21658752091032,0.10525868517113192,-0.3256214442660893,0.28755033755812354,0.7191112823551413,-0.19275636398983323,0.5954396095562539,-0.30193462395664344
190,7.8999999999999595,0.48177619323239906,-0.149665770283815,-1.1164980347844997,0.7318703636628423,0.6445794215327899,-0.2210302152134381,0.13109244258768085,-0.3202481707465699,0.2869224634871841,0.7182718707714256,-0.19483070279226444,0.5928944395415221,-0.3075614694282499
191,7.909999999999959,0.4663505867058619,-0.10716424680051662,-0.944660786822071,0.7248895665920407,0.6510508841323589,-0.22504876123140752,0.16591073372941192,-0.3149107362476598,0.2859130392754758,0.7175195764378465,-0.19638841640599622,0.5906825067633762,-0.3125457623143969
192,7.919999999999959,0.44167242154558006,-0.05973764138671906,-0.7626128673503119,0.7191207465388055,0.6561892249427842,-0.2286203821148705,0.2042825323520603,-0.30824909341165924,0.27868948142722916,0.7168704793128884,-0.19741036355058372,0.588827768811069,-0.3168644998761497
193,7.929999999999959,0.40778050175241026,-0.003938528863347231,-0.576194862025087,0.7146366206124485,0.6600170017934561,-0.23165500935567415,0.24363883541870332,-0.30076828384252996,0.2732085459822983,0.7163218492574672,-0.19791238907089462,0.5873693650691301,-0.3204807025497263
194,7.939999999999959,0.3746715087387597,0.050265822827675735,-0.38084609826940197,0.7115328509477199,0.6625157498481083,-0.2340729409609877,0.28088601835806526,-0.2942195759094872,0.27112469649455145,0.7158710616190057,-0.1978766682208289,0.5863515821850552,-0.3233625991793417
195,7.949999999999958,0.3385472342904113,0.09812769278301528,-0.19474901853147802,0.7098052831448878,0.6637175414813967,-0.2359114193491797,0.31542313526534355,-0.28733562044770683,0.26355925720338397,0.7155410689352383,-0.19732027691549028,0.5857549260844821,-0.32550841898720007
196,7.959999999999958,0.29569581542509527,0.14406684222038935,-0.01581771510525709,0.7093903597406896,0.6637140785793855,-0.2371673912763226,0.34539900686892533,-0.2809281242894023,0.25360781280938033,0.7153312653804685,-0.19629804502277903,0.585562184392359,-0.32693176990647993
197,7.969999999999958,0.24640132201031967,0.2063889293894153,0.1648446096668395,0.7102977143408697,0.6625405490646216,-0.23773068919339835,0.35966986688546043,-0.27918520733152163,0.24452667113213702,0.7152092344286287,-0.19482508568661994,0.5858132864905851,-0.32762911323375865
198,7.979999999999958,0.181547066273022,0.2872490974562089,0.35876866168134103,0.7126082271659715,0.660173740451005,-0.23739505330917382,0.35051412124776854,-0.2811863429419624,0.23209135543974407,0.7151247706176537,-0.19289419102009703,0.5865944907854937,-0.3275576128702377
199,7.989999999999958,0.11928712369809247,0.3755428899272167,0.5724649406296756,0.7164557742957572,0.6564958052910769,-0.23599872489553675,0.3249571215818198,-0.2838815031701424,0.21634519164090943,0.7150498846740432,-0.19044874217639482,0.5879861712881401,-0.3266538410720734
200,7.999999999999957,0.06879840512525767,0.4496319665036923,0.7942697263592347,0.7219024421824182,0.6513564143918584,-0.23361115251233402,0.30867045034092055,-0.2789138915855535,0.2000485564906033,0.7150261778547419,-0.18742667552477935,0.5899679435088359,-0.32487234210792804
201,8.009999999999957,0.04374044051157132,0.4933050147511366,1.0156390297850963,0.7288634435390521,0.6446616846238581,-0.23052431751985195,0.3187874164060634,-0.2614186528257587,0.18911194578278387,0.7151402847232066,-0.18379266573869582,0.5924129573412377,-0.3222333461819014
202,8.019999999999957,0.04305390255350058,0.5265135272705657,1.2410500131381887,0.7372504839284789,0.6362910920170405,-0.2270571253465902,0.3477120943883991,-0.23449958040707297,0.18051769215043323,0.7154701310566631,-0.17947140292712976,0.5951929433731692,-0.3187908409236342
203,8.029999999999957,0.034455481413321984,0.5707744057323405,1.4784493801933516,0.747064496496774,0.6260995818105123,-0.22324301031820595,0.3699557750477728,-0.208072923829452,0.16987386749181935,0.7160216662291975,-0.1743978486867807,0.5982932072795999,-0.3145303509067015
204,8.039999999999957,-0.009795828038438061,0.6225438454749731,1.7202128695734462,0.7583076464906511,0.6140089628980445,-0.21882907247457595,0.37525701363026015,-0.1892201197095605,0.1562515904578895,0.7167353575883678,-0.16860920269674073,0.6017846010139843,-0.3093501137424285
205,8.049999999999956,-0.0825558525292387,0.6617294230336659,1.9478388980795442,0.7708496304723707,0.6000457062041857,-0.21363058788874315,0.37868144061781356,-0.17512915815631674,0.14714357267830766,0.7175657315695076,-0.16223428292401298,0.6056820058188283,-0.3031569646528392
206,8.059999999999956,-0.163711614181365,0.6813291026365337,2.1404129669812963,0.7844036325098981,0.5843561496524751,-0.20765468077716923,0.394584905317683,-0.1591279252222817,0.14642083910337234,0.718486954789645,-0.15543717660362052,0.6099148058223854,-0.29595585887905784
207,8.069999999999956,-0.23346766746809494,0.6829258544175039,2.275346037010525,0.79856340049813,0.5672133020335395,-0.20107553708992695,0.4182899714439462,-0.14001654609092293,0.14559985029487396,0.7194708867901247,-0.1483715396477976,0.6143542421479191,-0.2878930382352869
208,8.079999999999956,-0.2946318685860866,0.6844135518205916,2.349146171165313,0.8128661587507733,0.549034553183906,-0.1940785365004736,0.4317753209786968,-0.12248809434984145,0.1395826989664764,0.7204566586629657,-0.14119936909620803,0.6188749397173939,-0.2792172233953738
209,8.089999999999955,-0.36159626026077957,0.7179356851326048,2.3760198044354555,0.826979237094809,0.5302376569233835,-0.1865609793879054,0.4067560522423428,-0.11429855485337564,0.12866631515029964,0.7213069036806944,-0.13406586315894356,0.6234809937569882,-0.2701410290173858
210,8.099999999999955,-0.4297625617805266,0.7826265163538858,2.3630150625297865,0.8407095538392797,0.5111651414740874,-0.17823214379981225,0.3342141254240898,-0.11888066776523486,0.11027684753601322,0.7218494469763663,-0.12707446737849784,0.6282664457948178,-0.26082187337809554
211,8.109999999999955,-0.46780166785609956,0.8425583259695629,2.318515038021713,0.8538853143692389,0.4920879536324842,-0.16905379060794362,0.24506210335672063,-0.1278073718842358,0.08207519041648942,0.7220006988420192,-0.12027117012809352,0.6332383879236807,-0.25143694796665245
212,8.119999999999955,-0.45265004355292804,0.8696987592559824,2.2439278027279537,0.8663234332412515,0.4732069381780277,-0.159419084060564,0.17632053143201373,-0.12673941268671338,0.0444566534677137,0.7218177645225539,-0.11363008488433865,0.6382492217133894,-0.24221546429220883
213,8.129999999999955,-0.37444589820547003,0.8595891393877952,2.143770138100529,0.8778583335438421,0.45470512446185446,-0.1499144401678787,0.13992492073109594,-0.11206502293688572,0.003198482926918645,0.721422472505421,-0.10707587273614169,0.6430876096001639,-0.23342816851184786
214,8.139999999999954,-0.23787107095362542,0.8196412460470917,2.025696444336965,0.8883888920311952,0.4367375280959247,-0.14108859372542384,0.1281662351008948,-0.08825575777535108,-0.036181141536871776,0.7209377110649272,-0.10049924662244906,0.6475649847980918,-0.22534017665994444
215,8.149999999999954,-0.06117131071889434,0.766956984095963,1.8942997145121274,0.8978831380773329,0.419433543015724,-0.13333118592064314,0.13038859271696562,-0.05703644456523169,-0.06612563480912734,0.7204562212016896,-0.09379379081814809,0.6515538211848536,-0.2181675842456925
216,8.159999999999954,0.116477318630243,0.7065327066093823,1.7561614129832563,0.9063569250024489,0.40292963993096415,-0.12679019697889338,0.13906639759605133,-0.02805220002187997,-0.08055346207244482,0.7200235744831457,-0.08693231295875553,0.6550063523508209,-0.2120213582069229
217,8.169999999999954,0.25227681669526747,0.6363965758783615,1.6146886985325148,0.9138599452292375,0.3873565851273793,-0.12140709049526663,0.15381243252806642,-0.011478546202078737,-0.0770280144617602,0.7196596276553499,-0.08001747283657497,0.6579362161453062,-0.20685223190206392
218,8.179999999999954,0.32131415719695117,0.5637735086187287,1.4726726512342925,0.9204536559863121,0.37284502327796404,-0.11700132904004759,0.1710158859401909,-0.010632678788120771,-0.056720153191403284,0.7193708445455648,-0.07326028050751239,0.6603938813234185,-0.20248983617452976
219,8.189999999999953,0.32047523027739,0.5012575599847896,1.3286836619284248,0.9262046564621876,0.3595309061119741,-0.11327748709605741,0.18416312774461827,-0.022496326143769653,-0.024319426980679123,0.7191298181106413,-0.06691796044661144,0.6624749405816158,-0.19871562035830526
220,8.199999999999953,0.25503942776297545,0.4532163678283484,1.1808892825963826,0.9311798471221583,0.34754625784847687,-0.10988802447987255,0.18375017718308778,-0.03877016070510335,0.013883497595224198,0.7188816949695849,-0.06123637034172199,0.6643028181580978,-0.1953213006957362
221,8.209999999999953,0.13297723904828435,0.4148342714657071,1.036748032910739,0.9354509589549618,0.33697691483950337,-0.10652030804601356,0.1630324441091655,-0.05132232989620533,0.04966619541806666,0.7185742653645805,-0.056418306265452196,0.665996484755472,-0.19211609725126133
222,8.219999999999953,-0.038051098720399676,0.37973141035079033,0.9066970645126735,0.939099684960338,0.3278207488311342,-0.10296009130466188,0.12605927200753836,-0.05927843269089713,0.07558766599258536,0.7181873352842064,-0.052621067284172984,0.6676432962368298,-0.18890262816857822
223,8.229999999999952,-0.24948419445680403,0.34724434616079275,0.7975047808735992,0.9422242951836276,0.3199640266986037,-0.09907869571238515,0.07920298741524885,-0.06639258931073325,0.08904586293624374,0.7177298929372739,-0.04994463754493952,0.6693013694164506,-0.18547173594801908
224,8.239999999999952,-0.4845165268039851,0.3221026706185412,0.7127817196415562,0.9449378088200191,0.31320174679104096,-0.09476425860869173,0.027569540525267333,-0.07243292787076715,0.09001637038718366,0.7172104970715153,-0.04842278820192532,0.6710231577190463,-0.18162294991372102
225,8.249999999999952,-0.7120561353420825,0.30683608200437024,0.6525985470244136,0.94734722858617,0.30729494067758306,-0.08993032594975847,-0.02573822103722589,-0.07563817700570387,0.08453554614827145,0.7166223711076136,-0.047999060770102735,0.672852163296271,-0.1772342966703663
226,8.259999999999952,-0.8995875722952267,0.30035281073774667,0.6157824586542607,0.9495435113590375,0.3019878721632908,-0.08458652310605708,-0.07678781254819497,-0.07203589376785476,0.07418029187454224,0.7159566484275,-0.04849267636772034,0.6747992325444211,-0.17231498923183086
227,8.269999999999952,-1.0450076992058137,0.2986987140755921,0.6015208368604092,0.9516095852701094,0.29700395992271655,-0.07881305555285681,-0.12135340378110673,-0.056023871361246425,0.05706162636092215,0.7152168201116208,-0.049668522885091104,0.6768492316646311,-0.16692261442997613
228,8.279999999999951,-1.1679260363351598,0.29058298835983115,0.6072031378617864,0.9536138338504122,0.2920824079856951,-0.07274310207227355,-0.1582205533811682,-0.026365692457079048,0.03639291428313625,0.7144326984854192,-0.05133426225304438,0.6789633470700288,-0.16108372532414125
229,8.289999999999951,-1.2947141794822659,0.26515892843905253,0.6276396536425956,0.9555956913101156,0.28704145363831934,-0.06653175749644698,-0.18671029882333579,0.008234450287545988,0.017201853946013652,0.7136540181783707,-0.05340837442784318,0.681086812665883,-0.1547667041288407
230,8.299999999999951,-1.4427784469262528,0.22613366594758827,0.6562306164882354,0.9575787156631854,0.2817625950625555,-0.060286221582622916,-0.2072472173319533,0.03210618227176987,-0.0020866903119070024,0.7129250130364987,-0.05590946495342689,0.6831750055511054,-0.14787756821970963
231,8.30999999999995,-1.6027656174592977,0.1848371419322358,0.6931035833819821,0.9595807678656978,0.2761562775988097,-0.054067136380498655,-0.2231612090739927,0.043465561764907935,-0.019588410056047265,0.712268749598754,-0.05887165071746012,0.6851985078966929,-0.14032451765120116
232,8.31999999999995,-1.7497472765981505,0.1469262516897153,0.740276194707141,0.9616238956495821,0.27011951508755994,-0.04789938200200718,-0.23929677583497383,0.05413618018089766,-0.02987193952743536,0.7116798880684606,-0.062264713767756254,0.6871457287157758,-0.13207076140868204
233,8.32999999999995,-1.866139459647162,0.11599097707053271,0.79475895885855,0.9637324580128479,0.26353286380294866,-0.04180569289029685,-0.2561346883441506,0.07247849360248908,-0.03855370253710446,0.7111362559805363,-0.06597562500858818,0.6890136588745265,-0.1231521905879275
234,8.33999999999995,-1.9427274206098966,0.09709847103752259,0.8534192591467996,0.96591957197557,0.25630480079728357,-0.03581248517776801,-0.272891015395213,0.09856317875356088,-0.04757498663547785,0.7106060872312828,-0.06984518375198275,0.6908044467185754,-0.11367156435521723
235,8.34999999999995,-1.9701098983658274,0.08638670811395682,0.9138612541446733,0.9681858599543678,0.24837714517015833,-0.029964092010294218,-0.2905659862998141,0.1296737583512293,-0.05290652849375285,0.7100607511587942,-0.07368966469958138,0.6925196538160466,-0.10377931231753268
236,8.35999999999995,-1.9396480593455023,0.08094673359936488,0.9736717113833566,0.9705253421303939,0.23970417885542708,-0.024343367333347674,-0.30604392621599913,0.1633995196556202,-0.055413470803725585,0.7094886740293255,-0.07730391105349803,0.694153297213437,-0.09365429169446335
237,8.36999999999995,-1.844924631238573,0.08250291851744794,1.032377056288971,0.9729202331248101,0.23028384433601048,-0.019057108054947525,-0.31590436290328244,0.1951571369541082,-0.059254051923675076,0.7088926378649969,-0.08047582980399069,0.6956956385097023,-0.08350984108503669
238,8.37999999999995,-1.6914954809082932,0.08934148470341685,1.0881651950150455,0.9753368504573298,0.2201861541902862,-0.01419819135694142,-0.3217639378538983,0.22359583076642572,-0.06471413289625076,0.7082789081064641,-0.08300636657451663,0.6971435957546747,-0.07359343134075338
239,8.389999999999949,-1.4972896155211626,0.09739891545752868,1.1356489824720442,0.9777420069134906,0.209493764872687,-0.009832558282538985,-0.32645489261545824,0.24883721999402492,-0.07057013061751019,0.7076607898920347,-0.08473629851613915,0.6985002789300966,-0.06411673183455441
240,8.399999999999949,-1.2786569841706663,0.10496691307867992,1.170734896416887,0.9801043667938618,0.19829742316276527,-0.006001722984718476,-0.32979778439080765,0.2720275828341072,-0.08024831504622851,0.7070593766552015,-0.08557965642868677,0.6997677130707733,-0.055220465731631335
241,8.409999999999949,-1.0556018146728545,0.11506420251412602,1.1911787487576715,0.9823861463155573,0.18674080266279547,-0.0026685850378398556,-0.32932238214273807,0.29410964600662654,-0.0924284161455024,0.7064769710302378,-0.08553401644020256,0.7009630761269061,-0.046999351534883035
242,8.419999999999948,-0.8518280736212028,0.12565630428896002,1.1974843418942407,0.9845507912933082,0.17498968581430782,0.0002535985231062296,-0.32530492111599674,0.3107547997846793,-0.1038330480551385,0.705904437854154,-0.08467666304513746,0.7021082164390172,-0.03948542139752133
243,8.429999999999948,-0.6850942210710385,0.136815398857908,1.1904102220806094,0.9865705356863805,0.1631960034157324,0.002855853133286437,-0.31791405533932465,0.3217765773152088,-0.11633833916248564,0.7053342687478168,-0.08315636473861823,0.7032153399520109,-0.03263080991536011
244,8.439999999999948,-0.5524505497593215,0.14756786853439657,1.168783552868572,0.9884237402399422,0.15151001467808067,0.00523251505459549,-0.3033799224091971,0.330774607395909,-0.12859703245266776,0.7047552378796677,-0.08115355946971878,0.7042931541766353,-0.026356749067673903
245,8.449999999999948,-0.43578218975587996,0.15872820846376462,1.133623213491699,0.9900947721950568,0.14008330166615215,0.007462003337147795,-0.282774089709483,0.3368218809339983,-0.13927215875498913,0.7041563834377913,-0.07881244284597122,0.7053493980959384,-0.02062297868040508
246,8.459999999999948,-0.33038215787647673,0.17514105903887117,1.090975529283125,0.9915787540104459,0.12902691450390424,0.00962945238509828,-0.2592992621803546,0.3389225286335133,-0.15169328494034404,0.7035206653868153,-0.07621733880767545,0.7064018121725458,-0.01542157880227934
247,8.469999999999947,-0.23226347749480655,0.19328794626434237,1.0459822365107787,0.9928828141088336,0.11838696267156089,0.011814469770623854,-0.23046238702723257,0.3430722839462534,-0.16450618376268927,0.7028317475569196,-0.07341675395337129,0.7074707271777807,-0.010734746914388745
248,8.479999999999947,-0.13409734281163618,0.2071314698873205,0.9971093442478487,0.9940168681950475,0.108201933823196,0.014023842656843326,-0.1913945818912352,0.35605312474880507,-0.17324729451818677,0.7020975913780412,-0.07043455829519638,0.7085536252693806,-0.006561960058678012
249,8.489999999999947,-0.031010089099188703,0.20898652712489502,0.9399866419640888,0.9949890056939666,0.09854761404425194,0.01619637848721811,-0.13730266434214378,0.3754492813604292,-0.17948896141511678,0.7013488931805651,-0.06728141150957626,0.7096256213533496,-0.002940035315555
250,8.499999999999947,0.07367339998503664,0.19667168994230044,0.8730620874315612,0.9958075287855215,0.08953327872769087,0.0182130828875627,-0.0646135718150597,0.3965400562207768,-0.1871546132541378,0.700636506371665,-0.06398353419957892,0.7106402831526466,8.792377621660483e-05
251,8.509999999999946,0.17124231107047086,0.17763384948767771,0.7912855849551682,0.9964863924419147,0.0812426333042171,0.019959983295369087,0.022507808488470397,0.41794540356176507,-0.19467372333298877,0.7000088817813351,-0.06058301629638119,0.7115522469430492,0.00251194820463944
252,8.519999999999946,0.2389615536322949,0.13846334734220206,0.6665163810650678,0.9970248889608394,0.07398487944957595,0.021373508341778032,0.10985567328696805,0.4352757077649735,-0.19799461713267238,0.6994957004725892,-0.057252711380676426,0.7123245653694675,0.004289756993340589
253,8.529999999999946,0.2534671572119379,0.061773185363412496,0.5028493099398691,0.9974202596443562,0.06821704955240718,0.022211231041620604,0.1890540273427539,0.4425957363345933,-0.19546158333340213,0.6991887320888805,-0.05429816239592394,0.7128503313137922,0.005409494457058927
254,8.539999999999946,0.20688831647253572,-0.01011678402877785,0.32992314261886274,0.9976930768054764,0.064103129191164,0.022282754550200977,0.25972241576868355,0.43679816736162524,-0.18959106186932412,0.6991581358564534,-0.05198767559485536,0.713048266574268,0.006024825365671081
255,8.549999999999946,0.08476623969411183,-0.039708883750035256,0.1379059505629638,0.9978483438923555,0.06179112330081876,0.02190237948700893,0.3020874706604867,0.4164618152692795,-0.18041011011690397,0.699291577544634,-0.050620306604715816,0.7130137863029498,0.0063151217936485435
256,8.559999999999945,-0.09770036568975889,-0.028245533060412695,-0.05033940541416621,0.9978820947651709,0.061374413156390986,0.021544472162306504,0.2934957478771877,0.37974506723746426,-0.16543473024022112,0.6994180901019039,-0.050481681243809445,0.7128981187981784,0.00648144442910576
257,8.569999999999945,-0.277506052132043,-0.009773229810376514,-0.212951214435405,0.9978019787984744,0.06267652364775173,0.021481368827687676,0.2617952797344045,0.34112688811403713,-0.14518123865139987,0.6994386880950608,-0.05162118511514925,0.7127938665504885,0.006688579944784641
258,8.579999999999945,-0.3967710110923547,-0.018452545628702396,-0.35067498909076755,0.9976215500140371,0.06543838056073825,0.021577212147798043,0.25928454389704425,0.31542996364152553,-0.12236277897918212,0.699402130108463,-0.05383011206870436,0.7126633940691657,0.006917285361077264
259,8.589999999999945,-0.41495907596578485,-0.0447389982761155,-0.46280928848005964,0.9973517579169414,0.06942585569061584,0.0215419590239223,0.2971551364091928,0.30731896418244287,-0.10397527314874694,0.6994143014192037,-0.056727801270513134,0.7124258122163766,0.006966826735998159
260,8.599999999999945,-0.3452998803600145,-0.054026534769160486,-0.5497433625494604,0.996996659472203,0.07440616068367001,0.021306787462663103,0.33597544693333237,0.3182667088582869,-0.10136251410171289,0.6995020987073655,-0.05987943073587446,0.7120852714221589,0.006576074882429769
261,8.609999999999944,-0.24330295377761432,-0.03210430059713777,-0.6088314997798556,0.9965549249639803,0.08015546580210245,0.021079433377733582,0.34524280783882133,0.3396157263867921,-0.11553845613882938,0.6995916495986698,-0.06298285522922321,0.7117378006196625,0.005598247212354728
262,8.619999999999944,-0.1468196096430292,-0.007702225168305836,-0.6396520203997239,0.9960345000347384,0.08638825657283558,0.02103515672006176,0.34103003756391514,0.36610696968226514,-0.13048063864041734,0.6996176399836268,-0.06590617523880155,0.7114577446281047,0.004097062879319165
263,8.629999999999944,-0.04990421119200363,-0.024211352544403694,-0.6581669451978196,0.9954533930043925,0.0928555457314988,0.02097613380734862,0.35749350220854775,0.3932361858934179,-0.13023247235488966,0.6996470730323252,-0.06857111029589014,0.7111853453538703,0.0021762153448955024
264,8.639999999999944,0.04868900597034874,-0.07957901409038284,-0.6888817210779598,0.9948154345348557,0.09955863865025812,0.020461736839083876,0.39939108315995175,0.40490329503900246,-0.12152250687487376,0.6998338455993126,-0.07096826186615246,0.7107693800816842,-0.0001596765942667006
265,8.649999999999944,0.14964518498819113,-0.11485014098419813,-0.7429193455505197,0.9940956114152099,0.10670297275095196,0.01935246654599618,0.42235488485396777,0.3974704539210228,-0.12017442514284284,0.7002231133378145,-0.07316710602130397,0.7101560825942558,-0.0029831070301092333
266,8.659999999999943,0.24871963987258733,-0.08629961044698092,-0.8073118018265204,0.9932561693876337,0.1144505509788524,0.018085777151157206,0.3821408533587948,0.3884436732562655,-0.1292276446829717,0.700651936160362,-0.07522724406325429,0.7094947220758767,-0.006367232159386454
267,8.669999999999943,0.3630205651869436,-0.019766392463270378,-0.8581723286074834,0.9922753457397896,0.12278565807266022,0.017189566866978936,0.2861905057666277,0.3813288591673186,-0.13876100132626026,0.7009234132123159,-0.07712318304325377,0.7089753620560535,-0.010346934701702726
268,8.679999999999943,0.5322217399840016,0.04097739180120694,-0.8951135020342235,0.9911555750487338,0.13157163308356118,0.0167398598718302,0.1933754912565421,0.37083303923311384,-0.13491101585044468,0.7009984685679911,-0.07868393679932091,0.7086454787879912,-0.014998720942637229
269,8.689999999999943,0.7866549117851589,0.0840109621812734,-0.9163335692825226,0.9899105353378083,0.14066240606709465,0.016459095400375778,0.14980373213081935,0.36141647651299347,-0.12011166432465566,0.7009567997903413,-0.07959827530912139,0.7084445160479015,-0.020518843531081847
270,8.699999999999942,1.1415195400419031,0.1160682267141067,-0.9305960907978958,0.9885512173388867,0.14996056130491336,0.016038472975019147,0.14598609260894174,0.36068441208785657,-0.11031161445032041,0.7008766194498016,-0.0794996766772606,0.7083070223802513,-0.027193013333828793
271,8.709999999999942,1.5713867161510398,0.14048868957745012,-0.9431383273006427,0.9870805478974084,0.15943378731494226,0.015199596764921695,0.15052896253710701,0.36835947162348837,-0.11126255988491733,0.7008089594019278,-0.07805516682842159,0.7081707633187581,-0.03532404358573978
272,8.719999999999942,2.0262265640890513,0.14755699542615167,-0.9521343869551547,0.9855021432320363,0.16904468480300072,0.013669031451629728,0.14826907655153054,0.38091410850929386,-0.11776576675187816,0.7007908875410938,-0.07508000883751649,0.7079504697756915,-0.04507062451353429
273,8.729999999999942,2.431830865232992,0.1302621295095527,-0.9632036871199451,0.9838191249589096,0.17874754789525288,0.011170449146559838,0.14728101174145966,0.38752223914016354,-0.12291152654422215,0.7008586224689731,-0.07060915186437769,0.7075260048567168,-0.05637760950932099
274,8.739999999999942,2.7363371506660776,0.07844252296564637,-0.9878861981016244,0.9820191611464877,0.18856079930675515,0.007451593140180981,0.16151595128974802,0.3778685844983162,-0.11716595470887085,0.7010529467404721,-0.06493801400834687,0.7067531055125688,-0.06899012822316157
275,8.749999999999941,2.9336800704122727,-0.005543410714558508,-1.046785526983932,0.9800498409045835,0.1986547239325528,0.0023208621148748504,0.1855679053711517,0.3496987779400741,-0.09336693222479209,0.701409477201497,-0.05855290043274466,0.7054939744790575,-0.08258554322577448
276,8.759999999999941,3.0573215484498673,-0.09886699142548022,-1.1417458575078432,0.9778166031319522,0.20931965094533475,-0.004315444247389385,0.194524054411028,0.30212961190390836,-0.0575641906940753,0.7019306809986391,-0.051907129031062316,0.7036598845838591,-0.09696833214806583
277,8.769999999999941,3.107814759798383,-0.18562315616129438,-1.2577545865421191,0.9752190237205507,0.22078305739020843,-0.012344513579426035,0.17555827938801657,0.24035882414219195,-0.023732842297246544,0.7025514817856494,-0.045356045281296185,0.7012562395437851,-0.11199418315822098
278,8.77999999999994,3.079434888399638,-0.26957458131570367,-1.3890806792602057,0.9721725489683173,0.2331406489883536,-0.021575646681768413,0.1312701569043232,0.17404065421925388,0.0072098407346934896,0.7032038842447379,-0.039235268208242524,0.6983291634870452,-0.12743515353594514
279,8.78999999999994,2.9932880676888542,-0.36171277428559273,-1.5353207635040564,0.9685772839666843,0.24651057382651476,-0.031915858529500504,0.08027601481868285,0.11692754089537752,0.046868787963121064,0.7038653358390236,-0.03384916894765589,0.6949018194633253,-0.14310404798283038
280,8.79999999999994,2.8569115764097734,-0.45566617756365424,-1.6884182980613485,0.9643261369976405,0.26099325230260173,-0.04328090069998138,0.03624599379324829,0.06099792807915818,0.09001735254424444,0.7045226613338105,-0.029437134847352508,0.6910039878446814,-0.15885858923690813
281,8.80999999999994,2.667178505365117,-0.5498449273947339,-1.8390061021181408,0.9593266485464502,0.27660720457543553,-0.055536700635984614,0.002889220391251824,0.004287097702932674,0.12774507134647592,0.7051630271429523,-0.02618686597927061,0.686688006916718,-0.17453727155928386
282,8.81999999999994,2.418829703013366,-0.6346935051440089,-1.9819214566782224,0.953506692327298,0.2933143390697075,-0.0684399673824133,-0.024352682636031468,-0.05124455292947883,0.15939454784181087,0.7057652101191136,-0.02428593194758764,0.6820449213506952,-0.18991720770643172
283,8.82999999999994,2.135057944027559,-0.7032394107676067,-2.115312396239186,0.9468033964442464,0.3110871981395859,-0.08167382933795496,-0.04756725231370771,-0.10540614220448888,0.19188085715850678,0.7062884413225705,-0.02386703212185227,0.6771915227649922,-0.20481824849287977
284,8.83999999999994,1.8276684385531958,-0.7620692525604217,-2.2325168568350735,0.9391795542557067,0.32985340500828214,-0.09493658825363241,-0.06472915205832562,-0.15925281643544112,0.22517105690687772,0.7066980917108701,-0.024974002870024884,0.6722365485738508,-0.21910643232610916
285,8.84999999999994,1.4931243694161667,-0.8205284588456373,-2.3234478904320186,0.9306280538550782,0.3494891866090319,-0.10796856464287137,-0.07923816835567928,-0.21267669335779638,0.2471429403104766,0.7069910715527592,-0.027630085914952723,0.6672664681733146,-0.23262516418397622
286,8.859999999999939,1.1465100419350354,-0.8787811424550097,-2.393166895073917,0.9211668690821827,0.3698386044104212,-0.12056226369664004,-0.0877025317637606,-0.25420288720639506,0.25395574519925584,0.7071858243406522,-0.031816098370987894,0.6623415534739853,-0.24523715539972862
287,8.869999999999939,0.8002522881097325,-0.9323478347648275,-2.4473540540740326,0.9108089613868806,0.39079576808299515,-0.13253921202558444,-0.08552940561175743,-0.27652853838022307,0.25217305501228354,0.7072976015891764,-0.03749824103673837,0.6575035408130693,-0.25685874430875405
288,8.879999999999939,0.4668958220568068,-0.9795297061471585,-2.4850212614971405,0.8995794500684178,0.41226373020695967,-0.14371650702298727,-0.0801423439670959,-0.2903978208489914,0.24684608764944493,0.7073205073883274,-0.0445944891057451,0.6527911516016788,-0.267464047953228
289,8.889999999999938,0.16185436196074815,-1.0157264869074105,-2.503014576777015,0.8875325888642381,0.43410097241504103,-0.1539537453772552,-0.076628839065578,-0.3035438417330026,0.24225702823284112,0.707244896322271,-0.05295989614832708,0.6482270696593356,-0.2770675775140793
290,8.899999999999938,-0.11685524237658793,-1.031167591590841,-2.5002841203590416,0.8747697704767419,0.45612383859371564,-0.16306480526493133,-0.07581593014431015,-0.3130146290826628,0.23790605808277107,0.7070361930231074,-0.062407322676737716,0.6438555592551333,-0.28569240563006165
291,8.909999999999938,-0.3482508568499031,-1.038084166541631,-2.4865464329764695,0.8613895609437906,0.47817427548202374,-0.1709434575273716,-0.07785698113860319,-0.3128326690216567,0.24048282737271587,0.7066647165902017,-0.07273981964621705,0.6396968200556633,-0.2934059159346716
292,8.919999999999938,-0.5245832784557565,-1.0359525427925398,-2.454838836152798,0.8474915187540546,0.5000635747457337,-0.17766142219127543,-0.07993173591131937,-0.300696915446138,0.2492854835565788,0.7061318191666439,-0.08370989287075416,0.6357165260734898,-0.3003343630686332
293,8.929999999999938,-0.6491378988690157,-1.0257209994055776,-2.4057993857680002,0.8332067339121016,0.5215729404027655,-0.18331390564654235,-0.07567228361656736,-0.29019674001880574,0.25308786772034686,0.7054444819309054,-0.09506193681896231,0.6318856909033622,-0.30659213880787667
294,8.939999999999937,-0.7292532931728456,-1.0052538557062336,-2.3426820812781464,0.8186849475733559,0.5424832136926142,-0.1880167519724382,-0.0697367237613759,-0.28759773188827936,0.2556550473992129,0.704619348921022,-0.10655821669290505,0.6281805348717145,-0.312273310545745
295,8.949999999999937,-0.7636813362536088,-0.9783923959134123,-2.2692130210280532,0.8040507336584058,0.5626364746585703,-0.19192287163117697,-0.06584651806893164,-0.2894619254577123,0.2600372188492211,0.703671109251039,-0.1179864340078878,0.6245742125052193,-0.31749596345859643
296,8.959999999999937,-0.7549549621770717,-0.9468717065602482,-2.1879937618124843,0.7894272640444012,0.5818860092639755,-0.19522888339864278,-0.061797544702094566,-0.29294503208856415,0.2614545398555617,0.7026275940036867,-0.129148041137198,0.621034211799163,-0.3223735320302908
297,8.969999999999937,-0.710990679036749,-0.908953720057773,-2.094249949383228,0.7749413830625642,0.6000932436778043,-0.19815368544885298,-0.053837619407754486,-0.2947567646995505,0.2621716018013211,0.7015309116145677,-0.13986770925676145,0.6175271342986299,-0.3269974373424299
298,8.979999999999936,-0.6397191707062944,-0.8669790463538706,-1.9916578825673537,0.7607272719201931,0.6171468297484907,-0.20086079119011613,-0.04272055201706602,-0.2972575115705216,0.26330271304144254,0.7004118058298644,-0.1499983802626465,0.6140458731552779,-0.33143643001162615
299,8.989999999999936,-0.550164473027363,-0.8178137228716439,-1.8791443698265127,0.7469207371531429,0.6329553692969901,-0.20349052294017933,-0.03182623976526189,-0.30261120871761193,0.26563169588010394,0.6993021845440989,-0.15942145999604976,0.6105935875890615,-0.33573551545482794
300,8.999999999999936,-0.4404157911597379,-0.7618268409207439,-1.7568495422331338,0.733647990637125,0.647454158792504,-0.20616850745268744,-0.020594768689285343,-0.3123201421403888,0.264657077630875,0.6982290801152904,-0.16803623250160785,0.607179801031225,-0.33993709578504755
301,9.009999999999936,-0.32683111008767834,-0.7041043709078455,-1.6223113923274406,0.7210559865370918,0.6605670390701479,-0.20900034270001547,-0.009157506187885736,-0.3237517312509121,0.2628506657303246,0.6972281219972053,-0.17575640164823667,0.6038210264403925,-0.34404966223534283
302,9.019999999999936,-0.21183307763223905,-0.6385088198814292,-1.4748030041113869,0.7092977167132677,0.6722384283954779,-0.21202231946212935,0.005771754779878667,-0.32985192985383216,0.2587783883141135,0.6963270697134661,-0.1825304362312041,0.6005531783852752,-0.3480475520856053
303,9.029999999999935,-0.1096589252915652,-0.5688500491219111,-1.308531376449704,0.69854507431952,0.6824164962704233,-0.21520440003528768,0.02498153298281271,-0.33388063486881336,0.2547978028495886,0.6955486290680093,-0.1883299361741511,0.5974314239673263,-0.3518693524016879
304,9.039999999999935,-0.033506936438475125,-0.5044630349733836,-1.1253711176393553,0.6889986906120791,0.6910398565239524,-0.21845725091469503,0.050593503979711484,-0.338109704376643,0.2521354598392517,0.6949256836664723,-0.19315947649659473,0.594522570231232,-0.35539455577075274
305,9.049999999999935,0.02084526269997351,-0.44150497619797807,-0.9274697898064475,0.6808091452212592,0.6981058583829466,-0.22166006505871294,0.08661940582413119,-0.3388119430219089,0.2521956342955525,0.6944861050527645,-0.19707600799338762,0.5918856281581685,-0.35849403684805475
306,9.059999999999935,0.046293995515274196,-0.37751761175074877,-0.7130311538920895,0.6741303858908966,0.7036021880086077,-0.2246868479806133,0.12936439018008658,-0.34020635797500787,0.2540672192488704,0.6942547716492823,-0.20012357981364956,0.5895809660841246,-0.36104450373133673
307,9.069999999999935,0.04569315011882719,-0.31566405347502,-0.4808987854808473,0.6691214748128436,0.7075149753858221,-0.22736623068940745,0.17426198972968412,-0.3405920482495373,0.2543724758509497,0.6942431567793291,-0.20234510396200217,0.5876841361538623,-0.36291777338162595
308,9.079999999999934,0.015673628244618536,-0.257173042558736,-0.24047589854129175,0.665906243474849,0.7098552978284143,-0.2295064238301992,0.2265673966644457,-0.34032873666525726,0.2562855980223976,0.694456372244777,-0.20380957809604444,0.5862663129296237,-0.36398268857690264
309,9.089999999999934,-0.03813662142098104,-0.1941949083235197,0.013257249287638283,0.6645669360791338,0.7106510796083925,-0.23092329314301355,0.2761519152268068,-0.33612803597592106,0.25978157219806003,0.6948913811358992,-0.2045940196036129,0.585388425132776,-0.3641255172527037
310,9.099999999999934,-0.11544452410205658,-0.13252231559297745,0.25465667296162786,0.665147989294394,0.7099284307646334,-0.23147041650046224,0.3170265624380563,-0.33028118068983225,0.26202836139307945,0.6955390110825833,-0.2047629426278757,0.5850956461878557,-0.36326313186999004
311,9.109999999999934,-0.21102829005543317,-0.06519648272234753,0.46867355155006324,0.6674819660854124,0.7078915155973491,-0.23098438812164904,0.3445782872004395,-0.3258212399669445,0.25935420621046895,0.6963210915543465,-0.20445108930122172,0.5854121588632477,-0.3614249266583432
312,9.119999999999933,-0.32302395296244646,0.023846719652515544,0.6803488455839682,0.6714894306085876,0.7046546906232394,-0.22925100041201635,0.349931357981434,-0.3248832236883107,0.24922918519693396,0.6971459254402849,-0.2037312619843728,0.5864022279401143,-0.3586238400918359
313,9.129999999999933,-0.4598213747799254,0.13231731553219794,0.9068097256485279,0.6772313757631234,0.7001950237843808,-0.22598803655748617,0.3295877511295463,-0.32799722209041443,0.2278844347325136,0.6979342485065131,-0.20262496863745605,0.5881734712625171,-0.3547937628387706
314,9.139999999999933,-0.5835889364005693,0.23803695330682623,1.1481308670334665,0.6848049440579986,0.6943688614652127,-0.2210709410632715,0.3026794317468855,-0.3273016614295329,0.2040132304999227,0.6986682024641161,-0.20110234728053034,0.5907796179166945,-0.34984820166623787
315,9.149999999999933,-0.6340757491636291,0.32301164434280044,1.3849631743861253,0.6941674419330512,0.6869692254856314,-0.21488429264836612,0.2866435898820285,-0.3136332184324384,0.18632475839297094,0.6994151293107728,-0.19900701203017707,0.594097155935368,-0.34388219881329024
316,9.159999999999933,-0.6130327397460014,0.3846180383086994,1.614291127372856,0.7051446485821096,0.6778047113337137,-0.20812060352054682,0.2986479957108919,-0.2854006981703982,0.1694118216711141,0.7002907267118699,-0.19613258033912423,0.5978863765378767,-0.3371150949422069
317,9.169999999999932,-0.5509724189224734,0.4465868814013446,1.8459729478378988,0.7176218375040043,0.6666909909217931,-0.2012338520457978,0.31717897178196786,-0.24581459557341742,0.14509646319742484,0.7013595235305036,-0.19229801449715947,0.6019964421654275,-0.32970317598110516
318,9.179999999999932,-0.49081167258628944,0.5182203885402993,2.0861022264797984,0.7315506702677285,0.653472764556344,-0.19429280970199025,0.32542389441202446,-0.20574614694230914,0.12025545451180086,0.7026047420714235,-0.1873981743645995,0.6064068490270029,-0.3216898827193436
319,9.189999999999932,-0.4689295019136711,0.5851169811150758,2.3229633665555522,0.7468369274214783,0.6380843350406893,-0.18712239532827646,0.32901293876154547,-0.17708957838424166,0.10212788792365776,0.7039774644358391,-0.18148757640739038,0.6111410938662987,-0.3129968092995596
320,9.199999999999932,-0.48379348701587216,0.6463781692185349,2.5543580251138716,0.7633157178731251,0.6205292950571342,-0.17948206093600988,0.3435182621604774,-0.16440848512374442,0.09785781986969914,0.7054221152505236,-0.1747224332867891,0.616216067897961,-0.30349502631924574
321,9.209999999999932,-0.5012233083305221,0.6841479614861923,2.744944260892625,0.7806912008655444,0.600906905281381,-0.17130939395443837,0.37572970559510616,-0.1537054023323171,0.09918746327926077,0.706892891558577,-0.16726271239326068,0.621577809998766,-0.29316345411846284
322,9.219999999999931,-0.48473067655575464,0.6910745193149815,2.8622898127418743,0.7984250248955088,0.5795510518650926,-0.16294444625787208,0.42168516112726895,-0.13457993175391098,0.10105397931557464,0.7083788678918886,-0.15925438429497138,0.6270215675077724,-0.2822394094855954
323,9.229999999999931,-0.4403198797934281,0.703980687801737,2.9023144212756473,0.8159398719596604,0.5569821009893635,-0.15468513992448557,0.4551658637151407,-0.10800633294902352,0.09480219593086263,0.7098197550688065,-0.15084390378754042,0.6323715573673357,-0.2710838368087776
324,9.239999999999931,-0.41778711373523103,0.7536947268808152,2.890993827961142,0.8328568135752931,0.5337119373952529,-0.14635141266496915,0.44044190489943386,-0.08831502256432565,0.07663238366089187,0.71104932580819,-0.1421931286870406,0.6376486859738906,-0.2599483387699358
325,9.24999999999993,-0.4204047534470169,0.8231944563069862,2.8465910234436294,0.8489809861266958,0.510142866686945,-0.13750639829420466,0.37692667908418115,-0.0882392795451437,0.04998016239802068,0.7118841118017518,-0.13348186186683794,0.6429776466387255,-0.24892513475164907
326,9.25999999999993,-0.4179738433217677,0.8722066477344309,2.761628601777548,0.8641501523798709,0.4865896071137966,-0.12808091778227482,0.30581126884551985,-0.095608428941627,0.01737985966053194,0.7122806964784922,-0.12485596514587415,0.6483534090671679,-0.23809088476539267
327,9.26999999999993,-0.3833148304890219,0.8764999765083242,2.6445477352391866,0.8781318878609654,0.46345167028287204,-0.11847343310959939,0.266018526286655,-0.09547024659288587,-0.02205408754949164,0.7123243489841381,-0.11643445734108931,0.6536045384975501,-0.2276462061651212
328,9.27999999999993,-0.2935814862157651,0.8315631801609726,2.493698474330043,0.8907663268199666,0.4410591529274651,-0.1093233828630273,0.25757649756979534,-0.08124713407845711,-0.05973522820386411,0.7121829462758179,-0.10824630842790675,0.6584941983052275,-0.2178323539357251
329,9.28999999999993,-0.1552973313742409,0.7560847723702268,2.3188994082822134,0.9019826986473475,0.41969804467994426,-0.10119072577205443,0.27077401442560856,-0.05262124946604553,-0.0941655882332328,0.7120013667900879,-0.10024759570309977,0.6628344043031145,-0.20891297296045666
330,9.29999999999993,0.009445621422466846,0.6825970048578096,2.1337071208058433,0.9118212096077373,0.39955858634304764,-0.09435328437281139,0.2965190169817543,-0.016821293203431925,-0.11535100854740862,0.711856811501146,-0.09236549979492327,0.6665485996178556,-0.20108017582785645
331,9.30999999999993,0.17618815682203756,0.6103440682391758,1.9473466812916869,0.9203868890906803,0.3807653825316282,-0.08877155670058073,0.3216274855734888,0.008622583227073542,-0.11449327847630288,0.7117505686381889,-0.08457180370701378,0.6696697193779998,-0.19440866721509245
332,9.31999999999993,0.28865911262784844,0.5424303524563917,1.7630001723305417,0.9277995287660225,0.3634029205930667,-0.08430311616262602,0.34064080241068884,0.013668937825928092,-0.0933557197474781,0.7116855765832065,-0.07695275096517175,0.6722523134552453,-0.18882183504077926
333,9.329999999999929,0.3148041294795775,0.4777270793824602,1.583334853126517,0.9341732274952435,0.34756721727013246,-0.08064053474095101,0.35183725904569146,-0.007176385497353352,-0.05729470125742051,0.711640108350795,-0.06975050078061373,0.6743974382736888,-0.18408548934986568
334,9.339999999999929,0.26604521267871406,0.4228241218931038,1.4034991626092406,0.9396199949553308,0.3333249683397711,-0.07744661815852032,0.34643485094927984,-0.03425572734169842,-0.014302645889363565,0.7115851383765384,-0.0632410360347223,0.6762214122467707,-0.17991357063603045
335,9.349999999999929,0.1536513145798621,0.3911084824777986,1.2233468759333088,0.9442266514978418,0.32078458841707064,-0.07433480176734719,0.31216037877020836,-0.05282539316145392,0.024736157166350355,0.7114496468611272,-0.05767099361735325,0.6778683516220916,-0.17608510944041167
336,9.359999999999928,-0.018842071869652498,0.38398451203418205,1.0542029144216065,0.9480983541060254,0.30996270929232206,-0.07090216413556079,0.2433670430324369,-0.06058316602104412,0.05263399229740028,0.7111492064513947,-0.05321742596952099,0.6794970113405862,-0.17238639903548267
337,9.369999999999928,-0.22569122901224137,0.3835122341396306,0.9059653298254683,0.9513542092068783,0.3007422261840277,-0.06689643449382057,0.15309014643264526,-0.06524767116178669,0.06623949745647964,0.7106498094253837,-0.04998555311269911,0.6812142866004169,-0.16859472411154594
338,9.379999999999928,-0.42933516296284363,0.3820128463806719,0.7855640860166774,0.9541098078734065,0.29290565303031096,-0.06226983552657453,0.061969884381395994,-0.07284685494513182,0.06466089362843656,0.7099671502713369,-0.04795724509543614,0.6830556365149895,-0.16456204220801995
339,9.389999999999928,-0.5754265068224796,0.36887898772445044,0.6896168656209091,0.9564682764185506,0.2861698004837563,-0.05720990255976449,-0.011967599404550259,-0.07067305157054814,0.05206409812204043,0.7091598120175584,-0.046932084701526156,0.6849761281962806,-0.16030168786067558
340,9.399999999999928,-0.6711618925505248,0.3597539518070735,0.6206365674809569,0.9585213430251069,0.2802447323363142,-0.051940609892533254,-0.07093343902189744,-0.053282925210112284,0.02652281620115045,0.7082786071438476,-0.046617711853859906,0.6869180245713878,-0.15592005892503938
341,9.409999999999927,-0.7169134921950541,0.3517606305898667,0.5798358488120865,0.9603646278224753,0.2748236675443752,-0.046581160326969184,-0.11949185741068186,-0.015430745225000566,-0.0024101058871217928,0.7073496012937036,-0.046742866292351165,0.6888573350832057,-0.15148059301348452
342,9.419999999999927,-0.7426153278702674,0.34407712509771937,0.5599522699390387,0.9620711009644382,0.2696604140069908,-0.04124671385688687,-0.15646597488622083,0.034532273438301946,-0.019685424480220714,0.7064032514735309,-0.04709494609022001,0.6907666960530947,-0.14702847229643168
343,9.429999999999927,-0.7977754126614778,0.31680708134454266,0.5533274147527127,0.9636839503403252,0.2646057544168729,-0.035998745600280935,-0.18884677472868258,0.06070581716733172,-0.030715758677660313,0.7054752690431216,-0.04764238519124095,0.6926259923852848,-0.14249033380385034
344,9.439999999999927,-0.8741313042469994,0.278285114659834,0.5563675129245182,0.9652376999418208,0.25953584374404914,-0.030930979965305947,-0.21712937637047955,0.06535588593825747,-0.0412014946695188,0.7046270885062411,-0.04844850866740237,0.6943970052781107,-0.13771647077905907
345,9.449999999999926,-0.9777130696543962,0.23320748587915202,0.5734146377488354,0.9667601450834323,0.2543506949746356,-0.026077624938108248,-0.2376731012363422,0.06357668341071789,-0.046356213001792074,0.703890582961462,-0.04957258022969944,0.6960630059891147,-0.13257672304793838
346,9.459999999999926,-1.0925666296653165,0.193352559091826,0.5964807361781911,0.9682845170195267,0.24893110957929973,-0.02140138699329163,-0.25834528528827483,0.06848058079872461,-0.05106838380002427,0.7032647742964047,-0.0510377613093707,0.6976348845036344,-0.1269611621237503
347,9.469999999999926,-1.2088437949089959,0.15120241308220214,0.6319139439557491,0.9698331542946844,0.24318227734770492,-0.016902501426405918,-0.2732325818100601,0.08554747331228336,-0.060884451077916804,0.7027468350796475,-0.052825445811561865,0.6991124507457455,-0.12082208800261574
348,9.479999999999926,-1.3087564234535445,0.11587677557427693,0.6728166495117996,0.9714206872248186,0.23702953161733187,-0.012580025304213212,-0.283055626530376,0.10553724343083155,-0.06783612960303065,0.7023244931588,-0.054894591540819666,0.700497352107745,-0.11414889228317827
349,9.489999999999926,-1.3726174805886284,0.09373472676813281,0.7171084684799559,0.9730593885648574,0.23039848026749798,-0.008420055206736868,-0.2897541609039417,0.1296209602311116,-0.06585706316215077,0.7019658702644309,-0.0571145803356078,0.7018032736949097,-0.10701980594344015
350,9.499999999999925,-1.3800741321812862,0.08374030411243617,0.7635359122193882,0.9747477862648775,0.22326202109265833,-0.00441984214151079,-0.3005795860367947,0.15293400228462384,-0.0625303825332074,0.7016333843994106,-0.059304317769199436,0.7030455107733518,-0.09959704495901904
351,9.509999999999925,-1.3207136596857327,0.07599740838036777,0.812061196862963,0.9764812170611609,0.21559708819445475,-0.0006601522065607848,-0.30655944212652864,0.17903838793663443,-0.061829505786386095,0.7013196552644776,-0.06124387132122916,0.7042151800232056,-0.09208432514365629
352,9.519999999999925,-1.2000417906110066,0.0747782890193742,0.8607187417445816,0.9782584136443269,0.2073663349472707,0.0027496162944911145,-0.303029113202431,0.20557856763655658,-0.06488989298643832,0.7010340164499652,-0.06267918084447187,0.7052985587642107,-0.08470613485422628
353,9.529999999999925,-1.0448967223829297,0.07537748117292149,0.9038791404766056,0.9800645281261782,0.19858838713034466,0.005787347617661424,-0.2945401984415152,0.22847634752857132,-0.06857468718559832,0.7007690588233314,-0.06344246569262307,0.7063063681748697,-0.07763751081964657
354,9.539999999999925,-0.880269904609574,0.07844491983684675,0.9315427169587418,0.9818567223472846,0.1894286462822108,0.008437432567952267,-0.288587164793419,0.24769600636926767,-0.07359271398909749,0.7005259010512572,-0.0635075901265377,0.7072379202810491,-0.07101683937743068
355,9.549999999999924,-0.7215710846828695,0.0796612676651314,0.9463062388054386,0.9835917700420597,0.18008190854036243,0.010686237051229477,-0.2824590648241045,0.2600787061340393,-0.08486278503327749,0.7003160492515885,-0.06294555540881398,0.7080825791543454,-0.06490676143219118
356,9.559999999999924,-0.6016032915167865,0.07812378447357038,0.9415752179203986,0.9852418031165987,0.1706909554468492,0.012628160853979338,-0.27419010732179283,0.26589526333839225,-0.09722678698539289,0.7001211872034984,-0.06187352305582288,0.7088622416739723,-0.059287509999641747
357,9.569999999999924,-0.519178881748916,0.08021382703245039,0.9257691091739134,0.9867821977316371,0.16140433130478019,0.01434197513362351,-0.2672503378684389,0.269430120609011,-0.10805189024787969,0.6999320475921871,-0.0604897930187466,0.7095857004252858,-0.05406474480924184
358,9.579999999999924,-0.4742869429536275,0.08550145665743647,0.8983250942316974,0.9882001270932491,0.15232421413802588,0.01592090978683473,-0.2589752423340856,0.265392430225945,-0.11832256936648244,0.699730915755836,-0.05896299569859578,0.7102701511688164,-0.04914188734691557
359,9.589999999999923,-0.44437361817055054,0.1019719535954062,0.8631133470189397,0.9894884405431195,0.14353280399315055,0.01751086390198464,-0.2498612510638324,0.259771814820859,-0.12376283969122777,0.6994763211544698,-0.057415822211906664,0.7109561932932951,-0.044454970182792396
360,9.599999999999923,-0.425862110493423,0.12348916469975235,0.8287035438072492,0.9906474395824629,0.13506824878079796,0.019240792622436824,-0.24570074722744958,0.2561170557427491,-0.13229866221499562,0.6991282847901353,-0.05590239777063375,0.711684735855273,-0.0399774322308388
361,9.609999999999923,-0.4029925349574971,0.14629019782054298,0.8013372874762666,0.9916882206325945,0.12689948183384286,0.021138868814175937,-0.23177057588109196,0.2577797715102364,-0.1374361170605739,0.6986813941561414,-0.05441952688684559,0.7124659878349276,-0.03569010756232515
362,9.619999999999923,-0.36819607488001455,0.16833556259942417,0.7770547424815714,0.9926236572402323,0.11898316397769156,0.02317608343576102,-0.20225299610718497,0.2686272268452047,-0.14097190365721468,0.6981494152680366,-0.052931515657431545,0.7132924463994874,-0.031596628271911543
363,9.629999999999923,-0.3169472852844518,0.18084766682650125,0.7629486981097623,0.9934685223880234,0.11124779835863717,0.025300626417421493,-0.1614033223128979,0.2859541455951552,-0.14647830722973185,0.6975528098696269,-0.05135398303950731,0.7141518500906916,-0.02772791648529331
364,9.639999999999922,-0.25683692415471066,0.18978436424993878,0.7447999499986799,0.9942282469163328,0.10368963042582027,0.02746457601187851,-0.10896090339388674,0.306669040076816,-0.15361922028021838,0.6969107416960736,-0.0496365960890536,0.7150302311947382,-0.024128602392896523
365,9.649999999999922,-0.19734182543356105,0.18143078291132514,0.7251959395210219,0.9949092020006689,0.09632255260846909,0.02954832151336774,-0.049989468082847835,0.3346225169497311,-0.16070801160778608,0.6962700896939221,-0.04777925014695675,0.7158847605740174,-0.020805212270826864
366,9.659999999999922,-0.15301465285604574,0.15622453780772783,0.6983923440750877,0.9955171224148794,0.08919239834004744,0.031401464968819064,0.019103009927001723,0.35936825385341464,-0.1677270515730838,0.6956892437015065,-0.04582214798849177,0.7166594138797285,-0.017746669726259424
367,9.669999999999922,-0.13607024149861718,0.1259000566835568,0.6680197274865481,0.9960578962003366,0.0823404183635573,0.03292937166295039,0.09576420232001166,0.3787812881037129,-0.16956903984021474,0.6952071461980889,-0.043864615693797376,0.7173145992776006,-0.0148822971602175
368,9.679999999999922,-0.1473956378425404,0.09180297835794235,0.6148014819385046,0.9965305123148085,0.07587966300954775,0.03413398586661234,0.17141596097415557,0.38596456993479406,-0.16522732653702504,0.6948267426661319,-0.042036459898807804,0.7178437324559447,-0.012163982242407093
369,9.689999999999921,-0.1870043106340675,0.02717206788332932,0.4892089452116192,0.9969125818016984,0.07032697445100652,0.034878081814386896,0.2309686872849072,0.38281963934814994,-0.15938501682987152,0.6945981344429479,-0.04061307213800794,0.7181848227207087,-0.00968242054131787
370,9.699999999999921,-0.29013710542819726,-0.017172169135451533,0.3932823289025997,0.9972131437947593,0.06585115748685724,0.03503645220213392,0.27401865003345305,0.372424930490633,-0.15371353750260003,0.6945702447658479,-0.03985381320255568,0.7182825734528671,-0.0073011963860486855
371,9.709999999999921,-0.4198097132252063,0.007148183837073205,0.2901461948137594,0.9974371192260615,0.06229206544472596,0.0351746306126655,0.29739355697719616,0.35648522150277107,-0.1410200275123777,0.6945419703532649,-0.03984903908540611,0.718330960520403,-0.00482954858135011
372,9.71999999999992,-0.54203630856248,0.04237502944488895,0.1852626780267595,0.9975726876959076,0.05976587181940694,0.03572227482678221,0.2877600322030043,0.3424014272634777,-0.12803500871040097,0.6943579498995133,-0.040680972135774984,0.7184748494151948,-0.00227681966126855
373,9.72999999999992,-0.5914135756843513,0.04189666083505769,0.08713655703310337,0.9976367124087839,0.05820787755540899,0.036502294023693704,0.282604929074627,0.32958544423550223,-0.11418738603371152,0.6940807552153212,-0.042177116408264846,0.7186598503812094,0.00023695575140986235
374,9.73999999999992,-0.5486756588399861,0.01773597059839739,-0.00526976220138517,0.9976492133567898,0.057605495624472126,0.03711296373636914,0.31655775841471645,0.34146933258980317,-0.10402075966658009,0.69385660961155,-0.04403112318182357,0.7187609900510424,0.0024326229072725416
375,9.74999999999992,-0.4308784018466793,0.021321266898021177,-0.08696547121356503,0.9976154715547113,0.05791037645021848,0.03754121441869653,0.35245352210428627,0.36582678769088495,-0.11048478450189647,0.69369499001102,-0.04591216205498302,0.7187922455102211,0.004025938948255165
376,9.75999999999992,-0.3056964255194851,0.05311303437343602,-0.15564588430561352,0.9975298062423283,0.05900624397168614,0.03810468933059678,0.35547299951272754,0.388961505449267,-0.13139859892855243,0.6934863549559651,-0.047627744109135874,0.7188766364633911,0.004904901765767729
377,9.76999999999992,-0.18738089936122737,0.06326634242535882,-0.21774374999110124,0.9973940268266127,0.06078263121595268,0.03885473438249877,0.3438144877232437,0.4073861509345702,-0.1510725887557752,0.6932143494996674,-0.04915592346242713,0.7190346282691215,0.0051238475702508265
378,9.77999999999992,-0.06313926075183643,0.030264273426904166,-0.29109715920812024,0.9972172300342514,0.06327225535770137,0.03941308324445066,0.3542701512137172,0.41786720551374895,-0.1564411048788752,0.6930161929410206,-0.05050634273731557,0.7191352020307075,0.004680012677791652
379,9.78999999999992,0.08089007406794436,-0.026540101161767218,-0.3935471183170176,0.9969937781396785,0.06669039719488602,0.03942462807076544,0.38479031130193053,0.41654286850138955,-0.15621053411612304,0.6930191326226806,-0.0517061222844655,0.719053974344176,0.0034602696915388004
380,9.799999999999919,0.23147935447584966,-0.07287259984683317,-0.5226953927646193,0.9966975797496073,0.07132046285047151,0.03878360437925906,0.39347627691396564,0.4106838044180293,-0.16509390556147474,0.6932573182309418,-0.05280660702535586,0.7187510707281793,0.0013193415327348748
381,9.809999999999919,0.3733917674047718,-0.08038082975024739,-0.6647886204578644,0.9962846069630495,0.07735952670540304,0.037773231077608174,0.3494642831440279,0.40046893124944016,-0.1793537665769534,0.693619865566528,-0.05389622692531556,0.7183186152388079,-0.0018047780529098002
382,9.819999999999919,0.507807168942876,-0.07215972719823788,-0.8109718161613337,0.9957129679949371,0.08488001993738628,0.03664316757940304,0.26080687009010933,0.3799479668428687,-0.18550098876817697,0.6940034329332379,-0.05502350122043528,0.717839673378095,-0.005925734159368496
383,9.829999999999918,0.660033405744291,-0.07156040375497463,-0.9544088638792116,0.9949490189813128,0.0938706381235962,0.035395075701506996,0.17583290256300782,0.3495921437849254,-0.17339851395573824,0.6943891635431461,-0.056169331210630696,0.7173160582375664,-0.011058257654870477
384,9.839999999999918,0.8511470119658242,-0.07414257858944942,-1.09346549006467,0.9939570213886162,0.10432132677902425,0.033911075064617616,0.12458210460603386,0.3177937807769071,-0.15017857870981358,0.6947946140435466,-0.05723463281083521,0.7167143984329795,-0.017293966975209213
385,9.849999999999918,1.0891499621023204,-0.07846477720373407,-1.2323750594291507,0.9926947462398054,0.1162142288122141,0.03208585759823979,0.10260390600857698,0.2951044451353337,-0.12880680085636118,0.6952221937597323,-0.05804994587322424,0.7160118545329175,-0.024790430197734623
386,9.859999999999918,1.334737792708697,-0.09707614728040688,-1.3697974691926493,0.9911183989760075,0.12950871482138754,0.02972955476203184,0.09698776726952424,0.2836969656548785,-0.1103040125017955,0.6956950944734717,-0.05850214961313853,0.7151518300386749,-0.03363738331177194
387,9.869999999999918,1.5464481172610753,-0.14948542018960295,-1.5047919733048387,0.9891831473059535,0.14414162023590055,0.02654671476030194,0.10430870308674567,0.2716011889508127,-0.09272432752370136,0.6962726357777311,-0.05863481608068955,0.7140273889747824,-0.04376130890338509
388,9.879999999999917,1.6931465535174284,-0.22175934200241007,-1.6346522721177983,0.9868384088358448,0.160039327425403,0.02223298734934361,0.12550102043301345,0.2442860056989324,-0.0703595962660567,0.6970238482894051,-0.05861461759583129,0.7125169782684322,-0.05496934253190194
389,9.889999999999917,1.7578975737767397,-0.2863057514087927,-1.75927065058534,0.9840210845687349,0.17711088186022983,0.016797834103175972,0.14945528857877827,0.20280858180169803,-0.04411369240395101,0.6979198493596687,-0.058694209292663085,0.7106006609786567,-0.0669789254362786
390,9.899999999999917,1.7448409184837146,-0.346902783741097,-1.8756772475876484,0.9806737739000584,0.1952171329068782,0.010419587254924163,0.16042795808102495,0.15155761279743113,-0.014656081788516871,0.6988923366180639,-0.05912998216123021,0.7083166933283983,-0.07946670738457066
391,9.909999999999917,1.6745611538159513,-0.41625976698251543,-1.9758494433248863,0.9767483656440634,0.2142029067031065,0.0031914313957399102,0.1647647358635273,0.1023350977038979,0.014941679408828384,0.6999193206008654,-0.06012065757511092,0.7056768863901687,-0.09214856185719743
392,9.919999999999916,1.5622079069901373,-0.4926658060339111,-2.074764069272165,0.9721998339089173,0.2339349586259617,-0.004873677392005041,0.1759228600015057,0.054223222405797224,0.041103383784067936,0.7010173383059415,-0.06180408124752117,0.7026673115561911,-0.10481162253833402
393,9.929999999999916,1.4170086635677566,-0.5605033927033898,-2.1745570773718605,0.9669596423666996,0.2543936129640938,-0.013626457648671951,0.1843666536393127,0.011732795842563468,0.06909066991626975,0.702155608223364,-0.0643106816268051,0.6993195451401766,-0.11732429606023534
394,9.939999999999916,1.2286535021222902,-0.6102068177897875,-2.269516720611874,0.9609584648374797,0.2755790373805287,-0.02277424418887009,0.16868485302429767,-0.03088842576846717,0.09461947932689485,0.7032613734259539,-0.06777034163935773,0.695712301129202,-0.1295592831154846
395,9.949999999999916,1.0118013812417452,-0.6520130378709068,-2.3555554138460018,0.9541549070504242,0.2974192413714071,-0.0320272289871964,0.13264196552654353,-0.0773028324833649,0.11004724322989803,0.7042769715328114,-0.07227647244237845,0.691922140190537,-0.14136523250658026
396,9.959999999999916,0.7861731192566943,-0.6857168481076807,-2.432090121150774,0.9465138946579692,0.3198518255900201,-0.04115901699655151,0.09410600747245615,-0.12091637683082057,0.12208517185685927,0.7051625795562483,-0.07786201474201776,0.6880040183273838,-0.15265497429781463
397,9.969999999999915,0.5722073383062375,-0.7088129192654883,-2.4990186908191445,0.9380183978655902,0.3427897896996459,-0.04997539836201013,0.056221433727967646,-0.15616113441328183,0.13325776934965,0.7058816082186589,-0.08448470144548874,0.6840056144174247,-0.16339822972823065
398,9.979999999999915,0.38270307507195456,-0.7156880925703616,-2.550338928672143,0.9286774635446133,0.36610593789237456,-0.05830688726230055,0.01989438256107707,-0.18423823825924346,0.1394821520838668,0.7063920090642175,-0.0920156904005485,0.6799751925454466,-0.1736245601728363
399,9.989999999999915,0.22842790752707304,-0.7055408717675014,-2.5822917678119177,0.918533424443748,0.3896269938917629,-0.06601870670872353,-0.011571435160598123,-0.1999747224634397,0.14443560209223458,0.706656716368769,-0.10027738410361324,0.675958241483977,-0.18338178294325863
400,9.999999999999915,0.10793981661481156,-0.685124203598061,-2.5975849218324183,0.9076427865300541,0.4131817846806638,-0.07303420656345828,-0.036974577638877376,-0.20882513703628824,0.15014141152144017,0.7066497396117108,-0.1090791434940334,0.671987642089153,-0.19273703475759343
401,10.009999999999915,0.018232557101504412,-0.6545691690350468,-2.589781007489862,0.8961076013619039,0.436535429099624,-0.0793484864268144,-0.0572876526714096,-0.2188267583203786,0.15502983574180096,0.7063744111123792,-0.11821344285323791,0.6680815943102405,-0.20172939610307905
402,10.019999999999914,-0.03934177118494756,-0.6225021775671605,-2.5654175130733408,0.884030252182306,0.45949898062233113,-0.0849740142895969,-0.0712894051309773,-0.23180517116798607,0.1577364797825529,0.7058354544013548,-0.12750144131151173,0.664257147490519,-0.2104028183920238
403,10.029999999999914,-0.05669840025108082,-0.5966397955642309,-2.52527579813513,0.8715167960100192,0.4818894309365265,-0.09007320584717622,-0.07732831326744359,-0.2417983829303545,0.1603196496782331,0.7050842087010748,-0.13676199107844966,0.660485295149427,-0.21881380082802443
404,10.039999999999914,-0.0468918073840247,-0.5729896232494328,-2.4687925420660752,0.8586707615467564,0.5035500964342179,-0.0948565869774111,-0.0745372774245291,-0.24856667284108916,0.16445196909110832,0.704185982615748,-0.14583362668738892,0.6567237573852094,-0.2270185893647641
405,10.049999999999914,-0.014439762385590752,-0.5419605758933981,-2.400479160386088,0.8455875414006185,0.5243789921028568,-0.09945202087697544,-0.06936779632945811,-0.25572693950452496,0.16848216668010008,0.7321868389423264,-0.30382379602508147,0.5900986623178739,-0.05830214338858189
406,10.059999999999913,0.030053549961774482,-0.5076232674261318,-2.3193191580826675,0.8324343112799978,0.5441936991137438,-0.10390045611014903,-0.07075291443945732,-0.26139600127876716,0.17239721744021458,0.7429024990243915,-0.36185771276264533,0.5631103026633849,-0.005823531979017004
407,10.069999999999913,0.07537815825930247,-0.4734030892246906,-2.2322543816836067,0.8193139989515137,0.5629408177481167,-0.10825100303684897,-0.0739619160442916,-0.267356741977425,0.17485910720603567,0.7442649405711657,-0.3680614467499426,0.5571276076416212,-0.013538176011565966
408,10.079999999999913,0.12646409621248025,-0.4478482602572635,-2.134698641788181,0.8063203579976838,0.5805829514699697,-0.11258236811254159,-0.07507463831318048,-0.2760807234493248,0.17901997208792383,0.7455432675756142,-0.37377836752766935,0.5513491836049353,-0.021094841780985474
409,10.089999999999913,0.17544973874879446,-0.41693100694826096,-2.0291649683589537,0.7935675777907971,0.5970677924945743,-0.11693079327280834,-0.07516712827893435,-0.2886982316464921,0.18524747977224576,0.7467561583302117,-0.3789840806837974,0.5457971570562362,-0.02845742753812415
410,10.099999999999913,0.23155112428470861,-0.3860852052448775,-1.9194320355402912,0.7811486275334317,0.6123775613735203,-0.12132949198428833,-0.07540260700875426,-0.3024793956380029,0.190317143200891,0.7479206676305199,-0.38365173024053173,0.5404969737618628,-0.035623068259480764
411,10.109999999999912,0.2921341665920455,-0.3572311524403885,-1.8051956717353423,0.7691481263880832,0.6265032336034938,-0.1258306736932957,-0.07367366080617824,-0.31483801176193377,0.1951165028433952,0.7490606490936292,-0.3877583860103087,0.5354623417109221,-0.04258584145440517
412,10.119999999999912,0.34428129906790145,-0.32584828821000045,-1.688271454840509,0.7576530516646967,0.6394359323385317,-0.130460969033122,-0.07531296309850777,-0.3258243549223778,0.19858090536046652,0.7501923953200786,-0.391298592013677,0.5307052721203004,-0.04931993858508879
413,10.129999999999912,0.3863421528676887,-0.2927988304941411,-1.56651172159135,0.7467484815503357,0.6511863252714648,-0.13515831271191384,-0.07600668352824222,-0.3404401721404367,0.20246627547348583,0.7513045529181158,-0.3943023496895766,0.5262517132687936,-0.055785358401019454
414,10.139999999999912,0.4135711582252132,-0.2567605125013649,-1.441171892372528,0.7365052686961678,0.6617854264313391,-0.1398305433656548,-0.07269377235055645,-0.35595380002561566,0.20779114664957637,0.7523769287876125,-0.39681880590833835,0.5221254501204728,-0.061939098290795525
415,10.149999999999912,0.4235696312342908,-0.2195018938957336,-1.3094216001280075,0.7269933610595422,0.6712630220814906,-0.14438324066632482,-0.0732601069357208,-0.37039902098463473,0.215290992499058,0.7533900239127883,-0.3988968439014596,0.5183493415362299,-0.06773538530599636
416,10.159999999999911,0.41839767039744785,-0.17252798369277034,-1.1653998684401992,0.7183458228857965,0.6795951928229609,-0.14865242054749286,-0.07742914215755715,-0.3861686743294391,0.22191947534367565,0.7543052147566314,-0.4005728996933778,0.5149877702331629,-0.07310205795674947
417,10.169999999999911,0.4062724918851876,-0.1223012172265086,-1.0132616717100715,0.7106761388075495,0.6867696562543598,-0.15252014592417348,-0.07953457823150718,-0.4007242957563335,0.22826268953742518,0.7550984429978242,-0.40187111075891296,0.5120914114086114,-0.07798448022417002
418,10.179999999999911,0.38131942484371045,-0.07740838034013629,-0.8444199719426971,0.7041031845313476,0.6927490906105706,-0.15594859704416145,-0.07784020512598194,-0.4084189280692187,0.23661536183059223,0.7557747338330494,-0.40279712102425463,0.5096851396294299,-0.08231073466641262
419,10.18999999999991,0.34204728566679093,-0.03949853545219554,-0.6600107110524174,0.6987708487782315,0.6974695166704953,-0.15888570342298672,-0.06707238761182649,-0.40968564969103877,0.24463760520885325,0.7563393261267162,-0.4033643260836062,0.5077929441791783,-0.08597144638251152
420,10.19999999999991,0.2904534815118352,-0.003438778832301627,-0.4583204489762738,0.6948239494105828,0.7008643352696496,-0.1612556570462154,-0.0432948949992228,-0.40782733837161056,0.25265569916734953,0.7567900157044403,-0.40358945909091953,0.5064458691914235,-0.08885520496822058
421,10.20999999999991,0.22625411699152598,0.03227625907905919,-0.23638351618621614,0.6924027627415348,0.7028617692522093,-0.16297836427552098,-0.010217314668987561,-0.404412657786747,0.259135663497728,0.7571215225802397,-0.40348202038939057,0.5056807252835563,-0.09086009430273582
422,10.21999999999991,0.15768143325827652,0.0722385263310414,-0.00035860554635655517,0.6916517279622986,0.7033714811789451,-0.1639699846857348,0.024838110730721705,-0.39816239157145816,0.26363447782896726,0.7573233626571081,-0.40303030006615986,0.5055507007202348,-0.09190274542309623
423,10.22999999999991,0.09125693585469236,0.10992576480948298,0.24855319344339938,0.6926697219553855,0.7023100343892946,-0.1642194244606754,0.0646722359492945,-0.385826799719862,0.26338619693543536,0.757402521720267,-0.4022049165739016,0.5060841428477796,-0.09192950302413087
424,10.23999999999991,0.03387884096114767,0.15743598837367706,0.5030244683664501,0.6955144406060081,0.6996024470818446,-0.1637404858522791,0.111698718325753,-0.36668382861272814,0.256591003986402,0.7573652865470756,-0.40096086477117526,0.5073058503448437,-0.09092700442674122
425,10.24999999999991,-0.014911236710311814,0.2209795473042577,0.7677570005358605,0.7002485838806579,0.6951528278074139,-0.16248579654196657,0.16327959806261028,-0.3438952543506927,0.2456661443037889,0.7571884962375707,-0.3992271433422552,0.5092865713779778,-0.0889230578151302
426,10.25999999999991,-0.05853180135256365,0.2772332900778321,1.0194422563774022,0.7068395235002342,0.6889150031139781,-0.1604692247063925,0.21778884636360785,-0.32211580590613387,0.23059624387532476,0.7568664396887159,-0.39697458535770214,0.5120284751918888,-0.08593825893647809
