time,seconds_elapsed,rotationRateX,rotationRateY,rotationRateZ,gravityX,gravityY,gravityZ,accelerationX,accelerationY,accelerationZ,quaternionW,quaternionX,quaternionY,quaternionZ
1681569288523695400,0.0686953125,0.1513628214597702,0.1165262758731842,-0.11629633605480194,0.26947203278541565,0.01084241271018982,-0.9629471898078918,-0.01895320415496826,-0.07027539610862732,-0.039646804332733154,0.9906935692358939,-0.005472132433926266,0.1360017049373602,1.019520619050798e-17
1681569288533695500,0.078695556640625,0.18273378908634186,0.10980258882045746,-0.100656658411026,0.2705468237400055,0.009443522430956364,-0.9626604914665222,-0.01375669240951538,-0.06275773048400879,-0.03843808174133301,0.9906209534167285,-0.004677125231923436,0.1365572217968779,-0.0006481026100415524
1681569288543694600,0.088694580078125,0.205823615193367,0.09245416522026062,-0.07640904188156128,0.27150213718414307,0.007761604618281126,-0.9624065160751343,-0.004671692848205566,-0.04462683945894241,-0.03795963525772095,0.9905563065000478,-0.0037495832522559443,0.1370498844210981,-0.0012158279841666551
1681569288553694500,0.098694580078125,0.20118919014930725,0.07180055230855942,-0.060205839574337006,0.27223438024520874,0.006029954180121422,-0.962212085723877,0.00810009241104126,-0.03558623045682907,-0.04019880294799805,0.9905064681676334,-0.0028077967090549476,0.1374266357286657,-0.0017015353023561856
1681569288563695000,0.108695068359375,0.1746167093515396,0.04473850503563881,-0.03755825012922287,0.2726878225803375,0.004314338322728872,-0.9620928764343262,0.014253675937652588,-0.03913489356637001,-0.04132503271102905,0.9904758385175768,-0.0018895220566219908,0.1376589223508653,-0.002075006686058654
1681569288573695200,0.1186953125,0.13296326994895935,0.023782355710864067,-0.01595442183315754,0.27289092540740967,0.002762407064437866,-0.9620410203933716,0.016797125339508057,-0.049454301595687866,-0.03837096691131592,0.9904648536401088,-0.0013945002466561837,0.13775901700351179,-4.083906489460055e-18
1681569288583694300,0.1286943359375,0.08086181432008743,0.002851974219083786,0.009325968101620674,0.2729230225086212,0.0015467579942196608,-0.9620346426963806,0.02047288417816162,-0.06386364996433258,-0.026658594608306885,0.990463298009582,-0.0007694298090784034,0.1377755049175477,-0.00008192328908082932
1681569288593694200,0.138694091796875,0.02662893384695053,-0.011356789618730545,0.03146136552095413,0.27282240986824036,0.0007726318435743451,-0.9620640873908997,0.02087867259979248,-0.0737706795334816,-0.012209594249725342,0.9904706836289108,-0.0003896905348939723,0.1377236245422817,-0.000002460458761566344
1681569288603694000,0.148694091796875,-0.0144393565133214,-0.024251217022538185,0.057248689234256744,0.27259331941604614,0.0004302143061067909,-0.9621292352676392,0.020375370979309082,-0.07249747216701508,0.00369417667388916,0.9904871288870435,-0.00024867646689291265,0.13760562182713515,0.00022676171840439242
1681569288613694200,0.158694091796875,-0.030932312831282616,-0.03856224566698074,0.08770592510700226,0.27222657203674316,0.0002684809733182192,-0.9622331261634827,0.01993340253829956,-0.06961967796087265,0.016844332218170166,0.9905132214281718,-0.0002203114675887147,0.13741679632715856,0.0006111402829442308
1681569288623693300,0.168693359375,-0.032437749207019806,-0.053799185901880264,0.10846014320850372,0.27175453305244446,0.00018884144083131105,-0.9623665809631348,0.01828444004058838,-0.06435205042362213,0.022989749908447266,0.9905463059722474,-0.00025080094867655005,0.13717378983507747,0.001122730762121419
1681569288633693200,0.178693115234375,-0.016776230186223984,-0.058081287890672684,0.1332501769065857,0.2712184488773346,-0.000025191982786054723,-0.9625177979469299,0.02274206280708313,-0.0454002246260643,0.02904611825942993,0.9905836535991783,-0.00022884724540606053,0.1368978961572713,0.0017479328675098806
1681569288643693300,0.188693359375,-0.020806843414902687,-0.06070217117667198,0.15724799036979675,0.27064549922943115,-0.00040451038512401283,-0.9626789689064026,0.024428874254226685,-0.031165923923254013,0.03965955972671509,0.9906227403128443,-0.00013988447696919182,0.13660337197846179,0.0024950184297483345
1681569288653693200,0.198693115234375,-0.03699619695544243,-0.06619787216186523,0.1719060242176056,0.27004170417785645,-0.0007235754164867103,-0.9628483653068542,0.02370515465736389,-0.024606015533208847,0.04588669538497925,0.9906629274216024,-0.00009435135860352157,0.13629311857790075,0.003340286806417969
1681569288663692300,0.2086923828125,-0.06141475588083267,-0.0667162537574768,0.19095176458358765,0.2694208025932312,-0.0009294113842770457,-0.9630221128463745,0.026843756437301636,-0.023499907925724983,0.05529201030731201,0.9907031347252929,-0.00011893679398411562,0.13597402738197967,0.004284176518972107
1681569288673692200,0.218692138671875,-0.10496515780687332,-0.06255292892456055,0.20408327877521515,0.26882293820381165,-0.0008531440980732441,-0.9631892442703247,0.03258383274078369,-0.028413213789463043,0.05797684192657471,0.9907403202527928,-0.000298691218663901,0.13566610997581802,0.005325556103253115
1681569288683692300,0.2286923828125,-0.1505620926618576,-0.05982685461640358,0.21240398287773132,0.26825904846191406,-0.00034944131039083004,-0.9633467197418213,0.03853410482406616,-0.025727828964591026,0.06435990333557129,0.990773231622332,-0.000705849569549172,0.1353740334566481,0.006456611317097216
1681569288693692200,0.238692138671875,-0.19870325922966003,-0.05902523919939995,0.21786266565322876,0.26772767305374146,0.0006039768340997398,-0.9634944200515747,0.04403984546661377,-0.029382051900029182,0.07135879993438721,0.9908021541263128,-0.001347858899320315,0.13509612214281697,0.007649909233137493
1681569288703691300,0.248691162109375,-0.2493729442358017,-0.05170720815658569,0.22232912480831146,0.2672467827796936,0.002032496267929673,-0.963625967502594,0.04917466640472412,-0.03245852142572403,0.074526846408844,0.9908247956586226,-0.002237287956011934,0.1348406657853323,0.008903191736973872
1681569288713691100,0.258691162109375,-0.28247761726379395,-0.040957093238830566,0.222999706864357,0.26684898138046265,0.003895909059792757,-0.9637304544448853,0.05350923538208008,-0.02765384130179882,0.07830870151519775,0.9908386673246421,-0.003351063620085753,0.13462365830751674,0.010194410477441344
1681569288723691300,0.268691162109375,-0.285617470741272,-0.03161272406578064,0.22591041028499603,0.2665718197822571,0.005949519108980894,-0.9637966752052307,0.054732441902160645,-0.024717826396226883,0.08008390665054321,0.9908411051947303,-0.004563780798767475,0.13446494418637014,0.011506508419088022
1681569288733691100,0.278691162109375,-0.28753572702407837,-0.01862182654440403,0.2277647703886032,0.2663920819759369,0.008038287051022053,-0.9638312458992004,0.05733829736709595,-0.018719438463449478,0.07840943336486816,0.9908334381364271,-0.005796997671771866,0.13435318529491427,0.012837177465385072
1681569288743690200,0.288690185546875,-0.2946251332759857,-0.0032679704017937183,0.21610231697559357,0.2663516402244568,0.010180284269154072,-0.9638221859931946,0.05637168884277344,-0.009203718043863773,0.0790717601776123,0.990813478211604,-0.007053268757120712,0.13430996761047542,0.01413395759910281
1681569288753690400,0.2986904296875,-0.31563615798950195,0.0161102544516325,0.20720016956329346,0.26648780703544617,0.012502525933086872,-0.9637572169303894,0.05290910601615906,-0.0047358013689517975,0.08285200595855713,0.9907784936503966,-0.008396089146156345,0.13435364808946348,0.015387759639417384
1681569288763690200,0.308690185546875,-0.33725571632385254,0.03789298236370087,0.19771671295166016,0.2668060064315796,0.015056728385388851,-0.9636326432228088,0.05062249302864075,-0.016094323247671127,0.08570295572280884,0.990727245182656,-0.009853413602164051,0.13448640551578345,0.01660897241399554
1681569288773690000,0.318690185546875,-0.3531950116157532,0.06839203834533691,0.18434365093708038,0.26736485958099365,0.017873473465442657,-0.9634295701980591,0.046325236558914185,-0.02962273731827736,0.08792603015899658,0.990655663223528,-0.011439955175431902,0.13473801162537505,0.01778503158738895
1681569288783689200,0.328689208984375,-0.35844501852989197,0.09970215708017349,0.17524029314517975,0.2682134807109833,0.02084009349346161,-0.9631340503692627,0.04160091280937195,-0.03297082707285881,0.0813896656036377,0.9905602811907295,-0.013098630521797014,0.13513472379756936,0.018906586349548282
1681569288793689300,0.338689453125,-0.3571659028530121,0.12783072888851166,0.16944685578346252,0.26934313774108887,0.0238164272159338,-0.962749719619751,0.04024234414100647,-0.03455860912799835,0.06898140907287598,0.9904419279644104,-0.014761905365363325,0.1356732047408514,0.01999360365296386
1681569288803689200,0.348689208984375,-0.3505154550075531,0.15554624795913696,0.15714065730571747,0.27075329422950745,0.02677994593977928,-0.9622762203216553,0.03948834538459778,-0.03805618733167648,0.06293845176696777,0.9903009580924501,-0.016416757363670296,0.13635389546311283,0.02103025954582809
1681569288813689300,0.358689453125,-0.3259548842906952,0.18445985019207,0.1472681313753128,0.2724287509918213,0.029623817652463913,-0.961719810962677,0.039140403270721436,-0.035376377403736115,0.0625956654548645,0.990139373628822,-0.01800729625461823,0.13717079746926483,0.02200048387845805
1681569288823688200,0.368688232421875,-0.3042846620082855,0.21112015843391418,0.14138181507587433,0.2743837535381317,0.032251738011837006,-0.9610792994499207,0.03723117709159851,-0.03913344815373421,0.05891859531402588,0.9899569070873253,-0.019486807650794996,0.1381326298999213,0.02291443130822815
1681569288833688300,0.378688232421875,-0.2846528887748718,0.2357189655303955,0.13561660051345825,0.27658379077911377,0.03471265360713005,-0.9603626728057861,0.030285656452178955,-0.040343139320611954,0.05482983589172363,0.9897553793731115,-0.020881726188088454,0.13922147467589094,0.02378566045348753
1681569288843688200,0.388688232421875,-0.2695215046405792,0.2508865296840668,0.1333930492401123,0.2789881229400635,0.03698280453681946,-0.9595821499824524,0.023441016674041748,-0.03881385549902916,0.05279809236526489,0.9895378854457885,-0.022179679605597497,0.1404171895406925,0.024614015022207544
1681569288853688300,0.398688232421875,-0.25418728590011597,0.27049779891967773,0.13112643361091614,0.2815404534339905,0.039154715836048126,-0.9587501883506775,0.01713496446609497,-0.051071830093860626,0.04508441686630249,0.9893073293568323,-0.02342956235647165,0.14168970545513696,0.025419482863035782
1681569288863687200,0.408687255859375,-0.1916382759809494,0.27588769793510437,0.13461019098758698,0.28422579169273376,0.04092644155025482,-0.9578834772109985,0.01524314284324646,-0.05301139876246452,0.03118664026260376,0.9890679938717324,-0.024477991360543065,0.1430352969671878,0.026197563446593564
1681569288873687300,0.418687255859375,-0.1454944759607315,0.2846479117870331,0.13845260441303253,0.2869628667831421,0.04216836765408516,-0.9570131301879883,0.018075525760650635,-0.05127785727381706,0.01756000518798828,0.9888272049366863,-0.025260954090721183,0.1444137031639483,0.026967905673645737
1681569288883687200,0.428687255859375,-0.1082901582121849,0.29618191719055176,0.13578158617019653,0.28979554772377014,0.0429520346224308,-0.9561243057250977,0.010375291109085083,-0.047346558421850204,0.00820249319076538,0.9885825478080364,-0.025809215461716484,0.1458483391220388,0.027689880647704748
1681569288893687300,0.438687255859375,-0.10661342740058899,0.31323787569999695,0.1314326375722885,0.29275602102279663,0.04357462376356125,-0.9551937580108643,-0.0011606216430664062,-0.04423074424266815,0.012887239456176758,0.9883275563286806,-0.026276198898437287,0.1473521892211339,0.028382197125984426
1681569288903686400,0.448686279296875,-0.1310802847146988,0.3191833794116974,0.12550629675388336,0.29581907391548157,0.044323794543743134,-0.9542151093482971,-0.019848674535751343,-0.06531988084316254,0.01337343454360962,0.9880600896157968,-0.02680998037112567,0.14890825867508886,0.029064701403848477
1681569288913686300,0.458686279296875,-0.16943272948265076,0.3259563148021698,0.11777567863464355,0.29894381761550903,0.04538831487298012,-0.9531906843185425,-0.03592813014984131,-0.08635815232992172,0.0075272321701049805,0.9877811500682068,-0.027504409208854323,0.15049304726367574,0.029730146367227192
1681569288923686100,0.46868603515625,-0.15660487115383148,0.3353119492530823,0.11753419786691666,0.30214089155197144,0.04663842171430588,-0.9521217346191406,-0.04087996482849121,-0.10382835566997528,-0.00399404764175415,0.9874903669680133,-0.02829634292582401,0.15211332127440091,0.03039283811231875
1681569288933686300,0.478686279296875,-0.10279276967048645,0.34473365545272827,0.12449143826961517,0.3054271340370178,0.0475013330578804,-0.951029896736145,-0.051704078912734985,-0.1136481761932373,-0.01158607006072998,0.9871931906409875,-0.02889714737749978,0.15378556409489297,0.031058838986757195
1681569288943685400,0.488685302734375,0.0067704240791499615,0.3689587712287903,0.10485868155956268,0.3088821768760681,0.04760820046067238,-0.9499080181121826,-0.08106851577758789,-0.09178239107131958,-0.021771669387817383,0.9868912915288451,-0.029103781819811478,0.15556013932351948,0.03161586316835437
1681569288953685200,0.498685302734375,0.17800235748291016,0.3804705739021301,0.07387333363294601,0.3125014305114746,0.04651588946580887,-0.9487777352333069,-0.12738186120986938,-0.04718726873397827,-0.01792764663696289,0.9865948226170977,-0.028669808224490518,0.15744582512373145,0.03193186808843299
1681569288963685400,0.508685302734375,0.34209176898002625,0.387766569852829,0.02686934359371662,0.3161620497703552,0.04387355223298073,-0.9476901888847351,-0.1902008354663849,-0.02618860825896263,-0.04027062654495239,0.9863193265769474,-0.02740057034485055,0.15938669484110382,0.03192824076616371
1681569288973684500,0.5186845703125,0.45184382796287537,0.3657877743244171,-0.036290720105171204,0.31975191831588745,0.04006402567028999,-0.9466539025306702,-0.22502544522285461,0.002752140164375305,-0.10153335332870483,0.9860694955639399,-0.02547267237624342,0.1613201739238653,0.03152619985418171
1681569288983683600,0.52868359375,0.46285468339920044,0.32684022188186646,-0.10199609398841858,0.32300400733947754,0.03588710352778435,-0.945716917514801,-0.23168021440505981,0.01823582872748375,-0.14784997701644897,0.9858557676556566,-0.023291864480401724,0.16309205165857893,0.03077321490897278
1681569288993683500,0.538683349609375,0.3891346752643585,0.2655715346336365,-0.16047590970993042,0.32577425241470337,0.03228650242090225,-0.9448961615562439,-0.23149028420448303,-0.017348144203424454,-0.1912580132484436,0.9856793217717773,-0.021344475966737386,0.16460966146778017,0.02974040094239352
1681569289003683600,0.54868359375,0.32589420676231384,0.1934562772512436,-0.19004707038402557,0.32788097858428955,0.0294803399592638,-0.9442589282989502,-0.23065203428268433,-0.060791365802288055,-0.2120521068572998,0.9855528610125079,-0.019758545523129445,0.16577129224514137,0.028550906582591767
1681569289013683500,0.558683349609375,0.23542875051498413,0.14040078222751617,-0.23560309410095215,0.3293910026550293,0.027544161304831505,-0.9437917470932007,-0.23222309350967407,-0.10655416548252106,-0.20656836032867432,0.9854707131048357,-0.018585156030185117,0.16660944211392884,0.027267640675922574
1681569289023683600,0.56868359375,0.20575980842113495,0.09180102497339249,-0.26679882407188416,0.3304147720336914,0.026335319504141808,-0.9434683322906494,-0.23724466562271118,-0.13688524067401886,-0.18162322044372559,0.9854276625899557,-0.01774290398822763,0.16718555422618436,0.025819747994818374
1681569289033682700,0.5786826171875,0.200563445687294,0.06841367483139038,-0.2926703691482544,0.3310856223106384,0.025347447022795677,-0.9432602524757385,-0.2537388801574707,-0.14929458498954773,-0.14180755615234375,0.9854142460704474,-0.016988754059766013,0.16757466968244386,0.024271188051714264
1681569289043682600,0.5886826171875,0.23675133287906647,0.04716378077864647,-0.32586079835891724,0.3315541744232178,0.02435358799993992,-0.9431217908859253,-0.27135831117630005,-0.14254815876483917,-0.12119400501251221,0.985419706119874,-0.016200342524362456,0.16785900294278874,0.022562640959150504
1681569289053682700,0.5986826171875,0.3147324323654175,0.0341196171939373,-0.34827476739883423,0.331847608089447,0.02290182374417782,-0.9430549740791321,-0.2869410514831543,-0.13522176444530487,-0.11349409818649292,0.9854440515935506,-0.015146765238452039,0.16805680234722004,0.02067977815669415
1681569289063682600,0.6086826171875,0.4013786315917969,0.021190566942095757,-0.37865111231803894,0.3320241868495941,0.02070818468928337,-0.9430435299873352,-0.2908560335636139,-0.12637528777122498,-0.1305038332939148,0.985482891940632,-0.013678154918230925,0.16819970034502693,0.01858204929575326
1681569289073681700,0.618681640625,0.48032909631729126,-0.00443276995792985,-0.39597445726394653,0.332059383392334,0.017850961536169052,-0.9430895447731018,-0.28863292932510376,-0.09066589921712875,-0.1580609679222107,0.9855349126181999,-0.011840279068973857,0.16827069314384557,0.016304250557653478
1681569289083681500,0.628681640625,0.550792396068573,-0.027103129774332047,-0.42227351665496826,0.3318520486354828,0.014318958856165409,-0.9432227611541748,-0.29719939827919006,-0.062002670019865036,-0.1801903247833252,0.98560601551091,-0.009630074895473333,0.1682137933728276,0.013863193394542313
1681569289093681700,0.638681640625,0.5843439698219299,-0.05177891254425049,-0.45117655396461487,0.33143261075019836,0.010378038510680199,-0.9434218406677246,-0.3009151220321655,-0.06366173177957535,-0.19329696893692017,0.9856899810103239,-0.007180139648456023,0.168040284570786,0.011237618773222305
1681569289103681500,0.648681640625,0.5520848631858826,-0.07955355942249298,-0.4844093322753906,0.3307771384716034,0.006536089815199375,-0.9436862468719482,-0.29926779866218567,-0.0603385828435421,-0.19555020332336426,0.9857847843759481,-0.004753994164000865,0.16773272887674984,0.008456132792052654
1681569289113680600,0.6586806640625,0.5505833625793457,-0.1110619455575943,-0.5117757320404053,0.3298567235469818,0.003052148036658764,-0.9440260529518127,-0.2965163290500641,-0.08245888352394104,-0.18973249197006226,0.9858915961090967,-0.002488706087236152,0.1672745351605684,0.005544899028225275
1681569289123680500,0.668680419921875,0.5764783024787903,-0.11950209736824036,-0.5268214344978333,0.32874321937561035,-0.0005493272910825908,-0.9444192051887512,-0.2894061207771301,-0.1265258640050888,-0.17235636711120605,0.9860036714891517,-0.00014666736054432731,0.16670449686496142,0.002515098314306189
1681569289133680600,0.6786806640625,0.6001812219619751,-0.11964112520217896,-0.5557771921157837,0.3276294469833374,-0.004339232575148344,-0.9447963237762451,-0.2807239890098572,-0.12993811070919037,-0.14999127388000488,0.9861023143454126,0.0023090783089600507,0.16612194338522643,-0.0006463396678005377
1681569289143680500,0.688680419921875,0.6597710847854614,-0.13822418451309204,-0.5857469439506531,0.32645758986473083,-0.00839096587151289,-0.9451746344566345,-0.2774922251701355,-0.10191482305526733,-0.10972648859024048,0.9861903935699795,0.0049234353046142465,0.16549456947111502,-0.0039878153317944795
1681569289153679600,0.6986796875,0.7444953322410583,-0.15848924219608307,-0.6028162240982056,0.3251343071460724,-0.01304312702268362,-0.9455779194831848,-0.27899181842803955,-0.1105988398194313,-0.09174507856369019,0.9862722147007522,0.007864898644148795,0.16477011246192536,-0.007497520379143063
1681569289163679500,0.708679443359375,0.8520166873931885,-0.1999756395816803,-0.6068464517593384,0.3235524296760559,-0.018647005781531334,-0.9460265040397644,-0.26707974076271057,-0.11451645195484161,-0.1164582371711731,0.9863513923914135,0.01130471501933391,0.16388701990976548,-0.011147426192306917
1681569289173679600,0.7186796875,0.8902658224105835,-0.2521943747997284,-0.6153896450996399,0.32156646251678467,-0.024935251101851463,-0.9465586543083191,-0.25125405192375183,-0.09513616561889648,-0.1465504765510559,0.9864369576440145,0.015095577319188931,0.16276608993625635,-0.014887681419218214
1681569289183679500,0.728679443359375,0.88328617811203,-0.33390986919403076,-0.6138991713523865,0.3189650774002075,-0.03140653669834137,-0.9472459554672241,-0.2303726077079773,-0.09081636369228363,-0.16795790195465088,0.9865466242544494,0.018970653418011477,0.16129827195339688,-0.018674502788237665
1681569289193678600,0.7386787109375,0.8439640402793884,-0.41696295142173767,-0.6088090538978577,0.3156205415725708,-0.03765270859003067,-0.9481381177902222,-0.19664782285690308,-0.09943225979804993,-0.16981232166290283,0.986694675010261,0.02270278144814748,0.15942242617840346,-0.02242068480224505
1681569289203678700,0.7486787109375,0.8087723851203918,-0.4942995011806488,-0.5849941372871399,0.31152012944221497,-0.04360910505056381,-0.9492383599281311,-0.16407454013824463,-0.12381033599376678,-0.1343035101890564,0.9868834039317633,0.026247332386747944,0.15713657085961855,-0.02608242999919806
1681569289213678600,0.7586787109375,0.7647215127944946,-0.5405780076980591,-0.5779319405555725,0.3068644106388092,-0.04930175840854645,-0.9504754543304443,-0.15629076957702637,-0.15025268495082855,-0.08564209938049316,0.9870966907936043,0.029612298704023345,0.1545489856283075,-0.02963023076937201
1681569289223678500,0.768678466796875,0.7389019727706909,-0.5682620406150818,-0.5906001329421997,0.3018905818462372,-0.05464271083474159,-0.951775312423706,-0.16202858090400696,-0.1596059501171112,-0.040915727615356445,0.9873132470287564,0.0327722301963968,0.151783787326063,-0.03317285574407845
1681569289233677600,0.778677490234375,0.7698559165000916,-0.5964611768722534,-0.5857835412025452,0.2966858148574829,-0.06006643921136856,-0.9530842304229736,-0.18372505903244019,-0.17038705945014954,-0.010523557662963867,0.9875176138250654,0.03595438138592662,0.14887970063936065,-0.03675696220370868
1681569289243677700,0.788677734375,0.8114606738090515,-0.6256177425384521,-0.583997368812561,0.29124516248703003,-0.06590158492326736,-0.9543758630752563,-0.2107398808002472,-0.18551748991012573,-0.026001393795013428,0.9877046138108342,0.03931744215828425,0.14582942454896838,-0.04034321752052383
1681569289253677600,0.798677490234375,0.8683162331581116,-0.6668498516082764,-0.5823680758476257,0.2854847013950348,-0.07220077514648438,-0.9556597471237183,-0.21271559596061707,-0.17308427393436432,-0.05561649799346924,0.98787533828182,0.042888186800906385,0.14258587905003764,-0.04395804240907703
1681569289263677700,0.808677734375,0.9302454590797424,-0.7122745513916016,-0.5708070397377014,0.2793087065219879,-0.07917865365743637,-0.9569312334060669,-0.1955074965953827,-0.16580122709274292,-0.059960246086120605,0.9880284611128584,0.04676973675741095,0.13909338884500433,-0.047597552833172296
1681569289273676500,0.818676513671875,1.0149003267288208,-0.758715808391571,-0.5398669838905334,0.2727252244949341,-0.08698415756225586,-0.9581516981124878,-0.17107123136520386,-0.17265941202640533,-0.07518875598907471,0.988157355839068,0.051025767610621955,0.13535328403720678,-0.051194976987780805
1681569289283676700,0.8286767578125,1.05510675907135,-0.7869043350219727,-0.5208690166473389,0.2657931447029114,-0.0955231711268425,-0.9592858552932739,-0.15184056758880615,-0.1524321734905243,-0.06555545330047607,0.9882557828931382,0.055603863226723824,0.13139743335929066,-0.05471379722337381
1681569289293676500,0.838676513671875,1.060715913772583,-0.8098568320274353,-0.5013599991798401,0.2586306035518646,-0.10431500524282455,-0.9603273272514343,-0.1472262442111969,-0.13997822999954224,-0.034301578998565674,0.9883224195155874,0.06026469271252282,0.1272968929646898,-0.05815887699454069
1681569289303676700,0.8486767578125,1.052142858505249,-0.8133930563926697,-0.4717296063899994,0.2513221800327301,-0.11322882771492004,-0.9612576961517334,-0.15426111221313477,-0.14606380462646484,0.0057981014251708984,0.98835653972333,0.06493927785496356,0.12310171879324064,-0.06148367580314108
1681569289313675500,0.858675537109375,1.0160436630249023,-0.8077329993247986,-0.455358624458313,0.24409177899360657,-0.12205853313207626,-0.9620400071144104,-0.16483770310878754,-0.14283405244350433,0.0362282395362854,0.9883507399585325,0.06953127615871843,0.11893448986148815,-0.06467442748500986
1681569289323675600,0.868675537109375,0.9704686999320984,-0.8109915256500244,-0.43698081374168396,0.2368735820055008,-0.1305181235074997,-0.9627335667610168,-0.17042161524295807,-0.1348169893026352,0.053096115589141846,0.988319959457942,0.0738983144101697,0.11477042969192872,-0.06775367853779105
1681569289333675500,0.878675537109375,0.8875565528869629,-0.8137114644050598,-0.41795092821121216,0.22962196171283722,-0.13850387930870056,-0.9633744955062866,-0.162086620926857,-0.15461747348308563,0.06351792812347412,0.988275809575486,0.07798510969735094,0.11059416596257565,-0.07069861762275458
1681569289343675600,0.888675537109375,0.7750275135040283,-0.8208677172660828,-0.40185412764549255,0.22233536839485168,-0.14561618864536285,-0.9640347361564636,-0.13827477395534515,-0.16200101375579834,0.05499237775802612,0.9882380264162829,0.0815903297076154,0.10642210662277511,-0.07350517169004432
1681569289353674800,0.8986748046875,0.6470117568969727,-0.8287847638130188,-0.378735214471817,0.21495421230793,-0.1516215205192566,-0.9647826552391052,-0.11532963812351227,-0.1598714292049408,0.058578431606292725,0.9882267397738749,0.08459250246351402,0.10223879584702499,-0.07615324017276615
1681569289363674600,0.908674560546875,0.5298541784286499,-0.8401764631271362,-0.35267940163612366,0.20747235417366028,-0.1565125286579132,-0.9656391739845276,-0.10021840035915375,-0.1656462848186493,0.07090961933135986,0.9882513221827757,0.08698567534125695,0.09805046638324831,-0.07860688690622132
1681569289373674800,0.9186748046875,0.5084543228149414,-0.8515071272850037,-0.32218673825263977,0.1998409628868103,-0.1608208864927292,-0.9665403366088867,-0.07883882522583008,-0.1517401784658432,0.08767986297607422,0.988294062176076,0.0890425368644504,0.09381500176852069,-0.08090143695779027
1681569289383674600,0.928674560546875,0.5065198540687561,-0.8485641479492188,-0.3030472993850708,0.19210290908813477,-0.16509410738945007,-0.9673884510993958,-0.06507356464862823,-0.13107901811599731,0.10145217180252075,0.9883298064845463,0.0910460898930391,0.08953425473527805,-0.08305775453567596
1681569289393673700,0.938673828125,0.49897217750549316,-0.8468804955482483,-0.2943837642669678,0.18442952632904053,-0.1694476157426834,-0.9681287407875061,-0.0474361926317215,-0.09315617382526398,0.1107526421546936,0.9883396138533979,0.09307045050259694,0.08528493351451025,-0.08514289378121499
1681569289403673600,0.948673583984375,0.4632037580013275,-0.853381872177124,-0.2910992205142975,0.17670193314552307,-0.17353790998458862,-0.9688451886177063,-0.03551243245601654,-0.061783164739608765,0.1419256329536438,0.9883417316583729,0.09494020306933533,0.08101701952223311,-0.08719662235677281
1681569289413673700,0.958673828125,0.44684478640556335,-0.8708343505859375,-0.2803714871406555,0.16884736716747284,-0.17747831344604492,-0.9695318341255188,-0.030953779816627502,-0.07716037333011627,0.15491092205047607,0.9883362614937589,0.09670833947556691,0.0766913900507613,-0.089204295567698
1681569289423673600,0.968673583984375,0.401470422744751,-0.8811197876930237,-0.2747074067592621,0.16084472835063934,-0.18115077912807465,-0.9702130556106567,-0.0038318634033203125,-0.09152381122112274,0.13563358783721924,0.9883306954956417,0.09831350145356231,0.0723043983413896,-0.0911543931755347
1681569289433673700,0.978673828125,0.3082882761955261,-0.8846831321716309,-0.2599028944969177,0.15274527668952942,-0.18419316411018372,-0.9709488749504089,0.026240229606628418,-0.07787655293941498,0.1508500576019287,0.9883409094854438,0.09957505421989292,0.06789962388115357,-0.0930420215817916
1681569289443672600,0.988672607421875,0.17860159277915955,-0.8713387846946716,-0.26757553219795227,0.14467716217041016,-0.18619240820407867,-0.9718029499053955,0.02141466736793518,-0.08600914478302002,0.1932079792022705,0.9883845905334842,0.10029049782800548,0.06356379101252208,-0.09485556728671211
1681569289453672700,0.998672607421875,0.05773721635341644,-0.8381344676017761,-0.2679752707481384,0.13685956597328186,-0.18692941963672638,-0.9727933406829834,0.00736643373966217,-0.11113579571247101,0.2288053035736084,0.9884612857800216,0.10036520418958986,0.059415172126474854,-0.09664890921131082
1681569289463672600,1.008672607421875,-0.007136852480471134,-0.7826557755470276,-0.2558336555957794,0.12945249676704407,-0.18675148487091064,-0.9738408327102661,-0.00831305980682373,-0.11431971192359924,0.2616978883743286,0.988557096306351,0.0999816367383517,0.055527151885050724,-0.09836298264185135
1681569289473672700,1.018672607421875,0.011555608361959457,-0.738396942615509,-0.21969856321811676,0.12247609347105026,-0.18648850917816162,-0.9747931361198425,-0.02935177832841873,-0.11894670128822327,0.28573673963546753,0.9886410418633973,0.09955926676040566,0.05187856525434893,-0.09992808099267472
1681569289483671600,1.028671630859375,0.018132485449314117,-0.6620520949363708,-0.19176839292049408,0.11601266264915466,-0.18643125891685486,-0.9755944013595581,-0.05313126742839813,-0.11462467908859253,0.3028191328048706,0.9887056253010871,0.09924906140546877,0.048501736739976334,-0.10128451610183463
1681569289493671700,1.038671630859375,-0.02596466802060604,-0.5864060521125793,-0.17521364986896515,0.11026871204376221,-0.18621394038200378,-0.9763017892837524,-0.06800194084644318,-0.0852552056312561,0.32699453830718994,0.9887581541053521,0.09888377303370555,0.045509394102153974,-0.10250994472090505
1681569289503671600,1.048671630859375,-0.11121749877929688,-0.49829787015914917,-0.14686502516269684,0.10527762025594711,-0.18537744879722595,-0.9770116806030273,-0.08150450140237808,-0.07982033491134644,0.35425472259521484,0.9888286741172041,0.09823342684838701,0.04294591543755554,-0.10355597390469691
1681569289513671700,1.058671630859375,-0.24275155365467072,-0.4193519353866577,-0.09859044849872589,0.10101920366287231,-0.18359705805778503,-0.9777971506118774,-0.08031310886144638,-0.09518104791641235,0.35378897190093994,0.9889426845857269,0.09713298228003847,0.04082417469715403,-0.10436036525735182
1681569289523670800,1.0686708984375,-0.46179434657096863,-0.34303444623947144,-0.03700091689825058,0.09740900248289108,-0.1801488846540451,-0.9788042902946472,-0.06527407467365265,-0.09550115466117859,0.328291654586792,0.989149155525558,0.09521106366405298,0.03914970972328425,-0.10481553683668329
1681569289533670700,1.078670654296875,-0.8100255727767944,-0.25800344347953796,0.02510666288435459,0.09444934129714966,-0.17399932444095612,-0.9802058935165405,-0.033078573644161224,-0.09168674051761627,0.3010066747665405,0.9894978145719251,0.09194829867314483,0.03798119601770703,-0.10486719990881826
1681569289543670500,1.08867041015625,-1.2941009998321533,-0.14833155274391174,0.09586338698863983,0.09232348203659058,-0.16381871700286865,-0.9821608066558838,0.0031201690435409546,-0.11740079522132874,0.3131544589996338,0.9900347520147287,0.0866883416040595,0.037479850573975536,-0.1044590924824793
1681569289553670700,1.098670654296875,-1.9164702892303467,0.0005537993274629116,0.17095308005809784,0.09137476980686188,-0.14819444715976715,-0.9847279191017151,0.015818148851394653,-0.15849198400974274,0.3600483536720276,0.9907799356268876,0.07874550259219269,0.03788390915962558,-0.10353309963046822
1681569289563669800,1.108669677734375,-2.5984983444213867,0.1769426167011261,0.26483675837516785,0.09193067252635956,-0.12615589797496796,-0.9877415895462036,0.015720009803771973,-0.18892286717891693,0.4288426637649536,0.991698757474262,0.0676575604454659,0.03939112614775715,-0.10200196986617122
1681569289573669600,1.118669677734375,-3.2868645191192627,0.3717235326766968,0.3926312029361725,0.09426593035459518,-0.09733693301677704,-0.9907771944999695,0.01454441249370575,-0.21595653891563416,0.5106136202812195,0.9926976054883712,0.05325781805012651,0.0421308188116472,-0.0996999905395569
1681569289583669800,1.128669677734375,-3.9279017448425293,0.593330442905426,0.5586138367652893,0.09868137538433075,-0.06196996569633484,-0.993187665939331,0.03074359893798828,-0.22103482484817505,0.579369306564331,0.9936252184009399,0.035667875869798665,0.04619499504772355,-0.09645024416091938
1681569289593669600,1.138669677734375,-4.4734954833984375,0.814127504825592,0.7633813619613647,0.10541443526744843,-0.020829904824495316,-0.9942101836204529,0.06362234801054001,-0.21331623196601868,0.6387261748313904,0.9942992927758187,0.015251656972184027,0.0515973796603952,-0.09205426695577114
1681569289603668700,1.148668701171875,-4.921783447265625,1.0195295810699463,0.968861997127533,0.11455672979354858,0.024973511695861816,-0.9931027293205261,0.10407111793756485,-0.182627335190773,0.6856687068939209,0.9945252766842722,-0.007493441424323894,0.05824492687848451,-0.08643394691202615
1681569289613668600,1.158668701171875,-5.309066295623779,1.2075345516204834,1.1437629461288452,0.12613122165203094,0.07441896200180054,-0.9892182350158691,0.16316008567810059,-0.13891786336898804,0.7009491920471191,0.9941123308840815,-0.0321382083689802,0.06601525449020583,-0.07968601292347714
1681569289623668700,1.168668701171875,-5.582938194274902,1.3916970491409302,1.2925693988800049,0.1401790827512741,0.1266096979379654,-0.9819978475570679,0.2581973075866699,-0.1075209528207779,0.6855653524398804,0.9928812988405752,-0.05833195829284017,0.07482278296707598,-0.07201198042761145
1681569289633668600,1.178668701171875,-5.771938323974609,1.648422360420227,1.463974118232727,0.15706489980220795,0.17997772991657257,-0.9710502624511719,0.3655790686607361,-0.07211335003376007,0.6684989929199219,0.9907056875100336,-0.08540487640718171,0.08474001228038461,-0.06346195249890713
1681569289643667700,1.188667724609375,-5.928475379943848,1.9313098192214966,1.64870285987854,0.17751608788967133,0.23386162519454956,-0.9559271931648254,0.4421280026435852,-0.028081580996513367,0.6363776326179504,0.9874438893657375,-0.11316156587857125,0.09607740537615142,-0.05402012146116505
1681569289653667600,1.19866748046875,-6.009085178375244,2.247166395187378,1.9086103439331055,0.2018682211637497,0.2869967818260193,-0.9364198446273804,0.48502135276794434,0.014806807041168213,0.6161073446273804,0.9830125049771387,-0.1411523148521378,0.1089316744529968,-0.04354933851137353
1681569289663667700,1.208667724609375,-6.139623165130615,2.5890862941741943,2.192791223526001,0.23066535592079163,0.338672012090683,-0.9121922850608826,0.5230271816253662,0.032681167125701904,0.6000279784202576,0.9772827681082603,-0.16924617535599262,0.12352971283947929,-0.03185170233614094
1681569289673667600,1.21866748046875,-6.345591068267822,2.9188034534454346,2.4759998321533203,0.2638883888721466,0.38889065384864807,-0.882681667804718,0.5709809064865112,0.025248169898986816,0.584555447101593,0.9700427088015947,-0.1977223253098015,0.1398750867544152,-0.018918510035561536
1681569289683667700,1.228667724609375,-6.730372428894043,3.2383458614349365,2.767277479171753,0.30140307545661926,0.43793103098869324,-0.8469785451889038,0.5811194181442261,-0.05617135763168335,0.6173337697982788,0.9609721375016745,-0.22708861439569905,0.15792876186413646,-0.004683640799022028
1681569289693666800,1.238666748046875,-7.109567165374756,3.4607465267181396,3.0669000148773193,0.34258437156677246,0.485737144947052,-0.8041737079620361,0.5767423510551453,-0.18475747108459473,0.6347706317901611,0.9497189234903233,-0.25777985677886905,0.17737721891333144,0.01099262474519982
1681569289703666700,1.248666748046875,-7.382944107055664,3.57061767578125,3.3894684314727783,0.3864801824092865,0.5305400490760803,-0.7544271349906921,0.6031590104103088,-0.2556224465370178,0.6246359348297119,0.9361722732067902,-0.2893103369158548,0.19770169077305919,0.02819551074393482
1681569289713666600,1.25866650390625,-7.498425483703613,3.5366649627685547,3.7194974422454834,0.43196094036102295,0.5701732635498047,-0.6987934708595276,0.6938782930374146,-0.2552165389060974,0.5684680938720703,0.9204279264443278,-0.3208788622516144,0.21826595877842392,0.04700335577005014
1681569289723666700,1.268666748046875,-7.4330220222473145,3.3847427368164062,4.033380031585693,0.47793298959732056,0.6025465130805969,-0.6391539573669434,0.8263119459152222,-0.17845892906188965,0.47103261947631836,0.902792560797495,-0.35151467078707815,0.2384542995318197,0.06739896141462377
1681569289733665500,1.27866552734375,-7.197821617126465,3.1874642372131348,4.293333053588867,0.523567259311676,0.6262519359588623,-0.5776553750038147,0.9563825726509094,-0.0757300853729248,0.325809121131897,0.8836823292144966,-0.380337246241099,0.25790673715006124,0.08906834233148467
1681569289743665700,1.288665771484375,-6.852466106414795,2.9271302223205566,4.518581390380859,0.5682893395423889,0.6406401991844177,-0.5163598656654358,1.0527892112731934,0.03627026081085205,0.11261230707168579,0.8635414545011292,-0.4066946839941674,0.2764407765892443,0.1116970280482528
1681569289753665800,1.298665771484375,-6.274097919464111,2.659632921218872,4.663448810577393,0.6114771962165833,0.6455891728401184,-0.45750439167022705,1.122958779335022,0.14351916313171387,-0.12828052043914795,0.8429544381413973,-0.4299471198993234,0.2939273300578032,0.13483346415727693
1681569289763665700,1.308665771484375,-5.527756214141846,2.391251802444458,4.794775009155273,0.652831494808197,0.641095757484436,-0.4034940004348755,1.1788182258605957,0.25137561559677124,-0.354547381401062,0.8226901609529723,-0.4492332019514938,0.3105519689595386,0.15788613456787295
1681569289773664500,1.31866455078125,-4.740757465362549,2.1504294872283936,4.881150722503662,0.6921932101249695,0.6280114054679871,-0.3556268513202667,1.1994845867156982,0.39510577917099,-0.5518133640289307,0.803249929271051,-0.46431273267225026,0.3264969479611671,0.18056356712123162
1681569289783664400,1.328664306640625,-4.079673767089844,1.9507009983062744,4.861814022064209,0.7292336225509644,0.6080604791641235,-0.31381654739379883,1.1443320512771606,0.39868396520614624,-0.6434588432312012,0.7848065549851114,-0.47559528655287914,0.34190767168494046,0.20245245447766347
1681569289793664800,1.338664794921875,-3.498199224472046,1.783598780632019,4.781355857849121,0.7634864449501038,0.5832400918006897,-0.2773440480232239,1.048922061920166,0.27637916803359985,-0.6145931482315063,0.7673361844746172,-0.4838440243683754,0.3566832398220676,0.22331010396112883
1681569289803664600,1.34866455078125,-2.951761245727539,1.6551742553710938,4.641885757446289,0.7948634624481201,0.5548737645149231,-0.24557556211948395,0.9782993793487549,0.21938782930374146,-0.5216363072395325,0.750864037566728,-0.4894859406627581,0.370965947590882,0.2428808133855335
1681569289813663500,1.35866357421875,-2.5318400859832764,1.4578044414520264,4.348561763763428,0.8227815628051758,0.5248228311538696,-0.21815532445907593,0.9794341325759888,0.1450381875038147,-0.40084800124168396,0.7355242994620266,-0.49312597761704824,0.384381458284744,0.2609249805251317
1681569289823663400,1.368663330078125,-2.094996690750122,1.1833497285842896,4.142698287963867,0.8471094369888306,0.49423521757125854,-0.1952880471944809,1.092130184173584,0.265377938747406,-0.3260284662246704,0.7215116982406434,-0.49507639838094064,0.3965543324441027,0.2776058719433465
1681569289833663500,1.37866357421875,-1.7004876136779785,0.8944422006607056,4.034816265106201,0.8685957789421082,0.46268200874328613,-0.1773889660835266,1.305415391921997,0.7401074171066284,-0.3063756823539734,0.708929820163461,-0.4950774207471252,0.4076810793160579,0.29345031333749416
1681569289843663600,1.38866357421875,-1.5708945989608765,0.6796700358390808,3.885525703430176,0.8876581192016602,0.43058252334594727,-0.16328515112400055,1.5181952714920044,1.1376243829727173,-0.27491670846939087,0.6973377552645149,-0.4937549784483877,0.41780790097584514,0.3088087252131684
1681569289853662500,1.398662353515625,-1.6712476015090942,0.5881699323654175,3.635417938232422,0.9042696952819824,0.39936184883117676,-0.15101851522922516,1.566906452178955,1.2500675916671753,-0.22520214319229126,0.6861106756734766,-0.49233805605297587,0.42672471203696893,0.3236688051003915
1681569289863662600,1.40866259765625,-2.0075669288635254,0.5501565933227539,3.3357181549072266,0.9185243248939514,0.37018468976020813,-0.13883954286575317,1.4048857688903809,1.1773159503936768,-0.16322343051433563,0.6746230230491586,-0.4919720592992571,0.43421621653900383,0.338088098279401
1681569289873662500,1.418662353515625,-2.494166374206543,0.5046582818031311,2.97634220123291,0.9305093288421631,0.343926340341568,-0.12596429884433746,1.1484853029251099,1.013556718826294,-0.08872680366039276,0.6624903660028109,-0.493471367288523,0.4398907391726923,0.3522621595172125
1681569289883662300,1.428662353515625,-3.0258595943450928,0.375789612531662,2.6185481548309326,0.9403342008590698,0.3210655450820923,-0.11264331638813019,0.9287605881690979,0.8916725516319275,-0.04040227830410004,0.6496544664509809,-0.4971476801616543,0.44330861286555906,0.3664296803109511
1681569289893662700,1.438662841796875,-3.635589599609375,0.22994691133499146,2.2749531269073486,0.9482715129852295,0.30147457122802734,-0.09946966916322708,0.788987398147583,0.9111719727516174,-0.07942431420087814,0.63610066285641,-0.5029671357956891,0.44417251680561765,0.38093406612068237
1681569289903661600,1.44866162109375,-4.189946174621582,0.046201176941394806,1.9822354316711426,0.9546260237693787,0.2849157452583313,-0.08667271584272385,0.6960697174072266,1.043926477432251,-0.17310810089111328,0.6217432797279475,-0.5108464506196309,0.44237941196943215,0.39594401139958724
1681569289913661400,1.458661376953125,-4.721012592315674,-0.16577260196208954,1.7647989988327026,0.9597771763801575,0.27060192823410034,-0.07484935969114304,0.600235641002655,1.215924620628357,-0.26343798637390137,0.6065974329694237,-0.5203041851869868,0.4380169804024536,0.4116603509686438
1681569289923661600,1.46866162109375,-5.096270561218262,-0.4103666841983795,1.5756278038024902,0.9639846682548523,0.257991760969162,-0.06460726261138916,0.469197154045105,1.3063088655471802,-0.30544883012771606,0.5907895694723759,-0.5308085142737228,0.431206086179011,0.428102160749319
1681569289933661400,1.478661376953125,-5.1906962394714355,-0.632199764251709,1.4500653743743896,0.9674797654151917,0.24652430415153503,-0.05664895474910736,0.3094826936721802,1.3364683389663696,-0.31046217679977417,0.5747709389277869,-0.5414815593032978,0.42246093835824483,0.4449303958278444
1681569289943660500,1.48866064453125,-5.0065388679504395,-0.8124054670333862,1.3087950944900513,0.970424473285675,0.23587936162948608,-0.051355719566345215,0.09598177671432495,1.3743044137954712,-0.3367515206336975,0.5591818044526007,-0.5514425158400367,0.4125933735600397,0.4615123632129026
1681569289953660400,1.498660400390625,-4.649232864379883,-0.876314103603363,1.154292345046997,0.9728396534919739,0.22634722292423248,-0.04847632348537445,-0.13565093278884888,1.4255692958831787,-0.3421180844306946,0.5446004116077884,-0.5602751338594504,0.40231034381538633,0.4771253270215777
1681569289963660500,1.50866064453125,-4.343898296356201,-0.8796594142913818,0.9934175610542297,0.9748142957687378,0.21799620985984802,-0.04706320911645889,-0.3814610242843628,1.3986420631408691,-0.34130340814590454,0.5310804750354999,-0.5680730067083802,0.39212428445401154,0.4914114945042491
1681569289973660200,1.51866015625,-4.124905586242676,-0.8978371024131775,0.7565597295761108,0.9762912392616272,0.21137860417366028,-0.04663144424557686,-0.6425052285194397,1.2808852195739746,-0.32513362169265747,0.5185037193201109,-0.5752650863698563,0.3817778915043175,0.5044498177948523
1681569289983659000,1.528658935546875,-3.9031825065612793,-0.9480500221252441,0.43193724751472473,0.97711181640625,0.20741836726665497,-0.04722484573721886,-0.870697021484375,1.1706639528274536,-0.2727213501930237,0.5070772339279087,-0.5820943792359798,0.3708823405020657,0.5162220080686658
1681569289993659100,1.5386591796875,-3.515791416168213,-0.9996961355209351,0.08838550001382828,0.9771779775619507,0.20668166875839233,-0.049051616340875626,-1.0735677480697632,1.1244341135025024,-0.2691550850868225,0.49729918594206973,-0.5884197234578107,0.3594946738130279,0.5265163314005367
1681569290003659000,1.548658935546875,-2.960026741027832,-1.0284909009933472,-0.22546496987342834,0.9765089154243469,0.2090478092432022,-0.05224425718188286,-1.3007428646087646,1.1197181940078735,-0.329149067401886,0.4896876906357895,-0.5938682712654764,0.34813552965219946,0.5350964229585566
1681569290013659100,1.5586591796875,-2.306837558746338,-1.0239452123641968,-0.5258684754371643,0.975154459476471,0.21414154767990112,-0.05672139301896095,-1.5439867973327637,1.1485141515731812,-0.4330551028251648,0.48461449770860426,-0.5981527271301539,0.33742053609158806,0.5417652186319833
1681569290023658000,1.568657958984375,-1.7121193408966064,-0.9752019643783569,-0.8344175219535828,0.9730735421180725,0.22196567058563232,-0.06212104856967926,-1.7442528009414673,1.1845591068267822,-0.5483524799346924,0.48212914080291336,-0.6013967066203983,0.3275079803494694,0.5464539973697519
1681569290033658000,1.578658203125,-1.2559545040130615,-0.9342007040977478,-1.126114845275879,0.9702242612838745,0.23245581984519958,-0.06803841143846512,-1.8366793394088745,1.233593463897705,-0.6334843635559082,0.4819197013007046,-0.6039168741227756,0.31822194241382395,0.5493383863518772
1681569290043658000,1.588657958984375,-0.9858384728431702,-0.9105629324913025,-1.4401450157165527,0.9664992094039917,0.2456667423248291,-0.0743434727191925,-1.8045272827148438,1.2179105281829834,-0.6700412034988403,0.4835419605155705,-0.6060621465240262,0.30905814451924934,0.5507802077065692
1681569290053658000,1.598658203125,-0.8306688666343689,-0.9005345106124878,-1.7689179182052612,0.9617027044296265,0.26190412044525146,-0.0808357521891594,-1.712251901626587,1.087796926498413,-0.6668906211853027,0.48661997628254805,-0.6081974222775794,0.2994628848716159,0.5510163611408018
1681569290063658200,1.608658203125,-0.6570883393287659,-0.8556151390075684,-2.085695743560791,0.955703616142273,0.28108328580856323,-0.08730816096067429,-1.645538330078125,0.912932276725769,-0.5770899653434753,0.49097558886343956,-0.6104307631719863,0.2893444387548472,0.5500881880044107
1681569290073657000,1.618656982421875,-0.4652246832847595,-0.7608324289321899,-2.380502939224243,0.9484497904777527,0.3028607964515686,-0.09337106347084045,-1.625497579574585,0.7714037895202637,-0.4485599994659424,0.49653290096707575,-0.6127740939320487,0.2789666264966294,0.547850834332452
1681569290083657000,1.628656982421875,-0.18097546696662903,-0.6498851180076599,-2.675450563430786,0.9397878646850586,0.3270918130874634,-0.0990443080663681,-1.637190818786621,0.6833299994468689,-0.3837742209434509,0.5034092355790246,-0.6151238654215708,0.2685153203883511,0.5441519300055648
1681569290093657000,1.638656982421875,0.1705697923898697,-0.5119964480400085,-2.9358396530151367,0.9296473264694214,0.35332736372947693,-0.10447850078344345,-1.6410120725631714,0.6601462364196777,-0.34826499223709106,0.5117547884222945,-0.617256160148752,0.25837101672076423,0.5388379559719187
1681569290103657000,1.648656982421875,0.5809483528137207,-0.4117884933948517,-3.2233221530914307,0.9178332090377808,0.3813992440700531,-0.11007708311080933,-1.5962693691253662,0.6945285797119141,-0.3322445750236511,0.5217221273232507,-0.6189812028069376,0.24864377964980247,0.5318314028782927
1681569290113656000,1.658656005859375,1.0293487310409546,-0.3586656153202057,-3.446580171585083,0.9041733741760254,0.4108949899673462,-0.11677438020706177,-1.5004713535308838,0.7604765892028809,-0.3334818482398987,0.5334962812630438,-0.6199111272983441,0.23942223366489118,0.5232295223594512
1681569290123656000,1.668656005859375,1.389151692390442,-0.3198224902153015,-3.696842908859253,0.8885495662689209,0.44141918420791626,-0.12501473724842072,-1.3556822538375854,0.7978692054748535,-0.3579868674278259,0.5469182161179993,-0.6199346483405477,0.23059415180106144,0.513213216213864
1681569290133656000,1.678656005859375,1.557173728942871,-0.30384936928749084,-4.033475875854492,0.8704934120178223,0.4734201431274414,-0.13459110260009766,-1.1851906776428223,0.7572318315505981,-0.3662937879562378,0.5616928923574801,-0.6193637210212121,0.2215694665759186,0.5017935332881138
1681569290143656000,1.688656005859375,1.4182788133621216,-0.29384201765060425,-4.429226875305176,0.8493165373802185,0.507718563079834,-0.1445111334323883,-1.0365419387817383,0.6762872934341431,-0.35626697540283203,0.5771339790661114,-0.6189381589126203,0.21132909192829272,0.48905220522903187
1681569290153655000,1.698655029296875,1.2619863748550415,-0.28310760855674744,-4.778702735900879,0.8246413469314575,0.5443047285079956,-0.1539446860551834,-0.8900711536407471,0.6178199648857117,-0.30008047819137573,0.5926537901657066,-0.6190793780388518,0.19942011033001827,0.47511450666389216
1681569290163655200,1.7086552734375,1.3225436210632324,-0.2658829391002655,-5.042219638824463,0.7964978814125061,0.5821512937545776,-0.16337406635284424,-0.7104840874671936,0.5925772190093994,-0.1483933925628662,0.6083761062021006,-0.6193417404346683,0.18635658715722778,0.4599626193968622
1681569290173655000,1.718655029296875,1.6553982496261597,-0.23093721270561218,-5.15012788772583,0.7654030919075012,0.6195455193519592,-0.17413076758384705,-0.4990915060043335,0.660193920135498,0.015088453888893127,0.6246720047042597,-0.6188453094527852,0.1731042928677915,0.44367813628020236
1681569290183655000,1.728655029296875,2.2455294132232666,-0.2353692501783371,-5.211989402770996,0.7319729924201965,0.6548057794570923,-0.1882687360048294,-0.21434909105300903,0.9650368690490723,0.1311246156692505,0.6421443994327949,-0.6164982671702921,0.16060982859354475,0.4263625975223534
1681569290193655000,1.738655029296875,2.7001521587371826,-0.3371874988079071,-5.30594539642334,0.696118175983429,0.6874277591705322,-0.20703327655792236,0.22432249784469604,1.3874930143356323,0.13211268186569214,0.6610006334431959,-0.6118455233670178,0.14875623648183545,0.4081604262195736
1681569290203654100,1.748654052734375,2.6395294666290283,-0.46484512090682983,-5.469797611236572,0.6574138402938843,0.7179615497589111,-0.2287754863500595,0.7153735756874084,1.8365886211395264,0.016007035970687866,0.680252883982687,-0.6058079798659786,0.13641463101086682,0.38941460706548914
1681569290213654000,1.758654052734375,2.008359909057617,-0.5898498892784119,-5.733030796051025,0.6151588559150696,0.7479051947593689,-0.24943456053733826,1.0608818531036377,2.219670057296753,-0.12509232759475708,0.6983345562703887,-0.6002861074303191,0.1222264641880728,0.37019758277411824
1681569290223654100,1.768654052734375,0.9284212589263916,-0.6507084965705872,-6.1820454597473145,0.5680984258651733,0.77931809425354,-0.2644384205341339,1.2888199090957642,2.391000747680664,-0.15891659259796143,0.7138431978241594,-0.5973123365969273,0.10487500839041694,0.35021022533707136
1681569290233654000,1.778654052734375,-0.015681838616728783,-0.6013657450675964,-6.663268089294434,0.5152071118354797,0.8130084276199341,-0.27125418186187744,1.6427669525146484,2.4129743576049805,-0.1154492199420929,0.7263305613328319,-0.5977426839915244,0.08412250312718306,0.3287414892576611
1681569290243653000,1.788653076171875,-0.3065117597579956,-0.49080899357795715,-6.952099800109863,0.45700979232788086,0.8467702269554138,-0.27225375175476074,2.146139621734619,2.4040536880493164,-0.041802555322647095,0.7367558396105747,-0.6000926024274479,0.06133510126498658,0.3054793490941771
1681569290253653000,1.798653076171875,-0.01781046949326992,-0.36264118552207947,-7.041717529296875,0.3953675329685211,0.877191424369812,-0.2724328935146332,2.4950437545776367,2.4232234954833984,0.08011123538017273,0.7465671204078226,-0.6019219260377259,0.038386879697015874,0.2808094791722465
1681569290263653000,1.808653076171875,0.5824946761131287,-0.22703562676906586,-6.924220085144043,0.33226048946380615,0.9019052982330322,-0.2759893536567688,2.497191905975342,2.376171112060547,0.1802862584590912,0.7568212159171949,-0.6014406931940561,0.016565568942489478,0.2553752647648103
1681569290273653000,1.818653076171875,1.2441655397415161,-0.04759262502193451,-6.612517356872559,0.27012789249420166,0.9197543263435364,-0.28475049138069153,2.3687117099761963,2.095947027206421,0.2593142092227936,0.7677893966093889,-0.5980088679411627,-0.0031846427570329395,0.2299448820750428
1681569290283652000,1.828652099609375,1.8291126489639282,0.16637486219406128,-6.179581642150879,0.21100009977817535,0.9306549429893494,-0.29893234372138977,2.2563154697418213,1.64078688621521,0.34362539649009705,0.7793609077670847,-0.5917093618807614,-0.020343673646573655,0.20509243209683942
1681569290293652000,1.83865185546875,2.1938884258270264,0.39588314294815063,-5.591597557067871,0.15684005618095398,0.9352214932441711,-0.31743013858795166,2.088841676712036,1.1292316913604736,0.4446732699871063,0.7910752448490906,-0.5831696805546208,-0.03461294155586287,0.18142484443571827
1681569290303652000,1.848652099609375,2.100782632827759,0.6471852660179138,-5.009464740753174,0.10900888592004776,0.9351465106010437,-0.3370726704597473,1.869781255722046,0.5807989239692688,0.5161956548690796,0.8019811565863295,-0.5738882445113799,-0.045999495516729924,0.1592560465925144
1681569290313652000,1.85865185546875,1.7954388856887817,0.9175602793693542,-4.428537845611572,0.06758992373943329,0.9325640797615051,-0.354621022939682,1.6537997722625732,-0.00026726722717285156,0.6083289384841919,0.8112563963531723,-0.5654035122253505,-0.05484846448712865,0.13846947818891026
1681569290323652000,1.868652099609375,1.5469402074813843,1.1444032192230225,-3.865405559539795,0.03279474005103111,0.9286112785339355,-0.3696020543575287,1.3993340730667114,-0.5465158820152283,0.7464178800582886,0.818904291009474,-0.5580826967624325,-0.06117744427015954,0.11915051528352531
1681569290333651000,1.87865087890625,1.5013208389282227,1.3449180126190186,-3.322073459625244,0.004205414559692144,0.9235620498657227,-0.38342607021331787,1.172537088394165,-0.9044274687767029,0.8001589179039001,0.8254897122755105,-0.5513972141518311,-0.06517731514399344,0.10138954080061097
1681569290343651000,1.888651123046875,1.4666692018508911,1.360569715499878,-2.760242462158203,-0.018510032445192337,0.9175269603729248,-0.3972427248954773,1.0562602281570435,-1.0632789134979248,0.7436935901641846,0.8314487760483803,-0.5448541692141511,-0.06717567471903846,0.08552401589260913
1681569290353651000,1.89865087890625,1.2745705842971802,1.252353310585022,-2.179130792617798,-0.035791683942079544,0.9112702012062073,-0.41025084257125854,0.9464361071586609,-1.134857177734375,0.5662415027618408,0.8366116938928927,-0.538766954049105,-0.06785825875246222,0.07215582061646363
1681569290363651000,1.908651123046875,0.8309944868087769,1.1915919780731201,-1.634048342704773,-0.04806585982441902,0.9060239195823669,-0.4204883873462677,0.8491216897964478,-1.2671993970870972,0.4377461075782776,0.8405301692177438,-0.5340385363941133,-0.06751774786334122,0.06126481889240168
1681569290373650200,1.918650146484375,0.20215484499931335,1.2034478187561035,-1.0735679864883423,-0.05521950498223305,0.9031079411506653,-0.42584824562072754,0.7838571071624756,-1.4678815603256226,0.4672149419784546,0.8427094328992665,-0.5317214615544984,-0.06594057323340223,0.052582024442640415
1681569290383650000,1.928650146484375,-0.4789789915084839,1.161342978477478,-0.5466936230659485,-0.0574733205139637,0.9032349586486816,-0.42528071999549866,0.7016840577125549,-1.7048096656799316,0.620959460735321,0.8429289206430418,-0.5323314389151642,-0.06311010310285319,0.04595007774458589
1681569290393650200,1.938650146484375,-1.092481017112732,1.0368244647979736,0.02531665377318859,-0.05519123375415802,0.9064484238624573,-0.41869479417800903,0.6007081270217896,-1.9673004150390625,0.7221463918685913,0.8411962433348331,-0.5358453688813988,-0.05934934752355161,0.0416702894347644
1681569290403650000,1.948650146484375,-1.4911216497421265,0.9379699230194092,0.5413722395896912,-0.04847779870033264,0.9120065569877625,-0.4073009192943573,0.531982958316803,-2.1689186096191406,0.6978893280029297,0.8378910273926953,-0.5416250925179679,-0.0546973197606727,0.039864280485910876
1681569290413649200,1.958649169921875,-1.5771158933639526,0.8639353513717651,1.018470048904419,-0.03775692731142044,0.9185225367546082,-0.3935617208480835,0.5365056395530701,-2.277989149093628,0.6418832540512085,0.8337632723368247,-0.5484584783914618,-0.04911661284048644,0.04024582676497151
1681569290423649000,1.96864892578125,-1.5389461517333984,0.7686974406242371,1.4850939512252808,-0.023096978664398193,0.9249095320701599,-0.379485160112381,0.5272930860519409,-2.253385543823242,0.5869436860084534,0.8294020017742195,-0.5553755761232608,-0.04260747184529902,0.042836297288012144
1681569290433649200,1.978649169921875,-1.5024586915969849,0.656021237373352,1.8877713680267334,-0.004782336764037609,0.9307897686958313,-0.36552393436431885,0.5061708092689514,-2.1781041622161865,0.5446316599845886,0.824926957088173,-0.5621330817626065,-0.035276564541751924,0.04751440813534669
1681569290443649000,1.98864892578125,-1.4389851093292236,0.5238105058670044,2.2749459743499756,0.01676810532808304,0.935960054397583,-0.3517071604728699,0.5195629596710205,-2.0791943073272705,0.5417553782463074,0.8203156773466893,-0.5686816194478727,-0.027343035812174198,0.054184930278174726
1681569290453649200,1.998649169921875,-1.2732157707214355,0.42043083906173706,2.6384408473968506,0.041427817195653915,0.9399488568305969,-0.3387918770313263,0.5431362986564636,-1.9635541439056396,0.5614176988601685,0.8157592360134123,-0.5746747841295524,-0.018786873646254462,0.06271281808560286
1681569290463648000,2.00864794921875,-1.053972601890564,0.33274099230766296,3.040644407272339,0.06938239932060242,0.9422532320022583,-0.32763567566871643,0.5788719058036804,-1.8594131469726562,0.5657491087913513,0.811464273899263,-0.5797347746784007,-0.009474062570220891,0.07310077731514865
1681569290473648000,2.018648193359375,-0.8586254715919495,0.3008112907409668,3.409388303756714,0.10082972049713135,0.9425972104072571,-0.3183456063270569,0.6172640919685364,-1.7539985179901123,0.5509353876113892,0.8074085011163417,-0.5838035031903599,0.0008130562336135969,0.0852314037243278
1681569290483648000,2.02864794921875,-0.6682408452033997,0.28867435455322266,3.7780139446258545,0.13559900224208832,0.9407587647438049,-0.31078293919563293,0.6871243119239807,-1.6769342422485352,0.5569224953651428,0.8035038357397238,-0.5869075166283103,0.01216947071375883,0.09885932755914245
1681569290493648100,2.038648193359375,-0.41638514399528503,0.3232799768447876,4.149156093597412,0.17376941442489624,0.9363002777099609,-0.30519819259643555,0.778501033782959,-1.6119747161865234,0.5779032707214355,0.7997618714174987,-0.5888874462602912,0.02474838828202604,0.11392989885713205
1681569290503647000,2.04864697265625,-0.14876286685466766,0.4229947328567505,4.395297050476074,0.21480822563171387,0.9288283586502075,-0.30188673734664917,0.8919269442558289,-1.5131330490112305,0.5831519961357117,0.7962739172494202,-0.5895440059959128,0.038658691730844436,0.1299668946007112
1681569290513647000,2.058647216796875,-0.020799051970243454,0.4338742792606354,4.494163513183594,0.2572770118713379,0.9185317754745483,-0.30017998814582825,0.9991163015365601,-1.3573896884918213,0.5418640375137329,0.792881412744407,-0.5891097335205244,0.053476460150963544,0.14638702010878898
1681569290523647000,2.06864697265625,-0.14679762721061707,0.2842359244823456,4.5739264488220215,0.2997015714645386,0.9061260223388672,-0.2985210120677948,1.0843162536621094,-1.0889719724655151,0.4470806121826172,0.7890612703930232,-0.5882908846107848,0.06821527932665877,0.16322664961453043
1681569290533647000,2.078647216796875,-0.40105172991752625,0.012897350825369358,4.715791702270508,0.3419257700443268,0.8920201063156128,-0.29561319947242737,1.240319013595581,-0.7496707439422607,0.36789417266845703,0.7842147853871765,-0.5877322765367957,0.08224459401320125,0.1811461788585768
1681569290543647000,2.08864697265625,-0.5106201171875,-0.2086569368839264,4.859492778778076,0.3839321434497833,0.8760430812835693,-0.2917957901954651,1.4970951080322266,-0.3952232003211975,0.3070240914821625,0.7782996860149333,-0.5873621073083216,0.09543508148499331,0.20036868908378275
1681569290553646000,2.09864599609375,-0.44572365283966064,-0.28818851709365845,4.985766887664795,0.42591071128845215,0.8574751019477844,-0.2886808216571808,1.7818529605865479,0.08158141374588013,0.21989428997039795,0.7718439827911936,-0.5864354383895288,0.10841158235168787,0.22044802674226896
1681569290563646000,2.10864599609375,-0.31585466861724854,-0.25362148880958557,5.0716352462768555,0.4676936864852905,0.8361083269119263,-0.2866804897785187,2.071582317352295,0.6664552092552185,0.18505698442459106,0.7650789295292145,-0.5846976291859434,0.12160773066191632,0.24082075770979733
1681569290573646000,2.11864599609375,-0.4005999267101288,-0.10981424897909164,5.16261100769043,0.5093464851379395,0.8120773434638977,-0.2847750782966614,2.177619457244873,1.1551928520202637,0.2608034908771515,0.7577825848927809,-0.5824745387747571,0.13541003372989796,0.26106184712044295
1681569290583646000,2.12864599609375,-0.8229022026062012,0.08770214766263962,5.151882171630859,0.5506736636161804,0.7862988710403442,-0.28016576170921326,1.9426124095916748,1.5322589874267578,0.25935280323028564,0.7490809802288317,-0.5809719326584676,0.14962863973152674,0.2809995462887781
1681569290593645000,2.13864501953125,-1.5642244815826416,0.2631562650203705,4.868235111236572,0.5900071859359741,0.7609190940856934,-0.2699885070323944,1.6929516792297363,1.9452881813049316,0.09181168675422668,0.7381991645616965,-0.5817117760895233,0.1631476450537348,0.3000938527948864
1681569290603645200,2.148645263671875,-2.2671406269073486,0.39431479573249817,4.487695693969727,0.6259273290634155,0.737521231174469,-0.2535303235054016,1.62263822555542,2.2247438430786133,-0.1392613649368286,0.725066186517879,-0.5853213007836302,0.17502516380615596,0.31787471712966553
1681569290613645000,2.15864501953125,-2.8455746173858643,0.48329395055770874,4.109117031097412,0.6582745909690857,0.7160890102386475,-0.23214460909366608,1.4386796951293945,2.3371031284332275,-0.37890881299972534,0.7101468773031492,-0.591324012745404,0.18510431308452957,0.33431086291163387
1681569290623645200,2.168645263671875,-3.4544906616210938,0.46902865171432495,3.659224510192871,0.686795175075531,0.6968607306480408,-0.20663423836231232,1.1611510515213013,2.3798606395721436,-0.5367739200592041,0.6936614193219849,-0.5995362738855676,0.19297444075738296,0.3495012294871224
1681569290633645000,2.17864501953125,-3.916806936264038,0.33732175827026367,3.2420496940612793,0.7113143801689148,0.6798809766769409,-0.17830829322338104,0.8531234860420227,2.3096210956573486,-0.5204983949661255,0.6759274204098931,-0.6095635695724179,0.1981870483629446,0.3636981045709064
1681569290643644200,2.18864404296875,-4.024227619171143,0.09266628324985504,2.951120138168335,0.7324091196060181,0.6641529202461243,-0.1499263495206833,0.5375493764877319,2.094010591506958,-0.45477938652038574,0.6577210091187553,-0.6201926943734721,0.20099216188502683,0.37731466460417307
1681569290653644000,2.19864404296875,-3.793222665786743,-0.19248130917549133,2.7661325931549072,0.7510916590690613,0.6483429074287415,-0.1245509535074234,0.2853615880012512,1.8446228504180908,-0.477957546710968,0.6400292170340117,-0.6299419310193793,0.20223176128527448,0.3906893410498845
1681569290663644200,2.20864404296875,-3.3930118083953857,-0.5046123266220093,2.630826950073242,0.7679391503334045,0.6319985389709473,-0.1041511669754982,0.04717010259628296,1.6181846857070923,-0.5504813194274902,0.6236206049404031,-0.6378961227467932,0.20251655353347303,0.403946780282581
1681569290673644000,2.21864404296875,-2.956542491912842,-0.7948457598686218,2.553635835647583,0.7834713459014893,0.6149582862854004,-0.08943729102611542,-0.22561001777648926,1.366960048675537,-0.5857335329055786,0.6087961250682886,-0.6437054412962373,0.20229844580857684,0.41723613005350096
1681569290683643100,2.22864306640625,-2.6272687911987305,-1.0324615240097046,2.4607417583465576,0.7979283332824707,0.5974411368370056,-0.07984210550785065,-0.5092625617980957,1.0990768671035767,-0.5724710822105408,0.5954297655169384,-0.6475877833138558,0.20176473717921647,0.43056316094265035
1681569290693643000,2.23864306640625,-2.4877848625183105,-1.216457486152649,2.2936551570892334,0.8110741376876831,0.5802550911903381,-0.07391103357076645,-0.7656639814376831,0.8649049401283264,-0.5302911400794983,0.5830992649520372,-0.6502344930988379,0.20059807720916314,0.443791410008259
1681569290703643100,2.24864306640625,-2.471881628036499,-1.357513666152954,2.0703611373901367,0.8226675391197205,0.5641623139381409,-0.07027820497751236,-1.0210928916931152,0.7086801528930664,-0.4722326993942261,0.5714046105502276,-0.6522903335954656,0.198439455510706,0.4567667693034087
1681569290713643000,2.25864306640625,-2.5002684593200684,-1.4922147989273071,1.669498085975647,0.8321647047996521,0.5503171682357788,-0.06821203231811523,-1.2313804626464844,0.6285463571548462,-0.4789222478866577,0.5603203551142113,-0.6541812265878518,0.1947842586936234,0.469198395511148
1681569290723643100,2.26864306640625,-2.4885199069976807,-1.5660548210144043,1.1440658569335938,0.8388069272041321,0.5402376651763916,-0.06742516905069351,-1.3606117963790894,0.6488797664642334,-0.5468173027038574,0.5502710164586464,-0.6561150103905823,0.18921022272325377,0.48053552590617216
1681569290733642000,2.27864208984375,-2.436922073364258,-1.5891196727752686,0.6019166111946106,0.8424379229545593,0.5345515012741089,-0.06747536361217499,-1.4494478702545166,0.8604832887649536,-0.647704005241394,0.5415246293521311,-0.6581898704552416,0.18179222634398345,0.49039647044958806
1681569290743642000,2.28864208984375,-2.2744038105010986,-1.5778369903564453,0.04671755060553551,0.8430806398391724,0.5334441661834717,-0.0682079866528511,-1.500887155532837,1.0903503894805908,-0.7403399348258972,0.5343311793442734,-0.6603482659850206,0.17273150596894743,0.4985922022932078
1681569290753642000,2.29864208984375,-1.9206846952438354,-1.5065462589263916,-0.4512445628643036,0.8408979773521423,0.5366507172584534,-0.06997625529766083,-1.579850673675537,1.0812082290649414,-0.7662968039512634,0.5291815862952467,-0.6622397740088963,0.16263564773891684,0.5049306933669649
1681569290763642000,2.30864208984375,-1.4060529470443726,-1.3675670623779297,-0.9278494715690613,0.8361191749572754,0.5436571836471558,-0.07308666408061981,-1.7202439308166504,0.9750959277153015,-0.7339505553245544,0.5265523425275277,-0.6635222879900463,0.15229852504584077,0.5092013473572498
1681569290773641200,2.31864111328125,-0.8123459219932556,-1.169801950454712,-1.3844431638717651,0.8287500739097595,0.5542045831680298,-0.07765587419271469,-1.8521265983581543,0.8504737615585327,-0.6943319439888,0.5267927495926498,-0.6640352363399956,0.1422296328989242,0.511192000115835
1681569290783641000,2.32864111328125,-0.11128567159175873,-0.9256084561347961,-1.8188085556030273,0.8188493847846985,0.5678594708442688,-0.08379358053207397,-1.9392107725143433,0.719616174697876,-0.6600418090820312,0.5301019384859104,-0.6636589186062941,0.13289111907649634,0.5107727110480746
1681569290793641200,2.33864111328125,0.7491782307624817,-0.6566790342330933,-2.232592821121216,0.8064723610877991,0.5840632915496826,-0.09204482287168503,-1.9821012020111084,0.6312992572784424,-0.6282614469528198,0.5368067997021511,-0.6621119055859531,0.12484155422261803,0.5077999447214302
1681569290803641000,2.34864111328125,1.604993224143982,-0.39648109674453735,-2.6237564086914062,0.791529655456543,0.6023388504981995,-0.10329056531190872,-1.948512077331543,0.6115284562110901,-0.6026419401168823,0.5471893489440677,-0.6590454651108327,0.1183798647594754,0.502224250865317
1681569290813641000,2.358640869140625,2.2793023586273193,-0.20181681215763092,-3.035127639770508,0.7738795876502991,0.622317373752594,-0.1176082119345665,-1.8231806755065918,0.6462984681129456,-0.5541903972625732,0.560831100394519,-0.6545197492599707,0.1131361585160578,0.4942395059157116
1681569290823640000,2.36864013671875,2.8036437034606934,-0.027930039912462234,-3.4019041061401367,0.7533258199691772,0.643722653388977,-0.13461612164974213,-1.6669763326644897,0.6426391005516052,-0.4742705225944519,0.5770845908974269,-0.6487761386639166,0.10854243359537234,0.4840263257515525
1681569290833640200,2.37864013671875,3.235739231109619,0.10666798800230026,-3.7755279541015625,0.729888379573822,0.6659546494483948,-0.15416695177555084,-1.5242609977722168,0.5587158203125,-0.3858720064163208,0.5954023700545094,-0.6419002983424854,0.10430978596553402,0.47178336893258377
1681569290843640000,2.38864013671875,3.6209394931793213,0.1920890063047409,-4.095229148864746,0.7034222483634949,0.6885744333267212,-0.17624559998512268,-1.3652265071868896,0.4373411536216736,-0.31110477447509766,0.6154095412986665,-0.6339137783763054,0.10015247914220542,0.4575958754087873
1681569290853640200,2.39864013671875,3.9862725734710693,0.23184813559055328,-4.37437629699707,0.6742162704467773,0.7105296850204468,-0.20144450664520264,-1.2093420028686523,0.3677936792373657,-0.2127399891614914,0.6368092386729927,-0.6245378124612212,0.09607428473315668,0.44181014779818223
1681569290863639000,2.40863916015625,4.286606311798096,0.22485394775867462,-4.601593017578125,0.6422702074050903,0.731207013130188,-0.22983768582344055,-1.0337954759597778,0.3631076216697693,-0.07156908512115479,0.6592960972960638,-0.6137081022115737,0.09188862762654325,0.42455573295919663
1681569290873639200,2.41863916015625,4.475249290466309,0.16249895095825195,-4.5980448722839355,0.6085985898971558,0.7493171095848083,-0.2610205411911011,-0.8300646543502808,0.4612084627151489,0.08333206176757812,0.6820845947314601,-0.6015083504261065,0.08762096981989588,0.4065353004336844
1681569290883639000,2.42863916015625,4.682802200317383,0.12035936117172241,-4.48299503326416,0.5745508074760437,0.76351398229599,-0.2948525846004486,-0.6137353777885437,0.6405083537101746,0.188315749168396,0.7046836003320531,-0.5878552345175362,0.08366561645573103,0.3883908751894784
1681569290893639200,2.43863916015625,4.990724563598633,0.07950327545404434,-4.206700325012207,0.5414107441902161,0.7726539969444275,-0.3314819931983948,-0.35520774126052856,0.8381554484367371,0.24951183795928955,0.726935202096894,-0.5725111574676276,0.0805603606219347,0.370548584808091
1681569290903639000,2.44863916015625,5.086826324462891,0.03203575685620308,-3.915105104446411,0.5101704597473145,0.7762464284896851,-0.37036165595054626,-0.13695579767227173,1.2445056438446045,0.23805278539657593,0.7485293287882151,-0.5555704422876402,0.07848986832813092,0.3533904192527246
1681569290913638100,2.45863818359375,4.687117576599121,-0.1157425194978714,-3.7027978897094727,0.4804975092411041,0.7758864164352417,-0.4088064730167389,0.165239155292511,1.7087023258209229,0.18540257215499878,0.7685821915301456,-0.5382871866119658,0.07644393181488864,0.3371718881816499
1681569290923638000,2.468637939453125,3.7540438175201416,-0.18494409322738647,-3.6680917739868164,0.4513087868690491,0.7749365568161011,-0.4424859881401062,0.47984352707862854,2.075390100479126,0.14384102821350098,0.7859608342710314,-0.5228946268483307,0.07306305768446687,0.32172771013249984
1681569290933638100,2.47863818359375,2.620760202407837,-0.014900190755724907,-3.8471744060516357,0.4217449426651001,0.7767638564109802,-0.4677278399467468,0.9129107594490051,2.454925775527954,0.0296633243560791,0.8001217726403941,-0.5113906808421966,0.06793857264220779,0.30605435387270147
1681569290943638000,2.488637939453125,1.6620343923568726,0.14683809876441956,-4.171261310577393,0.39078283309936523,0.782945454120636,-0.484030157327652,1.7165932655334473,2.794294595718384,-0.09636837244033813,0.8114754804104707,-0.5042204690741504,0.06120980517092854,0.2890028676651162
1681569290953637000,2.49863720703125,1.0091363191604614,0.22376537322998047,-4.331089019775391,0.3580496609210968,0.7924779057502747,-0.49374017119407654,2.339902639389038,2.8360774517059326,0.003963589668273926,0.8207140879329993,-0.5003112343424708,0.05309033681902437,0.2707371539985657
1681569290963637000,2.508636962890625,0.7328357696533203,0.34219035506248474,-4.26603364944458,0.3250489830970764,0.8030158281326294,-0.49950873851776123,2.3339476585388184,2.508904457092285,0.229733407497406,0.8283818909843131,-0.4982550699674673,0.04458159426259254,0.25206749125896133
1681569290973637000,2.51863720703125,0.8430184721946716,0.5391878485679626,-4.096962928771973,0.2933971583843231,0.8120808601379395,-0.504423201084137,2.196333646774292,2.0548930168151855,0.38444340229034424,0.83529877823566,-0.4964138996324757,0.03690031604431965,0.23342576357973197
1681569290983637000,2.528636962890625,1.0097362995147705,0.7804557085037231,-3.8325531482696533,0.26440954208374023,0.818437397480011,-0.5101449489593506,2.1526589393615723,1.6398451328277588,0.46453648805618286,0.8419335560148721,-0.4939360848188806,0.030897570612498263,0.2149894973334587
1681569290993637000,2.53863720703125,1.1588304042816162,1.0094460248947144,-3.5714964866638184,0.23855726420879364,0.822165310382843,-0.5168507695198059,2.002394199371338,1.1919186115264893,0.4962514638900757,0.8483076119864438,-0.4907794161414997,0.026649186396290377,0.1969763266001751
1681569291003636200,2.54863623046875,1.3158522844314575,1.257096767425537,-3.2472646236419678,0.21640686690807343,0.823504626750946,-0.5244124531745911,1.739510416984558,0.7100648880004883,0.6033309102058411,0.8543839545141342,-0.48703521798821575,0.024299733100443845,0.1795396520648224
1681569291013636000,2.558635986328125,1.4935367107391357,1.4764536619186401,-2.9328596591949463,0.19819514453411102,0.8224728107452393,-0.5331576466560364,1.4671947956085205,0.33959078788757324,0.7266849875450134,0.8602735103772969,-0.4825469228136584,0.0238672661832373,0.16281358458045853
1681569291023636200,2.56863623046875,1.637166142463684,1.701219916343689,-2.6611948013305664,0.18384705483913422,0.8193510174751282,-0.5430140495300293,1.243826150894165,0.0742495059967041,0.7609096169471741,0.8660079984713618,-0.47734177117744453,0.025254870507378253,0.1467556553337649
1681569291033636000,2.578635986328125,1.6664749383926392,1.8788762092590332,-2.422943353652954,0.17290998995304108,0.8147731423377991,-0.5533957481384277,1.0399805307388306,-0.20053058862686157,0.7553916573524475,0.8714762360101218,-0.4717086404387057,0.028161795300205333,0.13125191452515217
1681569291043636000,2.588635986328125,1.4946551322937012,1.9677919149398804,-2.2300665378570557,0.16480743885040283,0.8097931146621704,-0.5630929470062256,0.8739498257637024,-0.45244747400283813,0.7281930446624756,0.8763646864453964,-0.46628399302177853,0.03213649237327927,0.11632488410882631
1681569291053635000,2.598635009765625,1.1462790966033936,1.9543850421905518,-2.0901734828948975,0.15852242708206177,0.8057332038879395,-0.5706703662872314,0.749543309211731,-0.6685108542442322,0.6914589405059814,0.8802949218203941,-0.4618801694847275,0.03649014883605583,0.10205920175789293
1681569291063635200,2.60863525390625,0.6328781843185425,1.8586381673812866,-1.9517343044281006,0.15318675339221954,0.8037356734275818,-0.5749284625053406,0.6186180114746094,-0.8794192671775818,0.6580279469490051,0.8829601012605085,-0.45921781582956545,0.040678878840961996,0.08857571483734566
1681569291073635000,2.618635009765625,0.026760278269648552,1.7369482517242432,-1.7849626541137695,0.14850707352161407,0.8046272993087769,-0.5749093294143677,0.5043249130249023,-1.1143195629119873,0.6418954133987427,0.8841164974097163,-0.45887535841528365,0.044483042826256994,0.07611074111443947
1681569291083635200,2.62863525390625,-0.52559494972229,1.5714337825775146,-1.548622965812683,0.14451247453689575,0.8085634112358093,-0.5703871846199036,0.4359012842178345,-1.3280640840530396,0.6711409687995911,0.8837260493660377,-0.46099357120509277,0.04786800223931356,0.06497711784363318
1681569291093634000,2.638634033203125,-0.9028005599975586,1.416216254234314,-1.2575607299804688,0.14156468212604523,0.81467205286026,-0.5623779892921448,0.3869234025478363,-1.4759116172790527,0.7367706894874573,0.882105770301331,-0.4649844014335092,0.050995347777628486,0.055483690680451725
1681569291103634200,2.64863427734375,-1.2106746435165405,1.2177242040634155,-0.9200287461280823,0.1399945169687271,0.8221044540405273,-0.5518567562103271,0.34848499298095703,-1.5430517196655273,0.8240888118743896,0.8795658000899567,-0.47027391453323975,0.053982020414072275,0.04787959094179766
1681569291113634000,2.658634033203125,-1.5915580987930298,0.975898265838623,-0.5721712112426758,0.13983815908432007,0.8307506442070007,-0.5387938618659973,0.31913089752197266,-1.5712138414382935,0.9005187153816223,0.8761279352606646,-0.47684846354824156,0.05673286418190202,0.04239047551033424
1681569291123634200,2.66863427734375,-2.0119316577911377,0.6763153672218323,-0.2180987298488617,0.14094677567481995,0.8408704996109009,-0.52256178855896,0.3102250099182129,-1.6082197427749634,0.9413698315620422,0.8716329562764553,-0.48500886906558704,0.05903808989408058,0.039203076258186274
1681569291133634000,2.678634033203125,-2.2678208351135254,0.3585968315601349,0.15544849634170532,0.14326614141464233,0.8519548177719116,-0.5036345720291138,0.3218063712120056,-1.6846269369125366,0.9424774050712585,0.86622301067515,-0.49445857608967925,0.06077357762074606,0.03840483880897655
1681569291143633200,2.688633056640625,-2.2642807960510254,0.01218934915959835,0.5901408195495605,0.1473408043384552,0.8626850843429565,-0.48380279541015625,0.31689250469207764,-1.755614161491394,0.8982925415039062,0.8603967613524577,-0.5042312129635679,0.06204427401683559,0.04023493892165381
1681569291153633000,2.698633056640625,-2.0682833194732666,-0.34677278995513916,1.0023880004882812,0.15348710119724274,0.8717854619026184,-0.4652225077152252,0.2787485420703888,-1.7648823261260986,0.8093692660331726,0.8547559754326335,-0.5132558572567665,0.06290603616409175,0.044761769320303395
1681569291163633200,2.708633056640625,-1.8123149871826172,-0.6958877444267273,1.405482530593872,0.16162890195846558,0.8787761926651001,-0.4490308463573456,0.24651309847831726,-1.7354960441589355,0.6976728439331055,0.8496041719609447,-0.5210324157849456,0.06332298397226412,0.05184894821540799
1681569291173633000,2.718633056640625,-1.5092113018035889,-1.0076549053192139,1.8132697343826294,0.17204594612121582,0.8834508657455444,-0.4357924163341522,0.2707335352897644,-1.6715214252471924,0.6055922508239746,0.8450579916530758,-0.5273293058253573,0.06346329824298899,0.06142803499936972
1681569291183633200,2.728633056640625,-1.1799659729003906,-1.2701382637023926,2.219691038131714,0.1849561333656311,0.8856394290924072,-0.425950825214386,0.34060224890708923,-1.5971720218658447,0.5680559873580933,0.8411842211739724,-0.5319663604634394,0.06353245977124387,0.07337975814733198
1681569291193632000,2.738632080078125,-0.8689240217208862,-1.441828727722168,2.6340715885162354,0.20068249106407166,0.8852900862693787,-0.4195093512535095,0.4100351929664612,-1.5192621946334839,0.562560498714447,0.8379112442888756,-0.5349438973153178,0.06387758760147132,0.08751851563078174
1681569291203632000,2.748632080078125,-0.5935280323028564,-1.5380971431732178,3.0343570709228516,0.21951693296432495,0.8823776841163635,-0.4161994159221649,0.4438283145427704,-1.4368820190429688,0.5798957347869873,0.8350825223376268,-0.5363681597451855,0.06488059363855841,0.10361878588431012
1681569291213632000,2.758632080078125,-0.33511996269226074,-1.511425256729126,3.4104442596435547,0.24149703979492188,0.8768617510795593,-0.415683388710022,0.45302191376686096,-1.379837155342102,0.6033512353897095,0.8325391096814307,-0.5363641906516309,0.06687120372871254,0.12132732006596159
1681569291223632100,2.768632080078125,-0.099849633872509,-1.4934523105621338,3.80796217918396,0.2667255699634552,0.8686286807060242,-0.4175424575805664,0.4622630178928375,-1.3190680742263794,0.6021432876586914,0.8300989928578022,-0.5350746752550074,0.07017024761974865,0.1403813927319657
1681569291233631200,2.77863134765625,0.13902926445007324,-1.550666332244873,4.291303634643555,0.2953116297721863,0.8571596145629883,-0.4219817519187927,0.46781086921691895,-1.2274599075317383,0.5641326308250427,0.8276490153812838,-0.5323794462713021,0.0747077905385502,0.1612083012801319
1681569291243631000,2.788631103515625,0.2018861472606659,-1.650965690612793,4.62450647354126,0.32652992010116577,0.8424379229545593,-0.4285750985145569,0.43874403834342957,-1.135513424873352,0.4908767640590668,0.8249133937995331,-0.5284810950995577,0.08012606862272377,0.1838625576108311
1681569291253631200,2.79863134765625,0.09213940054178238,-1.6409721374511719,4.795836925506592,0.3586655259132385,0.8256840109825134,-0.4354364275932312,0.5635145902633667,-0.8754124045372009,0.38152721524238586,0.821364345127121,-0.5243213990010084,0.0858420668738545,0.20755428144842603
1681569291263631000,2.808631103515625,-0.040216609835624695,-1.4078404903411865,5.129614353179932,0.3923547863960266,0.8068986535072327,-0.44155675172805786,0.9235020875930786,-0.2912430763244629,0.36207371950149536,0.8167271382579201,-0.5202481127233275,0.09253932092495032,0.23180866232114655
1681569291273631000,2.818630859375,-0.9473971128463745,-1.0668538808822632,5.449182987213135,0.42905884981155396,0.7869895696640015,-0.44334638118743896,1.3071166276931763,0.4021126627922058,0.41084522008895874,0.8097641090672107,-0.5178699810549544,0.10068510574701621,0.25681782686878324
1681569291283630000,2.828630126953125,-3.348487615585327,-0.7711279988288879,5.234289646148682,0.46714141964912415,0.7717363238334656,-0.43151143193244934,1.5506502389907837,0.9851455092430115,0.31525474786758423,0.7976687451736525,-0.5220269696236771,0.10831494979038919,0.281922725996458
1681569291293630200,2.838630126953125,-6.966831207275391,-0.8068628311157227,4.366322994232178,0.5010826587677002,0.7695993781089783,-0.3957691788673401,1.7598426342010498,1.3265159130096436,0.04872334003448486,0.7774066827458008,-0.538434825720626,0.11046875333022423,0.3058163488923064
1681569291303630000,2.848630126953125,-9.671430587768555,-0.9751456379890442,3.27189040184021,0.5273569226264954,0.7808526754379272,-0.3349088430404663,1.9837514162063599,1.5674598217010498,-0.2660737633705139,0.7485119780028909,-0.5671765224899297,0.10419393274504903,0.3273902395374113
1681569291313630200,2.858630126953125,-10.013586044311523,-1.0394450426101685,2.4733822345733643,0.5468055009841919,0.7953498363494873,-0.2615772485733032,2.14461612701416,2.0463709831237793,-0.4172557294368744,0.7150241098803931,-0.6006300685094017,0.09195053318066272,0.3457301363840525
1681569291323630000,2.868630126953125,-8.389138221740723,-0.9653352499008179,2.0370588302612305,0.5623916387557983,0.8040913343429565,-0.19275030493736267,2.141099452972412,2.563797950744629,-0.2830643951892853,0.6828846544784752,-0.6303992784005839,0.07887708051816701,0.36061567411701895
1681569291333629200,2.878629150390625,-5.709012985229492,-0.8292738199234009,1.7839494943618774,0.5762467384338379,0.8050385117530823,-0.14090010523796082,1.693162441253662,3.0123138427734375,-0.03477424383163452,0.6570411866286866,-0.6517556720341694,0.06902531325431188,0.3724875613913581
1681569291343629000,2.888629150390625,-3.0439486503601074,-0.7761264443397522,1.6060796976089478,0.5888059735298157,0.8006744980812073,-0.11058124899864197,1.158935785293579,3.1892549991607666,0.07502834498882294,0.639804441400775,-0.6638072603194274,0.06379103002089342,0.3820223223921222
1681569291353629200,2.898629150390625,-0.915456235408783,-0.7938862442970276,1.5316197872161865,0.6005059480667114,0.7933643460273743,-0.09982909262180328,0.6974219083786011,3.006150722503662,-0.05260612070560455,0.6305836958469377,-0.66793781914372,0.06280542736808026,0.3902292808629447
1681569291363629000,2.908629150390625,0.49579542875289917,-0.8397226929664612,1.4351369142532349,0.6113483309745789,0.7845738530158997,-0.10342743247747421,0.28307610750198364,2.49084734916687,-0.296963095664978,0.6273729947925683,-0.666393067573952,0.0648580124675355,0.3976391837668823
1681569291373628200,2.918628173828125,1.360133171081543,-0.9820311069488525,1.4330308437347412,0.6215063333511353,0.7747002243995667,-0.11648853868246078,-0.025452256202697754,1.7343330383300781,-0.48795777559280396,0.6279837197635528,-0.6610891092849324,0.06867982597927431,0.40482190068018414
1681569291383628000,2.9286279296875,1.804802656173706,-1.1338415145874023,1.4019320011138916,0.6310904622077942,0.7637839317321777,-0.13549557328224182,-0.3136313557624817,1.1166176795959473,-0.553072452545166,0.6307533743822092,-0.6533591514294037,0.0733078004945697,0.4121869180646671
1681569291393628200,2.938628173828125,1.8357911109924316,-1.2920169830322266,1.3388985395431519,0.6397196054458618,0.7523609399795532,-0.15720078349113464,-0.5716196298599243,0.791843831539154,-0.4712323546409607,0.63434240763408,-0.6444793015505366,0.07775628021613928,0.419774053301757
1681569291403628000,2.9486279296875,1.4875221252441406,-1.39356529712677,1.2346314191818237,0.6470925211906433,0.7412294149398804,-0.17846640944480896,-0.8186013698577881,0.5811735987663269,-0.3173678517341614,0.637540831972125,-0.6357501269009633,0.08117002693524991,0.4275218057784433
1681569291413628200,2.958628173828125,0.7419554591178894,-1.4385462999343872,1.0696957111358643,0.6529425382614136,0.7315860390663147,-0.1960809826850891,-1.0296821594238281,0.3826717734336853,-0.17428025603294373,0.6392301729424518,-0.6285796722880067,0.08274721659645888,0.43523003704583474
1681569291423627300,2.968627197265625,-0.29622259736061096,-1.4634501934051514,0.8554093241691589,0.6570336818695068,0.7248076796531677,-0.20726895332336426,-1.2232873439788818,0.18945318460464478,-0.06612268090248108,0.6384330889404042,-0.6242605814931234,0.08163485562170825,0.44276133376883475
1681569291433627100,2.978627197265625,-1.3033201694488525,-1.4855324029922485,0.6348004937171936,0.6593196988105774,0.7216095328330994,-0.21113364398479462,-1.3913295269012451,0.0071656107902526855,-0.03480738401412964,0.6348405688647112,-0.6232452030811975,0.07745058524371404,0.4500493077152407
1681569291443627000,2.988626953125,-2.07597017288208,-1.4697004556655884,0.39306679368019104,0.6599206924438477,0.7217977046966553,-0.20859701931476593,-1.5241632461547852,-0.13795065879821777,-0.1191159337759018,0.6288975589983138,-0.6250845836361731,0.07050359214678256,0.45693143477919557
1681569291453627100,2.998627197265625,-2.548906087875366,-1.4114447832107544,0.13710983097553253,0.6588718295097351,0.7248451709747314,-0.20121534168720245,-1.6216099262237549,-0.2159644365310669,-0.2707541584968567,0.6214452978569833,-0.6289803143702867,0.06144993553714883,0.4630480803295829
1681569291463627000,3.008626953125,-2.6451687812805176,-1.3282612562179565,-0.1044798269867897,0.6562694907188416,0.7298967242240906,-0.19120973348617554,-1.7036480903625488,-0.2511063814163208,-0.3725872039794922,0.6135368277808914,-0.6338599871482244,0.05115319403580066,0.46816394281462476
1681569291473626000,3.018626220703125,-2.297710657119751,-1.1951647996902466,-0.30682092905044556,0.6523756980895996,0.7359256744384766,-0.18116123974323273,-1.7660080194473267,-0.3008365035057068,-0.4276490807533264,0.6063615169138052,-0.6385604502176481,0.040742293716425196,0.4721296216370573
1681569291483626200,3.028626220703125,-1.649774432182312,-1.016369104385376,-0.49167394638061523,0.6474438309669495,0.7420467734336853,-0.1737329065799713,-1.7913190126419067,-0.3364986777305603,-0.4382665157318115,0.6011639864270705,-0.6419865959313479,0.03141265197601388,0.4748351010696943
1681569291493626000,3.038626220703125,-0.8894762992858887,-0.7792066335678101,-0.6919548511505127,0.6412538290023804,0.7481935024261475,-0.1702934354543686,-1.780261516571045,-0.31081557273864746,-0.40708374977111816,0.59872232345919,-0.6436556057045864,0.023679985804689645,0.47610738792978274
1681569291503626000,3.0486259765625,-0.15651457011699677,-0.5047708749771118,-0.8608967661857605,0.6342731714248657,0.7540683746337891,-0.17052392661571503,-1.7378194332122803,-0.2370089292526245,-0.39005333185195923,0.5989868414838891,-0.6437501221656844,0.01799483517898437,0.4758957206061304
1681569291513626000,3.058626220703125,0.48831021785736084,-0.2182900607585907,-1.0111114978790283,0.6265538334846497,0.7596657872200012,-0.17417936027050018,-1.6757633686065674,-0.19580763578414917,-0.3658900856971741,0.6018168675073099,-0.6424215825397698,0.014311791758120031,0.4742428263864986
1681569291523625200,3.068625244140625,0.9636204838752747,0.05723625048995018,-1.2317533493041992,0.6179026961326599,0.7653048038482666,-0.18029095232486725,-1.5966625213623047,-0.19877642393112183,-0.3418341875076294,0.6068149809003494,-0.6400820825894157,0.012224950342619409,0.4710850038225388
1681569291533625000,3.078625,1.327335000038147,0.2977476716041565,-1.5178511142730713,0.6076784133911133,0.7716001868247986,-0.18804261088371277,-1.5218936204910278,-0.20751327276229858,-0.3236607611179352,0.6137008602308663,-0.6370681134046682,0.011086571260383102,0.4662537250057897
1681569291543625200,3.088625244140625,1.6014786958694458,0.49712812900543213,-1.8763924837112427,0.5953187942504883,0.7789562344551086,-0.197035551071167,-1.4484682083129883,-0.1964823603630066,-0.28019821643829346,0.6222592491811523,-0.6335420133427883,0.010331554480797782,0.4596861671003436
1681569291553625000,3.098625,1.8491852283477783,0.7007758021354675,-2.2477190494537354,0.5803320407867432,0.7876191139221191,-0.20705340802669525,-1.3466742038726807,-0.13963919878005981,-0.26387855410575867,0.6323931072549362,-0.6295878769678311,0.009612598878713867,0.45122705190604007
1681569291563625200,3.108625244140625,2.138089179992676,0.8593393564224243,-2.561251163482666,0.5629014372825623,0.797163188457489,-0.21834148466587067,-1.214238166809082,-0.03359800577163696,-0.22233223915100098,0.6439684117650235,-0.6250988123853005,0.00898494219222444,0.44099381130468834
1681569291573624000,3.1186240234375,2.444108009338379,0.9554077982902527,-2.875617742538452,0.5431753993034363,0.8070340752601624,-0.23163923621177673,-1.088524580001831,0.03902024030685425,-0.156803697347641,0.6569586852461072,-0.6197647535297623,0.008487121170200305,0.42921450841519676
1681569291583624200,3.128624267578125,2.7042107582092285,0.9777560234069824,-3.1974542140960693,0.5207914710044861,0.8170107007026672,-0.24752746522426605,-0.9851622581481934,0.09702140092849731,-0.05030876398086548,0.6713244936463797,-0.6133315995454423,0.007785811788757485,0.41603749568417675
1681569291593624000,3.1386240234375,2.681920051574707,0.9642778038978577,-3.500011682510376,0.4957517981529236,0.8270888328552246,-0.2648662328720093,-0.8522887229919434,0.2566971778869629,0.035877734422683716,0.68640285041633,-0.606238914145009,0.00642350360420549,0.4016020391255236
1681569291603624200,3.148624267578125,2.585444450378418,0.9217578768730164,-3.678480863571167,0.46831730008125305,0.8372610211372375,-0.28226372599601746,-0.6451972723007202,0.49264925718307495,0.0988989770412445,0.7014228676108473,-0.5990425614563527,0.004017858417880118,0.3861836305046606
1681569291613624000,3.1586240234375,2.565164804458618,0.9165087938308716,-3.660846471786499,0.43997326493263245,0.8465145230293274,-0.2997281849384308,-0.46115243434906006,0.7547277808189392,0.15103134512901306,0.716010363648037,-0.5917217359281887,0.001138345917734179,0.3703963325921708
1681569291623623200,3.168623046875,2.6158816814422607,0.8196739554405212,-3.426676034927368,0.412433385848999,0.8536893725395203,-0.31798338890075684,-0.26228687167167664,1.223947525024414,0.14804628491401672,0.7300789796946265,-0.5839573991948713,-0.0014359603076137242,0.3549318029313438
1681569291633623000,3.178623046875,2.5407052040100098,0.4325866997241974,-3.286778450012207,0.38598722219467163,0.8584893345832825,-0.3376539349555969,0.0857534408569336,1.9744575023651123,0.0526503324508667,0.7434062075302512,-0.5754607724753165,-0.004235232756912149,0.34084359040106776
1681569291643623200,3.188623046875,2.0954716205596924,0.05368712544441223,-3.4410781860351562,0.3579462170600891,0.8628050684928894,-0.35699015855789185,0.4128056764602661,2.65620756149292,-0.12640812993049622,0.7557188963476801,-0.5669424051360517,-0.009012748012687742,0.32769503596672606
1681569291653623000,3.198623046875,1.3266613483428955,-0.1836729645729065,-3.817168712615967,0.3263701796531677,0.868902862071991,-0.37214288115501404,0.7054595947265625,3.1843655109405518,-0.2897680699825287,0.7663621983495741,-0.5600436900490077,-0.016722141386971996,0.3142617337090733
1681569291663623200,3.208623046875,0.7811532020568848,-0.32176345586776733,-4.250365734100342,0.2899642586708069,0.8775220513343811,-0.3819372355937958,1.317854404449463,3.5340685844421387,-0.28597044944763184,0.7754287389223468,-0.5552275540170322,-0.02745443178503147,0.29946475100715697
1681569291673622000,3.2186220703125,0.7343148589134216,-0.49501967430114746,-4.511515140533447,0.24964748322963715,0.8865607380867004,-0.38946929574012756,1.8145157098770142,3.5033013820648193,-0.05112814903259277,0.7837755991761325,-0.5510487213007154,-0.04013299366484818,0.28360287344334983
1681569291683622100,3.2286220703125,1.10799241065979,-0.6140685677528381,-4.638071060180664,0.2066171020269394,0.8934797644615173,-0.3987525403499603,1.879122018814087,3.046400785446167,0.18563312292099,0.7924215268332938,-0.5456571262496066,-0.05368457425482737,0.26729122498099356
1681569291693622000,3.2386220703125,1.6725475788116455,-0.6286728382110596,-4.635655403137207,0.16247908771038055,0.8964239954948425,-0.4123406708240509,1.7845728397369385,2.434813976287842,0.2254510521888733,0.8020128602897142,-0.5379068756252221,-0.06697651362527611,0.2508902049729335
1681569291703622100,3.2486220703125,2.161036729812622,-0.5319397449493408,-4.447537899017334,0.11920168995857239,0.8947334885597229,-0.43039852380752563,1.679733157157898,1.8631248474121094,0.1436401903629303,0.8124553650906344,-0.5277659748571188,-0.0791442472546137,0.23476695907005876
1681569291713622000,3.2586220703125,2.489492893218994,-0.35191136598587036,-4.113826274871826,0.07900825887918472,0.8886522650718689,-0.4517245292663574,1.5873429775238037,1.362950086593628,0.1358523964881897,0.8232399265735003,-0.5158751744391059,-0.08950163465553457,0.2194047232828801
1681569291723621000,3.26862109375,2.582242727279663,-0.07974643260240555,-3.803905487060547,0.04298241063952446,0.8792460560798645,-0.4744250476360321,1.5080124139785767,0.9005087614059448,0.228346586227417,0.8338322085993098,-0.5032100932623852,-0.09781140861854017,0.20478426478108325
1681569291733621200,3.278621337890625,2.3867926597595215,0.3229192793369293,-3.526841640472412,0.01154918223619461,0.8680732846260071,-0.4963017404079437,1.4109208583831787,0.4371330738067627,0.3882238566875458,0.8437398024851052,-0.4909617867201779,-0.10395021351730686,0.19040488744696024
1681569291743621000,3.28862109375,2.0488805770874023,0.8017274737358093,-3.3303098678588867,-0.015106752514839172,0.8568099141120911,-0.5154111981391907,1.2677006721496582,0.015519857406616211,0.5882261991500854,0.8525462498662931,-0.4802760451746042,-0.10783939252535824,0.1757003999302742
1681569291753621000,3.29862109375,1.7348021268844604,1.2366811037063599,-3.1192517280578613,-0.037264008074998856,0.8460425734519958,-0.5318114161491394,1.1177997589111328,-0.3431891202926636,0.7819182872772217,0.8603265734063951,-0.47126815961031016,-0.10954733767143059,0.16044895123352582
1681569291763621000,3.30862109375,1.4336355924606323,1.5144267082214355,-2.824791669845581,-0.05478880926966667,0.8361430168151855,-0.5457683801651001,0.9955083131790161,-0.6314615607261658,0.8569867610931396,0.8670579282052446,-0.4638642783181491,-0.10929652443289956,0.14524078903455073
1681569291773620200,3.3186201171875,1.0350559949874878,1.628258228302002,-2.5276198387145996,-0.06833547353744507,0.8276360630989075,-0.5570896863937378,0.9463566541671753,-0.8449242115020752,0.8066930770874023,0.8726288150050281,-0.4580932789675822,-0.10772974028169906,0.1306291530626879
1681569291783620000,3.3286201171875,0.5207316875457764,1.6092126369476318,-2.1928560733795166,-0.07870028913021088,0.8214811682701111,-0.564778745174408,0.9016066789627075,-1.0564817190170288,0.7823081016540527,0.8767542131837366,-0.4543953776560932,-0.10552476062319,0.11701072551622518
1681569291793620200,3.3386201171875,-0.12271839380264282,1.5346617698669434,-1.8395130634307861,-0.08633392304182053,0.8186704516410828,-0.5677369832992554,0.8306880593299866,-1.2847806215286255,0.8144410848617554,0.8791525857203318,-0.45332737915223786,-0.1030815547411605,0.10468693517938668
1681569291803620000,3.3486201171875,-0.7484890222549438,1.4278595447540283,-1.3969241380691528,-0.09123919159173965,0.819746196269989,-0.5654128193855286,0.7787696123123169,-1.5080243349075317,0.8921188116073608,0.8797050823338811,-0.4551920553009286,-0.1004678307281461,0.09394378348008134
1681569291813620000,3.358619873046875,-1.2291285991668701,1.3138940334320068,-0.8952950835227966,-0.0929282158613205,0.8242993354797363,-0.5584755539894104,0.7347280383110046,-1.6992383003234863,1.0183603763580322,0.8786151040317118,-0.4596264766176611,-0.09749728307648184,0.08528333058234135
1681569291823619000,3.368619140625,-1.6310789585113525,1.1727051734924316,-0.39497894048690796,-0.09136218577623367,0.8316174745559692,-0.5477822422981262,0.7386399507522583,-1.8418865203857422,1.111014723777771,0.8761677640652252,-0.46610578371560574,-0.09409724711990462,0.07887454685593731
1681569291833619200,3.378619140625,-2.0045547485351562,0.9835352897644043,0.10363242775201797,-0.08673018217086792,0.8413191437721252,-0.533535361289978,0.7870932817459106,-1.9166975021362305,1.1509060859680176,0.8724467619173518,-0.47440275448750746,-0.09041213397979139,0.07486187993211467
1681569291843619000,3.388619140625,-2.246258497238159,0.7663795351982117,0.6398270726203918,-0.07902980595827103,0.852802038192749,-0.5162197947502136,0.8131453394889832,-1.9918553829193115,1.1323392391204834,0.867595266663978,-0.4841553127922667,-0.08650850995943464,0.07340510055913016
1681569291853619200,3.398619140625,-2.3277206420898438,0.5221341252326965,1.2073941230773926,-0.06783400475978851,0.8651166558265686,-0.4969624876976013,0.8138513565063477,-2.024204730987549,1.0623769760131836,0.8619050020519334,-0.4947162653278384,-0.08230780508975104,0.07483988409062221
1681569291863619000,3.408619140625,-2.213970422744751,0.2601969540119171,1.7839443683624268,-0.052878547459840775,0.8771274089813232,-0.47733789682388306,0.7997656464576721,-2.0268619060516357,0.9630404710769653,0.8557853853524772,-0.5052571393908614,-0.0777578374157797,0.07937492559396833
1681569291873618200,3.4186181640625,-1.923997402191162,0.011254513636231422,2.346820831298828,-0.03400607779622078,0.8877522945404053,-0.45906373858451843,0.747979998588562,-2.0270802974700928,0.8742554187774658,0.8496775144085806,-0.5149483187991287,-0.07277604264081841,0.08706335352618712
1681569291883618000,3.4286181640625,-1.5312774181365967,-0.18025746941566467,2.869058847427368,-0.011102012358605862,0.8961641192436218,-0.44358396530151367,0.6843807101249695,-1.954605221748352,0.8052173256874084,0.8439426574571108,-0.5231603846346591,-0.06716568019044297,0.09773862435116251
1681569291893618200,3.4386181640625,-1.1186189651489258,-0.2873343527317047,3.330190658569336,0.015740105882287025,0.901888370513916,-0.4316824972629547,0.6716225147247314,-1.8298516273498535,0.7390403151512146,0.8387618532937192,-0.5295982153286646,-0.060699982719322046,0.11099524331462614
1681569291903618000,3.4486181640625,-0.758701741695404,-0.322276771068573,3.755587577819824,0.04645382985472679,0.9047660231590271,-0.4233682453632355,0.7023406624794006,-1.6983908414840698,0.6992930173873901,0.8340943709756413,-0.5343176043274617,-0.053109021172498036,0.12637586710534235
1681569291913618200,3.4586181640625,-0.534028947353363,-0.289735347032547,4.144135475158691,0.08089552074670792,0.9049317240715027,-0.417797327041626,0.731985867023468,-1.5865570306777954,0.6830256581306458,0.8296461052897636,-0.5377212424047951,-0.04424025161976202,0.1434786426535223
1681569291923617000,3.468616943359375,-0.43918558955192566,-0.20520129799842834,4.517069339752197,0.1189907118678093,0.9026042222976685,-0.41369932889938354,0.7683078050613403,-1.4954843521118164,0.6817047595977783,0.8249939991465403,-0.5403666187626582,-0.03397438046800006,0.1619715441362055
1681569291933617200,3.4786171875,-0.30855220556259155,-0.15116149187088013,4.927241802215576,0.16074682772159576,0.8975952863693237,-0.4104669988155365,0.7917830348014832,-1.4020965099334717,0.7046107649803162,0.819872678074661,-0.5424683253176297,-0.022240023736143193,0.1817754043108156
1681569291943617000,3.488616943359375,0.1587405651807785,-0.0774599090218544,5.378636360168457,0.20634375512599945,0.888537585735321,-0.40978434681892395,0.7714088559150696,-1.3412506580352783,0.6971074342727661,0.8146274342635901,-0.5431667984350158,-0.008811853337282988,0.2031608947256301
1681569291953617200,3.4986171875,0.6419833898544312,-0.05986759811639786,5.631912708282471,0.25479963421821594,0.8740449547767639,-0.4136697053909302,0.7688666582107544,-1.2217011451721191,0.6160928606987,0.8098553972114474,-0.5414096463814481,0.006383031684113358,0.22576341491079407
1681569291963617000,3.508616943359375,0.6930543184280396,0.0741720199584961,5.757832050323486,0.30397582054138184,0.8552245497703552,-0.41974952816963196,0.8718664050102234,-0.8253172636032104,0.45009928941726685,0.8049890197893633,-0.5381616745800301,0.022522101171307037,0.24873168654146452
1681569291973616400,3.518616455078125,0.16130390763282776,0.3767750561237335,5.989134311676025,0.3545215427875519,0.8339069485664368,-0.42298194766044617,1.213807225227356,-0.09533572196960449,0.35070109367370605,0.7985835140646099,-0.5356533612906242,0.03980586015284295,0.2715794906284525
1681569291983616300,3.5286162109375,-1.0618255138397217,0.5853151082992554,6.147461891174316,0.4065757095813751,0.812465488910675,-0.4178469479084015,1.6797736883163452,0.5537760257720947,0.38354524970054626,0.7887824705887175,-0.5364512207109844,0.05741620434952951,0.2945262335957114
1681569291993616400,3.538616455078125,-3.1371777057647705,0.736189603805542,5.98790979385376,0.4583081603050232,0.7944517135620117,-0.3984973728656769,2.0404558181762695,1.0342227220535278,0.33070266246795654,0.7737052241233912,-0.5434806126582397,0.07334939622825948,0.3172206340028531
1681569292003616300,3.5486162109375,-5.5490946769714355,0.6408870816230774,5.181200981140137,0.5052730441093445,0.7839633822441101,-0.3606945276260376,2.3836734294891357,1.5190914869308472,0.17647522687911987,0.7521792414558426,-0.5590597203458534,0.08429096804377839,0.3384872821121318
1681569292013616400,3.558616455078125,-7.002496719360352,0.46240469813346863,4.377895355224609,0.5443459153175354,0.780237078666687,-0.3080870807170868,2.7123374938964844,2.0001280307769775,-0.022250324487686157,0.7255450834749435,-0.581432991778367,0.08883770436506958,0.3572504460614344
1681569292023616300,3.5686162109375,-7.168453693389893,0.22605210542678833,3.8545947074890137,0.5772417783737183,0.7772395610809326,-0.25038084387779236,2.747465133666992,2.48724102973938,-0.20459040999412537,0.6966337545941442,-0.6056970307213878,0.0891105169944407,0.3740211517000867
1681569292033615400,3.578615478515625,-6.321506500244141,0.07889513671398163,3.5755398273468018,0.6062670350074768,0.770506739616394,-0.196874737739563,2.466578483581543,2.901566743850708,-0.28862935304641724,0.6685470172385398,-0.6275372552206245,0.08808874715450077,0.38920725903303866
1681569292043615200,3.588615234375,-4.822970390319824,-0.05178896710276604,3.4059457778930664,0.6329464912414551,0.7587300539016724,-0.1539718061685562,2.0476717948913574,3.134733200073242,-0.26056358218193054,0.6438392430768187,-0.6443964116458195,0.08813262377764282,0.4030593596235865
1681569292053615400,3.598615478515625,-3.2653212547302246,-0.1498343050479889,3.2730185985565186,0.6578866243362427,0.7427821159362793,-0.12433856725692749,1.5675618648529053,3.0562291145324707,-0.31686925888061523,0.6239443467255038,-0.6554810486275449,0.09041742813689115,0.41576774147489365
1681569292063615200,3.608615234375,-2.006113052368164,-0.20863378047943115,3.1776928901672363,0.6813304424285889,0.7242059707641602,-0.10637132078409195,1.0665333271026611,2.6823339462280273,-0.4567084312438965,0.6086241815283091,-0.6616609826802784,0.09496886304857854,0.42750726820659274
1681569292073615400,3.618615478515625,-1.1164156198501587,-0.2507985532283783,3.120070695877075,0.7035874128341675,0.7039614319801331,-0.09696958214044571,0.62440025806427,2.1285581588745117,-0.5078276991844177,0.5968178425154788,-0.6642560153655562,0.10138617534861821,0.43851258607647614
1681569292083614500,3.628614501953125,-0.5757772922515869,-0.2523527443408966,3.0283267498016357,0.7246887683868408,0.6827627420425415,-0.09306678175926208,0.2517210841178894,1.619849681854248,-0.48121291399002075,0.587388478271425,-0.6645131394243172,0.10903622521863113,0.4488967231283117
1681569292093614300,3.6386142578125,-0.4393309950828552,-0.22688175737857819,2.8685734272003174,0.7443155646324158,0.6615152359008789,-0.091607965528965,-0.06607770919799805,1.3143606185913086,-0.40204429626464844,0.5792388240906646,-0.6636961555314546,0.11706165977693286,0.45856997368449653
1681569292103614200,3.6486142578125,-0.7901162505149841,-0.18960948288440704,2.656787395477295,0.7621493339538574,0.6412020325660706,-0.0893782302737236,-0.3849673867225647,1.1524381637573242,-0.2964401841163635,0.5710151403978712,-0.6632238567393477,0.12427791185032533,0.46757981041426866
1681569292113614300,3.6586142578125,-1.4759297370910645,-0.15545684099197388,2.40275239944458,0.7779977321624756,0.6226789951324463,-0.0836096853017807,-0.7078683376312256,0.983842670917511,-0.23389512300491333,0.5614274964007675,-0.664389477816804,0.12954450479141602,0.47602953699693973
1681569292123614200,3.6686142578125,-2.214836359024048,-0.11945582926273346,2.1654510498046875,0.791912317276001,0.6062164902687073,-0.07332699745893478,-0.9998131990432739,0.8112183809280396,-0.22069454193115234,0.5498791758046034,-0.6677036131574502,0.1323192652265348,0.48404194285903257
1681569292133613300,3.67861328125,-2.7590761184692383,-0.08885131776332855,1.9092011451721191,0.8040618300437927,0.5915935039520264,-0.059175748378038406,-1.229949951171875,0.7039235234260559,-0.2873360514640808,0.5365810098981806,-0.6728940822641457,0.13276174259043824,0.49159816655422517
1681569292143613400,3.688613525390625,-3.0092380046844482,-0.10040996223688126,1.5864667892456055,0.8142662048339844,0.5789034366607666,-0.042912621051073074,-1.3951377868652344,0.6308897137641907,-0.42275500297546387,0.522481011380076,-0.6792048395849056,0.1312420516663998,0.49846762412118184
1681569292153613300,3.69861328125,-2.8391385078430176,-0.15304867923259735,1.232941746711731,0.8223090767860413,0.5683991312980652,-0.02702748216688633,-1.5566840171813965,0.5611481070518494,-0.5648303627967834,0.5089619812304889,-0.6855791363501608,0.12832578454744856,0.5044517255041369
1681569292163613400,3.708613525390625,-2.237475633621216,-0.21436981856822968,0.8860878944396973,0.8282410502433777,0.5601955652236938,-0.014060643501579762,-1.7423036098480225,0.5249637365341187,-0.6862871646881104,0.4975701604071745,-0.6909003572293699,0.1250054984454041,0.5093665389417654
1681569292173613300,3.71861328125,-1.3153020143508911,-0.28882408142089844,0.5853296518325806,0.832294762134552,0.5542987585067749,-0.006215491332113743,-1.9029886722564697,0.5181348323822021,-0.7904152870178223,0.4896694187296828,-0.6942073162661642,0.12234564312224096,0.513158613577094
1681569292183612400,3.7286123046875,-0.3235827386379242,-0.36397022008895874,0.27817821502685547,0.834662139415741,0.5507446527481079,-0.004426144063472748,-2.0270297527313232,0.5240387916564941,-0.8729236125946045,0.48592050427715916,-0.6950963677735325,0.120946134255418,0.5158433862318174
1681569292193612300,3.7386123046875,0.5105438232421875,-0.4142954647541046,-0.0424935556948185,0.8352855443954468,0.5497540235519409,-0.00829446129500866,-2.1198923587799072,0.5287067294120789,-0.9040131568908691,0.4862279455838072,-0.693749840266725,0.12068110209499563,0.5174260405659856
1681569292203612400,3.7486123046875,1.090360164642334,-0.44968873262405396,-0.4158235788345337,0.8339287638664246,0.5516260862350464,-0.016489194706082344,-2.1686148643493652,0.5207006931304932,-0.8856865763664246,0.48995601259132454,-0.6907478982406214,0.12092453740105269,0.5178686596761255
1681569292213612300,3.7586123046875,1.410829782485962,-0.4651385247707367,-0.7948329448699951,0.8304522633552551,0.5564178824424744,-0.027355339378118515,-2.1541521549224854,0.5160309672355652,-0.835345983505249,0.49617269227419925,-0.6867972315644211,0.12096236029363396,0.5171947422787325
1681569292223612400,3.7686123046875,1.5327118635177612,-0.4506436586380005,-1.1765202283859253,0.8247820734977722,0.5640707612037659,-0.03948449715971947,-2.087507724761963,0.5427714586257935,-0.7754110097885132,0.5040742762451644,-0.6824897519211628,0.12027256846677722,0.515413951211746
1681569292233612300,3.7786123046875,1.494696855545044,-0.4150073826313019,-1.5985132455825806,0.8166783452033997,0.5747712850570679,-0.051718004047870636,-1.9728214740753174,0.5534026622772217,-0.6982818841934204,0.5130757084790846,-0.6783317817301858,0.11835114089437325,0.5124573216454429
1681569292243611400,3.788611328125,1.3904399871826172,-0.37141215801239014,-2.0031585693359375,0.805954098701477,0.5885816216468811,-0.06332371383905411,-1.8466949462890625,0.553279459476471,-0.6124421954154968,0.5227988405791876,-0.674635429277386,0.11491379647725415,0.5082749062130767
1681569292253611300,3.798611328125,1.3534406423568726,-0.32109493017196655,-2.4282565116882324,0.7924938797950745,0.6053438186645508,-0.07424580305814743,-1.7142620086669922,0.5465880632400513,-0.5317416787147522,0.5331690813755684,-0.6714036705342308,0.1099736731619795,0.5028456072611354
1681569292263611400,3.808611328125,1.4848151206970215,-0.2261539101600647,-2.8537793159484863,0.775999903678894,0.6249688863754272,-0.08507642894983292,-1.5606985092163086,0.50315922498703,-0.4646671414375305,0.5446343688317542,-0.6683343355603854,0.10387974292700881,0.49589472145865876
1681569292273611300,3.818611328125,1.8989685773849487,-0.0855611115694046,-3.2049262523651123,0.7565691471099854,0.6466807723045349,-0.09699113667011261,-1.4256365299224854,0.5062886476516724,-0.3895047903060913,0.5577518617352962,-0.6648389745981771,0.0974349412922715,0.4872459005112454
1681569292283611400,3.828611328125,2.48279070854187,0.027363240718841553,-3.5393660068511963,0.7343225479125977,0.6695587038993835,-0.11163114756345749,-1.2948694229125977,0.5730255246162415,-0.30017298460006714,0.5731559880068782,-0.6601678358527199,0.09144864428977915,0.4767680352602237
1681569292293610200,3.8386103515625,2.9062211513519287,0.11686542630195618,-3.8882336616516113,0.7091213464736938,0.6930877566337585,-0.1295238435268402,-1.1456753015518188,0.640469491481781,-0.22017693519592285,0.5907595954674404,-0.6541151894045301,0.08585684048677672,0.4645052138345314
1681569292303610400,3.8486103515625,3.2504780292510986,0.1537037342786789,-4.207430362701416,0.6807227730751038,0.7169511914253235,-0.15032494068145752,-0.9953285455703735,0.6939681172370911,-0.14037013053894043,0.6100050802904179,-0.6468516068953655,0.08012819250389469,0.4506177145713428
1681569292313610200,3.8586103515625,3.3962273597717285,0.19090063869953156,-4.501236915588379,0.649259090423584,0.7405044436454773,-0.17353959381580353,-0.8487677574157715,0.7442826628684998,-0.006071567535400391,0.6303166068563958,-0.63854960490066,0.07405813165448025,0.43528249289795673
1681569292323610400,3.8686103515625,3.3612685203552246,0.24574798345565796,-4.591753959655762,0.6152765154838562,0.7631451487541199,-0.1975964605808258,-0.703014612197876,0.8801654577255249,0.12186719477176666,0.650729608075739,-0.6298001470834398,0.06747992845918659,0.41874722823386246
1681569292333610200,3.8786103515625,3.1740267276763916,0.24657702445983887,-4.445183277130127,0.5808818936347961,0.7832726240158081,-0.22149540483951569,-0.5775097608566284,1.2060920000076294,0.18316546082496643,0.6701723691465549,-0.6209203609285345,0.06091142082437034,0.40201578007130073
1681569292343610400,3.8886103515625,2.7063772678375244,0.028344284743070602,-4.492065906524658,0.5459047555923462,0.8015244007110596,-0.24402213096618652,-0.3387514352798462,1.56468665599823,0.1345098614692688,0.6880248145054836,-0.6124737941243107,0.05352372517241175,0.38552951373528743
1681569292353609200,3.898609130859375,2.2305402755737305,-0.376873254776001,-4.537484169006348,0.5087437033653259,0.8191563487052917,-0.2648828327655792,-0.022629261016845703,1.9947781562805176,0.006322741508483887,0.7040928618764272,-0.6046852688156089,0.04375284310088768,0.36972255992468434
1681569292363609300,3.908609375,1.9843837022781372,-0.5101487636566162,-4.575038909912109,0.46991482377052307,0.8356256484985352,-0.28444671630859375,0.29172760248184204,2.7035436630249023,-0.19130700826644897,0.7186883223359194,-0.5972733633789076,0.032267201372812776,0.3545568374593268
1681569292373609200,3.918609130859375,1.9663021564483643,-0.6216896772384644,-5.010238170623779,0.42800816893577576,0.8512849807739258,-0.3035176694393158,1.0631569623947144,3.5813474655151367,-0.36783844232559204,0.7328581987103359,-0.5897980928700716,0.019477500627558875,0.3386410474257494
1681569292383609300,3.928609375,2.1603682041168213,-0.765622079372406,-5.575740337371826,0.37975651025772095,0.8663638234138489,-0.32434386014938354,1.8407481908798218,4.108428955078125,-0.3041808605194092,0.7478181205373327,-0.5812119996533771,0.004547265784305638,0.3208428640676762
1681569292393609200,3.938609130859375,2.783111572265625,-0.9077075719833374,-5.922005653381348,0.3266109526157379,0.8785144686698914,-0.34862247109413147,2.0119967460632324,4.0021467208862305,-0.07554128766059875,0.7638060249787328,-0.5705769532788978,-0.01143262487355686,0.30151548227984865
1681569292403608300,3.9486083984375,3.7551770210266113,-1.0020183324813843,-5.988282203674316,0.2704538106918335,0.8844454288482666,-0.380277544260025,2.0654072761535645,3.5105435848236084,0.016614913940429688,0.7816086844561533,-0.5559863605849555,-0.02721029172159129,0.2814722099131571
1681569292413608200,3.958608154296875,4.4739837646484375,-1.0950068235397339,-5.945135116577148,0.21347784996032715,0.8823193907737732,-0.4194517731666565,2.1971514225006104,3.0109455585479736,-0.10549628734588623,0.8008571128491953,-0.5371260555743417,-0.04206788587984793,0.26144568574769095
1681569292423608300,3.9686083984375,4.6746721267700195,-1.123160481452942,-5.738529682159424,0.15712934732437134,0.8728689551353455,-0.4619635045528412,2.2155208587646484,2.4322609901428223,-0.18728268146514893,0.8200766335505543,-0.5156145215796626,-0.05621316561294474,0.24177708766593434
1681569292433608200,3.978608154296875,4.275661468505859,-1.0535449981689453,-5.408555030822754,0.1035735234618187,0.8583555221557617,-0.5024921298027039,2.1322357654571533,1.7907991409301758,-0.03202313184738159,0.8376074411180954,-0.49387665127968045,-0.0695685695623408,0.22284494364202762
1681569292443608300,3.9886083984375,3.3435373306274414,-0.8812453746795654,-5.060032367706299,0.05396105349063873,0.8425639271736145,-0.5358864665031433,2.1244752407073975,1.2179219722747803,0.24059844017028809,0.8521186539470037,-0.4746455309298328,-0.08227028973658869,0.2045412168465247
1681569292453607400,3.998607421875,2.1570091247558594,-0.3944152295589447,-4.773335933685303,0.009298288263380527,0.829006552696228,-0.5591614842414856,2.1083621978759766,0.5588260889053345,0.5672029852867126,0.863073859871626,-0.4600072883200992,-0.09387516978758427,0.18623693916216794
1681569292463607300,4.008607177734375,1.0852911472320557,0.13755851984024048,-4.493278503417969,-0.029554009437561035,0.8194632530212402,-0.5723692774772644,2.0049567222595215,-0.09073394536972046,0.9382140040397644,0.8707650011521068,-0.4506694140989581,-0.10350098999290355,0.16719136586652816
1681569292473607400,4.018607421875,0.3507026433944702,0.4044615924358368,-4.068423748016357,-0.0629134401679039,0.813462495803833,-0.5782048106193542,1.866227626800537,-0.5494548678398132,1.261005163192749,0.8758652440514509,-0.44554404207718645,-0.11130187161291233,0.14819796221266673
1681569292483607300,4.028607177734375,-0.1125335842370987,0.4758993089199066,-3.624897003173828,-0.09155809879302979,0.8098556995391846,-0.5794401168823242,1.7044730186462402,-0.9045059680938721,1.3932218551635742,0.8790448868159381,-0.44317084147744396,-0.11781151488009574,0.1303843953686317
1681569292493607200,4.038607177734375,-0.3891018033027649,0.4844192862510681,-3.085695505142212,-0.11596069484949112,0.8078756332397461,-0.5778322815895081,1.6317076683044434,-1.237837791442871,1.3623172044754028,0.8808161153084986,-0.44258700333829526,-0.12329076799686323,0.1143642862401526
1681569292503607300,4.048607177734375,-0.49294063448905945,0.46706610918045044,-2.411438465118408,-0.13546399772167206,0.8070116639137268,-0.5747884511947632,1.6071131229400635,-1.5572099685668945,1.3922629356384277,0.8815997503828545,-0.4431045519462392,-0.12753089638026005,0.10087734451992648
1681569292513606400,4.0586064453125,-0.543891966342926,0.43736228346824646,-1.632651686668396,-0.149211123585701,0.8070531487464905,-0.571315348148346,1.55042564868927,-1.8598332405090332,1.5544239282608032,0.8817274231840858,-0.4442630998349168,-0.13027905483128052,0.09063335124934244
1681569292523606300,4.068606201171875,-0.7261534929275513,0.39411142468452454,-0.9297704696655273,-0.15712541341781616,0.8086628317832947,-0.5669004321098328,1.4707239866256714,-2.0553364753723145,1.70992112159729,0.881162262356824,-0.4463677654625982,-0.13155072364461443,0.08368621343702073
1681569292533606400,4.0786064453125,-1.0236070156097412,0.36384379863739014,-0.32322007417678833,-0.1600632667541504,0.812616765499115,-0.5603870749473572,1.3688644170761108,-2.1302742958068848,1.790520191192627,0.8797004192519569,-0.4499741774518576,-0.13164232716957575,0.07950272795404315
1681569292543606300,4.088606201171875,-1.1613843441009521,0.4012078046798706,0.3276406228542328,-0.15797826647758484,0.818759560585022,-0.5519742965698242,1.2320138216018677,-2.1706576347351074,1.7909269332885742,0.8774493316212609,-0.45497664234979623,-0.13041894883231323,0.07790924414150445
1681569292553606100,4.098606201171875,-1.1891862154006958,0.4857117533683777,0.9855980277061462,-0.15016254782676697,0.8262040019035339,-0.5429900884628296,1.1340644359588623,-2.181474447250366,1.7266297340393066,0.8747868499508448,-0.46072074128402335,-0.12744161544798857,0.07901310062651447
1681569292563606300,4.108606201171875,-1.2389044761657715,0.5887281894683838,1.617553949356079,-0.13646820187568665,0.8345720171928406,-0.5337284207344055,1.0737392902374268,-2.1413652896881104,1.6232212781906128,0.871794430511927,-0.46702509347159477,-0.12256977221022115,0.08269693358180293
1681569292573605400,4.11860546875,-1.2827749252319336,0.6987329721450806,2.2230310440063477,-0.11696203052997589,0.8436893820762634,-0.5239353179931641,0.9765810966491699,-2.1036839485168457,1.5520572662353516,0.868380745963993,-0.47394338878002173,-0.1158015346046493,0.08878445608044577
1681569292583605200,4.128605224609375,-1.2531039714813232,0.8483415842056274,2.7900850772857666,-0.09166702628135681,0.852907121181488,-0.5139520764350891,0.8445813655853271,-2.050111770629883,1.4997309446334839,0.8646066274915859,-0.4812085174967187,-0.10706219827744562,0.0971162644786258
1681569292593605400,4.13860546875,-1.170929193496704,1.0474698543548584,3.2899723052978516,-0.06075454130768776,0.8614224195480347,-0.5042423009872437,0.7305390238761902,-1.9442623853683472,1.4049992561340332,0.860582756177937,-0.4884883503826044,-0.09621839385872043,0.10732419750520134
