,seconds_elapsed,rotationRateX,rotationRateY,rotationRateZ,gravityX,gravityY,gravityZ,accelerationX,accelerationY,accelerationZ,quaternionX,quaternionY,quaternionZ
0,3.0,-2.562121379386808,-1.4000250470775362,0.10394352694657488,0.6585145710068129,0.7255386665171311,-0.19984173552215023,-1.6328724227923337,-0.2207888501175747,-0.2847341681345147,-0.6296502135384876,0.06003636153724455,0.4637504044769837
1,3.01,-2.597457657656227,-1.3099851502650837,-0.1322642437655076,0.6557348155779168,0.7307245879837826,-0.18982992713291946,-1.7122110281063478,-0.25793506043652964,-0.3801480115331712,-0.6345054300347258,0.0497236239160124,0.4687084889898172
2,3.0199999999999996,-2.2086985199683355,-1.1706022172322332,-0.3322156538677448,0.6516981683947962,0.7367665783458504,-0.18014075071223512,-1.7694851912907317,-0.3057356991688707,-0.42910768198926197,-0.6390311270226037,0.03946060684940166,0.472501294800325
3,3.0299999999999994,-1.5453262487397874,-0.9837882151449047,-0.5191881224338278,0.6465934613122959,0.7428911983370194,-0.17326039915751634,-1.789799956724165,-0.33297038593882655,-0.433982691902204,-0.6422158810386235,0.0303503543064333,0.47500988520450177
4,3.039999999999999,-0.7887810760130815,-0.7415042967532164,-0.7151643083126206,0.6402948173031531,0.7490005999117398,-0.1703251006260011,-1.7744307686753535,-0.30067592130927645,-0.40474408909505055,-0.6436685904973449,0.02289895251357349,0.4760783088011372
5,3.049999999999999,-0.06791629598510006,-0.465408700654696,-0.8815361184957382,0.633212542193951,0.7548374534657311,-0.17102617950527124,-1.7292929926566138,-0.23134791317292958,-0.38673332625251056,-0.6435675821638621,0.017488788735474454,0.4756686146109623
6,3.0599999999999987,0.5536137354586986,-0.18043512977426257,-1.0414257790092245,0.6253652420724121,0.7604405393092487,-0.17501904013400954,-1.66489559666978,-0.19621552158605846,-0.3625850134461621,-0.6421001554907262,0.014025077805463214,0.47380896889144575
7,3.0699999999999985,1.0136235708771766,0.09030150628947195,-1.2710857674427758,0.6164970725549948,0.7661702864416114,-0.18135664214504862,-1.5863833719493383,-0.19997755666796357,-0.3393357240685743,-0.6396677252936005,0.012068447190392403,0.4704208047205811
8,3.0799999999999983,1.3650288379551851,0.3251618152061797,-1.5671493490005697,0.6059790072486874,0.7726116186808043,-0.18927910997152,-1.5117978727947763,-0.20599655933653427,-0.31768480712180686,-0.6365832864827551,0.010982758987669561,0.4653507078401096
9,3.089999999999998,1.6355331279694365,0.525125395720772,-1.9274420672385022,0.5932584312349305,0.7801471979619976,-0.1984127954500947,-1.434473676244272,-0.1886676226283666,-0.27795460652119647,-0.6329984028560246,0.010232713225021712,0.45852321689015646
10,3.099999999999998,1.8889085518911817,0.7225777585755606,-2.290828662651851,0.5779353913168722,0.788931392132688,-0.20860548067218065,-1.3284646933445945,-0.12505889070597856,-0.2581660752643044,-0.628970645656858,0.009526298191272028,0.449820015674827
11,3.1099999999999977,2.1801644340042174,0.8725480341457014,-2.6044741693832907,0.5601892575765369,0.7985203600747703,-0.22016982403725063,-1.1969535078587605,-0.023613551036750308,-0.21332256465718855,-0.6243654199932731,0.008916495600232876,0.4393742470373067
12,3.1199999999999974,2.479896664220667,0.9584827866146993,-2.919900605595882,0.5400954984247309,0.8084068020244956,-0.23382536591354727,-1.074302513988647,0.04700086922858407,-0.14215060185548895,-0.6188795882297071,0.008390624998871356,0.42740142661172775
13,3.1299999999999972,2.701144078556764,0.9759017357795068,-3.239079042204943,0.5173465979236422,0.8183972158685539,-0.24991287394261474,-0.9668819688197421,0.11898905158303548,-0.03845151847919132,-0.6123558119961523,0.007598390059224554,0.4140515146370844
14,3.139999999999997,2.6686455590491067,0.9584273044297907,-3.5245680240170882,0.4919769676768219,0.8284884679509815,-0.2672600287082119,-0.8237941204164886,0.2891628383666876,0.0445490979977292,-0.605248737055749,0.006092500545928014,0.3994805540302624
15,3.149999999999997,2.5826544456234726,0.921035725869759,-3.67605478388889,0.4644178240671384,0.8385340864748144,-0.28466642689546023,-0.6198770090654048,0.5287051296576175,0.10607117104436757,-0.5980353871637403,0.003621704875599127,0.3840116677190291
16,3.1599999999999966,2.5721440094268546,0.9031832457019858,-3.6286220215927605,0.43618347202036145,0.847501861925688,-0.30224030354208864,-0.43378632654441796,0.8192976235363779,0.15062056772468455,-0.5906532770496637,0.0007840928196282356,0.36826824173446493
17,3.1699999999999964,2.6055302328896053,0.7663738548000365,-3.407412793254531,0.40879187308019993,0.8543503048131225,-0.3206919308868164,-0.2143633520755795,1.3272892308884343,0.13491070942840308,-0.5827874535235295,-0.0018214070022914575,0.3529919221044262
18,3.179999999999996,2.4793986266014896,0.38041400443776663,-3.308024800382497,0.38212610722986157,0.8590835909126311,-0.3403164423070776,0.13078700064203622,2.0683312898033552,0.02799482151756217,-0.5742878332225497,-0.004893074213027858,0.33903309608931265
19,3.189999999999996,1.9896100498739064,0.02100375367454691,-3.4928640886208355,0.35359834472184437,0.8636447060853217,-0.3590766174311221,0.453102749190173,2.7289324353912536,-0.14890202792587492,-0.5659924844062955,-0.010074295342542025,0.3258453332144571
20,3.1999999999999957,1.2515474336689751,-0.2026873779249733,-3.8768179118631463,0.32135725498666645,0.8700896840309689,-0.37349151785019374,0.78978348942448,3.2325179849284176,-0.2892451554362212,-0.5593805306930443,-0.018199927467168975,0.312224258551882
21,3.2099999999999955,0.7747031518730716,-0.3456223549780566,-4.286328295197075,0.2844122854925805,0.8787667576846817,-0.38297446626146764,1.3862490172681479,3.529831671134992,-0.25363060731616366,-0.554652092142827,-0.029200380827953752,0.29728043150672784
22,3.2199999999999953,0.7858049981236062,-0.5114237747562012,-4.528953656414463,0.24371819925729382,0.8875141312717427,-0.39074846157454435,1.8234180049854023,3.440343692433309,-0.01850411048519604,-0.5503057974123279,-0.042000306185589704,0.28135524297652315
23,3.229999999999995,1.1857841433023153,-0.6160809335356973,-4.637738199625166,0.2005351939995522,0.8938854587962837,-0.40062488918774103,1.8660938067362172,2.9621284233641987,0.1911197536042698,-0.5445891962075199,-0.05551611004111998,0.2650312797435627
24,3.239999999999995,1.739857949129981,-0.6153436981142074,-4.609734133770788,0.15651576659440697,0.8961910555255608,-0.41482891599588545,1.7701266686316197,2.3560392340182528,0.21417809066192345,-0.5365095308025913,-0.06865314176501536,0.24866853505409858
25,3.2499999999999947,2.206295679672447,-0.5071331001528097,-4.401554783620117,0.11366331776591629,0.8938955387217025,-0.4333370974112654,1.6670024400228194,1.7942042822253748,0.14256708712492086,-0.5261275061667134,-0.08057142241307494,0.23265015099431402
26,3.2599999999999945,2.5022744164008537,-0.31440528912265375,-4.071117198633922,0.07404366547495092,0.8873560290246315,-0.45485280658049726,1.576410716056683,1.2992227001460146,0.14859869023967986,-0.5141298448619716,-0.09064677490963668,0.21738993014429725
27,3.2699999999999942,2.5552926532739257,-0.024223961446340765,-3.7657019127942193,0.038648168945687775,0.877705473253002,-0.4774415648298317,1.494624725543225,0.8366151581357877,0.25039162476541454,-0.5015212078506499,-0.09865787159718038,0.20280153185994415
28,3.279999999999994,2.3402048638943587,0.3889323625117812,-3.4997458881360815,0.007874139790372317,0.8665204084988603,-0.49893635326001246,1.3911751519045736,0.3790054380490218,0.41579809502053894,-0.4894885480544977,-0.10448641298160942,0.1883775859746009
29,3.289999999999994,2.0055721032900755,0.8617035016182066,-3.3012069290505126,-0.018162030332300967,0.8553251987788891,-0.5176726344507089,1.247030741535217,-0.03394274772123357,0.6149345222393753,-0.47903394220422063,-0.1080749021490148,0.17359736813733326
30,3.2999999999999936,1.6932740852238668,1.2749796187037696,-3.0786484465936215,-0.039680513864721115,0.8446775174001295,-0.5337359506403938,1.1009369150270556,-0.3829391872741307,0.7922695260494469,-0.47024723379151295,-0.10951275287721135,0.15835188824281743
31,3.3099999999999934,1.378669834903306,1.5301245406614212,-2.783810458247281,-0.05665694970779671,0.83496987308559,-0.5473296346230317,0.9887300982630675,-0.66089893379914,0.8500510562571428,-0.46306843389164626,-0.10908045848686133,0.14322578464035457
32,3.319999999999993,0.9640852677988532,1.6256301598856353,-2.481426362111457,-0.06976569662655703,0.8267867597402114,-0.5581506863993075,0.9401816820027605,-0.8741166683494562,0.8033282362390473,-0.4575830119213802,-0.1074254789284316,0.12874996965223295
33,3.329999999999993,0.43194311675078995,1.598925490933523,-2.1440988787452393,-0.07975364115336014,0.8210933223133926,-0.5651869473687818,0.891820740531016,-1.0879842921857041,0.786742076778296,-0.4542480063781694,-0.10518762684279058,0.11531018686916811
34,3.3399999999999928,-0.2090674072790622,1.5199243143900127,-1.7784409783201651,-0.08701079261809001,0.8188188917934887,-0.5674162759154586,0.8235239220608861,-1.3155856378374895,0.8251597008667333,-0.4535846826090822,-0.10272089145694466,0.1032045061411991
35,3.3499999999999925,-0.8148132706177319,1.412133255782409,-1.3277035170510472,-0.0914722628379033,0.8203744914630687,-0.5644555346857398,0.772692242839086,-1.534410265533892,0.9095390934493716,-0.4558039684160446,-0.10005791995573673,0.09274871329336384
36,3.3599999999999923,-1.2846069149947383,1.2944067510325616,-0.8262400463724558,-0.09271206799719597,0.8253094055580555,-0.5569996331214147,0.7352679714367288,-1.7189270076996992,1.031148789229115,-0.4605207687539133,-0.09702800057868102,0.08439877227960514
37,3.369999999999992,-1.6826507131100505,1.146583472751229,-0.32612772225586784,-0.09072257121588692,0.8329571386449894,-0.5458149483776763,0.7453306743874767,-1.8522168649359956,1.116523159923932,-0.46725147870304734,-0.09358838481716136,0.07832045398188914
38,3.379999999999992,-2.0379306372718764,0.9535491338117899,0.17767336797070726,-0.08566686850245507,0.8429047700134011,-0.5311443250510052,0.7906907045631456,-1.9270757485646137,1.1483422655146722,-0.4757494456440355,-0.08987309839729603,0.07466071918666657
39,3.3899999999999917,-2.2575072738806976,0.7326526787832535,0.7182001008763877,-0.07748382325372417,0.8545025137136588,-0.5135606314521441,0.8132428305107163,-1.9963223729748012,1.122678434429748,-0.4856136318240254,-0.085928451689347,0.07360322398818457
40,3.3999999999999915,-2.312013336410845,0.4859642853788036,1.2870076042129333,-0.06576886641779692,0.8667751719360136,-0.49425260766876694,0.8119063180289353,-2.0245716494973727,1.0486600016011784,-0.4961718118048913,-0.08167951853789991,0.07546610954820923
41,3.4099999999999913,-2.1739253156971685,0.22581814644389214,1.861677283548194,-0.050272270274159384,0.8785946995546652,-0.47481424610112694,0.7926140783273409,-2.0268920657806815,0.9507793065149276,-0.5065954856828043,-0.07706985442801224,0.08043669306111247
42,3.419999999999991,-1.869729943457411,-0.01520930042789729,2.418985557159873,-0.030841111722586405,0.8889146707078832,-0.4569246878818514,0.7391916203487768,-2.017065431049624,0.8647154869686964,-0.5160830915683866,-0.07200078259519048,0.08853850081302718
43,3.429999999999991,-1.4742547901118301,-0.1950537379597245,2.9327796982829812,-0.007392871996241853,0.8969551168556738,-0.4419393776770559,0.6826177368348118,-1.937366321741254,0.7960727485479473,-0.5240499872159048,-0.06627222687778916,0.09957047160049592
44,3.4399999999999906,-1.0688843097599345,-0.29216282167177626,3.3889735336411473,0.019984238638215395,0.902286014897979,-0.43053360405611657,0.6758672587747863,-1.8116859035218436,0.7335478907043953,-0.5302503574608182,-0.05965103637277093,0.11312059318412956
45,3.4499999999999904,-0.7276556475555858,-0.3177800801495641,3.8092785226177353,0.051213106476973635,0.9047889203066006,-0.4225984358490732,0.7064371433807247,-1.6829372436042105,0.6970451352244867,-0.5347879312688086,-0.05188350272356903,0.1287391900936727
46,3.45999999999999,-0.5209215513052047,-0.27805270223875583,4.195675108258051,0.08616029383287331,0.9046100622465777,-0.41723098179721313,0.7370055757108785,-1.5739707442492816,0.6828431093406084,-0.5380868346447023,-0.042821503464016406,0.14603437021770846
47,3.46999999999999,-0.4211186937170036,-0.1977274691927265,4.573797129597129,0.12476567820920705,0.901911475000633,-0.41325229025470045,0.7715544830349481,-1.482568599910051,0.6848727125406054,-0.5406572895869503,-0.03235149208916428,0.1647104633004924
48,3.4799999999999898,-0.24393279948648705,-0.14096969604447224,4.9896627298804725,0.16705218177849798,0.8963427456239291,-0.41037259853943636,0.7889655990923153,-1.3936824640546939,0.7035731696990043,-0.5425649134115003,-0.0203831142134841,0.18473268885654734
49,3.4899999999999896,0.2255741532708059,-0.0750268521805014,5.4136650584925965,0.2130453140492517,0.8865332217212685,-0.4103217007973485,0.7710572641571819,-1.3247166869319191,0.6859029334233331,-0.5429237802864504,-0.006710365979904886,0.2062868749714246
50,3.4999999999999893,0.6490457141162226,-0.041331979649872175,5.649325417413916,0.26159994475637094,0.8714423821076195,-0.41451045141056697,0.7831099396841242,-1.1668873483218734,0.5931385017609602,-0.5409605018153432,0.008614816873565427,0.22893957376513926
51,3.509999999999989,0.6195066335525301,0.11602577746283105,5.789824025286907,0.3109669215844575,0.8522760608104635,-0.42019661192409546,0.9191610665297014,-0.7243517517783712,0.43635128465915285,-0.5378147437048806,0.024912659661214434,0.2518918215615281
52,3.519999999999989,-0.007925673934809196,0.4056282135657882,6.011040178347808,0.36172364643310495,0.830940353877401,-0.4222714800319737,1.2782773525816353,-0.0055260031184986985,0.3552453411456315,-0.5357637514206358,0.04224238986699157,0.27475435311031005
53,3.5299999999999887,-1.3490034690589736,0.6061924462676326,6.125383785473636,0.41373421476189465,0.8099728232366096,-0.4151694402464481,1.7296832684542682,0.6202580910171102,0.3762331287945163,-0.5374239165327837,0.05962096818751951,0.29766658323333345
54,3.5399999999999885,-3.470885400672194,0.7230037498246469,5.876295280764826,0.46480612159599344,0.7930005703803411,-0.3932670517159605,2.087942675845979,1.1013081316225273,0.30936408297444873,-0.5456361048153959,0.07486324879980713,0.320163042138654
55,3.5499999999999883,-5.750209951896143,0.616189487579705,5.070043141056867,0.5106797732909113,0.7834477530193193,-0.3534149443864336,2.4291524929164243,1.5856551726440102,0.14897647379356135,-0.5621556335920734,0.08492012508264114,0.3410836448294422
56,3.559999999999988,-7.0254581728093415,0.42970345682247324,4.305492592200812,0.5488973168639052,0.7798223485180427,-0.3001029686985945,2.7171976793155066,2.0675239477938923,-0.04747851034564076,-0.5847901125256728,0.08887545013939585,0.3595708051730683
57,3.569999999999988,-7.051245482566146,0.20568719347872313,3.8159765699146737,0.5812585558378565,0.7763078123673874,-0.24297618509934574,2.708593499204741,2.544579168459562,-0.2162204788276881,-0.608719478470505,0.08896911524497834,0.3761227425481083
58,3.5799999999999876,-6.114025890871238,0.06080120002758441,3.5520585935656177,0.6099609532257325,0.7688761923694498,-0.1909345896661969,2.4085785365237347,2.9338499288216826,-0.28474349190305237,-0.6298714986368804,0.08809482211555533,0.39112515894388344
59,3.5899999999999874,-4.607277758377661,-0.06536561700926702,3.387538928421863,0.6364000308257507,0.7565216921883627,-0.1498683972892512,1.9811894452623677,3.123862489563656,-0.2683604083881267,-0.6459313365978414,0.0884490079070717,0.40481912969414025
60,3.599999999999987,-3.0909769173311417,-0.15797541750602295,3.259820227202955,0.6611325505649217,0.7402101459353,-0.12185090264728103,1.4981916937658355,3.0044612613271964,-0.33623076542288466,-0.6563366946641358,0.09104759946392399,0.41739314385519705
61,3.609999999999987,-1.8829138180429745,-0.21447247072209488,3.1697137615812476,0.6844124359380062,0.7214026450645457,-0.10506943211959997,1.0053097542513665,2.605650850946193,-0.463787078927202,-0.6620203251130988,0.09585748870140628,0.4290312095888193
62,3.619999999999987,-1.0415557713351147,-0.25101375534281833,3.107367308871781,0.7065092261786852,0.7010261411647475,-0.09642917826893772,0.5727969863719738,2.058119498527938,-0.5041424651079459,-0.6642916182207477,0.10244544463303142,0.4399504325756556
63,3.6299999999999866,-0.556872222879165,-0.2488236579127672,3.0061924177682937,0.7274081235637874,0.679818832343751,-0.09286465812082222,0.20768904837360525,1.5775231984440004,-0.4702438496674757,-0.664399943701962,0.11014817475641082,0.45023698282473534
64,3.6399999999999864,-0.4879407878029087,-0.22171678105956305,2.8392253433124224,0.7467868652834783,0.6587003496184753,-0.0912989817079536,-0.11026759712797432,1.2919223409148253,-0.3874102889270548,-0.6636307070953225,0.1180616462702965,0.45981850477037756
65,3.649999999999986,-0.8851523186245271,-0.1848768072159619,2.6215846943672543,0.7643455133540336,0.6386352171248547,-0.08857885866092037,-0.42971313372791675,1.1290751750525096,-0.28777305113626,-0.6633853817695131,0.12500772585260392,0.4687507246741016
66,3.659999999999986,-1.5783231449536002,-0.15046802891743485,2.3698685503102417,0.7799259349237934,0.6203977163823086,-0.08218476986732251,-0.7483243687190706,0.9599213947951869,-0.23206586279558922,-0.6648487315324613,0.12992901505092713,0.477139849879576
67,3.6699999999999857,-2.29026132422033,-0.11521441879128053,2.129937951389818,0.793596090946996,0.604189923457187,-0.07136580765079094,-1.0317073343364769,0.7963486277496297,-0.22993023897444234,-0.6684229486064516,0.13238058717002268,0.4850891429199142
68,3.6799999999999855,-2.7937656893705216,-0.09045413753357556,1.8644480595139725,0.8054768552826218,0.5898337914886197,-0.05692056507645413,-1.252856298837421,0.693796035355085,-0.3061143929248991,-0.6737691854496524,0.13255100934543812,0.49255074385897607
69,3.6899999999999853,-2.9856535655489154,-0.10770836487892596,1.5374502430279575,0.815381355834137,0.5774470058359381,-0.04071013310648591,-1.4175363083612618,0.6212199809944648,-0.442453871805678,-0.6800886412238495,0.13083770876329304,0.49929732484027756
70,3.699999999999985,-2.7557068258639923,-0.16155198900097753,1.184844046926964,0.8231316545853457,0.5672615551817124,-0.025229390235093997,-1.5824236057250118,0.5561304750472966,-0.5816725940590883,-0.6863170220119752,0.12786536548884622,0.5051332552598906
71,3.709999999999985,-2.1096154811814802,-0.2246929650985575,0.8443875096708501,0.8288031008263931,0.5593779679838926,-0.012972906516548033,-1.7645827296851189,0.5240169031964319,-0.7007246169380186,-0.6913588698973977,0.12463670725469926,0.5098923132979215
72,3.7199999999999847,-1.1777650115677387,-0.29924575511046325,0.5427322262774227,0.8326230828435325,0.5538058558622538,-0.005967334957326918,-1.9201913614128643,0.5189536254449427,-0.8018579886798716,-0.6943306147465284,0.12215155164935622,0.5135309523962819
73,3.7299999999999844,-0.2078313866439555,-0.3709538307011036,0.23367874371920433,0.8347486490325526,0.5506071835989148,-0.004962948632413166,-2.039916253043193,0.5246865591907335,-0.8772378940833245,-0.6949095107825997,0.12090935586675043,0.5160630104318982
74,3.7399999999999842,0.5910046651484626,-0.4192069719457674,-0.09430038800688047,0.8350972645974274,0.5500138088129432,-0.009431640609169106,-2.12665355803903,0.5275957355101253,-0.9014699859021056,-0.6933332621789277,0.12071488349830645,0.5174874626124213
75,3.749999999999984,1.134831583289844,-0.45183269303813406,-0.46841853089802293,0.8334463315201048,0.552291041548589,-0.017997084508697917,-2.166607880941615,0.5200526774569956,-0.8787008358923133,-0.6901996660778464,0.12092978606612657,0.5177751404747891
76,3.759999999999984,1.4277433017383219,-0.46312707899198885,-0.8477995102869685,0.8296654137666429,0.5574798688408795,-0.029038496917908906,-2.144903938588794,0.5197417326911385,-0.8270288352971936,-0.6861994846334641,0.12086663820516202,0.5169476227371155
77,3.7699999999999836,1.5274365386809852,-0.44569842932111436,-1.2350800015723788,0.8236575229209983,0.5655556678830003,-0.04118213517611151,-2.0715927675135473,0.5442467457731078,-0.7647078371840876,-0.6819127523468164,0.12000593286322705,0.5150036611127552
78,3.7799999999999834,1.4802277657959244,-0.4089571028986393,-1.6546711716541342,0.8151900011972418,0.5766879261640011,-0.05332868024799506,-1.9553172455391201,0.5533855638125411,-0.686368787430849,-0.6778187905361859,0.11787409563441932,0.5118768731319825
79,3.789999999999983,1.3853019922273855,-0.3644247460994784,-2.0621907250017224,0.8040849159588332,0.5909093408030176,-0.06484043365051528,-1.8283043567093453,0.5523502441006826,-0.6012355416316034,-0.6741866440300509,0.11422777544656705,0.507520954737533
80,3.799999999999983,1.371684246673027,-0.30791073774469274,-2.4873476667322487,0.7902034077211562,0.6080690966220241,-0.07574982161457217,-1.6929370773958772,0.5405572226155351,-0.5224272263703138,-0.6709774406189226,0.10912742620943819,0.5018803572991235
81,3.8099999999999827,1.5423274464199621,-0.2066301836372685,-2.9025421034072982,0.7733016091632061,0.6279839549096857,-0.08673099090081211,-1.5419428320138253,0.5035937991109622,-0.4542295571301499,-0.6678489446142722,0.10298477145000856,0.49469368401851527
82,3.8199999999999825,1.980042314737955,-0.06987962436707235,-3.2513689604582057,0.753479824448043,0.6498577663208893,-0.09902415380781539,-1.4074772695547373,0.51555621005816,-0.37709953369355403,-0.6641903066981812,0.09660364106400607,0.48579086883285016
83,3.8299999999999823,2.541597046042428,0.039793371385660796,-3.5878170084255543,0.7308225861540604,0.6728264363916048,-0.11411609859965285,-1.274149231431758,0.5823921933223233,-0.2890630732560648,-0.6593272397740778,0.09067205038336561,0.475064965422631
84,3.839999999999982,2.9540607545984314,0.12198465601388962,-3.93259078133794,0.7051749431586869,0.6964039351208638,-0.13241446474272284,-1.124782388098808,0.6479039196506113,-0.20908659505672175,-0.6531058067960918,0.08506075981494703,0.4625753396693691
85,3.849999999999982,3.2707320621933023,0.15887279628943934,-4.24825914441555,0.6763504273316924,0.7202242654398591,-0.15355096132694052,-0.9749617485448565,0.7009600702090214,-0.12170735171554586,-0.645697920485374,0.07928466744641367,0.44848665788765674
86,3.8599999999999817,3.391369310114597,0.1985224913935681,-4.513815602473748,0.6445367072069246,0.743650705693248,-0.17688265254687513,-0.8285131943647638,0.7631655942238695,0.01170742257794815,-0.6373337378622089,0.07314399267530257,0.4329846724275763
87,3.8699999999999815,3.3352484938924865,0.2458631910092647,-4.571385787660526,0.6104968722328247,0.7659421602089053,-0.20091757363548046,-0.6855738501416042,0.9254577887471337,0.1303854987358823,-0.6285661689879064,0.06656713682205571,0.4164221451542717
88,3.8799999999999812,3.109039893560993,0.21625034588437492,-4.451698314398439,0.5760213011119708,0.7858089793123892,-0.22462582781586501,-0.5443307474492891,1.2559240503462725,0.17640404306303095,-0.6197465850923776,0.05988479085243724,0.39972476864592676
89,3.889999999999981,2.6402445817203533,-0.027973582059791963,-4.4983782188196715,0.5407400453183058,0.8039749207447993,-0.24692138904555486,-0.2948162035406064,1.6244615508724465,0.11669418360803377,-0.6113913307851206,0.052165750303644516,0.38333263469515233
90,3.899999999999981,2.1963039532660296,-0.3954096814765804,-4.542707414506633,0.5033432461731541,0.8214469568672218,-0.2676038465236179,0.021092597612763494,2.0933557567264853,-0.021164299443942287,-0.6036543949289287,0.042155379637496965,0.3676132578841102
91,3.9099999999999806,1.9818691759214158,-0.5256603006510079,-4.635560284676602,0.46408703730270473,0.8378033275590437,-0.28709883547730064,0.3990071169719913,2.8256162345943787,-0.21585651016802757,-0.5962338081940219,0.030488590189826217,0.3523434938711048
92,3.9199999999999804,1.9932935451730454,-0.641708302148636,-5.088890201675715,0.4212971584749712,0.853382199262694,-0.30641424931953326,1.1713070863813697,3.654655813602296,-0.35898472187089786,-0.5886039088156095,0.017400951034023046,0.33616561346199075
93,3.92999999999998,2.2469705680642966,-0.7853813255918021,-5.623894033506056,0.3723657757103836,0.8680535637731698,-0.32772018691369165,1.8645630245015092,4.093648721040469,-0.27238489365046503,-0.5797330274092265,0.0023250079853877254,0.31815508441822465
94,3.93999999999998,2.9183230589836913,-0.9208259254406136,-5.931224529446822,0.31879965692670087,0.8793394480418112,-0.3530256000299301,2.01942599600635,3.9337661494061775,-0.0627226271016339,-0.5685474441210934,-0.013627252605860476,0.2987275211823219
95,3.9499999999999797,3.8552087219613194,-1.0149589413591615,-5.982277701697943,0.26252483351551437,0.8841495618343151,-0.385729169171877,2.0837412597509966,3.4410177480177873,-0.00037851478883280457,-0.5533616935140082,-0.029277927325508026,0.2786852476401159
96,3.9599999999999795,4.501915806162028,-1.0989252826535454,-5.916379530004604,0.2056351993042683,0.881004068062563,-0.42536860577887414,2.1997081021749283,2.9304035619065614,-0.11687941356026105,-0.5341320550542897,-0.04403664249607285,0.25870818720853334
97,3.9699999999999793,4.619144385563647,-1.1134725433999408,-5.692609237016939,0.1496763285492058,0.8708492142241319,-0.4676036120730633,2.2039306092017767,2.342992879582075,-0.16567621077963174,-0.5125894022967686,-0.05807175108891883,0.2391424232225968
98,3.979999999999979,4.14592733823647,-1.0295641345792357,-5.360047237985742,0.09666840172891628,0.8561576294531456,-0.5071399927339391,2.1311556465245665,1.7110654249941641,0.005920658149181329,-0.49120004140412016,-0.07133640986683265,0.22029740948857474
99,3.989999999999979,3.1784037537799645,-0.8134913990192134,-5.020131750607587,0.04774516908318915,0.8406770965622284,-0.5391257379433849,2.122232728153981,1.1261931282678277,0.2860532186431695,-0.4726082718499858,-0.08388538438180958,0.20199374192711733
100,3.9999999999999787,2.007760379823078,-0.3203319202367859,-4.734334796396299,0.0038876701798637317,0.8276775412129083,-0.5610008175410223,2.093961825969749,0.4683675709862458,0.618870429583079,-0.45870688463454606,-0.09521567318000826,0.18358462953359642
101,4.0099999999999785,0.9829785226787497,0.17473246650008986,-4.434105231780842,-0.03420027179232855,0.8186274745996984,-0.5731820436835363,1.985634696684434,-0.15462405700398235,0.9831719777937991,-0.44995555829993583,-0.10458748762825065,0.16454598690010672
102,4.019999999999978,0.28619180469310734,0.41441009544662216,-4.00665767578456,-0.06690253005767564,0.8129602089830309,-0.5783768408672575,1.8437014839528683,-0.5988997145357154,1.279417820020059,-0.4452135472843272,-0.11220841242678552,0.14571722329626774
103,4.029999999999978,-0.15105462158438845,0.4770859903328343,-3.549795817963322,-0.09495694670562585,0.8095799114962617,-0.5792161740027985,1.6943380986341927,-0.9509331666333335,1.3889173866046567,-0.44308952320147243,-0.11857467745408667,0.12815307889947775
104,4.039999999999978,-0.4035647069138124,0.48200229711077713,-2.9917834833337307,-0.11867715829880861,0.8077552976683383,-0.577408330114856,1.6282820852648539,-1.2823206593741197,1.3664881125877655,-0.4426590886607628,-0.12388134251900429,0.11248579496787033
105,4.049999999999978,-0.5000377692455501,0.4629285911570265,-2.302959363353504,-0.13737886827012555,0.8070174424368343,-0.5743046742365023,1.5992169869780664,-1.5993630990794285,1.4148507341318628,-0.44326592889535166,-0.1279136940451968,0.0994504338182702
106,4.059999999999977,-0.5692917269261497,0.43133489261560104,-1.534698953774828,-0.15031405008197737,0.8072774723572703,-0.5707000904333767,1.5393185150421673,-1.887078350608928,1.5760938415777872,-0.44455640366075755,-0.13045627316147393,0.08966520596669164
107,4.069999999999977,-0.767611517901676,0.389892829506177,-0.84523161056079,-0.1575348810747791,0.8092139171470126,-0.5659926233151263,1.4565271583610044,-2.065781045008164,1.7211547362139334,-0.4468704144713223,-0.13156349102148496,0.08310313395600383
108,4.079999999999977,-1.0428075085664696,0.36905080433789306,-0.23251686221871387,-0.1597727034694404,0.8134728184874636,-0.5592146796501538,1.3497930725864045,-2.135902072329711,1.7905768743119324,-0.4506713153125709,-0.13147183854561081,0.07928066184886919
109,4.089999999999977,-1.1652593656646135,0.41298595514507114,0.41934664883657435,-0.15688891252795656,0.8197971659435833,-0.5507220786967292,1.2183616477096177,-2.1721652807958636,1.7819651971921893,-0.45577725418609877,-0.1300039684541192,0.07806309952902434
110,4.0999999999999766,-1.1961159407596573,0.5000701721595177,1.0736799700069053,-0.14825383149294344,0.8273703348939112,-0.5416991983002152,1.1256563242177025,-2.1758840375697246,1.7122166755815353,-0.461599441153121,-0.12676257850843897,0.07952655283211474
111,4.109999999999976,-1.2450195820991776,0.6040617662511244,1.7019514573107701,-0.13374923485635434,0.8358428875231525,-0.5323633592418937,1.0601964006901934,-2.136112884073853,1.613301720013848,-0.4679894352914337,-0.12162634694739521,0.08354547390321725
112,4.119999999999976,-1.278637116989043,0.7195968699959827,2.302110431638765,-0.11343447701876656,0.8449748559835398,-0.5225430897703378,0.9581728722339338,-2.0962129585003644,1.5447600190128923,-0.47495655841866175,-0.11458277708859357,0.08994638116576477
113,4.129999999999976,-1.2416427154910388,0.8761148272256456,2.859806415475358,-0.08735553421203403,0.8540947850463166,-0.5125978139138473,0.8286754087441104,-2.0353485192935206,1.4865183244243085,-0.48222386588363186,-0.10554976804763895,0.09854000709672159
114,4.139999999999976,-1.15634834777764,1.0716831262558177,3.3518402672655423,-0.0557220645919894,0.8624096995507688,-0.5029633937629296,0.7239595317260208,-1.9219593864778812,1.389571674052141,-0.4894662494944422,-0.09442058429469286,0.10896902236958221
115,4.1499999999999755,-1.056276788433444,1.24188869272897,3.784765544630239,-0.019017226277064904,0.8692284929024933,-0.49383238915158234,0.6838271272202462,-1.7624530676468024,1.2815880294204753,-0.49643325617400785,-0.08128125412926054,0.12094916582295581
116,4.159999999999975,-0.9805259299723094,1.3871711568738545,4.146339504605314,0.022020127539615103,0.8741238434648516,-0.48495064403401433,0.6888782683316108,-1.6091515227360549,1.188314625981667,-0.5030699604359025,-0.06640006341250218,0.13422456299669872
117,4.169999999999975,-0.859179330600406,1.5022324324700107,4.470176629849461,0.06671403646284603,0.8766441468731504,-0.47620059449184,0.7046305739262184,-1.48162560208028,1.0792803492895415,-0.5092729119770649,-0.05000161547424886,0.1485795298949432
118,4.179999999999975,-0.5631409533390664,1.5698504646919063,4.763387522903877,0.11445701135222718,0.8758654637786206,-0.4684575076935432,0.7264804857417954,-1.3785455680047134,0.9295896344298756,-0.5144773150643951,-0.03224635692151546,0.16395740917771812
119,4.189999999999975,-0.11388717067898299,1.5949641311018055,5.0941628124554486,0.1648577547528944,0.8705940113810613,-0.463185801111109,0.77761220756061,-1.2817679317147357,0.7521324863064979,-0.5178650522883688,-0.013162254831491773,0.18043666099931255
120,4.199999999999974,0.4780833580064134,1.5440863451983522,5.503093496103616,0.2179548042519352,0.8596292496673842,-0.46166380146896047,0.8248725050434046,-1.1638272801736513,0.5986584110784064,-0.5187087139707345,0.007301039300207417,0.19841853774195295
121,4.209999999999974,1.0842219110169682,1.3495883235963626,5.941709317992263,0.27335793941777226,0.8418839827319852,-0.46480529178255503,0.8439333034077833,-1.08708355947213,0.5289543056037226,-0.5164266253471812,0.02894593977226868,0.21832913560351153
122,4.219999999999974,1.5642755633372314,1.1546475687680855,6.455673791234337,0.3305326924284972,0.8169423183567833,-0.47202395043546974,0.8751832936096704,-1.0525896567276127,0.4899838223503957,-0.5111371141520019,0.05150359695631497,0.2404197001235753
123,4.229999999999974,1.798498367565716,1.1452538297887294,6.8559860757897075,0.3894416837318469,0.7846979237191648,-0.48165651741144344,1.1001983802374804,-0.8427916691110048,0.4216869499688718,-0.5034115028847608,0.07528759700102548,0.2643911522307248
124,4.239999999999974,1.3045507834257435,1.2665771600405724,7.012223384342769,0.4484692318596272,0.7477845188813339,-0.4889926924792227,1.5812174849693141,-0.4353192347335597,0.3506437546351816,-0.495464469834103,0.0997235373412386,0.28903792890814267
125,4.249999999999973,-0.016058938747135487,1.5076292178586679,7.082165063813516,0.5066867142645014,0.7107096334789269,-0.48745542367690775,2.1039264255015238,0.19266503646273112,0.17333585937331544,-0.4908261121696845,0.12369407140955496,0.3138121801962068
126,4.259999999999973,-1.5469281139239053,1.7542477155669842,6.788112569114723,0.562897335667681,0.6772670086824797,-0.47324028377928196,2.6052886232518073,1.0280498463494054,-0.21311536006510973,-0.49195447287976507,0.14597556528289246,0.338097869201082
127,4.269999999999973,-2.7494766972932476,1.8806232095232067,6.204883513973756,0.6144541920510717,0.6489847147605111,-0.4481222858886165,3.0117629431184763,1.5806986826929212,-0.6023713567987337,-0.4985445736564321,0.16536994313306208,0.3606519208288236
128,4.279999999999973,-3.7112059351003364,1.8078904679637093,5.613602366266955,0.6601339907468102,0.6252885593583795,-0.41572749446266666,3.090069756230727,1.914921206469605,-0.7758707804435001,-0.5091485122208199,0.1812832194827103,0.38126372787107077
129,4.2899999999999725,-4.468812368286204,1.667957616446523,4.996254559316791,0.6997308906501476,0.6055503258176521,-0.37858219694327866,2.8744062988271337,2.367810195020144,-0.8039507105714075,-0.5227766550587252,0.19333031650332372,0.4002654372613622
130,4.299999999999972,-4.434255443165475,1.4902642939422148,4.458211481339767,0.7336191318608233,0.5879266249758572,-0.34037215096405626,2.5465242146756046,2.580948794610061,-0.7991759454015277,-0.5374555845149445,0.20230436587457593,0.4174255404754747
131,4.309999999999972,-3.965406196862041,1.2005221456381343,3.9690628996805692,0.7624130414750466,0.5700320007949348,-0.30589294134203693,2.2227634170161408,2.524981508595782,-0.8582203782644906,-0.550578707563512,0.20951719530636695,0.432689789995899
132,4.319999999999972,-3.5442952213587926,0.8534025562935813,3.5774885855157588,0.7865594329370068,0.5518064738717446,-0.276891451361075,1.8552851636439889,2.5249207480349796,-0.9866284806628298,-0.5614498040897468,0.215211720945718,0.4464797253450874
133,4.329999999999972,-3.1346945886931605,0.5446762501597682,3.2949150437655095,0.8070679120768958,0.5332781538278654,-0.2532385806711311,1.4530864219217485,2.324785892729511,-1.0600962392838713,-0.5701918343127533,0.2196688720739587,0.4593618498891176
134,4.339999999999971,-2.8667898297370487,0.2472233990780313,3.0614442714552186,0.824687074389875,0.5146393210766655,-0.23439277366556516,1.1091122791723982,1.9984256308973203,-1.0749757424641606,-0.5770811419573114,0.22310587033148951,0.4716327142707691
135,4.349999999999971,-2.9080033134027614,-0.07446920095811553,2.8376146698284335,0.8398124923658764,0.49659447962139436,-0.21916398354992847,0.7298718044024672,1.8524331375628773,-1.030607168884411,-0.5828871237699398,0.22507119833162953,0.4837594195200599
136,4.359999999999971,-3.086588320205523,-0.37900261726822637,2.6869986407577824,0.8527937324717308,0.479626492614672,-0.2064917095813452,0.28205022732988144,1.656331556832582,-0.9524908857771441,-0.5882787016579305,0.22511976872946213,0.4961443863761752
137,4.369999999999971,-3.2106102888554138,-0.6374706832448453,2.5914778154651468,0.864217147973565,0.46330419137090195,-0.19602505243401003,-0.10677223341853859,1.3692519744687532,-0.8788789018624452,-0.5933293484577792,0.22348206424340059,0.5089862059611642
138,4.379999999999971,-3.2249411830373873,-0.8232565401958998,2.4606031639198465,0.8743378538274738,0.4474990788559608,-0.18771220659473162,-0.40532167617171166,1.1769115931649505,-0.8009463025567378,-0.5978957585031706,0.2205923190716425,0.5220265437943409
139,4.38999999999997,-3.0802797777189292,-0.9565482271539324,2.2477854908784307,0.8830713658770836,0.43261688385704555,-0.18164996011725024,-0.6629340307761085,1.0516236302404631,-0.6973001282512286,-0.6017990961433176,0.21681659156312538,0.5347626784729097
140,4.39999999999997,-2.767501913881765,-1.0602809891963438,1.956447585655293,0.8902330470855079,0.41921560951865944,-0.17810867053615123,-0.9046527345575679,0.9630558756362698,-0.5960387843857518,-0.604808635214196,0.21248341182523958,0.5467118823580357
141,4.40999999999997,-2.3028835594934414,-1.134494455448078,1.6201112608478085,0.8956873781146272,0.407751271129702,-0.17739741664618838,-1.124087140316335,0.9169241448328672,-0.5699996930546926,-0.6066718292790966,0.20796190289250013,0.5574853262404196
142,4.41999999999997,-1.7995802320818715,-1.1711344114810178,1.244624376516556,0.8994206234959284,0.3985111993679085,-0.1795085295479884,-1.3316921641652852,0.8911137274692347,-0.6022188126444873,-0.6072998453356748,0.20354442995695982,0.5668597172104574
143,4.4299999999999695,-1.3887922468814806,-1.1625007149072506,0.8175602027962005,0.9013812128100739,0.39208621629057744,-0.183781465047509,-1.5158201345094522,0.8791290062868512,-0.6248236389115508,-0.6069983720031661,0.19914725044650286,0.5746698302289557
144,4.439999999999969,-1.1173744044239238,-1.1011019136448876,0.3643165915443776,0.901579579245801,0.38905665606952194,-0.1891700957316716,-1.6840458666104805,0.9042034749886577,-0.6213548336415057,-0.6062973533412962,0.19446139030782633,0.580852022104649
145,4.449999999999969,-0.9394933647678804,-1.0008304356470066,-0.07833309156763019,0.9001091969128274,0.3897521554295707,-0.1946561165020107,-1.8157217179848877,0.936392017299129,-0.6054248125748184,-0.6056882220138889,0.18923472912309966,0.5853842409787376
146,4.459999999999969,-0.746959912140822,-0.8761538923429755,-0.49386843857601165,0.8971213085300951,0.39401084866239505,-0.1997949101334623,-1.8896329544538053,0.9486886838641402,-0.5759871412976382,-0.6053320237610889,0.18349781309328317,0.5883018316260609
147,4.469999999999969,-0.4228077371294322,-0.7375705250688926,-0.8906943070940172,0.8927261547949229,0.401418866567034,-0.20465680413010737,-1.9299551510797763,0.9229538512153893,-0.5460552564750429,-0.6050811650948672,0.17760772279917517,0.5895360429445352
148,4.4799999999999685,0.03662424713563176,-0.5857205083853506,-1.2882968441664469,0.8869032439998573,0.4115310961126867,-0.2098016892356025,-1.9549627871266093,0.8832009260815415,-0.5194859851946814,-0.6045651603703891,0.17203768281926204,0.5889643582644516
149,4.489999999999968,0.611083752584145,-0.4209677260315843,-1.6767498435464565,0.8795604579837966,0.4240297939126705,-0.21571634262299638,-1.9595008023197664,0.8739305677271284,-0.49284267383565433,-0.6034888817409938,0.16715472882716803,0.5864350860654325
150,4.499999999999968,1.2283420026619396,-0.27904043236835296,-2.0830926371769696,0.8706737365608086,0.43843392548098065,-0.22282167718096607,-1.9173687781415654,0.8968223905699696,-0.4649098866358974,-0.601605010055311,0.16327436862773947,0.5818737911937464
151,4.509999999999968,1.8155655653601612,-0.14771034806220482,-2.5254063857419684,0.8598819844989583,0.4549002607366011,-0.23151033026994894,-1.8366849256677875,0.8927543365285191,-0.4520586279937681,-0.5988141330237597,0.16020028792732485,0.5751996475030187
152,4.519999999999968,2.3047092029813756,-0.054832669349616975,-2.983912576139671,0.8468650901195858,0.47346970185310633,-0.24196970126791412,-1.755360292189641,0.8914444565830814,-0.4452158107655663,-0.5951178535056735,0.15762847631520735,0.5664041242178524
153,4.529999999999967,2.624854304885332,-0.03324189062016915,-3.485761774690568,0.8311061277840658,0.4944303677780378,-0.2543052003543837,-1.6447884799450982,0.9008315713872735,-0.42405190266306425,-0.5906381292888999,0.1548855645124884,0.5555932062790052
154,4.539999999999967,2.8112077776454107,-0.057947488443254376,-3.981821878311227,0.8120407486451579,0.5180234673170241,-0.2684679563549647,-1.5176698612170183,0.8957291020952896,-0.3732677471433084,-0.5855647686034057,0.15124031355598036,0.5429132759341542
155,4.549999999999967,2.960229396377236,-0.12636984737512344,-4.400149043368818,0.7894949089445563,0.5436267068143044,-0.28454343997576337,-1.36611352939002,0.9222261051179563,-0.31055662847963195,-0.5798798559057604,0.14648845766825205,0.5285876322834607
156,4.559999999999967,3.0918542554714907,-0.23381837176154693,-4.753045316318983,0.7634348559543531,0.5703040544583029,-0.30279034960979095,-1.135276094548423,0.9893004146372588,-0.23115301992552004,-0.5734297310915563,0.14061023816213572,0.5128907164967534
157,4.5699999999999665,3.1886191020917236,-0.380613484094149,-5.020333160586378,0.7338910677993177,0.5971081708572037,-0.32341169161398514,-0.8780360322931353,1.086363873463502,-0.1107141053538362,-0.5660600947192471,0.13362051455649557,0.4960918276793014
158,4.579999999999966,3.228520726959593,-0.5574490718331852,-5.206894396594375,0.7010683902773326,0.6230941105633153,-0.3463489679502424,-0.5540907166476339,1.2694572309837215,-0.008210771436392202,-0.5577172460584041,0.12552615143285625,0.47853662709320244
159,4.589999999999966,3.2320054552639292,-0.8042546881905588,-5.311543074785382,0.6651793293132364,0.6474372334282771,-0.37152931286827806,-0.10548911345131404,1.5838348138480154,0.010553599745869797,-0.5483538233859225,0.11626591293399612,0.4606363695100041
160,4.599999999999966,3.0469190684044896,-1.129862653730154,-5.429145364695443,0.6260882747884896,0.6699505697061964,-0.3985122865705273,0.4007337058353332,2.0360595651303313,-0.07586800364460065,-0.5381354296649057,0.10545398931667602,0.44273559375665755
161,4.609999999999966,2.5957436952763087,-1.6215069672483644,-5.6505015636551565,0.5827123280208806,0.6917285587346821,-0.4260650429946501,0.8865392818917421,2.5183530234601386,-0.22484876148205513,-0.5277006106295057,0.09194180016835941,0.4250408751621726
162,4.6199999999999655,1.8880862913357757,-2.0683093176449243,-5.9506219994264224,0.5337049997850073,0.7141969425719338,-0.45232762901133844,1.2631057939306434,2.905631427640609,-0.27050777794238473,-0.5178915099465456,0.0745989703689234,0.4075204878246109
163,4.629999999999965,1.0320384169133114,-2.2481094333665093,-6.314203547829417,0.47903089940027227,0.7385237902323387,-0.47389818156018354,1.6318867024750792,3.148051693297159,-0.1782096014537302,-0.5100144543959958,0.05352382473661951,0.38939568667354124
164,4.639999999999965,0.4615121720143357,-2.278879596805334,-6.638353185913837,0.41936461861209123,0.7641874196792791,-0.4894667795102157,2.260022499887687,3.252162320400228,0.004845187187836698,-0.5042873696673327,0.02969738865534027,0.3699436324275976
165,4.649999999999965,0.4414735657542977,-2.2136017033372646,-6.78739481265667,0.35592409879341086,0.7882129565462711,-0.501466104459501,2.731232511065941,3.0509626291940077,0.2588099525085764,-0.49916769294768815,0.0046927570611014924,0.34910761947468033
166,4.659999999999965,0.8318384833062308,-1.9703826946392655,-6.737855834141989,0.29122475360441125,0.8069715128105148,-0.5132760041829424,2.701715977350746,2.617992192019475,0.4032285238850172,-0.4928647061877321,-0.019462564502666646,0.3272903197892645
167,4.669999999999964,1.3406153811766777,-1.6373114114989904,-6.549978610362004,0.22773870816476055,0.8185825566761008,-0.5268555653048127,2.574459574464905,2.1533439894225213,0.37105540511848606,-0.4845666298750796,-0.04134599101714879,0.30486146171888473
168,4.679999999999964,1.7362478819960225,-1.251270830047871,-6.260324892961677,0.16736981041014762,0.822963480415641,-0.5424936887545616,2.501350027684312,1.6309048336310508,0.3591064971606659,-0.4743991815274577,-0.060420524200904935,0.282297893032618
169,4.689999999999964,1.8769113247328413,-0.8032411985163945,-5.92124176859141,0.11158160987973378,0.8214159818910828,-0.5589969688059023,2.31127621931087,1.0747101981130815,0.45393745880694136,-0.46325561753572614,-0.07654068511474914,0.25981602792612873
170,4.699999999999964,1.7290145124027785,-0.3552046939498737,-5.541552895433962,0.06134171281823476,0.8160807540918211,-0.5744366133077803,2.0837823245888134,0.5902693266137236,0.6038211265812418,-0.4524151531109003,-0.08986660155675079,0.23756390347201872
171,4.7099999999999635,1.4235503116153765,0.12335788766698122,-5.161453706423486,0.017177464736548572,0.8089868217959425,-0.5874031514255666,1.8698281814828246,0.1610170188414936,0.7687294642227748,-0.4429128157366883,-0.10055055695078116,0.21559572366321422
172,4.719999999999963,1.0792107407420384,0.6223007172437321,-4.839299448714813,-0.020870214241190677,0.8014693656393251,-0.5975506963253191,1.6507775450940294,-0.2640027537713578,0.9186268339115656,-0.4352215052315125,-0.1086207104690419,0.19374152742340586
173,4.729999999999963,0.718980746350232,1.1311193521382576,-4.505138623652189,-0.0529107323062232,0.7943729086373696,-0.6050436565461426,1.4367269252025827,-0.6150869950113043,1.028396838574561,-0.42949316805103893,-0.11406408564480336,0.1718687734340837
174,4.739999999999963,0.4359150165975284,1.6036235446717417,-4.101892489837252,-0.07864030297594157,0.7880522565085862,-0.6105189543266285,1.300699837127736,-0.8681073465311233,1.057837544904125,-0.42557052627105046,-0.11674501313584545,0.15027578647286607
175,4.749999999999963,0.22247838272323944,1.9209607789312146,-3.652426790371587,-0.09826057976497382,0.7826316754974202,-0.6146557991528467,1.2784277391954177,-1.0662567711929207,1.0239853265813759,-0.4230947715806695,-0.11688580873604218,0.1294964022457999
176,4.7599999999999625,0.08317097745202122,2.0663474582251573,-3.152411705664849,-0.11248950773875394,0.7781119632593028,-0.6179585708858111,1.2675562157531068,-1.2780784594876724,0.9769699967089044,-0.42164119010591733,-0.11505750288893926,0.1101816314686953
177,4.769999999999962,-0.08147203638637626,2.0596152451534677,-2.639814479534721,-0.12214620387128289,0.7746678368566864,-0.6204552194103556,1.1980080746349688,-1.482834491831573,0.9485452396795977,-0.42101182189786357,-0.11189126559980615,0.09287999126603287
178,4.779999999999962,-0.38011469799952113,1.92203776538544,-2.0965821936518627,-0.1280676902185124,0.7731122835987078,-0.6212042091853824,1.1382828792233308,-1.6370173509252917,0.9327367332612514,-0.4215788396640926,-0.1080121650236321,0.07792108965956966
179,4.789999999999962,-0.703851201378628,1.753669519763437,-1.555289708698088,-0.13079024439622142,0.7741102768059808,-0.6193908615150384,1.1369434791902442,-1.7525199215661869,0.9609110221965611,-0.4237008402286632,-0.1038200648143463,0.06556562745777993
180,4.799999999999962,-0.6371670361546321,1.5712922892279466,-0.9556215579371421,-0.1303199896932722,0.7767649793034548,-0.6161575776739867,1.1563405687884432,-1.8569741980421024,1.0435193472966335,-0.42669116549945096,-0.09925706727779528,0.05599816980445784
181,4.809999999999961,-0.37069232985637085,1.3913965947803986,-0.3860479331786272,-0.12627878649862534,0.7790134086432089,-0.6141551793093171,1.1452854795870737,-1.9055107695358608,1.1569052673091822,-0.42902529838413045,-0.09410664691731194,0.049590097828942185
182,4.819999999999961,-0.22486034866054128,1.1089550494351528,0.10178499511430314,-0.11970771655240889,0.7805977435244772,-0.6134563996419852,1.09447944037116,-1.8734925508133495,1.1959689470747799,-0.4305472128988438,-0.0888687053384753,0.046129861883323034
183,4.829999999999961,-0.048689239715492105,0.8553960389569789,0.5652089976416155,-0.11111982033417832,0.781865049832883,-0.6134540039032087,1.0437536072274307,-1.862179499793957,1.1204913457587626,-0.4315638458165327,-0.08380041793509636,0.04544243830543258
184,4.839999999999961,0.25592188849695063,0.6348357090940896,1.0699294032381073,-0.10020019261339093,0.7820804884565856,-0.6150506232746313,1.0013140952176214,-1.9312424797533665,1.0287634134819357,-0.4316014028003488,-0.0786852276750569,0.04751935690304904
185,4.849999999999961,0.49280016093030654,0.43677253442237,1.6096689705657263,-0.08645702310215099,0.7809479812188813,-0.6185548945156347,0.9138998589502726,-1.8811584856021035,0.9580811727398073,-0.4305158372631761,-0.07331036193326629,0.05251745969667896
186,4.85999999999996,0.5778773042955723,0.27334753085278957,2.1522512322271083,-0.06960353636976402,0.7790248643345052,-0.6230776633295861,0.7976460174645879,-1.7407356388581166,0.9111557278010974,-0.4288290833155043,-0.06754042272088123,0.060412516196837636
187,4.86999999999996,0.5544486245623164,0.16446114254997043,2.6774796013559725,-0.049463434206342985,0.7768664511342956,-0.6276659674331818,0.7322695592407445,-1.6046905035926713,0.9086891242693905,-0.4270995879549435,-0.061211900460188214,0.0709892359336835
188,4.87999999999996,0.40024993498770056,0.10027129256535383,3.213229169199987,-0.025800013841144977,0.774871082747233,-0.6315228306441788,0.7385028647140378,-1.4598795720047957,0.9034228339602631,-0.42579015586252544,-0.05416689306497266,0.08410569552528466
189,4.88999999999996,0.029296481445493974,0.07090705573044877,3.717659650169275,0.0015746022180079464,0.7738375051659705,-0.6332934104522306,0.7603975574632006,-1.333756047495327,0.8816515362113175,-0.42567507566176677,-0.046314248738676234,0.09956954614186761
190,4.8999999999999595,-0.4739581514910379,0.07140318128731292,4.148841382107684,0.03250520251928238,0.7745106841844258,-0.631613713379653,0.7715136463941289,-1.2500170413612033,0.8618555987406027,-0.427501872081362,-0.03773085288895467,0.1170508953280852
191,4.909999999999959,-0.9993022462821212,0.08114747209115984,4.472475821892071,0.06647675577665944,0.7769812474277645,-0.6258692809193456,0.7845471151236131,-1.1894764176963384,0.8580009189155021,-0.4315467097219094,-0.02859848525767491,0.13606818612146165
192,4.919999999999959,-1.5026163479878716,0.0678166209304717,4.658159682934298,0.10257667309163758,0.7809164033707737,-0.6160027741949842,0.81624909822111,-1.0915855412813962,0.830428285108338,-0.43773382940745637,-0.01924538678672401,0.15606198624345272
193,4.929999999999959,-1.8769582517932821,-0.04945279570104252,4.7412929624324365,0.1395233619062705,0.7855692763343042,-0.6026769028690667,0.8654917101598454,-0.9324196551235567,0.7584044053879843,-0.44557821535724074,-0.010201490960531209,0.176626544288148
194,4.939999999999959,-2.0567112089301443,-0.21897580095310587,4.858362347057231,0.17650453952571477,0.7897298459135134,-0.5873414694584022,0.9318604541528597,-0.6515481542479955,0.640396599396618,-0.45421228159800847,-0.0018451185988195696,0.19779563335880831
195,4.949999999999958,-2.2047556040343963,-0.28037650540203735,5.2137373865417205,0.21464873778076224,0.7922000889375423,-0.571050302978737,1.0710516430319392,-0.12755341081097465,0.42793700443351546,-0.4630497116699939,0.006302243512832484,0.22006183909685
196,4.959999999999958,-2.552895428089702,-0.16272262661828008,5.754370139353188,0.2568636997378694,0.7925058873582024,-0.5528478949280003,1.4080534553352562,0.5831053020006237,0.14946465971517084,-0.4725584336351359,0.015418393146359123,0.24412433521089433
197,4.969999999999958,-3.106913967739657,0.11816027203577137,6.098051588307544,0.3037135104423545,0.7910723880010944,-0.5306280495955183,1.8890649449165715,1.105878654507618,0.05510339796770144,-0.4837148129660901,0.025854533651662483,0.2694189898889593
198,4.979999999999958,-3.9381717679191675,0.5196860353389255,6.176842639748996,0.35402918058872346,0.7888764709002212,-0.5018552802432783,2.0754162897404758,1.2109419109266433,0.21436131687861054,-0.4976235281448203,0.03730615638773905,0.29458734913788975
199,4.989999999999958,-4.802158915461052,0.8929479527725378,5.876118743272181,0.4050801302702134,0.7871599060349038,-0.46450370394537693,1.8244498803808984,1.3789560777517396,0.35341305466630213,-0.5150854234632982,0.04872526353838722,0.31803143661904504
200,4.999999999999957,-5.175131957342641,1.0659848037162454,5.447136007946054,0.45403380261788984,0.785091407740433,-0.42068894569947746,1.6774546597152729,1.9590498733594,0.23334423217801792,-0.5348750988132357,0.05920700689034657,0.33898845549451234
201,5.009999999999957,-4.88396500170051,1.1150666583443276,5.029253011361639,0.49937357059370974,0.7803723639197769,-0.375776703266635,1.873647917265517,2.4888100066501253,-0.11410767996356341,-0.5543750472887499,0.06878927980149266,0.357521761440697
202,5.019999999999957,-4.18623528860416,1.1705584980982917,4.597222759844486,0.5408456095027032,0.7715123386050048,-0.334521056982497,1.8946861516548066,2.737020802986643,-0.4160872573193218,-0.5714716551631839,0.07825088366542512,0.3737524496424212
203,5.029999999999957,-3.3035553580622232,1.1855868039361315,4.144248310250422,0.5780464772314611,0.7590159204153777,-0.299145466282359,1.6776673236703188,2.7355730890287178,-0.555015113646575,-0.5673832007578409,0.1280345310589584,0.3313440592618333
204,5.0399999999999565,-2.2838438931051397,1.1331154812510296,3.874188578554428,0.6114636780387178,0.7432345841706502,-0.271107575802399,1.4138112032281767,2.4879782146262586,-0.5412923096286871,-0.4673132393364467,0.3821558131861225,0.0023365430594067915
205,5.049999999999956,-1.3694193537341324,1.0170786457682686,3.7148397802847932,0.6421449361949839,0.724185610053338,-0.2510474169638381,0.9672838365372665,2.2167472632669862,-0.5437879184969525,-0.46717174275719325,0.39523127663177715,0.018382317845045786
206,5.059999999999956,-0.9048505430257681,0.8222790950702323,3.5536936518888855,0.6703633113839055,0.7030394151027383,-0.2370496612004196,0.5517554456538903,1.9857298928150202,-0.6463507164436045,-0.46436322042706707,0.4072173610680628,0.03276852086643509
207,5.069999999999956,-0.9067236676098349,0.5442581031148246,3.387638647705617,0.6960148075591047,0.6813521428763315,-0.22624953777288412,0.2705273631243626,1.7066825756994615,-0.7467088242759724,-0.46078952208609886,0.41777630824318934,0.046606396213189634
208,5.079999999999956,-1.2302346326646179,0.2019461268466007,3.2365985733965643,0.719055939201102,0.6602555468840533,-0.21657573935054855,0.018139166369158598,1.4051294110092196,-0.8247495769203215,-0.45799192023025614,0.42655489001543895,0.060864231381264275
209,5.0899999999999554,-1.7923165748452425,-0.172050523673394,3.1258177226343715,0.7397915015968601,0.640206685768367,-0.2067421702862041,-0.26631602309874025,1.148767562231146,-0.8782318044579537,-0.4569598839691734,0.433374380004212,0.07639098375625726
210,5.099999999999955,-2.462181301307368,-0.5385605628005794,2.9927259345488757,0.7584063104032954,0.6215359331851547,-0.196023763914906,-0.5427688660700589,0.9486671092185984,-0.8871541410671179,-0.45832357886337116,0.4380925177159607,0.09364973146474184
211,5.109999999999955,-3.0709201851780517,-0.8531169532043671,2.8001916915423153,0.7748712264466372,0.6045664407953849,-0.18439497701152488,-0.7748287209053808,0.7712298146528548,-0.8638202689151939,-0.4621884229455211,0.4406588560625628,0.11244614770984583
212,5.119999999999955,-3.501870214460703,-1.119747377203455,2.521935181874308,0.7890385121353939,0.5895966057055053,-0.17245104903782485,-0.9572857793660674,0.6314845952820376,-0.8566621149365973,-0.4681919367122583,0.4410938095421224,0.13211869682716812
213,5.129999999999955,-3.6848354645868535,-1.3346054314285156,2.154821640209004,0.8006614434953263,0.5770007247209951,-0.16117146278819836,-1.1192008491591494,0.5523344665456449,-0.8603648038634104,-0.47571730644764315,0.439429262498222,0.15178345981495364
214,5.139999999999954,-3.448295818213763,-1.4729403350876331,1.721420418164529,0.8095656208398472,0.566990581133831,-0.15201295499550035,-1.2974653295899907,0.5108188240909363,-0.8481162597969089,-0.4836590498881689,0.4359564736828257,0.1702374991347449
215,5.149999999999954,-2.88283174029975,-1.5043542773183252,1.243293965268519,0.8156889331241948,0.559701387540685,-0.14621943013621824,-1.507851431027636,0.5160207005748335,-0.8331245495814468,-0.49084306958882623,0.4312258955777184,0.18624593829057381
216,5.159999999999954,-2.074784426522625,-1.4532056955103614,0.8149055943227911,0.8192460277531497,0.5549442630060966,-0.14446699545224886,-1.7133396674439574,0.6079619284080273,-0.8290624291615897,-0.49632573750148534,0.42593700427632386,0.1989902016201059
217,5.169999999999954,-1.1746451632825705,-1.3476260093376775,0.4376038719236554,0.8206724821990066,0.5521698393082866,-0.1469711470805651,-1.8676230035171668,0.6895381955405666,-0.8040135328233916,-0.49949969219508705,0.4207272336484004,0.20821864991783778
218,5.1799999999999535,-0.27159673859329275,-1.2005652271512832,0.04773891041408793,0.8200940843651202,0.5512522669892518,-0.15347556352047778,-1.9826595875956123,0.6561701406075727,-0.7504846569710213,-0.500269937012298,0.4159203408132023,0.21380945089468112
219,5.189999999999953,0.558098173141569,-1.0100060873425478,-0.35133291529541744,0.8175011328571017,0.5522453603379509,-0.16338731936449274,-2.0758922251008003,0.5898703861396791,-0.6684964982730621,-0.4988380893549736,0.4116600799396002,0.21570848066217874
220,5.199999999999953,1.217736374057944,-0.798273428646922,-0.7504604368844242,0.8128892963548721,0.5552212331021795,-0.1758102660430534,-2.1231968467648086,0.5438239928859153,-0.5756239919564472,-0.49568230665427204,0.4079097585284072,0.21409214397497633
221,5.209999999999953,1.6289277806694658,-0.5862166185886947,-1.1687215788879788,0.8062246219662883,0.5603803014586101,-0.18956955467977318,-2.1055310895145927,0.5393799239667174,-0.47061438046481724,-0.49154860810474676,0.4044645362147487,0.20932088591767864
222,5.219999999999953,1.7929323776798707,-0.3930050327680847,-1.6221936378781292,0.7973756253152323,0.5681888294915057,-0.2032364089466976,-2.0264624326961655,0.5502951702219089,-0.3844794977990417,-0.48742502795800735,0.40099294451911205,0.20183595338381743
223,5.2299999999999525,1.8125483195238743,-0.20492803685775757,-2.0660593446149584,0.786163101231859,0.5789957254324054,-0.21598851452976175,-1.8931317231625544,0.5562928763087329,-0.32467383532662314,-0.4840029423761527,0.3971698351239812,0.19201249188115577
224,5.239999999999952,1.8343575187314045,-0.02972477033221719,-2.481240481602006,0.7725468608449608,0.5927062172441921,-0.22758608623839152,-1.7354125200573627,0.5472241710874032,-0.2743621306918884,-0.4814736143381443,0.39292123356617975,0.1800437123291218
225,5.249999999999952,1.9417229432355034,0.1488138893144521,-2.8751652976609776,0.7565722216450198,0.6088078108885745,-0.2384505497116712,-1.6019474082351506,0.49265987977277736,-0.2078277124782903,-0.4795494173602869,0.388334747983882,0.16595862471524345
226,5.259999999999952,2.150989687534379,0.31362397131601083,-3.2510008053779935,0.738187143440981,0.6267403228411234,-0.24932769632317853,-1.4939671798206895,0.4406390314762531,-0.11963211212103976,-0.47776161846481985,0.38350536476111474,0.14961249383553554
227,5.269999999999952,2.482778372881308,0.4514843660721708,-3.572950816566442,0.7174163165401481,0.6457075517681904,-0.2612373326955342,-1.3829740243825004,0.43084290585811225,-0.030032051072721944,-0.47553884495402565,0.37847018353619066,0.13098178587912365
228,5.279999999999951,2.891988575369505,0.5504710852690076,-3.8426136334297776,0.6944551034831712,0.6646705058809873,-0.27530822338659394,-1.2393481726767013,0.47713724584856126,0.045787445589395605,-0.47223133190652683,0.3732792580955418,0.11013788640622056
229,5.289999999999951,3.2143971263715185,0.5932615039272744,-4.0988515407067805,0.6693183855751584,0.6830494724489682,-0.29203372365727714,-1.0573196151899324,0.5736311372087021,0.10460198587642681,-0.4676958980522687,0.36774420194886287,0.087328191545361
230,5.299999999999951,3.351051791948843,0.6089606126114755,-4.308757989201672,0.6419587882920995,0.7007679577217555,-0.3108519533269746,-0.8808250448426642,0.70655642792457,0.18078581109108305,-0.46240241438640006,0.3615917232002902,0.0630099829135788
231,5.309999999999951,3.450464514840957,0.6198405502437756,-4.307763419638093,0.6132972286069673,0.7169506515928546,-0.33115728928522437,-0.7250290476667441,0.9193980355178635,0.2529431034162352,-0.4564799280163205,0.35501643562177176,0.03797275448777892
232,5.3199999999999505,3.3873772021806015,0.5628586924553297,-4.27355233364864,0.5842976306468062,0.7308800091197034,-0.35245761095838274,-0.5309373140845179,1.2500792627335882,0.25934381986570465,-0.4500241107019049,0.3481924206425245,0.013020382269966083
233,5.32999999999995,3.041974661021426,0.2511772510751289,-4.237209652908219,0.5544028824035429,0.743466731860693,-0.3737680690960503,-0.21136782292729592,1.699493157837282,0.18387495552052718,-0.4440716050326764,0.34044511381373543,-0.011084193841886107
234,5.33999999999995,2.4842886183011283,-0.23706451992306032,-4.217668229952998,0.522781396792128,0.7555358897110822,-0.39453491840815746,0.1658138455284633,2.256496935200309,0.057772165124264294,-0.4396055310919025,0.33085151386211314,-0.033317686175555083
235,5.34999999999995,1.4709667841467207,-0.6659592992724459,-4.527695714983306,0.487782127921322,0.7693733055669426,-0.4121622758247965,0.5882322906689129,2.83258487126196,-0.0910171057211769,-0.43833981300494784,0.31898453368897467,-0.053785830236510124
236,5.35999999999995,0.21520119425560433,-1.0101706134965631,-5.165536076405558,0.4465183177495787,0.7884936878123013,-0.42254270757288437,1.3045538367198852,3.3580535860680696,-0.13934640201832493,-0.44266472881099345,0.3045189876437192,-0.07354196314595443
237,5.3699999999999495,-0.5469950548515748,-1.1893796048427943,-5.782384053817257,0.39762082629411644,0.8125569203619346,-0.42569479391242165,2.1695293115511998,3.628374671357167,0.06521287194006851,-0.4521147570777658,0.2875546744459798,-0.09385757018252147
238,5.379999999999949,-0.5723576396259055,-1.1237513346538015,-6.082229246242351,0.3435023972914216,0.8371594548558987,-0.425112126921192,2.589476661289459,3.4101254909731313,0.3782998879587804,-0.46352388233861275,0.26932085581967347,-0.11526759869069401
239,5.389999999999949,-0.020988721412676825,-0.8828131234746254,-6.196980968340808,0.2870404876535892,0.8579449886061725,-0.4255697382389787,2.509056655195118,2.942304792035107,0.46345572171511273,-0.47353386837994615,0.2508672690368782,-0.13811061327756924
240,5.399999999999949,0.9062634310565288,-0.5379514944664505,-6.178139603419717,0.23038031823792812,0.8720858326306746,-0.4312594237576628,2.3518611301584627,2.48409319741395,0.3500266735916283,-0.47973314929623956,0.23278246085667445,-0.16267728339463067
241,5.409999999999949,1.6640014713000475,-0.18822431024203562,-6.099190312033059,0.17496147577390347,0.8788158734616143,-0.4434927593083698,2.2301440023641437,2.0472332843526586,0.3063108959889144,-0.48151024986534624,0.21533002015490305,-0.18873615696742352
242,5.419999999999948,1.9675546238283286,0.12945324061305008,-5.92431714544673,0.12191573513126938,0.8793858972274249,-0.4598570647687827,2.144728358010558,1.6568635497763844,0.35766630579112507,-0.48010363543429574,0.19885326227086841,-0.2154633078134197
243,5.429999999999948,1.723362335385011,0.4669992822420296,-5.764836862837608,0.07200368092140573,0.8762742296502131,-0.4760920544616043,2.025637745223697,1.206236777558073,0.49954237704191945,-0.4775954552446172,0.18394278545821272,-0.24209160330450108
244,5.439999999999948,1.2477894629420048,0.8192744361793582,-5.5380117727814,0.02565546378925461,0.8718830777020409,-0.4887972909818983,1.8342137711524829,0.6080910985978951,0.6582525043320827,-0.4756813929446698,0.17121502000088062,-0.26820103850364657
245,5.449999999999948,0.88630999499886,1.2004580401851523,-5.286216459161798,-0.016426846238346657,0.8669205206633344,-0.4979841861149595,1.5945482749891948,0.054648378172821116,0.7850282868469821,-0.47442651821213727,0.16099417552970355,-0.29358650652274876
246,5.459999999999948,0.6449449243521209,1.5722723753712564,-5.0159621670436,-0.053998405727518343,0.8612707436204401,-0.5051236966383873,1.425217113669757,-0.32226554343446484,0.8606222097641777,-0.4732353005864737,0.15323946826874296,-0.3183642643861716
247,5.469999999999947,0.39380593660482704,1.8931144744005999,-4.680923109308651,-0.08681338859950151,0.8552402990015259,-0.5108023093557281,1.33922686764947,-0.5816322603730374,0.8814140620933948,-0.4719362030353562,0.14789660390836493,-0.34233254013712416
248,5.479999999999947,0.2283617080320075,2.115428541318454,-4.315862384121193,-0.11484233266461616,0.8491598629706755,-0.5154215687172763,1.28504932344086,-0.8405766262882913,0.8770817136577718,-0.4704619801722292,0.14475502101013693,-0.3651762575349827
249,5.489999999999947,0.09212981975318707,2.2029205524655238,-3.9299617858684273,-0.1385288718359162,0.8430832402358945,-0.5195804533985031,1.2564983300135737,-1.0880346347946441,0.8406976343440965,-0.46870152453162467,0.14327694105133298,-0.38659406833340565
250,5.499999999999947,-0.15959132736740844,2.1641177650674144,-3.4928612180734833,-0.15836280915265388,0.8376996558813617,-0.5226325447902542,1.2811369405226383,-1.2748851622826198,0.7948386812870281,-0.46711513129385224,0.1431326143481672,-0.4061352619278456
251,5.5099999999999465,-0.5639144348616406,2.061232959941532,-2.969303970955989,-0.17435726492031733,0.8341902256378746,-0.5231688362708529,1.2927537659509611,-1.4872190415410966,0.8013910645120723,-0.4664236904836987,0.1444421522233616,-0.42323649431150717
252,5.519999999999946,-1.0664524761291214,1.888717371157474,-2.407631944731203,-0.18644193232476683,0.8335926435162738,-0.5199483642079595,1.2661702326782687,-1.7550819450459598,0.8605506308360567,-0.46720890974762624,0.14744037878965247,-0.4374663642733352
253,5.529999999999946,-1.5011715082725623,1.6467013505740367,-1.8292896506262424,-0.1949834141185111,0.8362201297291632,-0.5125392984628546,1.2492319478013556,-1.9668753763946494,0.9041970461853365,-0.46970824041796644,0.15198332433814873,-0.4485941694278808
254,5.539999999999946,-1.792898160090407,1.3331634694643277,-1.2383441107324025,-0.20026977259620654,0.8415785125514567,-0.5016062674979178,1.240864571119925,-2.045265973184968,0.9161592185324137,-0.47363965788733303,0.15765344767450024,-0.4565310570894592
255,5.549999999999946,-1.8918403153144663,0.9582235183109249,-0.5971668287133701,-0.2023620110453831,0.8489119518399645,-0.48822594530125546,1.2377693408843382,-2.00297234224341,0.8833165354953072,-0.47854622468595215,0.1639272179894808,-0.46114556072727403
256,5.559999999999945,-1.7609237586395785,0.5606028687695441,0.08340522880846876,-0.20091066844909533,0.8572366574516754,-0.474073768474119,1.2499942252529102,-1.982896835205489,0.815235326506487,-0.48368494733190726,0.17030694945769537,-0.4623788365421547
257,5.569999999999945,-1.476148473712008,0.18394771198804313,0.7695243712683789,-0.19547615786291653,0.8656743074563124,-0.4608279224514896,1.236683806107969,-1.9986635556562231,0.7412363610991004,-0.48831479423991897,0.17643355180416398,-0.4603281458757533
258,5.579999999999945,-1.1191979857850238,-0.14298776825137083,1.396351966916397,-0.18594093049767102,0.8736582154349487,-0.4495657040010474,1.1697031731430454,-1.97070713139867,0.6733507378233018,-0.4919762507829095,0.18213212914603658,-0.4552924877025515
259,5.589999999999945,-0.7661431832075271,-0.3761015621445055,1.9838373264944458,-0.1722751746894975,0.8808831552128021,-0.4408157438393057,1.0950294749234633,-1.9133142704060504,0.6328933732863518,-0.4944085065002314,0.18748001157422528,-0.44767252241713945
260,5.599999999999945,-0.40706863412246264,-0.5260278583673419,2.566770450811077,-0.15412409280308673,0.8871462236451948,-0.4349160694927169,1.0315794218134984,-1.8307498871612045,0.6193183721755,-0.49535606225188683,0.192771092816427,-0.4377616153202067
261,5.609999999999944,-0.08656643886072368,-0.613863042378078,3.1025793260636534,-0.13135259557981188,0.8922487541974771,-0.43191418966744427,0.959274760887339,-1.7238601871307848,0.617777886104778,-0.4947130220831598,0.19823557009396375,-0.4257591014682955
262,5.619999999999944,0.19150245554199163,-0.6354178733541539,3.551704712268053,-0.10425739620167196,0.8959209265914853,-0.4316721278155346,0.8859266720802277,-1.5881828850609425,0.6372634119003879,-0.4924658987126071,0.20404669641391984,-0.41202343606609926
263,5.629999999999944,0.436907220685802,-0.6291796115375534,3.935569326810748,-0.0733745281135344,0.8978636929416085,-0.4339520931898491,0.8400540905685828,-1.4350307145746906,0.6495825181309252,-0.4886842204395173,0.2102456815489576,-0.39685971457244296
264,5.639999999999944,0.6658057693411114,-0.5809137951234585,4.217324064414719,-0.03934241326571487,0.8977508026932018,-0.43855446278026666,0.8166158140172358,-1.2781518767829174,0.6159517122465801,-0.48342475684989167,0.21682361181157297,-0.38059981937245
265,5.6499999999999435,0.8419615631913973,-0.5656153685499676,4.427493874098732,-0.0030936869248155948,0.8952997278364164,-0.44524455582863953,0.7953079230299727,-1.1174411632336483,0.53682774015534,-0.4768223385599605,0.22361867635959584,-0.3635736239505294
266,5.659999999999943,0.9893228772564615,-0.5779827467800333,4.666856693351334,0.034903215143495196,0.8904279784883511,-0.45355122842544937,0.7682910867092163,-0.8722927065569893,0.4145225795496281,-0.4691157651317772,0.23051994255117744,-0.3456901454412077
267,5.669999999999943,1.019328771629945,-0.5644597261588427,4.948204536537064,0.07489886200269769,0.8831366325991667,-0.4628424855615864,0.8322223471611914,-0.4245410200685791,0.24343002058926239,-0.4604746126422025,0.23774837668487353,-0.32670248653845074
268,5.679999999999943,0.8121886577361157,-0.5441059440479278,5.193836257721322,0.11691903880944667,0.873885878153527,-0.47159915291721805,1.0499483957859375,0.19514186574419623,0.07535693951431195,-0.4514964593323169,0.2456287828471034,-0.30635789073339215
269,5.689999999999943,0.2582135787386855,-0.48531913756983625,5.288861997886151,0.1600951149130582,0.8639471675113279,-0.47720311062244725,1.2443978198233427,0.7998528496396672,0.036264648518424425,-0.4434449188879587,0.2544373589830153,-0.2847130329661346
270,5.6999999999999424,-0.711587759131788,-0.34166402385731737,5.140036523846783,0.20312024730930492,0.8554089486414469,-0.47622835306624267,1.2753813948675927,1.2229779212233254,-0.034567886873488676,-0.4380526265646773,0.2645375176963009,-0.2622078736608665
271,5.709999999999942,-2.1550510367970723,-0.369343540426587,4.6385351398800605,0.2434646863130056,0.851047025018139,-0.46500755916473085,1.1836626593342916,1.707351208095802,-0.2895652086803274,-0.437603890159215,0.2756460178927918,-0.2394159876680667
272,5.719999999999942,-3.585398249217034,-0.6069456202771977,3.8282601370369638,0.2774117425632247,0.8530872508329022,-0.4416605295431852,1.25583539359985,2.395684017522481,-0.6310706915301227,-0.4440767309889237,0.286247860574762,-0.21681325493196088
273,5.729999999999942,-4.325402216340636,-0.7767690831937236,2.8816259349501205,0.30318429096821786,0.8604211536915616,-0.40932573543108836,1.4756484585155851,2.9514306209512586,-0.8453617151828858,-0.45632402538360034,0.2950820230236847,-0.19570837373696262
274,5.739999999999942,-4.167753404942921,-0.9425691405944701,2.1930424578558916,0.32154252453628035,0.8694601785737169,-0.37482917395116366,1.3966726141186734,3.2852650139224178,-0.9157492251853923,-0.4708788228493838,0.30138522380163135,-0.17703749830201088
275,5.749999999999941,-3.4454550183946973,-1.0344348471301683,1.7352944914688115,0.33507775756206415,0.8768348016104469,-0.34466997211663114,1.0236227993799938,3.4638660513638717,-0.9254005735528527,-0.4841904977770412,0.30530239011230137,-0.16096591159499807
276,5.759999999999941,-2.4315463506907626,-1.0770357158078818,1.370085673208863,0.34516954724665083,0.881435923875115,-0.3223287372554614,0.6549734149358017,3.3445930104912485,-0.8774934618865816,-0.49447218456251635,0.3071266450452053,-0.14763543582603303
277,5.769999999999941,-1.3577092169959675,-1.1169602934618412,1.07312198045804,0.3524446721863511,0.8831821367646309,-0.3094602355453156,0.34621263624342014,2.8724658422674056,-0.7669269154533981,-0.5009364963799197,0.30713369431876086,-0.13714688707441144
278,5.779999999999941,-0.33687933344866644,-1.1755312259432311,0.9653058877224505,0.3578167555147736,0.8821869139743005,-0.30611613925341746,0.04807927472192613,2.2591527689130086,-0.6252703323654677,-0.5034979836894364,0.30566482148503554,-0.1289716185628786
279,5.7899999999999405,0.4618313192512947,-1.2366571415705263,0.9608342106991195,0.362565920592526,0.8784563504260741,-0.31119211303340233,-0.24910029418963942,1.8147427687726403,-0.5306948863885291,-0.5024447081328076,0.3032338589520932,-0.12224680978709514
280,5.79999999999994,0.8568204161017723,-1.3220175433776726,1.0018419925013466,0.36715013741771974,0.8726786003421245,-0.3218770326099944,-0.4835237464186799,1.4210389830141095,-0.4917407922309454,-0.49896004519230897,0.30016081965199065,-0.11612378698042315
281,5.80999999999994,0.8816791489620978,-1.419833100150741,1.0259809498817436,0.37145228328252183,0.8660132214440133,-0.334689249542542,-0.6735158095085141,0.9315833845346861,-0.464485987854856,-0.4946312963759737,0.29663333485590465,-0.10995055287913579
282,5.81999999999994,0.7143298092988544,-1.5303946615079487,1.0746098257234848,0.37550450494716064,0.859329762676472,-0.347169437529827,-0.8479514708020185,0.434991099883553,-0.4276017592966444,-0.4906014691297533,0.2927833412484055,-0.10319514139579297
283,5.82999999999994,0.4837169881289814,-1.5897225125864622,1.0792545950846881,0.37920547797577214,0.8531617332507517,-0.35819241692080506,-1.003840440906542,0.018740080540966562,-0.3894816463017724,-0.4873661630469996,0.2887475500258982,-0.09587168296381296
284,5.8399999999999395,0.24320114039952728,-1.6275222858980993,1.0828637246733024,0.3825609902532894,0.8477075504304104,-0.3674614552266755,-1.1343545503162913,-0.2818030050185577,-0.35827582073296443,-0.4850453240603109,0.28460126699134186,-0.08804923595687503
285,5.849999999999939,-0.009523759346098917,-1.6482980920367727,1.060563386434374,0.38556761484017804,0.8431468485837303,-0.37474616358203383,-1.2041416832319138,-0.5219642292094308,-0.3205389095802353,-0.4837332992063477,0.28040460385289273,-0.07981818363916572
286,5.859999999999939,-0.22959841128205244,-1.6374260253274242,0.983912547161436,0.3879738502770551,0.8396499886421761,-0.3800803220857384,-1.22256886198312,-0.706116274447638,-0.25433798039147726,-0.4834380234226539,0.27612526088661304,-0.07143602177821767
287,5.869999999999939,-0.37298621856761327,-1.5819805564619909,0.8548344965669711,0.38954413616530204,0.83723862474473,-0.3837778534903319,-1.2367338801023076,-0.8421748124517529,-0.22056529253861037,-0.4839901641659497,0.27177581126341055,-0.06329519006706208
288,5.879999999999939,-0.4059114718057475,-1.4754453075912728,0.6880302323680929,0.3901033157322693,0.835756799910456,-0.3864315495658814,-1.2564446034256818,-0.9478365827448441,-0.21965524339191708,-0.4850521923769171,0.26740627906762016,-0.05584511182207136
289,5.889999999999938,-0.3279990224451014,-1.3352624505825497,0.48378307392851744,0.38956954887399775,0.8349088066446738,-0.388795330287378,-1.2975644569170999,-1.0304859583960342,-0.1937809198368486,-0.48619514908613665,0.2630859274593084,-0.04948375855634995
290,5.899999999999938,-0.21579819973504827,-1.1835962880210376,0.2409498640921128,0.38768714775580665,0.8345566858683008,-0.39142254155229267,-1.3531381695616385,-1.0986887792354159,-0.1755862802237964,-0.48715052928352914,0.2587870910042285,-0.04454562201303824
291,5.909999999999938,-0.0975272099913972,-1.0006312266178108,-0.022185099511162414,0.38428472274975534,0.8347497410402823,-0.3943526390954309,-1.385872314069928,-1.1574125576093657,-0.17014807483743638,-0.4878947486089567,0.2545194661348885,-0.04122665108798817
292,5.919999999999938,0.018767512062936906,-0.8123425615296342,-0.2930011014764621,0.37934150205186906,0.8354992585038347,-0.3975351424480095,-1.3975707330274656,-1.1728799303267006,-0.13025781593418384,-0.4884333375831764,0.2503261891413332,-0.03961046460889638
293,5.9299999999999375,0.18847952207633845,-0.5824656490214708,-0.555170360046146,0.3728704297711832,0.8366445779509296,-0.4012290294019952,-1.4057405980100592,-1.1523128259638842,-0.0794738591914142,-0.4886057430490154,0.24626857517904774,-0.03983612437546204
294,5.939999999999937,0.3874643098700585,-0.3477712015451243,-0.7684112082415859,0.365427792116007,0.8379295938126562,-0.40537078564142964,-1.398262932024934,-1.1080265217450698,-0.021229491135906775,-0.4883050371255505,0.24263427490811448,-0.04182589526537363
295,5.949999999999937,0.5477504268019127,-0.1043784674858444,-0.9728544088896952,0.3571864732308873,0.8391405218164356,-0.4101804128709454,-1.3861663629069472,-1.0726411955520208,0.04317513810998037,-0.4874189824553068,0.23943974207288596,-0.045480852936256075
296,5.959999999999937,0.6685127545489344,0.1495283545322501,-1.1732642122621284,0.34824367973784753,0.8404115922326956,-0.41523535499069525,-1.3604645850867345,-1.040069542183844,0.10630901921138851,-0.4861314259401607,0.23676501870400316,-0.05077236529799578
297,5.969999999999937,0.8089897475686361,0.43678784577016044,-1.3400281051860898,0.33888076016088775,0.8416575160605074,-0.42042529745373103,-1.3129049790124678,-0.981541885679015,0.1638327533420134,-0.484444114892213,0.23473470522858925,-0.057629122110886576
298,5.9799999999999365,1.0285331020917656,0.7315409213127596,-1.52681901755718,0.32930673461166343,0.8425415025616501,-0.426219466436263,-1.2574716353499868,-0.914713909995495,0.20251496460760948,-0.482069493822346,0.233448101812104,-0.06613223807258976
299,5.989999999999936,1.2396403640006697,1.0002513048090054,-1.7670496643848324,0.3191836019243761,0.8429915081898778,-0.4329725677590868,-1.2277389756318122,-0.8309407822986997,0.21142006092495166,-0.4788956111482188,0.23274667172265692,-0.07645803373777271
300,5.999999999999936,1.370092330752168,1.2690719833352402,-2.116196946995114,0.3078516439761115,0.843324997322631,-0.44045551309531483,-1.1935585929959796,-0.6575490139907683,0.20090336944990783,-0.47514293822872766,0.23239907239547955,-0.0888619062737142
301,6.009999999999936,1.6168063878062273,1.45285097127521,-2.520665450478093,0.2943848098486766,0.8436903841547039,-0.448865882982244,-1.100870666340389,-0.37644279415820603,0.21227941525699046,-0.47090296044489754,0.23197902031072828,-0.10361046566271473
302,6.019999999999936,1.9142814164806452,1.584473938308579,-2.955381653024118,0.27820184639875406,0.8434899418077206,-0.45941871384922317,-1.0009089300337601,-0.002050872208668647,0.24680417439374633,-0.4657540130232963,0.23099584222263672,-0.12076886670997537
303,6.029999999999935,2.1752567999010846,1.6881598609276394,-3.306430072789853,0.2593126078212266,0.8423797824937719,-0.4723087397937796,-0.911650879649141,0.5309194241225148,0.24514169535633537,-0.4596297012184235,0.22930253451640936,-0.1402198980653488
304,6.039999999999935,2.366039017389735,1.6682116239850975,-3.443075898963763,0.23895742968333283,0.8398960892662725,-0.4872196449195392,-0.8387174668639262,1.2099401924546636,0.13220067430882093,-0.45259858236603406,0.22701614218764418,-0.1609708750899058
305,6.049999999999935,2.4804649190093615,1.5582356045635488,-3.6065683713761656,0.2174992666903996,0.835869975009906,-0.5038921869315987,-0.7404456120543954,1.7875733757952612,-0.037144249845523794,-0.4448756344071867,0.22389631847741617,-0.18225034406583074
306,6.059999999999935,2.578650276314792,1.368445140850106,-3.7695350947895316,0.19422732544381657,0.8305140004758923,-0.5219153201510972,-0.6305146326927182,2.276297028069305,-0.20744432773479884,-0.43684508082797635,0.2195365009030709,-0.20396399694445566
307,6.069999999999935,2.628735287220366,1.1119496340274575,-3.853471495924877,0.16933940611330658,0.8235317803928018,-0.5412720493943184,-0.48590792001630323,2.893785434245702,-0.39555685080242964,-0.4285472984596817,0.2137685574809167,-0.22564163195043327
308,6.079999999999934,2.4619299143248603,0.8110763770569607,-4.1212666246721374,0.14202410644069674,0.8156379019911053,-0.5607130483956866,-0.15616443680958714,3.5307876037258468,-0.5705028661163475,-0.4207523258329562,0.20638706496127718,-0.24724961598842668
309,6.089999999999934,2.2377241718723857,0.4942392491443204,-4.458387452546068,0.11090798617130608,0.8076914127181222,-0.5789134375516123,0.3413408394434683,3.8565578132599376,-0.5789498506886808,-0.41430202263279037,0.19717760645280372,-0.26917221755349363
310,6.099999999999934,2.0556861857095328,0.1745108488668331,-4.735332058950315,0.07583079102421679,0.7993612234264336,-0.5958642890430124,0.7820585078871299,3.7365921137460867,-0.44020312616297824,-0.40916753249750404,0.18608744886471087,-0.2913904274735402
311,6.109999999999934,1.849344242385162,-0.09687736887523102,-4.811182624862269,0.037934462960190554,0.7903252434805695,-0.6113307311412924,0.9937474439724797,3.2930581288731755,-0.3053096309799898,-0.4052152968572644,0.17352854531169631,-0.3134037652390866
312,6.1199999999999335,1.7258270065850072,-0.2713043047752413,-4.673449185849166,-0.0005447211659683621,0.7801860191214491,-0.6253764497831591,1.0632175617569422,2.747102529995454,-0.21466349969323328,-0.40200325234086604,0.16025518644905143,-0.33442986730553353
313,6.129999999999933,1.6668504257016552,-0.3135729006290232,-4.468664502036656,-0.03790925576611548,0.7686140708208333,-0.6384369870330223,1.2096269019024388,2.133251532461763,-0.14527166333081973,-0.3989692677463482,0.14691222325201458,-0.35423618397616374
314,6.139999999999933,1.5694027547784202,-0.21393358627747364,-4.160823534252044,-0.07260797100296996,0.7557701921225835,-0.6506772236558335,1.311147266156722,1.5662970090878654,-0.0182410468096901,-0.3957563721806054,0.1342414375428907,-0.3727803743243112
315,6.149999999999933,1.2949729591291528,0.0007658815040308825,-3.8290040484710857,-0.1032827475058595,0.7427890265083908,-0.6614245867154671,1.2802168946995576,1.1189452059619445,0.15075501211041104,-0.3925691032685936,0.12315052367568884,-0.38999286925237076
316,6.159999999999933,0.7911774883089119,0.3102431906770009,-3.4821665726715847,-0.12923502111915564,0.7315008527111336,-0.6694295821465022,1.2708574738224307,0.6402185975041308,0.3318122818995125,-0.39008642782890385,0.11451311816284278,-0.40593644082363856
317,6.169999999999932,0.11495088263951145,0.6953348699075438,-3.1411614936693213,-0.14998349215474244,0.7237922491650106,-0.6734949547132842,1.2453524586533125,0.15280126068786498,0.5103086704186008,-0.38902272557138273,0.10914774715454846,-0.4206660317434491
318,6.179999999999932,-0.6268956044336903,1.095997969069326,-2.8393012276143557,-0.16552364017164264,0.7208141245686133,-0.6730603608142198,1.1866562006396804,-0.2527344668149597,0.6529345820351752,-0.38975651146455065,0.10751149662286065,-0.4343505970117715
319,6.189999999999932,-1.2936510636978744,1.448270300988844,-2.5378466009541647,-0.17637341940305507,0.7227182182288793,-0.6682457709796701,1.1293740336176155,-0.558858517177668,0.7575185303790603,-0.3922765899763869,0.10950637363274439,-0.44709090016253195
320,6.199999999999932,-1.7840582712170554,1.6907716202823742,-2.217226329347794,-0.18314373572170525,0.7287402760760452,-0.6598260991901939,1.0951770108612209,-0.7664891218528299,0.8106789379108499,-0.39616657353709267,0.11458662319272617,-0.4587509323563376
321,6.209999999999932,-2.033199850249996,1.790669234938352,-1.8440412341038972,-0.1865812494960421,0.7375956218064239,-0.6489299304007247,1.0761062345656127,-0.9433520886593851,0.8185562448284924,-0.40083885862678786,0.1218669226549102,-0.4690674573613763
322,6.219999999999931,-2.038165876693418,1.8599048711711057,-1.373099061967434,-0.18680169520721251,0.7477390015981061,-0.6371501155051262,1.0219766178458927,-1.1290585844479302,0.8023576054435364,-0.4054321612070612,0.13052376954980885,-0.4777017436362027
323,6.229999999999931,-1.904542770973602,1.8646693464931767,-0.832246271798577,-0.1833374831062784,0.7581800474150421,-0.6257134250166361,0.9262259804205766,-1.2845120921995288,0.7771303857709556,-0.40924718598318754,0.14016444223119717,-0.4844001027473841
324,6.239999999999931,-1.7124057741705023,1.7903029522595957,-0.22375736320285694,-0.17600874297618493,0.7684645563179966,-0.6151789427328175,0.8090248395374495,-1.426302118940244,0.807427232298981,-0.41203096602333034,0.1504216658774808,-0.4888572939887842
325,6.249999999999931,-1.5552369062561269,1.6534207703325374,0.3652768747901374,-0.1648867833749197,0.7785077846841189,-0.6055495779845581,0.7209351625411395,-1.570666650029973,0.9132440694367218,-0.4138529439926449,0.16104689574547945,-0.4908765732669381
326,6.2599999999999305,-1.4785172799840338,1.464736556193575,0.9050600190495708,-0.15049009755032597,0.7885904360794688,-0.596170181571572,0.7055092526947624,-1.6805004800198162,1.0249173676354517,-0.41514039242818807,0.17192525280914933,-0.4904729723056923
327,6.26999999999993,-1.3865587689693395,1.223077499507454,1.404271092309056,-0.13335937950919,0.798709139658536,-0.5866948720068383,0.7258187254540015,-1.7645531864366455,1.131795972212602,-0.4161754009726015,0.18285589212340547,-0.48769349943527546
328,6.27999999999993,-1.197076647579121,0.954615778105415,1.889241956403702,-0.11377671414681353,0.8082987953908141,-0.5776092099026412,0.7457979799597017,-1.8208718647249733,1.2012883024289143,-0.4168225721559318,0.1934980429833411,-0.482602073666451
329,6.28999999999993,-0.944852784329759,0.6834653467033068,2.3818425464777233,-0.0917024468207948,0.8166194880183698,-0.5697712017187001,0.746292711590893,-1.8017829193837402,1.2108800976641394,-0.4167239067853646,0.20357846392649262,-0.47527954128535055
330,6.29999999999993,-0.7128585643669377,0.4613284060885955,2.8336604619776913,-0.06708668811125619,0.8233714568064522,-0.563437755826489,0.7007297727081506,-1.7267643540608788,1.1857465857060492,-0.41577341536753865,0.21307894560328117,-0.46580970451551995
331,6.309999999999929,-0.5835908482893736,0.34624678419665045,3.2456330897332233,-0.039722077954466736,0.8285448608926733,-0.5584081996289451,0.6152383303608381,-1.6452609050207256,1.146990226628439,-0.41393672267849657,0.22235194589980253,-0.4544743249295247
332,6.319999999999929,-0.5708073694144076,0.31746860824295803,3.624656752913729,-0.009355744147213109,0.8325657594774166,-0.5537208883616015,0.519695542537974,-1.5785355613338996,1.1014597640958683,-0.41148156551990356,0.23196635066800553,-0.44143119389034485
333,6.329999999999929,-0.524611807153151,0.40003099354718885,3.955366735064741,0.02423178296059203,0.835338517517077,-0.5490490255935869,0.44452626928992434,-1.5055904320913704,1.0445540033228113,-0.40834574317790306,0.2423058624761449,-0.42696536962752407
334,6.339999999999929,-0.317697606035915,0.5016694609860378,4.296139966665063,0.061189754522478934,0.8359023157569814,-0.5452765960330426,0.4371694386806735,-1.3993096594995393,0.959436455981608,-0.4039323620611371,0.2533379177660539,-0.4114142885189352
335,6.349999999999929,-0.0006905554482229057,0.5140462090212089,4.570625009665856,0.10107478602610902,0.8331914164926707,-0.5434713252587206,0.5156179497073977,-1.2255386643070338,0.8265934114121328,-0.3977833781665544,0.26459575094893223,-0.39489958821560317
336,6.359999999999928,0.28876506733957996,0.3685940240018853,4.735844483121152,0.14219777178011725,0.8266484256397898,-0.5442550583989784,0.6565651989371378,-0.9827682856912338,0.6920070092449837,-0.3899859601127911,0.2752502939533517,-0.3776385218919043
337,6.369999999999928,0.3407104718222187,0.1298172369920501,4.78234151289928,0.18277981629006998,0.8171457685691051,-0.5464992363034802,0.8061265369763121,-0.7011656026610511,0.5754436123293375,-0.3815637726688243,0.2848539420287474,-0.3595299420316252
338,6.379999999999928,0.19804146502901307,-0.001944790377432077,4.631969279586145,0.22132172987522453,0.8060584590625596,-0.5487273341001077,0.9876121697318385,-0.38246573040238596,0.4675082924673642,-0.37349826240127404,0.2934629319902395,-0.34104511104008917
339,6.389999999999928,-0.2836517472498784,-0.10551066802196349,4.668045522993926,0.25814204591191375,0.7950287657445936,-0.5487389716203882,1.2583186470829997,0.07360560247013338,0.2471830745883304,-0.3667490446485042,0.3018502349989307,-0.3220457214604184
340,6.3999999999999275,-1.2623770539269576,-0.3420616110402819,4.71189942450896,0.29416925011294315,0.7860772412794549,-0.5434897421408962,1.6921328397569526,0.7797911525115763,-0.07429238189823335,-0.3629357681262252,0.3106804803386384,-0.3011558859940359
341,6.409999999999927,-2.469453909920746,-0.4846726240609435,4.464571691865723,0.3279495029496943,0.7817402843662398,-0.5302392052197019,2.2530169678596206,1.4139085615699283,-0.23404952607140736,-0.36401227654677315,0.31993666817411703,-0.27837474271912066
342,6.419999999999927,-3.6215895289357136,-0.448274449570979,4.115778462609061,0.359086200466635,0.7827932701809525,-0.5080094493120114,2.4960957278860247,1.736068958193344,-0.3783299701620357,-0.37030384874755606,0.32991312320782107,-0.2547632278721588
343,6.429999999999927,-4.671717376164251,-0.581071711702948,3.716196096523196,0.3874413542840531,0.7886486302725902,-0.47714635563124386,2.318457130401896,2.0519234611905866,-0.6021541501763015,-0.38161076583145315,0.3402358358353557,-0.23056033000235515
344,6.439999999999927,-5.182423574164152,-0.7357909433971836,3.2457432738246865,0.41200893352345497,0.7975500877538484,-0.4403562095863063,2.2025319344482295,2.5561559338556648,-0.7326409794460161,-0.39686351272887394,0.34968372152856486,-0.20630096969592812
345,6.4499999999999265,-4.937549127458346,-0.8527896457211053,2.844118112705146,0.43299175869455836,0.806302884397111,-0.4027444860834955,2.1225354531256944,2.929784228378851,-0.7805063940169474,-0.41321752475763673,0.3575569360098431,-0.18323784151471784
346,6.459999999999926,-4.030422836516199,-0.9886649809882636,2.6988569309068966,0.45179025773018566,0.8115670929386335,-0.37031005316912236,1.688632843784495,2.923283961446424,-0.8754433653445833,-0.42741167829272864,0.36352164934229836,-0.16191890050475607
347,6.469999999999926,-2.8046249495546443,-1.1395353506188015,2.6054541563792437,0.4695512026587154,0.8116696255080177,-0.34735346216676993,1.1231133809055962,2.633811961665649,-0.8906527115950498,-0.4372583095959517,0.36759199604356046,-0.14259487649831254
348,6.479999999999926,-1.6109137216976066,-1.2583739672285539,2.5355344402418054,0.4862871844958667,0.8068615912079167,-0.33534687030498966,0.6584757727700461,2.2613613839342377,-0.7938249476688636,-0.44216378811822465,0.3698883781024003,-0.12552998002869073
349,6.489999999999926,-0.7966957366503236,-1.3765764159695713,2.498083107778707,0.5020980167709108,0.798353326649899,-0.332395531692777,0.23887763249445387,1.8772776371017936,-0.7020649859860671,-0.44303980738253107,0.37083382902146467,-0.11025311356399439
350,6.499999999999925,-0.4338321535539247,-1.4584926546364503,2.4937889735615926,0.5171288823024466,0.7876211875835288,-0.3349397792909471,-0.1205542318379228,1.5086272433992953,-0.6259818806534326,-0.44152651386655933,0.3709228722112867,-0.0959569965519001
351,6.509999999999925,-0.4725904519738916,-1.5671304007657336,2.5192973346021224,0.5316323098802446,0.7759314176976444,-0.3394909857798094,-0.4005467755110771,1.1489822696981071,-0.5380242542275547,-0.43930025144198653,0.3704987586709797,-0.08165175802798225
352,6.519999999999925,-0.7896147762280425,-1.7052295265154387,2.5257773950802336,0.5455070059019856,0.764441130730971,-0.34353418896890864,-0.6303722087586087,0.8116671310033517,-0.4236830965600067,-0.43775232296734323,0.3696018902747047,-0.06662837699850183
353,6.529999999999925,-1.2361837933453919,-1.8382763936907158,2.469647501220155,0.5583968774735205,0.7541083452824994,-0.3456682729204172,-0.8684762480440192,0.5552630971562206,-0.2824576096492106,-0.43778536906089893,0.3681154234289061,-0.05064807585402776
354,6.5399999999999245,-1.669089209052799,-1.916539945839388,2.3482507104276626,0.5699809784811132,0.7455441152551464,-0.3453483008808291,-1.114889481403655,0.38520862767492625,-0.16653660259602648,-0.4397343594515212,0.366001719604252,-0.03396121630598216
355,6.549999999999924,-1.978294065573014,-1.9235627358458345,2.218358822333211,0.5802925873160031,0.7387255111728996,-0.3428232067256854,-1.3030290849209165,0.3002130147668556,-0.08464910993245905,-0.44332985520173873,0.3633777782977001,-0.017012991553185104
356,6.559999999999924,-2.181986657672526,-1.8424394317382313,2.081996738835216,0.5897146953941149,0.7332381706551742,-0.33850068818918566,-1.3899954422437446,0.26052307546554,-0.037973571986842224,-0.4480597697719205,0.36053756740118587,-0.00021106902036750232
357,6.569999999999924,-2.285547890942986,-1.7331331688214535,1.8487618091513547,0.5981339139439432,0.729040932146318,-0.33274992337373577,-1.4064365815461184,0.1785724799059374,-0.010779694247865344,-0.45359918939370775,0.357584978535296,0.015902630235039482
358,6.579999999999924,-2.2549829467269302,-1.604633567637867,1.5283646779770477,0.6049344655079466,0.7263706396681506,-0.3262375855994385,-1.441389939790258,0.030208527290489392,0.00188267597064641,-0.4596702281631004,0.3543700655564167,0.030661899345893803
359,6.5899999999999235,-2.0920683710114196,-1.430802065952179,1.144235706542804,0.6097552999641037,0.7252785921236488,-0.31963053928285073,-1.5241891578862217,-0.08607879419610145,-0.04187265851778192,-0.46589088837255216,0.3508906013361271,0.04347650115462115
360,6.599999999999923,-1.804286159215854,-1.257412647001026,0.7386924506319523,0.6123351496061192,0.7257049889400361,-0.3136788090660289,-1.6128588878340375,-0.1416229003658928,-0.09111954955574678,-0.47182947992436497,0.34717708681766635,0.053860826321966704
361,6.609999999999923,-1.4407446411532276,-1.070591495962899,0.2685412506010804,0.6124202678738658,0.7276414318948158,-0.30899136819562906,-1.69514418865412,-0.18226718161271085,-0.13932492158111984,-0.4771799457402082,0.34321798958070887,0.06149476413173208
362,6.619999999999923,-0.9682552759290275,-0.8725477872586005,-0.26009789371489833,0.6094547214699874,0.731340453291289,-0.30610271409284795,-1.7652858230817654,-0.2072343142155539,-0.21220609105650345,-0.4817414076363365,0.3389242810161684,0.0659041251220651
363,6.629999999999923,-0.4065623177682648,-0.6742648043999523,-0.7567021118014728,0.6033248990147553,0.736547794843002,-0.3057473949949945,-1.8192255569746714,-0.19204863504380457,-0.25002419512943996,-0.4851218999272549,0.3343346339085823,0.0668827362856168
364,6.639999999999922,0.17827752597038748,-0.47578584820286807,-1.205711778948697,0.5942011925421833,0.7427884315285538,-0.3084883710805623,-1.843463058047977,-0.17411796599022786,-0.29106753557245363,-0.48698877633705573,0.3295372430860473,0.06448605503137779
365,6.649999999999922,0.6832862142120899,-0.3004207928124072,-1.6006126545749797,0.5825012077287451,0.7496833129232409,-0.3140530912772499,-1.834099090763113,-0.20999433431943348,-0.3301540265587064,-0.48739323621892944,0.32468160258076756,0.05903811316425575
366,6.659999999999922,1.0861145848091611,-0.14995495618485163,-1.941079984824262,0.568396319745931,0.7570621758786138,-0.32207443685466935,-1.8020754248607096,-0.29158023424907864,-0.3311160589642481,-0.4865827710631464,0.31968169492062015,0.05096274518808718
367,6.669999999999922,1.400911097206248,-0.025217863375218356,-2.230863883004533,0.5522205259433433,0.764664667582347,-0.3320801559230809,-1.7358493664312786,-0.367087349380004,-0.31003447344101936,-0.4847860239737951,0.31454440144568113,0.04069585237827688
368,6.679999999999922,1.6286368701823217,0.09106410370979712,-2.5403832377607305,0.5339961151623112,0.7724826772900367,-0.34357041514876263,-1.6387944085735713,-0.40553508602184013,-0.26762115378417667,-0.4823106386125622,0.3091702282256401,0.02850986271629404
369,6.689999999999921,1.8375413696906941,0.21655804137745238,-2.869343542811449,0.5135264063976093,0.780557340301974,-0.35626786375713143,-1.5299174632682084,-0.37644952561170103,-0.20534570585784054,-0.4793330334678408,0.30347991339975977,0.014377715864550725
370,6.699999999999921,2.0260660947518816,0.3442430422354023,-3.19312012835625,0.4907382868734333,0.7887553199470222,-0.37004065129064856,-1.414150449070159,-0.27440993604363734,-0.1431624102118692,-0.4759201034429669,0.2974440576354046,-0.0017028650726257119
371,6.709999999999921,2.1785414941059225,0.4812903329637352,-3.514810097314986,0.46570417634275546,0.7968159669586828,-0.3848066149016092,-1.2611937555502493,-0.13003669337088572,-0.09872705596855594,-0.4720728715539177,0.2910953153359009,-0.019700934317431487
372,6.719999999999921,2.130180938459089,0.6203766134912722,-3.8772748072596777,0.4382611691491358,0.8050053259251854,-0.39968982138228204,-1.084868964846786,0.015292084034746406,-0.05405049587126955,-0.46826340596685057,0.284388972779559,-0.03953013429663744
373,6.7299999999999205,1.9654588992348874,0.7671583145527706,-4.1285333736554435,0.4086013799011834,0.8136430566926017,-0.4133809939411494,-0.9233262615942487,0.1440138122259605,0.009317482300456547,-0.46512671928378363,0.2774164161363935,-0.06082800443309994
374,6.73999999999992,1.7524796487676624,0.8866925071417622,-4.2741144241408975,0.3776785714416077,0.8224062326130716,-0.425276025762929,-0.8153012330852176,0.28142378118247047,0.12491840720687106,-0.46282057702839857,0.2704679988011776,-0.08291434325091607
375,6.74999999999992,1.8230324977327537,1.0376216828610332,-4.333195113554496,0.3461885284511231,0.8304483007362709,-0.4363074094048775,-0.7684201049151327,0.4396940441560478,0.20651876553794252,-0.4607470744846139,0.2637267814023871,-0.10559989911299018
376,6.75999999999992,2.3646506945604293,1.1360828411531578,-4.219053011551963,0.3153441702905749,0.8353948572650489,-0.4500247480710072,-0.7771582075107314,0.7672475179425496,0.21294834996925197,-0.45694224909567727,0.257256719300723,-0.12881679330652904
377,6.76999999999992,3.0051202312321914,1.1211774394846936,-4.041273492989616,0.28599567774312806,0.8354520157372795,-0.4691050402920093,-0.7031223376664815,1.3337148698274823,0.038563777882287056,-0.4500540580609773,0.2507634835952212,-0.1522440408897075
378,6.779999999999919,3.1803355638905755,0.9209184212391174,-3.8880984293226666,0.2580070516839009,0.8311197753079334,-0.49244240273819156,-0.4407953880911043,2.1271511973976818,-0.30262913131639757,-0.44084778144727627,0.24375028784246236,-0.17511630067581266
379,6.789999999999919,2.712852007120087,0.5942905263130595,-4.038782974459364,0.22911322592287972,0.825786926045872,-0.5151825347433512,-0.04189641044676337,2.9450118316407394,-0.6668749354748859,-0.43230619337641013,0.23559409328477066,-0.19705440444840525
380,6.799999999999919,2.1822266566923822,0.4280712548182636,-4.220134961962212,0.19760989345471983,0.8218964253922594,-0.5341017712839583,0.446039042286596,3.4604153095388575,-0.8349974672930791,-0.4262858951982618,0.22630776605591021,-0.21848457057796863
381,6.809999999999919,1.785346730807077,0.3021086200429068,-4.5171363698074805,0.16371533202429678,0.8190780825607595,-0.5496543780506494,0.9435456055879337,3.5504103674576517,-0.7715789480227159,-0.422336590484487,0.21630790896943805,-0.23994706164278687
382,6.819999999999919,1.8458671966192701,0.20106553222312704,-4.624313844880539,0.1275088872974505,0.8157856762264162,-0.5639453698588662,1.3445664368351493,3.2396719454650387,-0.5171377176431575,-0.4192939097306083,0.20543022343185144,-0.26179459071663985
383,6.829999999999918,2.174981701318372,0.1357446194243598,-4.5588574607401045,0.0910999274429007,0.8093661007632273,-0.5800112151495647,1.5114329729454765,2.7696238288233457,-0.20007592592327564,-0.4152265000330169,0.1938011108043516,-0.28350476781500467
384,6.839999999999918,2.5583649351764293,0.16347235655412617,-4.423527864787498,0.055754839436032,0.7986873182090937,-0.5989749517799371,1.5878830691246513,2.2512199085300346,0.0068969780447909815,-0.40926645355414387,0.18162538708142648,-0.3049395962147955
385,6.849999999999918,2.7757436815126737,0.3113560851316251,-4.2187875853056225,0.022939281714957203,0.7840349580322741,-0.6201277214377154,1.5785467499959858,1.812262400941632,0.18084091500242183,-0.4014319768800088,0.16959609700252204,-0.32591641703469204
386,6.859999999999918,2.7115148924144856,0.5639303559424972,-3.9715287759865774,-0.006125680036147765,0.7669525977924044,-0.6415448262980312,1.513255388365837,1.382753974878581,0.31265086677484133,-0.39248534021462655,0.1586242241696139,-0.3462135770644596
387,6.8699999999999175,2.3248921892686627,0.8972296775448977,-3.679359120779112,-0.030421335427101032,0.7497180888867112,-0.6609741800725297,1.4459307714520933,0.8871681762463035,0.449093698704633,-0.38351604719514354,0.14971641902380747,-0.365581735624517
388,6.879999999999917,1.6794942937220072,1.2557698612716597,-3.3831744310005982,-0.04940254870556175,0.7348584697324863,-0.6763756125389557,1.3212471572707964,0.4073092999322095,0.592402744993303,-0.375690522900443,0.1437452654042062,-0.3838078189946169
389,6.889999999999917,0.9561805187521534,1.5932528533727837,-3.1053379364180254,-0.06333276328276671,0.7240505722110092,-0.686816314984228,1.1826452095718585,0.002943015040799815,0.7114791133303902,-0.36972765469812985,0.14103530118936536,-0.40085057176999805
390,6.899999999999917,0.3376506341008329,1.9136189356974707,-2.8033724780662217,-0.07251331105542622,0.7176465396245628,-0.6926179869819493,1.0760468136121966,-0.3180437607599476,0.7870667863249685,-0.36559104105673684,0.14153452378458461,-0.4166919830942459
391,6.909999999999917,-0.12124332354263259,2.146528916804139,-2.5008733303660313,-0.07737445687338891,0.71500693885443,-0.6948221591627893,0.9872621204475093,-0.5525557526710652,0.8092775526024542,-0.36278263300014796,0.14482390744393683,-0.43128813045615627
392,6.919999999999916,-0.43996556201377696,2.2341120827460146,-2.21427336870545,-0.07893228115946424,0.7151482862765505,-0.6945008107153973,0.9132325123403626,-0.7163822444064092,0.8076362853398305,-0.3608547842375201,0.1500933917746907,-0.4445860068195343
393,6.929999999999916,-0.7530278230557912,2.2598868082063746,-1.930890802774259,-0.07819030653689113,0.7176463148748877,-0.6920000251119481,0.8381208593186836,-0.8253901589276061,0.811460244608464,-0.35976302946023275,0.1567264131927179,-0.45650215370584213
394,6.939999999999916,-1.1028667565030295,2.2167095614734498,-1.5778832035418269,-0.07541228460481035,0.722660054877811,-0.6870656809517921,0.776189980678148,-0.9141369875559473,0.8521711123477543,-0.3596720924358244,0.16459962980905776,-0.46678548985070334
395,6.949999999999916,-1.437928963463429,2.114060000842538,-1.1318754366768546,-0.0704438883529235,0.7303797889434284,-0.6793773414937612,0.7343043028713375,-1.0261045900167403,0.938220152173583,-0.36072872013414614,0.1737046603673168,-0.4749646393760816
396,6.959999999999916,-1.66789770260042,1.9677553641102825,-0.6192043439551741,-0.06313487427877423,0.7402632025360567,-0.6693128439191334,0.7014885933779277,-1.155962662147496,1.0670606938529992,-0.362696496496925,0.18379182121004947,-0.480696707940899
397,6.969999999999915,-1.8662896593890195,1.7524781574089545,-0.09846279496347853,-0.0533786238114721,0.7517835466041485,-0.6572012648952457,0.7002320619416958,-1.2789637026266563,1.1733380505457969,-0.3653696626506773,0.19464742436918547,-0.48380261997108165
398,6.979999999999915,-1.9702642355891953,1.4340768412297606,0.36524867674818007,-0.04193221903031559,0.7643610066344478,-0.6433720337219826,0.7300271749121671,-1.4106378537941626,1.1985012332183163,-0.36875957654955277,0.2057039595303872,-0.4842839873161222
399,6.989999999999915,-1.9197456657873795,1.0527833956570376,0.8001275816825939,-0.02947308756746911,0.777003227152317,-0.6287555485072251,0.7549897874540362,-1.5303579371643616,1.1553923937322033,-0.3725959508530378,0.2162892205989733,-0.48230745999218555
400,6.999999999999915,-1.647673891618323,0.6125050733654243,1.2433134373178256,-0.016278765649592415,0.7884103649600813,-0.61489156352544,0.7639246903514545,-1.6005786980319305,1.0585843428859254,-0.3763070601469605,0.2256948837318177,-0.4779931285903154
401,7.0099999999999145,-1.1971273680413175,0.16523286939459186,1.7050894943708181,-0.002212686408450489,0.797260484466563,-0.6035978077311959,0.7299608018066469,-1.5978626346315539,0.9576244371819941,-0.37913288232761083,0.23335509975200897,-0.47147442066716466
402,7.019999999999914,-0.6942214305142825,-0.3039174896949459,2.149668603666112,0.01282567436524147,0.8028329697466456,-0.5960374424700049,0.6652566918932874,-1.5415976507072018,0.8771511010800827,-0.38061451473260605,0.23898120740828205,-0.462880544745346
403,7.029999999999914,-0.26786858755814225,-0.7045450821405328,2.582596840985376,0.02882681855547869,0.8051309819769823,-0.5923652431200098,0.6224986159912326,-1.464159058867424,0.8331711864303224,-0.38073340478259937,0.2426080137974631,-0.45226560603523375
404,7.039999999999914,0.056011430665488735,-0.9956416107375898,2.9802521590577418,0.046169644255517964,0.8046651622659043,-0.5918934465240305,0.621796759296454,-1.3868344136464064,0.8332391247935591,-0.3796264576193957,0.2448188630126928,-0.43976573659515195
405,7.049999999999914,0.2766259985280245,-1.1916678985571232,3.3472543639914623,0.06507741782862114,0.8018758730963259,-0.5938887098891122,0.6320832349709242,-1.2887702663378988,0.8695171328347847,-0.37744631327915507,0.2461477079694707,-0.425540621534957
406,7.0599999999999135,0.39806409877384696,-1.2898395964205327,3.702727152807413,0.08584768815700312,0.7971523074838134,-0.5975849682673826,0.6337850194345849,-1.1952223193433154,0.8749066996517456,-0.3743387963819153,0.24713571074288815,-0.40969827043855783
407,7.069999999999913,0.40903494205087826,-1.3096433634811224,4.006164325608817,0.1086610635842292,0.7909188975755274,-0.6021272413519518,0.6475290636646409,-1.1048966586830864,0.8437484239814352,-0.37052543144511024,0.24828393752309244,-0.39236523151900704
408,7.079999999999913,0.23216450827567983,-1.310353351762897,4.184081670502833,0.13308420453301015,0.7839298375940981,-0.6063500400254044,0.6708255167495485,-1.0091276865024834,0.7939595764566094,-0.3665694637146641,0.24989985523240169,-0.3737363889823994
409,7.089999999999913,-0.262597754176953,-1.3206108419966691,4.0951162463070006,0.1575381035063224,0.7778434664564291,-0.6083368183142878,0.6967045767724256,-0.8989863838693991,0.7341722720338041,-0.36371691952721236,0.2520728978450155,-0.35433161915274264
410,7.099999999999913,-0.9497942510965945,-1.502480082681442,3.9388716108686603,0.18015379709983614,0.7747232041678752,-0.6060446266298022,0.7396626650266367,-0.7140959977418063,0.6515594625986675,-0.36354340587977846,0.25458252088318567,-0.3344208806384766
411,7.109999999999912,-1.6171561169075042,-1.7477801119277623,3.994937668719794,0.20090149175252114,0.775007769289717,-0.5991093004179437,0.8165957960494415,-0.34194119288715386,0.4890281070715161,-0.3665458833216988,0.25707069431799096,-0.31332482901076397
412,7.119999999999912,-2.233049044491822,-1.8835066148822477,4.349232371979944,0.22241556110423405,0.7775257130165216,-0.5881193341675599,0.9274620197182848,0.18364432951823634,0.1984442041711863,-0.3719447291206929,0.25997828323958516,-0.289992190624019
413,7.129999999999912,-3.158603307985818,-1.9228828588980738,4.577595408268104,0.24628226446890014,0.7824768364924929,-0.5717677169809051,1.1169752414246392,0.7211407197225843,-0.12068282769488266,-0.3799951757597437,0.26400684817797115,-0.26397772087602805
414,7.139999999999912,-4.6395750780646665,-1.9201936579797192,4.542274569608668,0.27152168679143346,0.7921498008555723,-0.5463404596392191,1.321085844550481,1.1645834318242683,-0.26391118299485733,-0.39263833899827755,0.26947176573330855,-0.23574196665500896
415,7.1499999999999115,-6.840499461414955,-1.9678154797926006,4.154442028047803,0.2963490371771193,0.809615039518437,-0.5061210408776526,1.310019875088384,1.5000810983700075,-0.2773089399973074,-0.412897211804805,0.27630756628514797,-0.20552804866016944
416,7.159999999999911,-8.928523345841098,-2.0564765700250685,3.2972343250377727,0.317498310607191,0.8357821582028065,-0.44704537482240203,1.1491967193144887,1.895154803637731,-0.28456386598644434,-0.4427553477882082,0.2833279825387635,-0.17443039022493428
417,7.169999999999911,-9.72272703448012,-2.113085760152287,2.395545578596706,0.3329630326478659,0.8653516493357032,-0.37345769009766744,1.1329623106860256,2.3768634488767613,-0.1771872000112094,-0.47931334490069827,0.28871660259848575,-0.14439725396334635
418,7.179999999999911,-8.830438151240058,-2.164173600630995,1.778180373000971,0.34393346950463327,0.8899608636588349,-0.29848458178269394,1.1869354085708603,2.8061298003816435,-0.03939329395723613,-0.515505170785509,0.2913605052771965,-0.11712418364127457
419,7.189999999999911,-6.801406070514439,-2.097267393265685,1.424053074421408,0.3524866095161526,0.9055668225188352,-0.23539631796108076,1.0835563877961514,3.189018164074959,0.06567670845145668,-0.5453281915892653,0.29130388137123847,-0.09372911747272505
420,7.1999999999999105,-4.411453745872358,-1.9232892959661763,1.2278876635347482,0.36022837141521213,0.9129388159805932,-0.19153148373441134,0.8065874569123213,3.296999803138762,0.10503429242196863,-0.5660011318076434,0.289579741023548,-0.07485178681864738
421,7.20999999999991,-2.253687963456799,-1.6898767210594063,1.1763935042921536,0.36813087071885864,0.9144858980669658,-0.16785841293764284,0.41691201678570855,2.899235353917463,-0.042832559927466235,-0.5775059400211157,0.2873221105815578,-0.060281175083107215
422,7.21999999999991,-0.6913037442578276,-1.536137655988273,1.2221680552105307,0.3764657828494098,0.9123721454140937,-0.16074023802637308,0.014645915229302753,2.1274905251355665,-0.35635953635685097,-0.5816798583695019,0.28509278288783346,-0.04900266465315171
423,7.22999999999991,0.2840349906054037,-1.458584388818139,1.2530797835960648,0.385351797177438,0.9079107379751455,-0.16484640186753588,-0.30907568312685596,1.3398327807835755,-0.5992327898382739,-0.5809028637268838,0.2830664400655547,-0.0396833929206111
424,7.23999999999991,0.9551547595754554,-1.438507727174277,1.2532649867851535,0.3942439330147629,0.901939959162159,-0.1761445721813022,-0.5430234326929291,0.7548637014938987,-0.6912219133096837,-0.5769969176635997,0.2810641975300577,-0.031582039665999234
425,7.249999999999909,1.6022948021681749,-1.4421912098982868,1.266307624585663,0.4028934106029517,0.8945436981480599,-0.19336085377006662,-0.7145228926037074,0.39802750640487017,-0.6895521779147415,-0.5705180103933173,0.2789600378587586,-0.024394635488973745
426,7.259999999999909,2.1856592942581345,-1.411782438989799,1.2802845661821038,0.4113299336792974,0.8854276391824037,-0.21614154719912887,-0.8622696346296558,0.2217753749229796,-0.595227577020569,-0.561501463423238,0.2768217769458012,-0.018036959475152714
427,7.269999999999909,2.439460040508365,-1.3254750291725719,1.2574602081626831,0.4194046658082272,0.8747626069596514,-0.24244624904240009,-1.0383884250068456,0.1667169419190373,-0.45403218982918336,-0.5506690638030002,0.2748172960630288,-0.01246499948093606
428,7.279999999999909,2.1877955800225632,-1.2388829322862722,1.2074303191729192,0.4268486137179548,0.8635780181663143,-0.268235629483322,-1.219618309561508,0.1298467666344946,-0.33482213971969055,-0.5397664338491175,0.2729882798832741,-0.0073024603017046216
429,7.2899999999999086,1.5384418094369277,-1.214794998636146,1.1732882293325206,0.43364970425420946,0.8532239237741877,-0.28967421605412913,-1.3125755536028476,0.02252687599815015,-0.21070123885729708,-0.5306526093562977,0.27122851619116073,-0.0018247609751197327
430,7.299999999999908,0.6731386906232306,-1.2225688913143629,1.0886399281695676,0.43966954169203853,0.8449790425059436,-0.30444218930616074,-1.290577940260362,-0.168708997960247,-0.10519911279218198,-0.5246352801003913,0.2693233483724097,0.004453235605303698
431,7.309999999999908,-0.18117952538365362,-1.2233151303253447,0.9015509675424149,0.44433751195766147,0.8398124353121778,-0.3118931279359288,-1.253281358274119,-0.39620193136562487,-0.040382179866043255,-0.5222693099939252,0.2669964575760814,0.011390405959340547
432,7.319999999999908,-0.8983842274619569,-1.2042203032157681,0.6000735039338566,0.44688867276387373,0.8381536881722554,-0.31270840158747704,-1.2801559235319655,-0.5765396316613816,-0.03642815998865477,-0.5233969533716348,0.26400374090183026,0.018364791722219678
433,7.329999999999908,-1.4430205956936353,-1.1331650049493034,0.2102078941852924,0.4466812827517484,0.8399845819297524,-0.3080407887089025,-1.3345456220728125,-0.6493567758171309,-0.09741038651165113,-0.5275079273824881,0.26020697956101746,0.024644374034491077
434,7.3399999999999075,-1.7803682013715696,-1.0209515205160027,-0.198638058926348,0.44342677307256456,0.8449052165197521,-0.29913567003432956,-1.3579323222272623,-0.6109362238444135,-0.1851149338788497,-0.5339215120222274,0.25563534555447603,0.029622488187754006
435,7.349999999999907,-1.8494632257105406,-0.8743458091471815,-0.5643438572062709,0.43734609877436303,0.851974747501588,-0.28780769885790575,-1.3280578933544178,-0.5187704743678462,-0.2433822709628788,-0.5416116060438375,0.25048238478438817,0.032943177074708965
436,7.359999999999907,-1.650752008750929,-0.6943507629846677,-0.8884906933324169,0.42885283836376936,0.8601099035469035,-0.27615360987411486,-1.284686016803799,-0.45803112918805317,-0.2585012458541598,-0.5494328618605997,0.24502367160068114,0.03436594952918198
437,7.369999999999907,-1.2100846728308075,-0.45213137613164095,-1.1813873002571549,0.4182765906605018,0.8684093750634188,-0.26622768639797384,-1.2674727111181505,-0.4571107236026876,-0.2523471675888222,-0.5563102307598418,0.23957897329946334,0.03357777821557711
438,7.379999999999907,-0.5902512147370158,-0.1448960866934062,-1.4482792471162564,0.40597050019436176,0.8762237992107909,-0.2595947321271791,-1.2684995716147194,-0.46975847072603866,-0.22554094011468562,-0.5614174614737034,0.23454065093341667,0.030266505159392096
439,7.389999999999906,0.1287213232162731,0.19648514230950825,-1.6984242367304052,0.39216887437374043,0.8831070196203107,-0.2574740085314054,-1.2605623600482558,-0.472938870085692,-0.18112960456839672,-0.5641695290611537,0.23016082813268335,0.024231495503293385
440,7.399999999999906,0.8400605475590347,0.5692914788724458,-1.9308175914664043,0.3770717163935535,0.8888086398510054,-0.2603739215977194,-1.2369153142735838,-0.4676223817397973,-0.12016079254449552,-0.5643315074319756,0.22658661246539477,0.0154094442245866
441,7.409999999999906,1.4136621700152923,0.9132922612564749,-2.1998277269737376,0.3606440838195205,0.8934041230909855,-0.267786084000447,-1.1955238435189266,-0.4687272123030524,-0.05827917776818389,-0.5621651216982565,0.22377428087849388,0.003840463373964946
442,7.419999999999906,1.8138201173600024,1.241411029521452,-2.559397944757007,0.34235896707997554,0.8972901840897629,-0.2785410400391515,-1.1436790624406667,-0.477045032548238,-0.006644750129352151,-0.5583045898170534,0.22140885165235377,-0.010452009791385592
443,7.429999999999906,2.0791688510842983,1.5311193314978457,-3.0365872878231714,0.32118512860509696,0.9009729300331746,-0.2915271518954213,-1.0735818232835181,-0.4258132294009941,0.039448019630111256,-0.5534130383932373,0.2190113561295005,-0.02765489751922212
444,7.439999999999905,2.13609134323363,1.8202386637136987,-3.5286053839106257,0.29651531727894065,0.9047650556254284,-0.3055500480141372,-0.9675184674747184,-0.2683363672863721,0.0804344334227563,-0.5481174675323077,0.21630531818111315,-0.047806517479242173
445,7.449999999999905,1.9142923099035505,2.056352679499452,-3.850657773144524,0.2689763048142598,0.9088551311054772,-0.318613165525213,-0.8485364654518741,-0.018576037723510866,0.13203754138454826,-0.5432613841811202,0.2134427899941549,-0.07026810719948444
446,7.459999999999905,1.4474718119688568,2.2349300793712588,-3.955686005997983,0.24024685298236043,0.9133782090298614,-0.32850018993770425,-0.7525684324388948,0.26301412918606226,0.19546631808021658,-0.5397021498211696,0.21087984595607248,-0.09376241300152952
447,7.469999999999905,1.260616982076464,2.3122225104250003,-3.7619405395160013,0.21227325677270123,0.9178070008812687,-0.3353811681764594,-0.7083501230635275,0.5296953231000127,0.21159388055407158,-0.5372617424396161,0.20894420124999885,-0.11696301847221173
448,7.4799999999999045,1.9441694877113078,2.3157470186233255,-3.3419363330149268,0.187459225510451,0.9196748101327356,-0.3449059408214566,-0.6919890985858145,0.9637890118346009,0.1844543735457556,-0.5332546898495173,0.20779377292005058,-0.13916499525586823
449,7.489999999999904,2.986332776290822,2.371550137713467,-3.0826761687513127,0.16643824503135396,0.9164370089420764,-0.36374568745790187,-0.6286120334886021,1.6267535060915737,0.11503801545813933,-0.524686622086421,0.2069162611966795,-0.160846150478409
450,7.499999999999904,3.0433515049239603,2.2373688657457222,-3.2337166595468276,0.14657184439150567,0.9097240664909517,-0.38831319341676246,-0.48512474692866797,2.4753315460649348,-0.06731865138492213,-0.5133832014903283,0.20559089008508477,-0.18280594344813636
451,7.509999999999904,2.188843482246151,1.863971804313748,-3.6260932016974694,0.12360257313120272,0.9037687882390936,-0.4096468857659739,-0.25850557981684713,3.4741335504471595,-0.10796049502666677,-0.5040979588537884,0.20262388389576869,-0.2046880969139017
452,7.519999999999904,0.7775444599949445,1.6430108378088946,-4.055220602261382,0.09606667630317287,0.9016753927515813,-0.4214562813641118,0.24123414689509637,3.8947841350644157,0.09033098111570537,-0.49990102979688233,0.19841354693548321,-0.2262370976672597
453,7.529999999999903,-0.11437432142341797,1.3724341434111855,-4.558191334212799,0.06350183133810836,0.9039838330749187,-0.4226186589427345,0.9308411956697857,3.3125931251163063,0.228675401768968,-0.5012609407753233,0.1934457809686565,-0.24775481418782255
454,7.539999999999903,0.05954845353892977,1.0953914926267763,-4.858262286368884,0.025919556019086316,0.906471035101284,-0.421230561958482,1.4068121013077657,2.684485612048435,0.3484297801816138,-0.5045335018669499,0.18660309179332557,-0.2696942615176171
455,7.549999999999903,0.8780722165061202,0.9848539131600886,-4.9447025266284355,-0.014277567349236185,0.9048342841165353,-0.4252635310015613,1.4350234102550594,2.5611622061534605,0.28667504357365425,-0.5057702746059433,0.17762528024461544,-0.29226098344897766
456,7.559999999999903,1.6712888096044718,0.9147939676076867,-4.741138460455801,-0.05400985367093198,0.8976191355485929,-0.43718827086622497,1.1347653329555545,2.4488981500967153,0.05433308487690649,-0.5034422634837571,0.16713160433756272,-0.31493928949232564
457,7.569999999999903,2.220309191026052,0.8456160720288179,-4.372829911978136,-0.09078388051930757,0.8855802861280344,-0.455277214259973,0.9613890672469695,1.99791344887734,-0.06782994780044731,-0.49801194013067823,0.15595643291202393,-0.3366287370578821
458,7.579999999999902,2.587815519234383,0.824533968991036,-3.984517050397157,-0.12359495540850553,0.8698377828848458,-0.47737376239174434,1.0696324673979791,1.3779668223827235,0.016129981834099333,-0.49025864456765694,0.14468550072676542,-0.3568417373853736
459,7.589999999999902,2.6988359684897767,0.8756744143965114,-3.6271518454512623,-0.15220760900240757,0.8515591530538655,-0.5014815025640394,1.1425441972281027,0.7812655074166521,0.19704096434960536,-0.48095062243123354,0.1338707040861955,-0.37561086388179116
460,7.599999999999902,2.4906540220123006,0.972099647601934,-3.28895452713816,-0.17659220377188348,0.8324689862552968,-0.525031244641078,1.0298468590003993,0.2657996554799287,0.40199895564090504,-0.471206160492063,0.12421796169772832,-0.39298683768297155
461,7.609999999999902,2.0309129716592014,1.0343684361545578,-2.940959257676841,-0.1968804679980318,0.81451086125032,-0.5456249416847793,0.8614791192794364,-0.15055991916262568,0.6007901289528129,-0.4622188866097845,0.11631428997758114,-0.4088419601565537
462,7.6199999999999015,1.488574639841962,1.0772569387377393,-2.579333509178716,-0.2133171422890897,0.7991196026702846,-0.5619968274281906,0.7693763090647995,-0.4797251232132536,0.7510216939003,-0.4547543342215425,0.1104232791304898,-0.4229768406192899
463,7.629999999999901,1.0313462758256404,1.163858720715744,-2.2515075617751825,-0.22609460848630983,0.7867172516195671,-0.5743872056725622,0.7793502848544812,-0.7296375021757783,0.8270582943023552,-0.4488157346239972,0.10661723435506998,-0.4355200295128046
464,7.639999999999901,0.5994995537759295,1.2609283173140045,-1.9510585332789048,-0.23550148411373273,0.7771276204119121,-0.5836051277790741,0.8341066563245357,-0.8986872960203338,0.8340067559179014,-0.4440864696709571,0.10479994519755553,-0.44676624830001255
