,seconds_elapsed,rotationRateX,rotationRateY,rotationRateZ,gravityX,gravityY,gravityZ,accelerationX,accelerationY,accelerationZ,quaternionW,quaternionX,quaternionY,quaternionZ
0,7.89675,-0.3097024857997894,2.00700044631958,2.944990634918213,0.1401342749595642,0.921991765499115,-0.3609621822834015,0.6919885277748108,-2.0378973484039307,0.7693943977355957,0.4551075389790057,-0.237472809499268,0.5129576674988578,-0.6880104168309387
1,7.90675,0.2537801177591677,1.5086904641133054,3.3901097121663697,0.1696914824453541,0.9176815314197345,-0.3590079173522274,0.7940515577705616,-1.8157675860912106,0.7127975776163668,0.46062187307811703,-0.22569264815729698,0.5191565184363587,-0.6836092546207952
2,7.91675,0.6999126151574515,1.0758097800286097,3.9839911538130517,0.20743277221090523,0.9089955148351819,-0.3612296786816157,0.8738830151433336,-1.6190810497862917,0.6665307273102918,0.47023487739054654,-0.21073422923559162,0.524349113366402,-0.6778461038532626
3,7.92675,0.7537510528593857,0.8030292707463159,4.611899774505,0.24946004536185384,0.896434068884005,-0.36592659351146967,0.8910842568100867,-1.5130831952697814,0.6670396414347077,0.4829919785053564,-0.19453721658650203,0.5283499248648926,-0.6705601425693907
4,7.93675,0.4200239360819575,0.6260918000418746,5.180681082769558,0.2955831897357379,0.8808023791954753,-0.36944643557903145,0.8593702143197017,-1.4746480993304756,0.7133517099934528,0.4979954272346834,-0.17769721228300323,0.5325972368035676,-0.6608168702185757
5,7.94675,-0.26225794192717133,0.56270459776865,5.6033208448792795,0.3448644463111151,0.8631167520841893,-0.3684142638097865,0.8245708721975185,-1.503911849438296,0.7687025735238644,0.5141720672920858,-0.16106074604868867,0.5383412524322694,-0.6479008724253214
6,7.95675,-1.1390637828579837,0.5929000604564059,5.880000796693835,0.3960221094444472,0.8443159594993288,-0.3604108240533795,0.8036179301963966,-1.5543568234670075,0.7979761134554116,0.5304966670416092,-0.1454714669404446,0.5464361064420582,-0.6314321596911543
7,7.96675,-1.8860973413741013,0.6066736359057426,6.057855748043962,0.44800301044607077,0.8244651705365722,-0.34513208239517235,0.804826731488368,-1.5512469526365984,0.8113427996886303,0.5463460652909632,-0.13124059332977703,0.5569285908783828,-0.6115446094617653
8,7.97675,-2.299481041347814,0.4808006009800321,6.150321043266173,0.49962072819343734,0.8025779917809567,-0.3252617055465201,0.8608525296798676,-1.4613832058510599,0.8010216117902974,0.5618024154571072,-0.11823361199416374,0.5686398204959111,-0.5889925635105173
9,7.98675,-2.3494364511877444,-0.052722904088602585,5.85231269636337,0.5482638874462004,0.7782374736449791,-0.30551342585200203,0.9837715851282224,-1.2535604738438837,0.663629484291566,0.5772511719570224,-0.10680554839542766,0.5794876654624246,-0.565186763625422
10,7.99675,-2.054340772374163,-0.5335079837397277,5.365982479090147,0.5894600886248559,0.7535136546176543,-0.2906138182567447,1.1930001055019734,-0.8202046750138161,0.3719773468495022,0.5924326004049991,-0.09817893524861503,0.5874000983017126,-0.5424384855256971
11,8.00675,-1.591191570330738,-0.4497890610406842,5.599830574962578,0.6282860968933952,0.7255740477190353,-0.2801905755308369,1.4622064221141777,0.023472034758427962,0.166747131586107,0.6077427500757966,-0.0891578821458848,0.5932466338856083,-0.5202458751545723
12,8.01675,0.5028880439462049,-0.587723920854984,5.858870906346307,0.6678239110603292,0.6901404717149033,-0.2781501449351034,1.9668086368198963,1.3951280608329555,0.12068812927386179,0.6233028781345897,-0.07506693452402215,0.5960390195015475,-0.5004943735245562
13,8.02675,2.109915369702694,-1.556855814405369,5.82383485445104,0.7039842484899513,0.6454821439352065,-0.29548314387189994,2.833872030615831,3.048315002905303,-0.2661885807960697,0.6416193334365744,-0.05570355525221961,0.5908492755574279,-0.48580009149447917
14,8.03675,0.8731061197854346,-1.2670706582012503,4.179883006233723,0.731365162367827,0.6037795553501228,-0.31658634858754847,3.29655687302467,3.6786918606531733,-0.7634074729350815,0.6586353788891866,-0.038872167388684715,0.5832302955605195,-0.4737551731869647
15,8.04675,-1.3511048849319744,-1.0843146052241182,2.09761329070174,0.7462896300492394,0.5818709282692317,-0.3231332754769929,2.8365922847778835,3.3146793965606562,-0.8132846093117118,0.669100761316092,-0.03341922012587733,0.5807879122765948,-0.4624350191714353
16,8.05675,-2.2412201777513574,-1.803382363189467,0.9694441819118176,0.7502693936366582,0.5769067555819118,-0.32291326637380785,1.9837762924775222,3.0562496237985317,-0.9275087041575423,0.6762553994290019,-0.03868039589690752,0.5805533467908504,-0.45179381658096374
17,8.06675,-2.3879802212141747,-2.444292884222871,0.5903202234184424,0.7476451052868337,0.5788193290267222,-0.3255644983316938,1.716492013552941,2.836946803983977,-0.9255626302643322,0.6836647218378779,-0.04922433967399312,0.5786020469460011,-0.44200497903559705
18,8.07675,-2.381938733555395,-2.6049134903166924,0.5248434157986559,0.7424473825564838,0.582578380764047,-0.3307059254656452,1.6636395618404838,2.440328147193968,-0.6357053516851354,0.6915670196046254,-0.061441666822578594,0.5751988570835829,-0.4325175988694817
19,8.08675,-2.320396917220652,-2.5945844775018045,0.4943236249305574,0.7368186259391661,0.5866200935035104,-0.3361056020449142,1.2031390000240225,2.001839326927033,-0.2497514742485381,0.6993092225945622,-0.07370687269627617,0.5713988957134926,-0.4230880355762085
20,8.09675,-2.059420936276716,-2.577603553982376,0.38911004485476564,0.7306568479652314,0.5908276336002773,-0.342130733551167,0.5300091751718894,1.537167510499537,-0.04242793752666457,0.7067384839921377,-0.08561238625427814,0.5670874438824713,-0.41421272209457927
21,8.10675,-1.650193983561802,-2.5937419581486774,0.33817772661576245,0.7238260467090624,0.5946670956568687,-0.3499055824731504,-0.07646094076103288,1.0993328481325073,0.010902361399588861,0.7139136224182214,-0.09650316199410175,0.5618890563280904,-0.40653296199191896
22,8.11675,-1.320105702249399,-2.6327985057873757,0.4865656775265048,0.7169251058826605,0.5970220146466007,-0.3599541286831649,-0.5550853343242954,0.7206060189201446,0.007361799848999454,0.7212787358426913,-0.1059475418829079,0.5556843700238144,-0.3996546291444536
23,8.12675,-1.1856277256774552,-2.6212197728585456,0.7027567656014169,0.7108693422177963,0.5972791454818338,-0.37135645507152737,-0.9227696424135843,0.4151644677449853,0.005219569196406049,0.7290621542297279,-0.11401275452725604,0.5489188118356749,-0.39260096991220583
24,8.13675,-1.3173984520615794,-2.480640343809961,0.7695632045846285,0.7056881455871625,0.596625502241091,-0.382136678015253,-1.1969901193884405,0.1867876669104298,0.03320535664369738,0.7367692276637396,-0.12145723224471631,0.5423745863768882,-0.38500372077306944
25,8.14675,-1.7872835203541024,-2.284667763659362,0.7240904625084885,0.700962300870884,0.5972738566246218,-0.3897547660437719,-1.4408881561468423,-0.03968849019808468,0.09655207230431323,0.7436594954900871,-0.12964035901802273,0.5369418851655181,-0.3766120627724689
26,8.15675,-2.410146351865943,-2.161152687949276,0.6316370210656675,0.6963513207897672,0.6007534599115173,-0.3926657610239917,-1.6563295415977168,-0.2517369775375857,0.18282807758946346,0.7494339089064367,-0.13978786164306384,0.5330242456754183,-0.3669736686954739
27,8.16675,-2.802632876998262,-2.119851297186509,0.5172859718461105,0.6914517974796337,0.6070632547319537,-0.39161488197488264,-1.774106715745517,-0.37350821490387937,0.25555802885291173,0.7542278149984439,-0.15199144248173316,0.5301660219161632,-0.35627937964731415
28,8.17675,-2.853682847593777,-2.1312420999527397,0.3651533332933212,0.6858699475991586,0.6151180308119718,-0.3888478272192156,-1.7926321781836037,-0.4089397027793544,0.26915936893891196,0.7583714570728771,-0.1653211981148734,0.5274730118271395,-0.34537581575021004
29,8.18675,-2.59066835005998,-2.1152693088176133,0.14253511019582857,0.6792509369590426,0.623952298319439,-0.38638067229074846,-1.7521559190092053,-0.3959311818852516,0.22624083293016614,0.7620516081506437,-0.17866575176992064,0.5242816799260756,-0.33534717920035956
30,8.19675,-2.1448788588504124,-2.0618405139812155,-0.18948479832282986,0.6710802307869809,0.6332207703565877,-0.38557625085364866,-1.6826815798993249,-0.3246632457045038,0.16912828457889376,0.76529286359588,-0.1912340684333245,0.5202174392866127,-0.32727457603388127
31,8.20675,-1.614059858762508,-1.9885097818653976,-0.5865138750794052,0.6607831627099879,0.6430692001422444,-0.3870524461990305,-1.6262743813475926,-0.2218821469014519,0.12854769158216334,0.7680577982422521,-0.20274167073631963,0.5151272402760355,-0.321886136512622
32,8.21675,-1.113102706039279,-1.9091495534682403,-0.9477304649835177,0.6481977249962146,0.6533934206754386,-0.3910147365673947,-1.5937669765948992,-0.15229858445753172,0.13454946271517274,0.7704058342071856,-0.21306399404500717,0.5090032749821708,-0.31934525717183954
33,8.22675,-0.7836996144627257,-1.8143240793834268,-1.256317156512715,0.6335742997130199,0.6641507082349989,-0.3968084920510398,-1.5635048367463393,-0.16197819953470444,0.1823828056879811,0.7723374993542774,-0.22243471208455365,0.502103040026769,-0.31921594267719483
34,8.23675,-0.6809668888762511,-1.6686687144604682,-1.550001800751724,0.6171830605581841,0.6758023886584695,-0.40291483684302937,-1.5245154272307393,-0.23368623598774305,0.2618524684023782,0.773627925741694,-0.23150628351837335,0.4949107606762384,-0.3208692101777488
35,8.24675,-0.7211405705238242,-1.486530217127478,-1.8317015345546268,0.5992074857827613,0.6889323891922936,-0.4077761360935757,-1.4904267411581227,-0.3131308630132515,0.35023391748374644,0.7739548842499961,-0.240910527401624,0.4879172597520385,-0.32385374845058024
36,8.25675,-0.8705119217347399,-1.2959150251075227,-2.016764397330696,0.5800445541239487,0.7035440591118509,-0.4105226220010337,-1.4720059214573984,-0.3884802370405054,0.4102900754349027,0.7732182762951295,-0.2509066938947129,0.48142872957031324,-0.3277099163989542
37,8.26675,-1.183942261645532,-1.0905302116911004,-2.1409278350482395,0.5603246427268442,0.719575271903753,-0.41012118188597313,-1.4584597151914096,-0.47719587496430027,0.4406494566862518,0.7713438359127736,-0.26177267393229664,0.47581852991235146,-0.33179495209464327
38,8.27675,-1.6118494640811287,-0.8467972028927278,-2.3007832630505156,0.5401728045198825,0.7375103192009413,-0.4052615214021986,-1.4264320243234085,-0.553434589746892,0.44006694947609604,0.7680563852550618,-0.2740415634340111,0.47144248307327913,-0.33573565301343966
39,8.28675,-1.8930762466887638,-0.6081100450740192,-2.4747075724861243,0.51905767954681,0.7576259787380498,-0.3956188946353409,-1.3787675967170436,-0.5771999643552862,0.4093212681973032,0.763113005998258,-0.2878910660579909,0.4682892733771232,-0.33980165318868344
40,8.29675,-1.9074663302632466,-0.38826203248450314,-2.5830995611819714,0.4975812453296169,0.7779915820941942,-0.38349940841036245,-1.3298196834729314,-0.5841770036170015,0.36902152529244525,0.7571213139774113,-0.3019500507873971,0.46589970062128405,-0.34425763381431645
41,8.30675,-1.7968090309706533,-0.20602245669347288,-2.7330064228986073,0.47552547422526753,0.7979559210483567,-0.3702315594806366,-1.263305911390058,-0.5984121986049824,0.3156138283516825,0.7503159104967813,-0.3156710630733849,0.46392161124484127,-0.3494812057901923
42,8.31675,-1.4279481144088,0.012836626004127216,-2.921965037829431,0.4523025996157791,0.8170579496351188,-0.357449269484075,-1.1527796399837775,-0.4931708348316046,0.2155722263106571,0.7429086430174541,-0.3285184665461666,0.46188761433709236,-0.35609700500573865
43,8.32675,-0.741991003377739,0.21530619251314878,-3.094895225704685,0.427810111977494,0.8342273113328861,-0.34782482585426033,-1.0330954775588332,-0.2296619680970669,0.1121994925567449,0.7353631161073871,-0.3393378399788766,0.45927100388884695,-0.3648905855350047
44,8.33675,0.13143728138714506,0.33467635829762254,-3.161214683159859,0.40234850012347345,0.8483349380353845,-0.3440815148654761,-0.9268505788894902,0.02126189037240306,-0.001668264330434141,0.7283859024160934,-0.3471422211065125,0.45546363149053637,-0.37614386802749883
45,8.34675,0.9468964314200873,0.34049805937536065,-3.0534667967232947,0.37692691161067104,0.8585960899110973,-0.34741141380392226,-0.8115233136155229,0.19992340366231193,-0.09515450235309986,0.7225846334245343,-0.35154880193105675,0.45022778238935696,-0.38931366443939286
46,8.35675,1.474141819705273,0.4091515686653354,-2.9052898759027124,0.3525637414067403,0.8650942559529984,-0.35674952050432157,-0.6992828208100533,0.36556804322351477,-0.13437056925184124,0.7180442786677118,-0.3530127290919642,0.4438522453570568,-0.4034537112145974
47,8.36675,1.6662799435053797,0.5592669251454598,-3.010005301901978,0.32881073108150977,0.8693400720473249,-0.36890642321831574,-0.6471693332217084,0.6751830216783032,-0.13283633503419776,0.7137845334849653,-0.3528415730883252,0.43708935652015724,-0.41827279333245526
48,8.37675,2.2510932589956387,0.9966149241226577,-3.353790108143465,0.30395609639653964,0.8722029007351043,-0.3831834254474334,-0.6771705513517856,1.3109082011613897,-0.2211449913447539,0.7087212079972959,-0.35131086163783526,0.43010030926723103,-0.4350746576199114
49,8.38675,2.9885171474488335,1.575102944252171,-3.7105371651910732,0.2782278169368748,0.8720626016171481,-0.4025467380143536,-0.7115764182930395,2.2284896137318593,-0.45487396649412853,0.7027412460273942,-0.3466234717515915,0.42258107533244893,-0.4554178814789451
50,8.39675,3.1529962650475305,1.975276809002933,-4.32256327830353,0.250817828318305,0.8697041243333701,-0.42502233276649637,-0.6161006874364277,3.0703034735704913,-0.8067343906090045,0.6950263686434478,-0.33990401125584474,0.4146671364255027,-0.4789776719010511
51,8.40675,2.497402418296258,2.231485271353525,-5.356849612809846,0.21798161592177914,0.8686203783050074,-0.4448760431681996,-0.26206718817569086,3.6347683892365676,-1.1143665129577054,0.683625419918453,-0.33481630870350443,0.4067628475079164,-0.5050316136166
52,8.41675,2.029836847400215,2.582005971644785,-5.889346865266296,0.17913751855550059,0.8699397102785211,-0.459389706019502,0.3508888754897457,3.9116318168802655,-1.282196095469,0.6676468293945776,-0.33261317767241766,0.39958878935766523,-0.5328201803045323
53,8.42675,2.175481051076047,2.402243541494294,-4.819594272435494,0.14395752307972273,0.8689831350040559,-0.47337677365462655,1.1160084847590754,4.061252691459803,-1.0709993447248065,0.651200631762342,-0.32947252812555206,0.39339224824253616,-0.5590942953010596
54,8.43675,2.3569063607239924,1.1342840987934084,-4.1737307024953445,0.114418957027006,0.8636479549333284,-0.4908901790328104,2.039094251502879,3.9905089365171476,-0.7866628212341434,0.6389138654739303,-0.3255664753492423,0.38543250440562843,-0.5806982013026604
55,8.44675,1.6010064531276642,0.521580445936545,-4.667640673432439,0.08035244198666397,0.8578045601752953,-0.5076015807398873,2.88084471955934,3.4017673580697405,-0.4102291655377798,0.6278128761489958,-0.32527192602919525,0.37469052862307106,-0.5996948463144157
56,8.45675,0.5361139405230266,1.0592980452942076,-4.97519470174237,0.04251609378408062,0.8552959522404023,-0.5163409103382236,2.719074661635746,2.270870594795721,0.06096531087380985,0.6134186600320362,-0.32868985543990736,0.3657722495424191,-0.6179555224358033
57,8.46675,-0.5906061833226739,1.95665413307828,-4.823941391859052,0.00828916067054826,0.8566352061095505,-0.5158190048859453,1.8177001189103037,1.1173840303100857,0.3314582433482691,0.5952084662408981,-0.3329084296400563,0.3623003441223312,-0.635307450946404
58,8.47675,-1.705295976546066,2.3572863315319426,-4.517354581488201,-0.020777561120124473,0.8622462608582908,-0.5060335937976314,1.2760934420319336,0.2699474021736048,0.39648394059568853,0.5742695493344091,-0.33776783777293395,0.36454790948625015,-0.6505464842631166
59,8.48675,-2.4805246360431163,2.720164421572497,-4.084109325624571,-0.04544745402357492,0.871350880019323,-0.48852188197350993,1.1178098678810544,-0.29248517771532695,0.490673006663949,0.5518320011014377,-0.3432813772973578,0.37134175731037555,-0.6631165305887339
60,8.49675,-2.5983306521673466,3.038273492604804,-3.4655314217445166,-0.06494188434803821,0.8816584494331512,-0.46737206384814056,1.1154602731173646,-0.5636889058536514,0.6302701618992663,0.5292690215397723,-0.3478132912635076,0.3812305364198355,-0.6734570446851531
61,8.50675,-1.7621645266711097,3.2849891713109782,-2.6114207752089396,-0.07743937442810193,0.8897694441745713,-0.4497788651668452,1.1426499797600935,-0.6495115562273606,0.5089502514957622,0.5088819184609097,-0.3487740376422117,0.3917455036694152,-0.6825810043327389
62,8.51675,-0.31088278315905926,3.3305380502340793,-1.7019299852967493,-0.08188573214784378,0.8927379513445624,-0.4430716779821577,1.1225884253079974,-0.6638945092997022,0.2800992943928228,0.4930951303876852,-0.3442936337323621,0.399905175658198,-0.6916546789439365
63,8.52675,0.9570263009440423,3.325633345425725,-0.9402989863934618,-0.0787400750110935,0.8900872618867892,-0.4489361355014888,1.0870853290047477,-0.7028782901533034,0.10743324583555139,0.4824429938099949,-0.3344742197106895,0.4045449016282806,-0.7012224158639765
64,8.53675,1.533016892805843,3.3486993045423636,-0.4349096426413043,-0.06953775005977242,0.8837092308415675,-0.46283562906582876,1.01597345937574,-0.7744352058345977,0.10668237012874598,0.47541002708069796,-0.3209945056268378,0.40686782587587633,-0.7109153631003219
65,8.54675,1.5523297159906366,3.4454909583162707,-0.09009757324072654,-0.05585703495347119,0.8761551237486704,-0.47877417274161577,0.8971243361349615,-0.8960562546809662,0.2770165080584157,0.47002154430813026,-0.3056813879087164,0.40886203991576725,-0.7200453013363992
66,8.55675,1.1531808070974245,3.6349536109689757,0.25986269998664446,-0.037987398977925774,0.8695094229652167,-0.4924462117032804,0.7650787973307294,-1.1513910016130653,0.535215366538983,0.46510065908077197,-0.28950024140743597,0.4122656760142661,-0.7279446731391933
67,8.56675,0.4539038075568783,3.83528878236901,0.6746789252350716,-0.015383581167979131,0.8655698654153751,-0.5005456487792822,0.6566517630413462,-1.5475319415434918,0.7990515316098329,0.46017924319926823,-0.27297161498264566,0.418581339891801,-0.7338306227294669
68,8.57675,-0.3871551159647586,3.856995059520709,1.074333044081281,0.011545606888650296,0.8653667464252085,-0.5010002751391479,0.5913855744192341,-1.9396521715415422,0.9980054308586312,0.45530071042393877,-0.25682340128216513,0.42841411664997286,-0.7370219034778294
69,8.58675,-1.2827997384241565,3.652985267221899,1.4137338862944002,0.041100988335649215,0.8691975147528241,-0.492748297390326,0.5904969337321072,-2.220492312755671,1.0849961384227327,0.45065251397726763,-0.2421107116551493,0.4415947275687684,-0.7370797950126573
70,8.59675,-1.9829414439287534,3.2191088443337703,1.7754704107876318,0.07168971934422957,0.876298155897162,-0.47640086252379255,0.6574460891607699,-2.375336188669737,1.0898356934288802,0.44680881200166644,-0.22956255936406042,0.45727359427757763,-0.7338681351828634
71,8.60675,-2.293046496685433,2.6223688110383376,2.2573259138118296,0.10298387806483533,0.8846166081663642,-0.4548033251160602,0.7631530662812721,-2.4017897365289533,1.0982726250957355,0.444889343929981,-0.2190124595652156,0.4739529197174056,-0.7276505423275986
72,8.61675,-2.2747920428730946,1.9362378844779928,2.8503715991740175,0.13574360380605158,0.8917649547327078,-0.43165660837311376,0.8566480377553843,-2.303212989950431,1.0501897929640411,0.4461542980689402,-0.20974499486379916,0.4900800250381752,-0.7188704874376625
73,8.62675,-1.9693248745838707,1.3278767298155025,3.4767592616919183,0.17081456917432927,0.8959101746741747,-0.41007519305688866,0.8849677615366207,-2.084311460574635,0.9587644609980911,0.4511981634748333,-0.2008927518558036,0.5045827015719181,-0.7081364718759084
74,8.63675,-1.5030577606398428,0.8518790213040693,4.1106300114330505,0.20903595898472863,0.8956957789962742,-0.39245621819807214,0.8227344185868795,-1.7765452323105377,0.9133599668270879,0.46002591324139763,-0.19140865778096924,0.5168494599915616,-0.6961339564726702
75,8.64675,-1.0859125003273424,0.4912028107932586,4.757324207034239,0.2512072122132377,0.8904469114166975,-0.37944797974712313,0.7148558295508437,-1.4817108737037281,0.8500425925389082,0.472377079256042,-0.18053488982194696,0.526954818137688,-0.6830668944544722
76,8.65675,-0.8753184669474834,0.1944805218497116,5.363917408207492,0.29731479941600997,0.8801497754606392,-0.37001673731987456,0.6314084444833495,-1.2802340468921338,0.8126561291017492,0.48775560589763267,-0.1682476034695393,0.535426918382743,-0.6686530904582566
77,8.66675,-1.0276352678814342,-0.017237383737177512,5.840512739219432,0.3465882537240481,0.8654608037268968,-0.361684534891069,0.6014385781279752,-1.1953203034886353,0.8334634616786526,0.5053174227411715,-0.15514699090519238,0.5432164733724302,-0.6522942284507942
78,8.67675,-1.610708442495982,-0.10667921965490773,6.1682427419544466,0.39783108439136383,0.8476773231630097,-0.3508890884008527,0.6156052259127908,-1.2178535441412173,0.8686399127572246,0.5238824125351413,-0.14225747238240338,0.5516471939361803,-0.6332292543222217
79,8.68675,-2.4416539911271187,-0.07675106341360453,6.424093215095551,0.45021973896212286,0.8278761809835903,-0.3344494248080608,0.6496516945533279,-1.2609797505236033,0.9195035268269438,0.542389245416833,-0.13044348580970422,0.5619208866143264,-0.6107548324898405
80,8.69675,-3.17486581709712,0.0654956313763221,6.704627005050688,0.5037673213899532,0.8057432470094811,-0.31130230363481654,0.7016437661979751,-1.224283590756015,0.9941736418247149,0.5602475075126173,-0.11967629607435998,0.5744738809591742,-0.5845955196198075
81,8.70675,-3.3701121725886654,0.39026284517999854,7.047466767235073,0.5589169136946803,0.7790096057632276,-0.2839849099961018,0.8146112586079209,-1.1105600051672802,1.0013306298071898,0.5773604713757146,-0.1084812713381996,0.5884142744255473,-0.5555372329348667
82,8.71675,-3.747488944127324,0.6229223533204166,6.969677199275543,0.6144325649994096,0.7468582881751232,-0.25407394423134305,1.035727950177046,-0.9252558963035322,0.8790669987760946,0.5930442221388185,-0.09612777627367214,0.6030867553492223,-0.5246958638129201
83,8.72675,-4.693077003128143,1.0791693160212665,6.741382032928911,0.6660883068405336,0.7132234561185498,-0.21795535843437053,1.378810301107243,-0.44916423158481206,0.7313321983739108,0.6059254829293452,-0.08591822331847827,0.6193794389902123,-0.49173161217186034
84,8.73675,-3.012997257972626,0.5947306423797151,6.7250695765138016,0.7149457206976856,0.6746564595938879,-0.18325133158634188,1.953342900023671,0.6899865231006092,0.595909793563863,0.6173734201879904,-0.07483108098805225,0.6346399260983058,-0.4587481746573222
85,8.74675,-1.16170512594032,-0.8730430987989001,6.163092684013636,0.7569469208293182,0.6303203490713051,-0.1721850841402439,3.0933188441565673,2.3488035209143883,0.23822218103566942,0.6318350373585877,-0.06061974074526203,0.6404908269251607,-0.43226934292568614
86,8.75675,-1.7343332369791602,-0.5496621243777853,4.488851297491604,0.7885898606413453,0.5909291386580972,-0.16998339718229868,4.249434015461601,3.3608357617055833,-0.3201956443660347,0.6453639008608645,-0.049297676307527655,0.6423216781080235,-0.41046856094300543
87,8.76675,-2.437466823119774,-0.4693296592361626,2.4222448457634296,0.8077983357004064,0.5670744254118549,-0.16087774588707912,3.9501154646797523,3.3295238050708083,-0.529352246548128,0.6530738239519882,-0.04601486545884614,0.646098271574285,-0.3923337777350012
88,8.77675,-2.3803217793439915,-1.5945947599682722,1.1031892048006606,0.8157598315915344,0.5571447268554685,-0.15532117520832514,2.9647440909697615,3.0679087730516303,-0.7095150477332541,0.6590241132665386,-0.050478852352559174,0.6479108003431291,-0.3786049006403039
89,8.78675,-2.0407859060853277,-2.5166741982317573,0.668344799038108,0.8171462991546501,0.5537228990813472,-0.16017969826393444,2.630325825771078,2.962780735994794,-0.7724732854774293,0.6667802349038929,-0.05897857433082838,0.6453117913640318,-0.3680863691281836
90,8.79675,-1.6197661906710723,-2.801598267852707,0.7025333001269822,0.8163535967715374,0.5513211333603766,-0.17205549897809908,2.4250592226989562,2.954897219376042,-0.4413489881426367,0.6760872513773541,-0.0679244467800406,0.6398082555842869,-0.3590648404433171
91,8.80675,-1.2103967928678119,-2.6144717340864725,0.8295001163498887,0.8157237168903084,0.5475283161664136,-0.18654043783191815,1.6927923701474181,2.6215082517565746,-0.10042854272422451,0.6856231693545086,-0.07508502830523858,0.6333157877245416,-0.3509782395652794
92,8.81675,-0.7925882184810145,-2.384820420907653,0.7199472013899936,0.815176928745197,0.5430423337636668,-0.20144436744020258,0.7634330310206688,2.0148075848155687,-0.04802824084456156,0.6944704214024681,-0.08039587030008799,0.6267466965431656,-0.3441349359316272
93,8.82675,-0.45533372811604994,-2.3166700134193308,0.64423714442925,0.8139009864699065,0.5388766048267317,-0.21716902178333333,-0.014843122532003369,1.4555279946654056,-0.14659360942963662,0.7026477293231579,-0.08444887419879199,0.6199039019123754,-0.33891968224750935
94,8.83675,-0.3496961966115287,-2.385881684129649,0.8140194152917846,0.8124512185476814,0.5339077765580429,-0.23419740860263488,-0.5760562295700193,0.9992831707945473,-0.15946597368991192,0.7109178865060019,-0.08753741269351413,0.6125644968200917,-0.33419927124328513
95,8.84675,-0.608409300059563,-2.4638468621308744,1.0255400847619636,0.8114619360662458,0.5275062590728806,-0.2515000799114992,-0.9149489599201763,0.667188879698818,-0.12166462881353686,0.719643519548309,-0.09038233567923472,0.6050434531292217,-0.32841531106046795
96,8.85675,-1.1742138321009374,-2.468090616971503,1.0140571633151128,0.8105061676733429,0.5213705797759234,-0.2669151083072842,-1.1510324412925172,0.47967203064597386,-0.12375470979421921,0.7283494647964806,-0.09445510805044594,0.5980103120976636,-0.32086931169351024
97,8.86675,-1.7669804675916239,-2.4488306374793885,0.7919232866443171,0.8085102650105189,0.5180623312898648,-0.2791360916982784,-1.3779109917047405,0.33819647699587724,-0.11617536566578396,0.7363660065223431,-0.10104173630974875,0.591790454902211,-0.31196953973853786
98,8.87675,-2.277968327951135,-2.522139826949464,0.560195388711351,0.8049519279597882,0.5184204299847923,-0.2885941432105543,-1.5660648625636577,0.21512138982681675,-0.08444259029235979,0.7436187711675197,-0.11039214024479665,0.5860946135290878,-0.30219084516061606
99,8.88675,-2.487487625408819,-2.698044958538469,0.37865806775822347,0.7997385507690606,0.5217118480812304,-0.2970277784158706,-1.6402139530369535,0.14843301587551622,-0.05223888363966795,0.7505271794654291,-0.12188992929303807,0.5801870188931324,-0.2919147371411242
100,8.89675,-2.319811145056165,-2.8244748848192733,0.11355077376418332,0.7927161054275037,0.527008131142785,-0.3063463017082672,-1.6119742538764101,0.16501080044704877,-0.026235877359069678,0.7573247587932574,-0.1342805298516239,0.5733955609501684,-0.2821809607071827
101,8.90675,-1.8549363595741182,-2.806091661483821,-0.3065430565754642,0.7834357976618799,0.5342343797779872,-0.3174862710316972,-1.5976801839240535,0.234447802456866,-0.0154658304536974,0.7637794226604794,-0.14643870344524795,0.5655080419181994,-0.27455575071478316
102,8.91675,-1.2669187737404324,-2.6662092578222483,-0.808660391486114,0.7715625202568847,0.5436040231854032,-0.33037967068758994,-1.674942100814685,0.3309436592753941,-0.01565419263641285,0.7695270453251746,-0.1577164096358011,0.5567071246274993,-0.270215632975347
103,8.92675,-0.6861745885417164,-2.523925546758285,-1.2663125886502071,0.7570711482563409,0.5548521052568355,-0.34487027239832835,-1.7720574825066375,0.3859018488242553,0.003075414264535531,0.7744830118508397,-0.16783621902936333,0.5471590333744775,-0.2694617286540042
104,8.93675,-0.3053541372673347,-2.473995200479068,-1.6108638406447269,0.7401564711341959,0.5673444979558253,-0.3608742958122604,-1.811701488408529,0.3178822173658404,0.06420446292818961,0.7788752674161279,-0.1769690148138487,0.5368711676548177,-0.2716402826556552
105,8.94675,-0.30004775787578414,-2.512651165713473,-1.9069500011959344,0.7208487813818506,0.5812116492792914,-0.37749179760257223,-1.78648259087658,0.1092521119652105,0.152469145776736,0.7828414452410599,-0.18613432690588932,0.5259193206525274,-0.2755048839897259
106,8.95675,-0.6215778897262823,-2.4996907741833403,-2.2288756924789124,0.6989836573968323,0.5975982557541178,-0.3927031096275381,-1.73172595273064,-0.13652507765424915,0.27113715646282316,0.7860774421308195,-0.19674220633322595,0.5147038446835704,-0.2800569740767134
107,8.96675,-1.0749128291337136,-2.3901557715867376,-2.563970830033753,0.6746349714479258,0.617455884451405,-0.4043742168279633,-1.6991410224740724,-0.2926741116302608,0.3934159103283792,0.7880621198042039,-0.20964612202077973,0.5038216845309395,-0.28485676144933136
108,8.97675,-1.4395908198424128,-2.2289325625752445,-2.8443868317256378,0.6481323062336478,0.6405608269596098,-0.41169802598706073,-1.6907404757361704,-0.34863945337024793,0.45486076749086085,0.7885514645957491,-0.22471963378157686,0.49358261561600286,-0.2898853693554314
109,8.98675,-1.6254517929973786,-2.0806739665180416,-3.0221916146455183,0.620018384512935,0.6655980223368425,-0.41525323106101103,-1.6593861424410965,-0.36877715915795306,0.4701575200130051,0.7877054506652953,-0.2411389340529455,0.483937306813444,-0.2952017101452492
110,8.99675,-1.749977586938161,-1.9468441032335195,-3.1467144435667262,0.5906930484001999,0.6912946840879027,-0.41600694880235917,-1.5662515733503493,-0.4170686121358872,0.4486213722245493,0.7858287491665695,-0.2581746354064153,0.47466905226712397,-0.30078772181957025
111,9.00675,-1.8925987250799357,-1.775058439340058,-3.3140346924415294,0.5602163374022873,0.71743429909134,-0.41388299061664824,-1.429778035752093,-0.48190170710284896,0.390120790088744,0.7828716740853093,-0.27574468661706436,0.46582184449620295,-0.306673619756886
112,9.01675,-1.9332654627318036,-1.5741754186208525,-3.560334382540671,0.5281756779572871,0.7440612879706998,-0.4089514271337634,-1.2994229227391234,-0.4951362696117224,0.3175779447991161,0.7786699515687995,-0.293788675837219,0.4573603550646266,-0.3132756386671209
113,9.02675,-1.8152985870962435,-1.39830155513162,-3.7877404987848333,0.49425901362852975,0.7705345998456864,-0.4022585691205826,-1.1855440058298647,-0.451144815319706,0.2373036220926912,0.7733388620607928,-0.3118060856046841,0.44901496934141094,-0.32103943097842635
114,9.03675,-1.5051269736083486,-1.307651419541095,-3.9556082212779806,0.45839685257149443,0.7957703101092606,-0.39552967598360644,-1.0601813741806503,-0.40754193286212803,0.13193827588164614,0.7673130391891316,-0.32912652761864986,0.4403172182081648,-0.3301253419780474
115,9.04675,-1.0628872043116215,-1.3057888942697566,-4.121832386545242,0.4204576192845383,0.8187481253655127,-0.3907463893776384,-0.9003213885416204,-0.35682761103101857,0.023805640374265278,0.7611505925520979,-0.3451512595101221,0.43065914417844275,-0.340598170660925
116,9.05675,-0.48650551071700493,-1.3183685097790427,-4.3230527605692775,0.3802650434173027,0.8387545584736683,-0.38948036618952886,-0.7193502381956967,-0.24891979651449833,-0.09098261288661084,0.7552273079200925,-0.35941315703812976,0.41958688783712506,-0.3526351869062744
117,9.06675,0.19221636420170624,-1.3040429662865896,-4.461498716752299,0.3378174406038842,0.8551396725928402,-0.39295524288302064,-0.5423608556537661,-0.06743031938255976,-0.1742980277938578,0.7497551405316487,-0.3714298314319426,0.4068590531891398,-0.36649835744681014
118,9.07675,0.7373069783826982,-1.326853697966632,-4.368830658605173,0.29438826362849924,0.8672773490906186,-0.4012132341740602,-0.3860034569102298,0.1082563236721243,-0.21378794489560912,0.7449779249037095,-0.38097285138892983,0.39271648479916654,-0.3815644723685513
119,9.08675,0.9356156013913104,-1.3035841363927891,-4.022833149244167,0.2523010673392143,0.8752866167804197,-0.4123698119712659,-0.25529624174644894,0.2222399053386476,-0.18542354458168855,0.7410113966512695,-0.38846039364601026,0.3780074397047332,-0.3963177385582496
120,9.09675,0.927913248881775,-1.166389947734186,-3.68269820171423,0.2132611976311164,0.8803852864778771,-0.4234370395261484,-0.1744642929225498,0.37519441044852514,-0.14018753549577243,0.7373960334951641,-0.39470348311326164,0.3639662545767165,-0.4098140760096249
121,9.10675,1.2542098996146547,-0.5923650589974945,-3.44118060994025,0.17787176927969514,0.8828227189416109,-0.4345885020221538,-0.2267101464842453,0.6984001365529249,-0.20872333800800122,0.7337340112422612,-0.3991166309603028,0.35128267775122074,-0.42297175781153395
122,9.11675,1.8844223085238667,0.36769750307878346,-3.5176827990818174,0.14680471977335596,0.8815803916235816,-0.44848498207665627,-0.49750859176578144,1.1770569091297163,-0.4640635697593855,0.7295745819204819,-0.39967892490355744,0.3405930036001361,-0.4380932564928544
123,9.12675,2.5491527628603166,1.0935634289606468,-4.022502504485684,0.11713384143491525,0.8763801378946138,-0.4669770245162645,-0.8432622396801773,1.8233942508720562,-0.9204978405784376,0.7242973437790386,-0.3962764190899716,0.3308490334827312,-0.4569727053585263
124,9.13675,3.2080520801410612,1.3711526243307075,-4.723924596362416,0.08506515599130218,0.866976048926545,-0.4907803411241913,-0.9648153774335679,2.6359659744770068,-1.4292471732384664,0.7176663382300666,-0.3900761688467217,0.3200386924922641,-0.4798600392309672
125,9.14675,4.001969820111881,1.4693687530561967,-5.3159667576876215,0.048876065692609286,0.8521428230172686,-0.5206871102904923,-0.5967278175130936,3.221624266514068,-1.8365160015376762,0.7099259128308658,-0.38166704815184216,0.30650409340477713,-0.5062148230748182
126,9.15675,4.858634050727037,1.4530468772852922,-5.410757179066549,0.011320072255830128,0.8298304311928393,-0.5575089342807399,0.11324939384860136,3.4763387782095605,-1.9269187804171533,0.7020198295772295,-0.37027647574372324,0.2899626415971246,-0.5346277540656121
127,9.16675,5.573637600751715,1.3133442198020213,-5.122731564252744,-0.023602414069121277,0.7991509237911231,-0.6002464857338874,0.8553855193866625,3.5857747910067026,-1.6418102931610319,0.6950892459375047,-0.35555536917468694,0.27087959825250724,-0.5629277927676242
128,9.17675,5.83158920365799,1.0802269316530582,-4.906363702027492,-0.05525467837347586,0.7614171136786426,-0.6454988188716161,1.4197171206954426,3.41912959313636,-1.1943227151463363,0.6890858010246748,-0.33878627745183276,0.2497706625028367,-0.5897721669154405
129,9.18675,5.689442510442887,1.0565213237201567,-4.871299371606867,-0.08441661686977148,0.7194471008673411,-0.6890362586739841,1.549764201963277,2.7728795666834922,-0.7030617782509602,0.6826670741480112,-0.3216431759469268,0.22790321117756288,-0.6151482802708528
130,9.19675,5.417992323440122,1.2065387584270062,-4.860647612706001,-0.11035948472608526,0.6752645775813628,-0.7289589447100717,1.1954181077826755,1.8949256218262458,-0.30538314652678683,0.6748729823990367,-0.3045045279706128,0.20667605903812686,-0.6394933252102689
131,9.20675,5.094978912692243,1.3493694833148762,-4.742611962196113,-0.13220180380424776,0.6301655537587184,-0.764855679035336,0.7415132600405792,1.1415349527129401,-0.07721679036522162,0.6657369373280235,-0.28744527696195327,0.18673823450416782,-0.6626862421498596
132,9.21675,4.790864365686479,1.4066942003641083,-4.54228137350755,-0.1496131027092132,0.5850312712098217,-0.7968570382527528,0.4728074385021698,0.6021548508868216,0.051862570944914074,0.6557735211098673,-0.2705751891186347,0.16819321650966795,-0.6843439787133249
133,9.22675,4.665026894884448,1.4305842172871683,-4.333614655882592,-0.16307712146635103,0.539841335411338,-0.8255980236161334,0.37086258920429965,0.28646094184748455,0.14737954816203935,0.6454192895119377,-0.253853668806554,0.15062091206429823,-0.7043975568571545
134,9.23675,4.760152612302023,1.3967372146769144,-4.1343388652995,-0.1730601608393691,0.49328493239008836,-0.8522525403210088,0.36551078832779965,0.15424345735731043,0.16909163077600678,0.6350622428971807,-0.23675427776647007,0.13319774891095923,-0.7230292920706789
135,9.24675,4.979300956229429,1.2518258075007185,-3.945909940415428,-0.18053880472332776,0.4440290036260589,-0.8773980499151232,0.4392150719039723,0.11429171163483559,0.21035297828048374,0.6249929600036974,-0.21907856102414336,0.11496619892311563,-0.7402960206832349
136,9.25675,5.137646114089277,1.0528271354876781,-3.800401870167313,-0.1864971411770225,0.3918499406240259,-0.9006889804940256,0.5655819872922685,0.10716164572596827,0.3283522572060392,0.6152304854435323,-0.20109927508213196,0.09550542922110876,-0.7561718382023882
137,9.26675,5.091108737837281,0.8985162735802199,-3.7346293573555718,-0.19138156380433693,0.33801307309057727,-0.9212486514347376,0.6741592666590246,0.10011304487042227,0.5060223387735375,0.6053764898870548,-0.18334823032292033,0.07528049096227135,-0.7707824783487497
138,9.27675,4.923903132664741,0.8099063570414888,-3.715222810755462,-0.19506965698925244,0.2841876360600982,-0.9385013141284454,0.7147612997932624,0.05776358978088213,0.696570835272981,0.5949958654675321,-0.16621287559911185,0.05508734466851872,-0.7843428768023558
139,9.28675,4.791816825673001,0.7509632141386214,-3.6588911196775094,-0.19723024167075787,0.23105857051762255,-0.9525348248555261,0.7044616642013461,-0.012724048119125584,0.8806114209073108,0.5840540719388424,-0.1496701067928606,0.035285236128580866,-0.7969401658757937
140,9.29675,4.776231228205415,0.7079050854030097,-3.505041398442436,-0.19759694567558025,0.17818448392437075,-0.9637498993056958,0.7041632584623183,-0.0698987460438056,1.057364344334281,0.5729374084606698,-0.13338328059393226,0.015679025014817435,-0.8084474941579494
141,9.30675,4.82588045270064,0.6782551608003378,-3.254875231325948,-0.19605172597529125,0.12502161920650576,-0.9723888511875333,0.7481652043753425,-0.07256505960341386,1.2163984634936602,0.5621568178036712,-0.11704573776042641,-0.0040141736589731514,-0.8186264719682304
142,9.31675,4.796162773309969,0.6429640902788587,-2.948212733502218,-0.19268121447877157,0.07199296361820197,-0.9784232336419991,0.8023089187638801,-0.030156602636345904,1.3237583702934983,0.5520631142870036,-0.10069656805048417,-0.023686284956569662,-0.8272957589480002
143,9.32675,4.669413053311133,0.5926092471222211,-2.6164627447014364,-0.18793080405201096,0.020264387638128094,-0.9817935976071386,0.8327270766286504,0.0398046155918821,1.3544804884056314,0.5428001134560504,-0.08470569585450113,-0.042963109266827004,-0.8344160402227091
144,9.33675,4.456884966265114,0.5680499787617821,-2.273852624252731,-0.1821853051980954,-0.02914607918607278,-0.9826724469371426,0.8440320615066969,0.1395174757702698,1.341977432244368,0.5344867533046105,-0.0693539807945075,-0.061481582289850394,-0.8400294893528027
145,9.34675,4.11097317569694,0.5670901600796358,-1.9660948471590627,-0.1755248815676677,-0.07509374971077244,-0.9814728703529412,0.8473465065581447,0.22658753833663076,1.280097795747449,0.5271165968205281,-0.054831958028824665,-0.07870834796226509,-0.8443201975397269
146,9.35675,3.7127519982203165,0.557037877878086,-1.7382170391919356,-0.16826351179722263,-0.11660306868466588,-0.9787099115675598,0.8373962115709895,0.2770982085046674,1.1521268203904784,0.5204922658918012,-0.04141810108611471,-0.09422418463245466,-0.8476062885970055
147,9.36675,3.428643664466155,0.5527469559453473,-1.5818810836299273,-0.1606326402889074,-0.15410425533909575,-0.9748105015240607,0.8117474494875462,0.33674775362364817,1.0068369189967208,0.5143713316199442,-0.02902590859130645,-0.10819731585983111,-0.8501893900553551
148,9.37675,3.3234130639511736,0.5370420383811902,-1.4404112095116473,-0.15272881520754406,-0.18919664276138906,-0.9698926752563563,0.7812474595496811,0.39141037194272377,0.8914913368820393,0.5086341714054797,-0.017228305627249797,-0.12129588609742706,-0.8521931952412858
149,9.38675,3.3562152380636063,0.5084409470787681,-1.2626043863647978,-0.1448921991379229,-0.2234406075312608,-0.9637895986227409,0.7438444345267005,0.40212215617115693,0.77561739234195,0.5033863321488763,-0.0057044660567837895,-0.13426610736388067,-0.8535184038821749
150,9.39675,3.44602359841654,0.48876583768461324,-1.0990166537638115,-0.13730520488599596,-0.25773043213461766,-0.9563065109610953,0.6942444256636782,0.384087360782514,0.6744399699665647,0.49870996535322276,0.005754113184331528,-0.14753221984990458,-0.8540719770512408
151,9.40675,3.538166118706023,0.4943319449709577,-0.9684414877339973,-0.12981486265582898,-0.2924076944941872,-0.9473327465683004,0.6465689093315683,0.35163846705539453,0.588107378704736,0.49447178214477033,0.017323031988543555,-0.16119559277413223,-0.8539096744723281
152,9.41675,3.498306684955422,0.5318736680112287,-0.7666381758874665,-0.12232376895218541,-0.32676289152015175,-0.9370540478853788,0.5975909681240336,0.33948796011943516,0.4775552517960214,0.49075202464377293,0.02891727173706081,-0.17490072893718472,-0.8530462201164847
153,9.42675,3.1904607450237044,0.6725829842827887,-0.3730856109481673,-0.11483324082015565,-0.3587986002814524,-0.9262439814743966,0.5524151252029208,0.34414636340326127,0.3459457092380646,0.4882302979365674,0.04019560351155848,-0.18768456141602594,-0.851323810753756
154,9.43675,2.525827608198406,0.9350436758779116,0.1739629606083592,-0.10710303015386163,-0.3854825553681958,-0.9164333375186099,0.505269205698578,0.32847651438877934,0.27704109592039855,0.4879156395297693,0.05072262317507015,-0.19796170120227394,-0.8486181686457025
155,9.44675,1.4992838917336857,1.1009604169464609,0.659325710272256,-0.09942721433389938,-0.4035759437264496,-0.909514064139779,0.43283499441572315,0.2076221164076387,0.2588471677910445,0.49021875594127223,0.059599640531372094,-0.20416353996683712,-0.8452446273313943
156,9.45675,0.4511547643756516,1.1521457505899995,0.8625646758207882,-0.09237737365036923,-0.411555379067584,-0.9066866811159321,0.3498160649757849,-0.030342135944404,0.1692716995126312,0.4943637754754932,0.0659126788101268,-0.20569025884592676,-0.8419875511053091
157,9.46675,-0.26510450641951444,1.2381619181257721,0.889204645457641,-0.085200869040544,-0.41134434852441504,-0.9074813655458307,0.2954219305428053,-0.24348446257687137,-0.0023972771281086658,0.4992583737855221,0.07016964361127388,-0.2032985638641278,-0.8393311446576611
158,9.47675,-0.46864408436071575,1.4212967668594096,0.9569888440191219,-0.07692339622130658,-0.4069456817324039,-0.9101969734525265,0.21555955040091637,-0.31769686616081616,-0.24093172102271526,0.5045810754065754,0.07378582758704325,-0.1986202274816612,-0.8369528293464191
159,9.48675,-0.12993783493011218,1.64691757607359,1.102269220828291,-0.06708171603470268,-0.40321401996378226,-0.9126329819779524,0.10568583184189029,-0.2119968091841695,-0.5366346915938405,0.5105043248315028,0.0783647317744546,-0.193737321995132,-0.8340822539664597
160,9.49675,0.507654404897562,1.769654505544425,1.2153985740469508,-0.05610179257907316,-0.40414719916076175,-0.912957144726952,0.06375211107431325,-0.03193057355261415,-0.8345797259173242,0.5169302510956402,0.08486321274686634,-0.19054880932705143,-0.8302117440235881
161,9.50675,1.0804086470492615,1.6806119349888393,1.195852385822688,-0.045182928979215456,-0.41092140932171395,-0.9105303357305722,0.1465396709438106,0.11516959868480135,-1.041507418858599,0.5232408484075263,0.09302113276820993,-0.18991908415042405,-0.8255148502457146
162,9.51675,1.2444535906004697,1.380976760159317,1.1237384131906547,-0.03604794490189275,-0.42132813957756937,-0.9061751245273835,0.35871894261034165,0.21608812309849323,-1.0657333294323086,0.5288930930561512,0.101389686963838,-0.19137082648190934,-0.8205800421221442
163,9.52675,0.8663648220906495,1.0867709560524557,1.057195394057005,-0.029608992975686116,-0.4307871221559561,-0.9019617913598548,0.6039447647672498,0.1709191835776629,-0.934203859314873,0.5339686025690434,0.10824071261159379,-0.19312896753426134,-0.8159975183082524
164,9.53675,0.18321756736779388,0.9246416287333998,0.9667871318765248,-0.02502058499402424,-0.4352907281331961,-0.8999406449923004,0.7057446920532809,-0.07042485124833173,-0.7179095251035944,0.5387677954806991,0.11273827245330352,-0.19317827932801465,-0.812215772449481
165,9.54675,-0.37508398794783004,0.8702702956435866,0.8425457679456312,-0.020913314252105363,-0.43405079122393325,-0.9006414388435143,0.5920088431008552,-0.32286345473100286,-0.49284140809323085,0.5433673896596979,0.11518058517051191,-0.19081361259948124,-0.8093631214317503
166,9.55675,-0.615620410262643,0.8600602951917312,0.7095578586668385,-0.01646868055093314,-0.42925348577710154,-0.903027705556116,0.3788763644204504,-0.4173174117357283,-0.2941243594295303,0.5476181146269576,0.1165337555331452,-0.18682165917336405,-0.8072330732841398
167,9.56675,-0.5676869936132252,0.8602524362622992,0.6256754287263605,-0.01151857814292838,-0.42368576844369876,-0.9057307147287808,0.2086980305402307,-0.3551102637885666,-0.16023577029428743,0.5514415261728487,0.11772645660843187,-0.1824056194734599,-0.805465780982481
168,9.57675,-0.4047543657496366,0.8636891425872457,0.6111348374557082,-0.006295376797556705,-0.4192168870853738,-0.9078603682524541,0.11210710344790531,-0.20416773278558173,-0.06320290927885135,0.5549799181057224,0.11929228712233853,-0.17842757154198943,-0.8036946118596148
169,9.58675,-0.2857299668471245,0.8716521230392145,0.6437923883364942,-0.0010258677379826808,-0.416117908953016,-0.9093067536283469,0.049489934358892915,-0.07444039427576458,0.027746201331648776,0.558462655045393,0.12127954805132107,-0.17502952088118018,-0.80172945696409
170,9.59675,-0.2348320953470307,0.8818896426502689,0.668564855560822,0.004211520398359376,-0.4137723840516743,-0.9103674452056629,-0.03276754433352611,0.0007211744681696053,0.11008026783998259,0.562014504869045,0.12348916740777187,-0.17194233823840283,-0.7995751977491984
171,9.60675,-0.17966264524489664,0.8568521100830242,0.6840048526019831,0.009373070563787495,-0.41190607041415866,-0.9111756973862867,-0.14289006890946368,0.0737619237145519,0.18964239375093092,0.5655895543858126,0.1258072907930146,-0.16906380592748066,-0.7973037512429525
172,9.61675,-0.0964737005752957,0.7444997919733941,0.6875396356855588,0.013881262944062566,-0.41075153971031697,-0.9116403526477176,-0.24030424987127907,0.15318668930406137,0.2505766414053924,0.5690871746619333,0.12805047818199555,-0.16667802437590185,-0.7949572323275925
173,9.62675,-0.09740171972385595,0.5462461697943215,0.6387909419122749,0.017060100321292924,-0.41004026520139925,-0.9119074386029351,-0.28592811813264657,0.2062997416002738,0.2891457283962084,0.572329240231406,0.1298182686227007,-0.16490278326293437,-0.7927110014621414
174,9.63675,-0.1858825356665893,0.3261534621652681,0.5347858735904362,0.018610964533888642,-0.4088809323414131,-0.9123975053932496,-0.28063868703490197,0.21505366889047248,0.3508133240136455,0.5751131713298171,0.1306581376007497,-0.16349120418125487,-0.7908490591921216
175,9.64675,-0.31391085589276085,0.1606893726080609,0.40662197095134733,0.018894158395671084,-0.4066804207346193,-0.9133739288068056,-0.2718764952201306,0.20315983054650416,0.45525150101761597,0.5773347944103123,0.13050646458686505,-0.16211287053857096,-0.7895383131751125
176,9.65675,-0.46593900080470585,0.0523241117159329,0.3119028432643768,0.018350681636558293,-0.40321021523879197,-0.9149206684413018,-0.31009114718078307,0.16378283383464967,0.6026928997718068,0.5790802420051294,0.12949076180593158,-0.16053237014256816,-0.7887496345535446
177,9.66675,-0.6347179714708198,0.032777115278934225,0.17804958881902175,0.01767965449715737,-0.3981804186439286,-0.9171322399082769,-0.40317981554874327,0.09751265838453652,0.7373885687314052,0.5804499450217624,0.1278279198209563,-0.15840429095344197,-0.7884439885770179
178,9.67675,-0.6570792891730602,0.03361602200206939,-0.01158038491581672,0.01764881054793739,-0.3921326560100034,-0.9197352166772181,-0.5096929794336998,0.06785175649342734,0.8324961621359891,0.5812262707832276,0.1259746453042844,-0.15575925961113568,-0.7886974628898292
179,9.68675,-0.5119515129796827,-0.01937183684077535,-0.17407693572264737,0.018133218876358752,-0.3866679191153262,-0.9220385201878623,-0.5948711128733912,0.13214716621628178,0.8550606568401563,0.5812287443731823,0.12437747670308312,-0.15332976149781768,-0.7894252546851449
180,9.69675,-0.2835857355613963,-0.16293007024859088,-0.3076624660578315,0.01825663141553803,-0.3829277537886743,-0.9235973198822512,-0.6278779247577755,0.22602132428168326,0.7799138087243439,0.5804558155854128,0.12305322458529883,-0.151851681096895,-0.7904866319737418
181,9.70675,-0.023441939385321034,-0.36458551840736675,-0.452804595358897,0.017278620843771634,-0.3814265724080266,-0.9242372449743993,-0.5945423066347738,0.28995775928038553,0.6415594962659691,0.5788507279341137,0.12185118155937538,-0.15176691200770853,-0.791864261018301
182,9.71675,0.2427859164824749,-0.6037032357966603,-0.6036327299400288,0.014833351454932992,-0.382355922764669,-0.9238937203032025,-0.5278398283105762,0.3427709445709242,0.49332662103196445,0.5763210299750353,0.12065534361154857,-0.1532764049234848,-0.7935983022418609
183,9.72675,0.47739675703636475,-0.8497933492302876,-0.7227695808671534,0.010660468423346784,-0.38562184642090674,-0.9225894968844939,-0.46574020650784875,0.38353205409544006,0.37970692532265116,0.5728912085829241,0.11931561166740724,-0.1564134342286321,-0.7956673005896927
184,9.73675,0.6466782547645565,-1.045519787461412,-0.8088234258936134,0.004855221452134924,-0.39076857896784184,-0.9204664365349025,-0.4170650720920085,0.3846078812886381,0.3204965544407365,0.5687478699699948,0.11773880836027885,-0.16092928264354375,-0.7979686499314942
185,9.74675,0.7694967493490018,-1.1943148993271873,-0.9053738061671452,-0.002132944776091378,-0.39729385308789705,-0.917676320983172,-0.4000520930449047,0.344823435496655,0.3159570014690913,0.5639991050653146,0.11594945848043312,-0.16646229820096692,-0.8004602699478865
186,9.75675,0.8821073707994065,-1.2864894626191097,-1.041090894775182,-0.009646810029875042,-0.4048972227247261,-0.9142957668358117,-0.4237338602484551,0.29339950542313814,0.33064517266569843,0.5585778486173106,0.11409030154549848,-0.1727021624971546,-0.8031999503667583
187,9.76675,1.0737429231888354,-1.3729240301217844,-1.191229762277648,-0.017224857569398,-0.4139302880094136,-0.9101249883236272,-0.4594286445206118,0.2519012486060581,0.34217844755048143,0.5523673009178376,0.11241927906867424,-0.17968688941130845,-0.80618970832905
188,9.77675,1.2760507443186573,-1.4818195706552642,-1.3546782598112719,-0.02485989869642736,-0.4248646503888915,-0.9048883480000611,-0.47661622866822284,0.2154230707302605,0.3190543862855333,0.545262567517466,0.1110383110932045,-0.18764600548763183,-0.8093940324415271
189,9.78675,1.4378406858894643,-1.5756474834118386,-1.4528927685469826,-0.032636987971487535,-0.4375309909946748,-0.8985779395823927,-0.45653246694021743,0.15818709090274102,0.22979040009283286,0.5373163093972202,0.10983876506726338,-0.1965414362731727,-0.8127511726263317
190,9.79675,1.4898773205471088,-1.4947639482519595,-1.3561771440009054,-0.04026325044390722,-0.45121572356692335,-0.8914731282737007,-0.40713183636743355,0.11106059659229317,0.07375415740009328,0.5291943801066474,0.10885929252342989,-0.20590293431528373,-0.8158901676511935
191,9.80675,1.4418790526789438,-1.2917853257154515,-1.105990380793459,-0.04702228872393376,-0.46481977594583945,-0.8841260300167852,-0.3586633128028923,0.10735369617142118,-0.07472906757335494,0.5218755961177316,0.1083142496261783,-0.2149194252244668,-0.8183520026184913
192,9.81675,1.2102598931530744,-1.154675261407714,-0.7392041719689215,-0.053421075012494795,-0.47708734358009963,-0.8772088722228087,-0.2962750478975789,0.11477159956507257,-0.16311721987605596,0.5160099222301223,0.10780188359941123,-0.2230773750390207,-0.8199597397178828
193,9.82675,0.6951640684341739,-1.1076441795358858,-0.32403359637077656,-0.060768638192090274,-0.48586705004227815,-0.8719050011065471,-0.21618363404683485,0.04581081124528982,-0.27630870269818164,0.5120601486787884,0.10625935776945096,-0.22967306269835058,-0.8208201653648923
194,9.83675,0.035879690063081615,-1.1611047797800433,-0.11561241010937148,-0.06964956175901248,-0.4891947929774615,-0.8693776534249689,-0.1256306102392285,-0.10107331126120267,-0.45811697807434526,0.5097325066931694,0.10278251914412995,-0.23396675026421096,-0.8214992432911673
195,9.84675,-0.6623649852651587,-1.2207195744350543,-0.10293728425819834,-0.07958104255189039,-0.4865873310078203,-0.8699807831900626,-0.0052507272347799006,-0.22708581757343788,-0.5844729741171276,0.5080590808068353,0.09719079743021966,-0.23569788868094638,-0.8227182375438448
196,9.85675,-1.521231515089002,-1.0874343191571356,-0.11082115823574945,-0.0892863180641045,-0.4772360029068132,-0.8741860762218442,0.07033462024521717,-0.3724756639638382,-0.6159937931799732,0.5067354026280837,0.08974499004633417,-0.23416562246649497,-0.8248094278482201
197,9.86675,-2.3176077257123238,-0.7247080257761407,-0.15037469027944386,-0.09676414369774626,-0.46029919251721496,-0.8824040316695246,-0.011517960352368573,-0.5633395450155552,-0.5942450669977873,0.5059755516283568,0.08118340286493739,-0.22842124992960133,-0.8277610559328182
198,9.87675,-2.625949459430705,-0.2731151130342461,-0.28163564428649324,-0.10021805392502563,-0.4382165707067965,-0.8931871056673393,-0.21425803755346784,-0.6617308369583785,-0.5473390131969991,0.505505250438841,0.073013825679638,-0.2191836657902999,-0.8312973381445221
199,9.88675,-2.3575197640267964,0.019091000384190645,-0.45927848682750705,-0.09968675468825762,-0.41591789005334445,-0.9038648550373012,-0.3600443826761122,-0.6359104292112369,-0.5748084651509362,0.5047261150949168,0.06655190372838067,-0.20883822640318747,-0.8349736990993453
200,9.89675,-1.6298921663550694,0.13873446986364313,-0.6475013516240186,-0.09667054002109098,-0.39818822567389695,-0.9121716539625174,-0.2946548488760023,-0.49714168151139326,-0.6920171818803932,0.5031358464076067,0.06239210152979848,-0.20002739871122613,-0.8384134508956029
201,9.90675,-0.851632754148923,0.19107497312747912,-0.6802164621092224,-0.09248724123368411,-0.3876468456026298,-0.9171492265733152,-0.07119460709670919,-0.23742387168745777,-0.7979552035858029,0.5008322386171421,0.06068612902481082,-0.19426700235051772,-0.8412725151695793
202,9.91675,-0.49555923840100563,0.22697633218236732,-0.5265241362831596,-0.08822007434817591,-0.38232026352189663,-0.91980485328785,0.09716441508616815,-0.015203441650519397,-0.8260187950100307,0.49866348099853897,0.060553827575565954,-0.19086442578319193,-0.8433481894840236
203,9.92675,-0.5701425888292191,0.22772722463778633,-0.36866249203989354,-0.08440703491707816,-0.37798547527569293,-0.9219505350752819,0.15577192828140965,0.007752725061562941,-0.7731933120851102,0.4971659670862849,0.060673267255434336,-0.18799272854787072,-0.8448673660124669
204,9.93675,-0.8572309340256608,0.15708310210174398,-0.26829790605619536,-0.08142167286028844,-0.3717428968171706,-0.9247482198335447,0.1927557722063294,-0.09048136270576808,-0.649760069637773,0.4962278478967335,0.06004389739065333,-0.1844347392740201,-0.846245683767421
205,9.94675,-1.2419558076223605,0.027550104630380677,-0.1926098741900034,-0.07971661374160681,-0.36223418703062343,-0.9286524054252369,0.2697715522988244,-0.1690469634521245,-0.4875371805985381,0.49565111126656597,0.058054767261056586,-0.1797068241343641,-0.8477357371482966
206,9.95675,-1.679398320511347,-0.11234073742212197,-0.1696163803093926,-0.07948334970458658,-0.348789131474807,-0.9337896670248881,0.381799879335956,-0.1965521708992189,-0.3143252111946994,0.49528362510520196,0.05442085247410624,-0.17357247769092,-0.8494635548611205
207,9.96675,-2.130392137945784,-0.21065210104017573,-0.29292025148410916,-0.08029905711512521,-0.33108935424539476,-0.9401218570123894,0.47091487224300005,-0.17977816437193642,-0.14262822680658377,0.4947026204522999,0.049180720437880104,-0.16581531025225588,-0.851662286276047
208,9.97675,-2.4467646197087634,-0.22863830491205642,-0.5506867355218139,-0.08112072187860048,-0.30967674811351553,-0.9473074500865184,0.49798648266043144,-0.12867624567628486,0.04000963509791004,0.4932723148355834,0.04285471001838241,-0.1564528096280742,-0.8545950603414341
209,9.98675,-2.4381555835672364,-0.14801054852454293,-0.8397961660142439,-0.08090509990650753,-0.28679128327279657,-0.9545082418070009,0.4559144837514003,-0.057540417823936894,0.2335367929692784,0.49063226753435113,0.036480772775784,-0.1462358023693687,-0.8582122193017023
210,9.99675,-2.085471733705209,-0.015679153032750436,-1.1067673126978934,-0.07902988385882598,-0.2657349057324585,-0.9607586179664992,0.35459024275092843,0.029939544567425286,0.3956386279512541,0.4867607109932602,0.031229683450061434,-0.13647219625371707,-0.8622267323178379
211,10.00675,-1.505137955473373,0.12325113519157199,-1.337914739967727,-0.07536690596819517,-0.24929964389770465,-0.9654675693545925,0.23075446632489285,0.1345526695959818,0.4818518151956571,0.48176672565342815,0.02789609534798086,-0.12836564575925316,-0.8663855076609932
212,10.01675,-0.8062356090671549,0.23940192224905724,-1.4911078898991779,-0.07014073545257858,-0.23913593111785905,-0.9684413431272196,0.13977157150731093,0.24604475728357045,0.5254807913378643,0.4758662393906586,0.026799121519918256,-0.12271086966687314,-0.8704940348654066
213,10.02675,-0.12857197695037098,0.3417077703123831,-1.5210764702437158,-0.06372854349514809,-0.2357022607178892,-0.9697278146497205,0.10477057328203904,0.32235166315677694,0.5648345854860383,0.46950129435191224,0.027896321533886496,-0.11981779226642951,-0.87431162332015
214,10.03675,0.3649479115751123,0.4219013438563945,-1.4702652924299848,-0.056479909402183524,-0.23787723662226556,-0.9696420048684281,0.10868959577477377,0.33111133848047475,0.598806577411138,0.46314540534087123,0.03076695581477882,-0.1192859072557734,-0.877671235778538
215,10.04675,0.6922122191142146,0.5042196775091192,-1.3745322166155187,-0.04857997968957089,-0.2438332563441466,-0.9685844161233788,0.13573173683742223,0.3039411614279744,0.6342037315877622,0.4570645407918679,0.03488118807335282,-0.12035466481619958,-0.8805540648132194
216,10.05675,0.8688846752588981,0.6080495026198184,-1.2210415931601644,-0.03999266589654616,-0.25205887755827766,-0.9668657113854371,0.18053893020945333,0.2710234288652714,0.6707524556009798,0.4515209082182942,0.039909009263021045,-0.12233768339572183,-0.88292427249247
217,10.06675,0.9509817064997258,0.7049849631327603,-1.0296704135206964,-0.030746549462944146,-0.261278355455351,-0.9647518307983625,0.23658559534254875,0.2099585164673537,0.6587368385547239,0.4467483520801188,0.04556288835920818,-0.12465493869254073,-0.8847528961005219
218,10.07675,1.0079995967235358,0.7875889465958527,-0.8161137957387969,-0.021108915425347336,-0.27095844419936316,-0.9623360812525467,0.29176611051147583,0.13369191751534865,0.6140299263249023,0.4428943671416906,0.05162302538109886,-0.12710916956301424,-0.8860080635028283
219,10.08675,1.11063752043212,0.8466662892358924,-0.6176135319536206,-0.011270773729972951,-0.28119028105658594,-0.9595593244433959,0.3311362406493712,0.06926875469615462,0.5231568646217476,0.43995793371293873,0.058032287307606394,-0.12977142952383441,-0.8866879135306744
220,10.09675,1.330946422910945,0.8377244131595221,-0.4252265651752925,-0.0016816621825090266,-0.292860331301979,-0.9561216689379671,0.37181960467996006,0.04916862850321917,0.37980065012280906,0.43782787353332375,0.06478733986078683,-0.13314264216232022,-0.886773452720037
221,10.10675,1.6096023743769043,0.7878232747155962,-0.24014481410974364,0.007055253827977571,-0.3068646585638778,-0.9516867698653783,0.43425399074789284,0.07259556207478848,0.22517094165584797,0.6307789711155509,0.10147899053363832,-0.08573859649552944,-0.5739535441751562
222,10.11675,1.904890803991314,0.7737186706826696,-0.06430835273998319,0.014888848687659322,-0.3235172863050171,-0.9460524140071576,0.5127333628049212,0.08107746103498416,0.0825405401127584,0.9864205519678344,0.16398781023844347,0.007570859215890291,0.00013038145773556215
223,10.12675,2.1522164232827428,0.8182333921505192,0.1220816147430621,0.02223236558451348,-0.3427023863181277,-0.9391160902334633,0.5639524314316895,0.04903878195478606,-0.02120462983471098,0.9846603568955363,0.17401451578960464,0.011443179795667868,0.0008414522343825957
224,10.13675,2.2371235728611016,0.9089092677132486,0.34904078205662026,0.02943814411537632,-0.36340363820029153,-0.9310967654563772,0.5521503019559867,-0.027992041987985675,-0.1081978665692157,0.9826184299744152,0.18487794832229423,0.015479315883972491,0.0026104189481499203
225,10.14675,2.08688617370474,1.0076400179532221,0.66197075642968,0.036432932175502114,-0.38379154444018104,-0.9226405278991396,0.48770162805296224,-0.1129891197465305,-0.20267949884792852,0.9804496383937564,0.19560637719254267,0.0197466739289938,0.005787280943842121
226,10.15675,1.5898473116276852,1.0144030560096282,1.026765787733046,0.042449092471583814,-0.40122399547234744,-0.9149617453173076,0.3955975418970457,-0.15960316470637806,-0.2908659160507687,0.9784457038705799,0.20476563049390037,0.023953438402005197,0.01074608448280184
227,10.16675,0.823850730339807,0.9139580714356978,1.292270111503811,0.046480823443147384,-0.4129017231996178,-0.9095799925860266,0.31511661387213535,-0.19546619424705314,-0.3883254261768241,0.9769736060526006,0.2108242428760702,0.0275328973920035,0.017321096558510263
228,10.17675,-0.09634590324556352,0.8725141570096779,1.3903566218993193,0.048882118806386696,-0.4169122522392261,-0.9076305684711456,0.31811269766655437,-0.273563093769418,-0.4529010131316972,0.9763123375115533,0.21273520888130829,0.030438170775297414,0.02480951231102814
229,10.18675,-0.9735578603578354,0.9441933021819383,1.3883200981587454,0.051305293090273534,-0.41261639901704095,-0.9094446976967905,0.35524410802245815,-0.4102153755104187,-0.4382532153139845,0.9765455507873166,0.2101454093889148,0.033285528080771315,0.03265593119097057
230,10.19675,-1.3592059186630967,1.075997113965625,1.4195361472536752,0.05477353813815242,-0.402315421370437,-0.9138372193453599,0.2805919130070527,-0.4827131566748257,-0.4487046100752377,0.9773647432821378,0.20428801787365802,0.03652395714417517,0.04074863503332799
231,10.20675,-0.9668281846760601,1.233675856933304,1.5045874051856263,0.05954451960823989,-0.3920624032687731,-0.9179977680046084,0.12458854897851553,-0.3533828332121749,-0.600208057612454,0.9780345737727486,0.1983874483897875,0.04042838262665634,0.049284564210434104
232,10.21675,0.0009746349711002855,1.3139375627207226,1.5171777877850425,0.06541750589699621,-0.3883739678507057,-0.9191709421062708,0.04420412786326224,-0.03920840418125668,-0.8578767460203041,0.9778521124672512,0.1958970774394824,0.045086847117600096,0.05807729819630695
233,10.22675,1.016677156259184,1.209113619319147,1.4078586833397586,0.0713527847588446,-0.39419820274861767,-0.916226692717605,0.12370096486443813,0.3281618468501647,-1.0354498558554797,0.9765726244558856,0.1984212026399608,0.05002928786531041,0.06636691852980241
234,10.23675,1.4903199583486009,1.0728396860625775,1.2768084285198622,0.07636748138096969,-0.40705230931071545,-0.9101690787758734,0.30379619508053646,0.5568958130298158,-1.0366116821631655,0.9744943940668607,0.2047139557254729,0.05468189032006048,0.07370839215422942
235,10.24675,1.277373435731445,1.0065614888984904,1.1790845099240157,0.08069338946177988,-0.42089485652351577,-0.9034869001054137,0.4214698150248901,0.48438626008918056,-0.9215298751147187,0.9722523801921188,0.21157369739735757,0.05899720787911717,0.0803617484368619
236,10.25675,0.6532828070298906,0.9438944158794221,1.057368285014337,0.08472393969881455,-0.4306611509124291,-0.8985200620418673,0.3718601557463228,0.1906997491926273,-0.7196874670600139,0.9704428212520304,0.21627017290480563,0.06294704472602236,0.08655677184850266
237,10.26675,-0.022746105855836612,0.8492753790120514,0.8967084518922923,0.0885665158115173,-0.434260674792819,-0.896420886320991,0.24987083341773003,-0.0927755019530096,-0.4869108569965708,0.9693857888657671,0.21767238099136035,0.06637774703098313,0.09216915816088979
238,10.27675,-0.4854474517151453,0.7413901888559281,0.7601702638684713,0.09211044076071535,-0.4325687368261603,-0.896879416698052,0.19026116785928152,-0.23286688032872954,-0.29242404661344334,0.96902153018495,0.21626058984230254,0.06919892908917687,0.09711871139747086
239,10.28675,-0.6669856609365395,0.6646146720027731,0.692659876429794,0.09528399107236567,-0.4279012773878405,-0.8987830604144688,0.18846039878257442,-0.2293502413177154,-0.15436318092171986,0.9690559371849958,0.21328408675055058,0.07151622279723716,0.10157693851135541
240,10.29675,-0.5963036252362053,0.6116092222798512,0.6962458219126179,0.09808620605214347,-0.4227935726626861,-0.9008981437238529,0.18630715155089736,-0.1423734098953771,-0.06529561244303014,0.9691459352230739,0.2100935235665293,0.07354459610333552,0.10583503119820115
241,10.30675,-0.4181984843757872,0.5557087517836689,0.7276773454552905,0.10036980523257746,-0.4189211563075591,-0.9024565649596212,0.15263025571916833,-0.01132269161326692,-0.0006170975777789467,0.9690742737741822,0.20758161811011094,0.07536567925311846,0.11008661166559928
242,10.31675,-0.25802803345223635,0.4785223629254311,0.7379134169427887,0.10198580325255105,-0.41664007423219596,-0.9033321966854468,0.0982857956643296,0.12059587830635968,0.059316613627142536,0.9688111180527833,0.20594750258700434,0.07693343891344404,0.11431114614973735
243,10.32675,-0.1767486517699264,0.3794247518573387,0.7289934568958633,0.10281196647776264,-0.41547364709801005,-0.9037760406109703,0.041787743001904215,0.21082882645500015,0.1317163687096344,0.9684364986452381,0.20495493721860034,0.07813513343184753,0.11838486542165506
244,10.33675,-0.16740154039388622,0.2789909415585932,0.7308649294206901,0.10276508231678182,-0.41469189272025464,-0.9041402966378442,-0.029594894691950667,0.23550686135032836,0.22072252138117676,0.968041749306978,0.20422326431698334,0.07888306163290851,0.12231788446816161
245,10.34675,-0.18866419994562741,0.1660362909512417,0.7356607644325676,0.10175217311096618,-0.4138561755289687,-0.9046372831388505,-0.12184948309470056,0.2242827179406353,0.3255865896170926,0.967676323268484,0.203525850374503,0.07911044920266484,0.12616518161118606
246,10.35675,-0.2868569597501652,0.027939967225486348,0.705256282176174,0.09964841467454959,-0.41249101835818175,-0.9054933526795133,-0.21246770712601082,0.2074285895715324,0.4336165906282349,0.9674100109848501,0.20263057165502513,0.07869995739980147,0.12985180878146468
247,10.36675,-0.4303554333135512,-0.10953286792173036,0.6190835835066619,0.09652750136819502,-0.40988584011785867,-0.9070110521730325,-0.2729448003715443,0.17785578814146397,0.5357027575194873,0.9673531798632361,0.20118099525911273,0.07758423620557565,0.13315824793987485
248,10.37675,-0.4981402552707533,-0.2189632703990655,0.5227043468423376,0.09267510037243518,-0.40612767887201257,-0.9090995586614817,-0.30814057045788534,0.15571566437902398,0.647669418269597,0.9675077658014118,0.19922364099533998,0.0758824945660044,0.135930114370938
249,10.38675,-0.4328610125876404,-0.28934972968776795,0.4315023206231604,0.08840157631112827,-0.40224159544203725,-0.9112509085656799,-0.34721198705291406,0.156514041306998,0.7426294616792248,0.9677461726409606,0.19728218366664566,0.0738408395633409,0.13817304976571884
250,10.39675,-0.23953296057614715,-0.31864127486406024,0.30011258620753134,0.08413595838490374,-0.39944323814873306,-0.912886113004242,-0.40911993577709754,0.19019944043952858,0.794579051729284,0.9679370741743931,0.19597408208590403,0.07176347747653603,0.1397873772110982
251,10.40675,0.042606026003152594,-0.33698347578800547,0.1315984102726645,0.08027413758394406,-0.39867935501455076,-0.9135686364394071,-0.49163469609705157,0.2537550004455793,0.8083214885231812,0.9680022347348812,0.19578060414614884,0.06989165891851415,0.1405562778122669
252,10.41675,0.389312843079604,-0.33691422603532917,-0.050016253350067416,0.07702704084244508,-0.4006487625536395,-0.9129849738543266,-0.5731412961789902,0.30906567326426343,0.7701272842616261,0.9678816468991882,0.19705852590199407,0.06836551482629026,0.14034771023334347
253,10.42675,0.7405167115870439,-0.3295423636316045,-0.22351093527906385,0.0745493621859252,-0.4057225013440826,-0.9109430230673743,-0.6346186308709539,0.35247029580920647,0.7165803922078573,0.9675257143570302,0.1999923031316723,0.06728848686497256,0.13915732664135727
254,10.43675,0.9721764392961518,-0.35557087863642683,-0.3774233636474577,0.07269451830841173,-0.4133776673503478,-0.9076406392434534,-0.6711592891686436,0.377004408724338,0.6672584882748074,0.9669698475661648,0.20431613533465345,0.06654764966235531,0.13706938075410416
255,10.44675,1.0351976567611079,-0.44028771228456465,-0.5260565944106216,0.0709988621811847,-0.4222264646200279,-0.9036920458920712,-0.6744000723833674,0.3558129919008487,0.6044603372165691,0.966358525740941,0.20933032511525324,0.06578846444729874,0.13414309999764326
256,10.45675,1.0082775577767908,-0.5643733165584424,-0.6843351683429282,0.06906227397527644,-0.43101988266109537,-0.8996830315650824,-0.6256060015349564,0.30330394652235776,0.5401841830147758,0.9658393161182155,0.21440167992127654,0.06468281745759989,0.13035090554795803
257,10.46675,0.9762827924221773,-0.7034263562414986,-0.8197119733059884,0.06664093585463175,-0.43938771698869467,-0.8958100493047899,-0.529856807011001,0.2321170537515344,0.49495654848117265,0.9654510936969983,0.21934183996370932,0.06306636988689478,0.12570913203679993
258,10.47675,0.9727471600666853,-0.8041126559146603,-0.923083974382827,0.06371963090489607,-0.4474929554632555,-0.8920023276910731,-0.44764402818552856,0.13361633488213384,0.4709530733998941,0.9651461693885514,0.2242209885071109,0.06096448440827007,0.12035792216900278
259,10.48675,1.0890136095588698,-0.831665940737179,-1.0263934799350949,0.060779979880172086,-0.45596164958313384,-0.8879065545699477,-0.42855808786235655,0.04052348681606352,0.4477614855862558,0.96480609563593,0.2293337778613965,0.0586882100691999,0.11442402922564943
260,10.49675,1.3504999174046777,-0.839216554887226,-1.1133434474161978,0.05826573755122927,-0.46607188408779027,-0.8828023338649277,-0.45079307677865044,0.016289509483143116,0.4137686937427415,0.964229320783552,0.23534847785021437,0.056548121800722134,0.10794262560972785
261,10.50675,1.5406983636064564,-0.7647293682435123,-1.0903243130925213,0.05627016879138423,-0.4782538183896119,-0.8763857900823562,-0.4714294260858294,0.03306946043462213,0.3369809738156203,0.9632934379461741,0.24249243996531003,0.054676715024063335,0.10123011869025622
262,10.51675,1.5001672198325773,-0.5164422373330492,-0.8741777488759962,0.05517724043236325,-0.4910891274996682,-0.8693306720098998,-0.49311037471191793,0.008056838055269421,0.21227834018585712,0.9620728310779676,0.24993723279774677,0.05341380198375523,0.09525901846419962
263,10.52675,1.2406720205514588,-0.23803947486149474,-0.4930015056154742,0.05507720693318998,-0.5026696263972144,-0.862701506178937,-0.541142019355896,-0.05618291633489304,0.10695222143192021,0.9607510620607791,0.2565770882335649,0.05299792704049104,0.09113592610110124
264,10.53675,0.7911503033131204,-0.12129240415533464,-0.05318579031011064,0.054715656618287374,-0.5113486856293621,-0.8576211184007985,-0.5803259017533657,-0.138991741131086,0.026187122705335082,0.9595940432547457,0.26151635963182746,0.052869061094657735,0.0893843021017332
265,10.54675,0.2127778840116598,-0.1878205296082901,0.23604396887017437,0.05265643904781305,-0.5157153421814129,-0.8551383264258332,-0.5414576573620001,-0.25364484939802306,-0.1388981309465321,0.9589245549398115,0.2640307854514826,0.05213353950145106,0.08962495887302198
266,10.55675,-0.3740513608058592,-0.37136386324175413,0.2404664898344039,0.048749481909925514,-0.5151342913156178,-0.8557164703429209,-0.39759116188280613,-0.36122347921408543,-0.36564419846617613,0.9589901591135753,0.2638316629160318,0.050323532747445915,0.09053135877961553
267,10.56675,-0.9992017598295493,-0.45425976914144317,0.10592962034954459,0.04407276573463385,-0.5093921804374413,-0.8593872852463378,-0.1981876314278398,-0.40707191552868965,-0.520673889510179,0.9599035418223083,0.2608174519522091,0.047679585072805036,0.0909852031360071
268,10.57675,-1.717756567854096,-0.27380625372186335,-0.05080100560881391,0.04061422552932554,-0.49767422970127767,-0.8663671851035629,-0.09246993260907964,-0.4167152939082914,-0.5568415710639353,0.9617222535993842,0.25447293003220584,0.04518331520020722,0.0909533455873867
269,10.58675,-2.1814558684500662,0.05012731418535821,-0.30146692028424205,0.04042172427624351,-0.4803474112225209,-0.876075201746867,-0.16873392513056706,-0.4249514761596217,-0.5358891351635922,0.9642912006187744,0.2449552952413193,0.043934142822222126,0.09043165921646283
270,10.59675,-2.0598931019241378,0.34909607483711613,-0.625365836025548,0.04435954880752017,-0.46111813593812023,-0.8861623961543659,-0.31921828213556386,-0.4154797943980562,-0.5653814773627888,0.9670428093775701,0.2343339600862666,0.04448712818618743,0.08891840939329003
271,10.60675,-1.4138386880551517,0.5854417928322087,-0.9461256132699614,0.05210440044801694,-0.4450622044810537,-0.8939414848648382,-0.38086014727201306,-0.3552224769456344,-0.6857082077072687,0.9693100497081044,0.22542041163693996,0.046893799320834824,0.08604988994825342
272,10.61675,-0.6312011567880129,0.7496103136945413,-1.1878905174421035,0.06283694731646541,-0.43535540683521057,-0.8980375084823107,-0.31428585859266217,-0.16967704630788033,-0.8262129033743102,0.970729957282515,0.21995639070804351,0.05091055149406652,0.08182924341941597
273,10.62675,-0.13728620884777407,0.8442508822425381,-1.3056267018091985,0.07544540959670076,-0.4312637553963156,-0.8990410650204145,-0.18815305056494658,0.039667534935246024,-0.9044989259688994,0.9714055839301121,0.2175635736686268,0.05601487315996327,0.07671020712156802
274,10.63675,-0.03476347535811184,0.8768366681155956,-1.352887087004585,0.08894231696452891,-0.4295886880516463,-0.8986074835591529,-0.0623981748125448,0.06101790037348803,-0.9013657643694543,0.9717134525296891,0.21653958781025087,0.061632136768050724,0.07119623690547068
275,10.64675,-0.2158351154997469,0.8408114687538054,-1.3429845119604245,0.10248084272847613,-0.4272837151586349,-0.8982646722106432,0.04999981032262612,-0.0817558782301471,-0.8141795295946712,0.9720190589175624,0.21526134522919027,0.06724555869085733,0.06560219256931189
276,10.65675,-0.5516052255663337,0.7447721152685786,-1.2638416244275137,0.11520033421916319,-0.42246100317378293,-0.8990042048145248,0.16090144822857275,-0.238068688664429,-0.6674972026551742,0.9725571163508122,0.21271365920171456,0.07240308291129074,0.06023340775251387
277,10.66675,-0.9739516502212906,0.5855594179061607,-1.0992919015287934,0.12619077072502213,-0.41420281205980913,-0.9013652031084334,0.2788754715908178,-0.32276743978170463,-0.4811858692451597,0.9734488740494258,0.20838712292970363,0.07669188266827424,0.055451872503985165
278,10.67675,-1.4439996163882962,0.38300906824012104,-0.844298100580593,0.1345491026536433,-0.4020298872203012,-0.905648638522256,0.37764451191129367,-0.34186204602455655,-0.2826864633299399,0.9747568612792449,0.20199854395655412,0.07973060664993331,0.051675705562094915
279,10.68675,-1.8834287799157836,0.1670113952721707,-0.564124545806344,0.13980903698721509,-0.38589818243505997,-0.9118326525882332,0.4233970190467902,-0.3336654383198186,-0.07986795968761808,0.9764703180693648,0.19350524750673836,0.08134230778339073,0.049197815448961874
280,10.69675,-2.1829549417642493,-0.03876888588479272,-0.35638520616590413,0.1420961320017324,-0.36650165675311447,-0.9194354577207583,0.41271507791951156,-0.299262192490221,0.09666316365592048,0.9784805922890273,0.18329500957047762,0.08158176753732124,0.04787681704002157
281,10.70675,-2.2221191090727364,-0.20888898244719972,-0.23978475030766527,0.1419613417971825,-0.3455955460948403,-0.9275148919527959,0.36482090060129246,-0.17128254190911552,0.22991580046704257,0.9805741603868553,0.1723401912423393,0.08068962081325891,0.047229728114332285
282,10.71675,-2.069625448216123,-0.3286807701075027,-0.19552673905550427,0.14013184068689394,-0.3252607279776886,-0.9351249299707307,0.29831434281422153,0.06060441951517179,0.3643561069979939,0.9825320163949,0.16176034961660346,0.07902234964161886,0.04682372003994279
283,10.72675,-1.8870340567681159,-0.39195463998589536,-0.23461912635829918,0.13736848784751476,-0.30642173147520163,-0.9418821602364044,0.22169407995642604,0.28314645631934515,0.49213046157539847,0.9842756968472577,0.15204473938493113,0.07693288021084596,0.046278182303943184
284,10.73675,-1.750478272745882,-0.3931243353933588,-0.2960208585524773,0.13440548912026912,-0.2889187190114438,-0.9478291195281824,0.14948519698297322,0.43001737689448816,0.6072590620727523,0.9858282444786738,0.14309996699171942,0.07475454744633862,0.04534712210721822
285,10.74675,-1.7169987943288287,-0.3412156642708462,-0.2669078873680715,0.13171204819748372,-0.27212796657347554,-0.9531637834362022,0.10005521112281272,0.5161183260615546,0.7274869335743602,0.9872279231185312,0.13456250337301556,0.07274843941793871,0.04429629928312613
286,10.75675,-1.8189207456703613,-0.31348815804378255,-0.10263263141132395,0.12913958048932522,-0.2550716209857837,-0.9582159002851466,0.09799301575723904,0.5625461242919055,0.853474163509054,0.988530247285991,0.12587970575925403,0.07089293838647547,0.04376558258949466
287,10.76675,-2.090493422108637,-0.3428329085806016,0.19535541627862082,0.1259353050734991,-0.2364522774990656,-0.963391351932343,0.16528406146791585,0.5846142714771954,0.9721474225569183,0.9898078822858154,0.11635684706681915,0.06883745316461834,0.04444176378129743
288,10.77675,-2.503985847028042,-0.388720554794236,0.5847066362236701,0.12155960121476016,-0.21479501671604395,-0.9689863310207131,0.2841325124966144,0.5924101132834437,1.0689753288040291,0.9911042145211661,0.10522884599713139,0.06629799615119183,0.04692634247507014
289,10.78675,-2.8762983955308377,-0.48162407971014776,1.0229822004924414,0.11575907418816503,-0.18951279711263674,-0.9749275530704167,0.4159924349348688,0.6134531384685911,1.1238674970220572,0.9923692072986351,0.09221606283826399,0.0630970631141982,0.0515608162867982
290,10.79675,-3.0715082349601204,-0.6670341765350122,1.4810635091647577,0.10803107138631476,-0.1617035492733251,-0.9807909458579569,0.5479660566429571,0.6685723090045753,1.0540771198501497,0.9934599237696431,0.07792986101172765,0.058928133629126224,0.058452464555698025
291,10.80675,-3.1456300411903007,-0.921862704539943,1.8980175185953463,0.09776120536395234,-0.13282679479093087,-0.9861787299823722,0.7112085762443107,0.7388238271604466,0.9191472688311157,0.9942393054403574,0.06319092394580773,0.05341625799485426,0.0674742703870611
292,10.81675,-3.2127855473407703,-1.184612515820648,2.217534011770743,0.08480540645938872,-0.10325944517969765,-0.9908925281924279,0.9106676261231414,0.7855463754043891,0.8279744933799962,0.9946312927941234,0.04828230700128105,0.046387083892388804,0.07824391622797934
293,10.82675,-3.341909909522022,-1.4247705749307837,2.4472087438386607,0.0696918362838337,-0.07252091348833947,-0.9947722162118247,1.0885721004901234,0.7597006555433349,0.7533234050161156,0.994582289490417,0.033036523789119004,0.037985860621524696,0.09029442538832866
294,10.83675,-3.609183908699014,-1.6131754905439017,2.6432274298795537,0.05308112196926212,-0.03953339038575848,-0.997622938133783,1.200879783341113,0.6263202204159044,0.6841081106711764,0.9940261236517651,0.016963209945490325,0.028405511723507137,0.10333584645749483
295,10.84675,-4.140435689404991,-1.6840067703896264,2.8854202352007077,0.03596008031140797,-0.002249157927093494,-0.9991168519452386,1.258411739101947,0.42897688966889636,0.6465153057832198,0.9928335528967731,-0.0009547453489940991,0.017923030794203168,0.11741536852300663
296,10.85675,-5.05020918664335,-1.5496364877314235,3.2537772602746178,0.02027306257374448,0.042538008512971,-0.9985629893437896,1.2677848503574816,0.23913770636481846,0.6315820460621032,0.9907248927386086,-0.022395227562641395,0.007122452688517695,0.1329570708194826
297,10.86675,-6.480706317586734,-1.1751564670810093,3.6880900982423177,0.00906328942562654,0.0991620834678758,-0.9945186326362611,1.2330697788161433,0.054861437743856406,0.6311323691860304,0.9871950098152422,-0.04973427179648343,-0.0031383768387384953,0.15038970116604136
298,10.87675,-8.510353216607244,-0.7163920195716398,3.9989101625158456,0.005025250508573075,0.17271359122795482,-0.9840757797156883,1.1954645591845343,-0.1581286793470479,0.67873853114564,0.9814547167191712,-0.08586459712753808,-0.012472229707506076,0.16934767640039694
299,10.88675,-10.900102763565691,-0.43963720899876035,4.060926812452485,0.008363211656588982,0.26672279900463913,-0.9622400642579179,1.185363422208012,-0.33302353663708006,0.7372674680870643,0.9723466850871113,-0.13303282518619963,-0.02177380126908789,0.18852968689428024
300,10.89675,-13.17414178968006,-0.3910573240694762,4.012788334989255,0.017498956096839463,0.37979950333174506,-0.9226029484153471,1.1762695568667367,-0.3535838863125113,0.7446733342683142,0.9583545163466879,-0.19136702300715996,-0.032474567624452784,0.20667469695274218
301,10.90675,-14.775207742652748,-0.4054950176976722,4.054314411667221,0.031688717683606885,0.5038455311286163,-0.8600903442268464,1.1245537592976929,-0.19761950668112555,0.6747137034163323,0.9380348046612004,-0.2582196014077637,-0.04500339361304761,0.2234603481628134
302,10.91675,-15.424957966432268,-0.43610352666130164,4.189406700488109,0.05174049626589151,0.6260244738372492,-0.7743093942581726,1.0460947347039664,0.1072989434615347,0.490189598787994,0.910846481186558,-0.3288478345371797,-0.05837334095437005,0.23922386728949677
303,10.92675,-15.3010985678884,-0.459855177193045,4.215813452941054,0.07720259349042713,0.7347468532066775,-0.6696301158355694,1.0164421364039677,0.5411432351679053,0.21927369443113146,0.8775001270664903,-0.3985516818298778,-0.07171161467405143,0.25385539517298483
304,10.93675,-14.442833564309499,-0.5767206095466169,4.002554698291794,0.10611578796974637,0.8227167753919216,-0.5537901422707925,1.1184246373784166,1.0874173489798098,-0.06453031782417215,0.8397976600136845,-0.46364348060695665,-0.08452280763176098,0.2668695342754231
305,10.94675,-12.825483329191282,-0.8610739584551562,3.6473775496203182,0.13540802246045708,0.8865046106775751,-0.4378634832282492,1.3105699466781044,1.6996629001664907,-0.23238864341010704,0.8007082252532878,-0.5205915449684131,-0.0966348599613513,0.2782011959311843
306,10.95675,-10.88309185991887,-1.231651106750563,3.4302746079974105,0.1634926712581225,0.9274606090227719,-0.3319715696773719,1.4505172394882277,2.218598987100321,-0.22469806447089397,0.763024933013693,-0.5673681804577274,-0.10790259681195574,0.2888271421583003
307,10.96675,-8.99575651346894,-1.544045679472676,3.437797138044213,0.19184941768091848,0.9502828978462426,-0.2411931144459024,1.43508471095488,2.533313179547025,-0.148128723552702,0.7281474643785977,-0.6043855990711259,-0.11762504227528231,0.3001463349154469
308,10.97675,-7.191539100226028,-1.664895420872417,3.527184432738838,0.2219204812571646,0.9599183772032219,-0.1673064323984753,1.247393642138929,2.6635826873706856,-0.1066930217445166,0.6968748441564906,-0.6329122527866357,-0.1249249435546275,0.3126709630387745
309,10.98675,-5.63354737214998,-1.6497676617124988,3.6476767124574643,0.2540865908001555,0.9604561321011827,-0.10984815787148884,0.8862757412211802,2.540055518090098,-0.13932913309777364,0.6695545115166254,-0.6544374842811973,-0.12922465112126183,0.32620970693524554
310,10.99675,-4.346048016598282,-1.6086016290148863,3.7814254647079126,0.2882516169248463,0.9548963210337716,-0.06649005862540364,0.43604874565236584,2.1731790758807144,-0.2013715355833556,0.6458144277907546,-0.6705703850426082,-0.13054441977094522,0.3405789653826604
311,11.00675,-3.1086858714757506,-1.5502042898212043,3.907116423326232,0.3240013893906831,0.9451074031535461,-0.03586187751331242,0.019956294918091033,1.7627405158539655,-0.22235732429359953,0.625498468978178,-0.6822020398377961,-0.12901288851850182,0.3557214924102228
312,11.01675,-1.8895406373639139,-1.4742604126507106,4.001169839985225,0.3607535008148708,0.9322682451667383,-0.017541261281088644,-0.327820499589756,1.4305359285592316,-0.22660038260413257,0.6087900056864151,-0.6896996118440456,-0.1246108816540441,0.37151946401878017
313,11.02675,-0.7115494432969999,-1.4741590594377123,4.014638116196223,0.39769483462291666,0.9172371628817639,-0.011039377482866269,-0.611502398665514,1.190705756528244,-0.25883442519968924,0.5957943547017852,-0.6932825837601422,-0.11756986036671223,0.38787877309848645
314,11.03675,0.4244954977470838,-1.591713757277505,3.901010665837537,0.4335724188614036,0.9007564161860278,-0.016051586899689396,-0.8356378505823099,1.0512271244756612,-0.3186668764650817,0.5865792441036097,-0.692936693036078,-0.10857791987075975,0.40480205272838427
315,11.04675,1.4657758488251273,-1.7177797087832563,3.6766305043946947,0.46705702155293155,0.883404792371834,-0.0319906690238953,-1.0061086381206985,0.9723329238954963,-0.38147145339783484,0.5811739511682232,-0.6886991074672915,-0.09829411900874196,0.4220844403313078
316,11.05675,2.271641841769593,-1.7543221207708217,3.35875953434296,0.49713035881716017,0.8655405566025214,-0.0568558974708636,-1.1372559663935158,0.8955463344181854,-0.4048119513667318,0.5792402134099083,-0.6811172583139048,-0.08718282281572451,0.43913540909303883
317,11.06675,2.78545899368771,-1.6944502920019513,2.9602789598960095,0.5230157716790106,0.8475447379845225,-0.0874610976211776,-1.2457653862834406,0.7906690977426774,-0.3847187815735781,0.5800730131249656,-0.6711685017621141,-0.0757799711050915,0.4551778503199695
318,11.07675,2.9550191745316985,-1.5629014915342396,2.5391665391118052,0.544414764984751,0.8298623126328802,-0.12043563879996237,-1.3437879582068677,0.6508036593131836,-0.32605889035338953,0.5827846853623795,-0.6599546199066293,-0.06466059908742794,0.4696081168240219
319,11.08675,2.638196657515103,-1.4161885641994825,2.126688575063141,0.5615675334281361,0.8131579725666842,-0.15190749751635158,-1.44032010903857,0.4508954859662163,-0.24733620030747913,0.5860576003421748,-0.6488530527298931,-0.05464994810293168,0.4821353290355483
320,11.09675,1.8289446384250918,-1.2785872943833396,1.7169220177879128,0.5748508581665347,0.7985754838089577,-0.17781860328655533,-1.5457495706457387,0.19158521091487926,-0.15008874891051902,0.5883336857832018,-0.6394235031977693,-0.04690949583133274,0.4926957699982603
321,11.10675,0.6486983686015152,-1.1136382270996452,1.3067545316830917,0.5846040730428187,0.7875404978578544,-0.1947842007544623,-1.679897952085026,-0.08728759432698187,-0.02929319082892609,0.5883306424912293,-0.6330816124872062,-0.04252010661196743,0.5012429492465909
322,11.11675,-0.6719112445583013,-0.9301148046934479,0.9146055316190155,0.5912769616722225,0.7810881765953818,-0.20069960853752442,-1.8561855443758084,-0.3667892386028361,0.0777562804238387,0.5852801725872789,-0.6307771374677743,-0.04207104483471909,0.5077249137529182
323,11.12675,-1.7876106478072948,-0.7879336471264345,0.5161103746516569,0.5951833841745897,0.7793082859366129,-0.19599740938195032,-2.0409672307605047,-0.6159176840830618,0.13687690116718382,0.5793059206956835,-0.6323948179286254,-0.045496215373710874,0.512238141984916
324,11.13675,-2.423958496684961,-0.7578675878886281,0.05181818871620836,0.5959801042079342,0.7816383322826744,-0.18383422583343217,-2.154289836161969,-0.7713102823089398,0.14486515798615174,0.5715752311200194,-0.6366525971661368,-0.052294031015028615,0.514977428657771
325,11.14675,-2.4101220752388723,-0.8011960960462595,-0.4454928113467768,0.5930529330528392,0.7871530969484479,-0.16914605120471604,-2.1541802370042373,-0.7631149259113496,0.10147457715523303,0.5639934587545706,-0.6415739306803758,-0.06148621464395937,0.5162092836580389
326,11.15675,-1.7633736335456316,-0.7443908399074705,-0.8671558951265229,0.5865331023084004,0.7945221128643927,-0.15703051701121637,-2.091471605635578,-0.5880012042773968,0.011866547374790815,0.5586359056407936,-0.6452750785982888,-0.071276769386185,0.5161753780704895
327,11.16675,-0.7700615209974409,-0.5654849310290498,-1.1987915755660237,0.5772022633384519,0.8025427355798972,-0.150726238436788,-2.0419182462936125,-0.36797675059005175,-0.10870779318550644,0.5569455116308949,-0.6467287358647954,-0.07977821695449566,0.5149505517591251
328,11.17675,0.26466904691083165,-0.35547122464301933,-1.4870408196163472,0.56563580377349,0.8106082917896402,-0.15137934149745474,-2.018116668027892,-0.20283846040548964,-0.23161676649473503,0.5594122919127154,-0.6456755638405732,-0.08605600741357414,0.512583356776526
329,11.18675,1.1283524294503737,-0.2011724616668212,-1.7584341786152446,0.5519424992573554,0.8185795292790247,-0.15874139205065,-1.9739448715406205,-0.10556292110033927,-0.3077942518519671,0.5657415750734227,-0.642243315860301,-0.09025261844340073,0.5092048526226897
330,11.19675,1.6405831194989329,-0.13221445244018779,-2.031682731474442,0.5360454161440629,0.8265645094185782,-0.1712226892287984,-1.8696472692476813,-0.0940343595391885,-0.31815419316755705,0.5749803007272012,-0.6369364704970244,-0.09322323756605322,0.5049549371680475
331,11.20675,1.793738651475745,-0.11238805322005836,-2.3064266188649927,0.5177845392030337,0.8348855529360987,-0.1862878656505318,-1.7213476406392079,-0.1574848710364603,-0.2829257637540945,0.5858780174567404,-0.6305632718727474,-0.09609078329832488,0.49985349621767455
332,11.21675,1.8238017933495065,-0.12233022048811974,-2.5975917029804445,0.49696368243946215,0.8438085257630711,-0.20204672943391364,-1.5737341770451978,-0.2189341208409198,-0.21908905037634585,0.5975834848693448,-0.6237272695870274,-0.09962926416024669,0.49383618334166435
333,11.22675,1.9729078630302403,-0.19245847123540888,-2.8715664978930424,0.47337136946196545,0.8531232521479413,-0.21878208741882926,-1.4430284263132926,-0.21450102548332123,-0.15516962268340112,0.6100709430630061,-0.6162641635302021,-0.10396235418410611,0.48698427391338756
334,11.23675,2.3226654067298,-0.39847663965629954,-2.970600564524813,0.447522103810533,0.8617407447195529,-0.23841436066389526,-1.3080207306805909,-0.13226936927021415,-0.11134122910806173,0.6235471892700853,-0.6074182467530922,-0.10867091920965381,0.47993688649585153
335,11.24675,2.8036130253752223,-0.6569693504721227,-2.906441857901424,0.42071908062592056,0.8680851061122737,-0.26283656369950004,-1.1577517089099232,0.06287116309676503,-0.09112556875153106,0.6379568528888447,-0.5964465399188704,-0.11311943736632553,0.47367762287316084
336,11.25675,3.607413272279751,-0.7526992825204758,-2.892397341297139,0.3935483664188166,0.8710137520159202,-0.2933043758866006,-1.02425919927624,0.4674881192434619,-0.12098853040865035,0.6536842202379477,-0.5828539396061663,-0.11652090701157773,0.4682741489399311
337,11.26675,5.020607029284747,-0.5247866768651782,-2.8492189271701145,0.366425040348584,0.8684258452320014,-0.33308249849534216,-0.9514957822026959,1.1713134519812003,-0.2715005858224966,0.6722684854737219,-0.5654006042778612,-0.11702701620739327,0.46313880815540814
338,11.27675,6.353144976546865,0.020954218830158855,-2.792925269786408,0.3413618800260145,0.8576312485302023,-0.38350493661257173,-0.9261945496162547,2.051597107542916,-0.5641567225592143,0.6944259488024634,-0.5435585550172503,-0.112487769357276,0.45759057116885093
339,11.28675,6.854610511784922,0.3199733579624089,-3.2899762903216248,0.31681956260554023,0.8400052825021547,-0.4393586908744142,-0.8208630617983693,2.8164191658692754,-0.877984149619683,0.7189806165477649,-0.5188523734466373,-0.10462218304138454,0.45009145167947795
340,11.29675,6.914440872718174,0.2950215737584163,-4.329287413122815,0.286486714314717,0.8192555200892879,-0.49563730810389706,-0.5164141270859028,3.4157876062986907,-1.064099367983386,0.7450465624016421,-0.49236912253286896,-0.09786157986874414,0.4387735952272795
341,11.30675,7.0040340768991225,0.37505866941939864,-5.089035770772459,0.24961282660866735,0.7955858740641362,-0.5509536374062447,-0.034174056183369494,3.775789033531369,-1.1811759522362375,0.7720858297965364,-0.4643977689514924,-0.09309573658561887,0.4232275246449098
342,11.31675,7.318956537315607,0.4672430258084347,-5.008049125174246,0.21236768712228846,0.7659674095550263,-0.605773586699163,0.5459776307194603,3.8400547556933673,-1.2992605345785808,0.798904786680063,-0.43491534733868903,-0.08801757370183651,0.4054626659883897
343,11.32675,7.6982436503358995,0.06526649501060217,-4.657064230710057,0.17809944640016678,0.7276684275738133,-0.661369074018784,1.2260888577336964,3.838784135774887,-1.3277739448219659,0.82436210435375,-0.4028970176601323,-0.08203083675284648,0.38847020469403665
344,11.33675,7.500950114531276,-0.43917899349175726,-4.614438195055299,0.14402853229244791,0.6824838222436914,-0.7155726868724441,1.958362242511277,3.7933438380666242,-1.1987199441902074,0.8478234161735464,-0.3687328998265011,-0.07726756779141063,0.37256958622060365
345,11.34675,6.773552211450847,-0.5379632040314879,-4.702895167978915,0.10949889285284013,0.6355263888194068,-0.7634684164924008,2.3025749967134574,3.4020743805443194,-0.8468765982895905,0.8687489241930209,-0.33534269241973486,-0.07461552041000846,0.3561663426377807
346,11.35675,5.90605302133063,-0.4133921835190601,-4.686550575912197,0.07695835582524951,0.5902752074056232,-0.8029189721177952,1.9866272923191546,2.563955873497411,-0.35974467289881346,0.8869301329263556,-0.30494425001168274,-0.07318402691289634,0.33863562930643604
347,11.36675,4.9150056188301905,-0.3893136912173194,-4.623252578258032,0.04725471741444692,0.548832998888233,-0.8341579935264286,1.5020237614373748,1.5395053694949778,-0.002290347022646494,0.9023964014719758,-0.2783593035043813,-0.07275636614608637,0.3203668296624528
348,11.37675,3.8022604736955268,-0.4956258025015252,-4.66063279027412,0.018909549917952392,0.5135409860399199,-0.857554173918783,1.2433823247296119,0.6657933053547297,0.17206776936313323,0.9152978556778868,-0.2561820827104402,-0.0741426492843489,0.30148273174843504
349,11.38675,2.9192698229299388,-0.5109487650363062,-4.734954383146754,-0.00897346858887271,0.4849232720777944,-0.8742945124752792,1.1238735813347958,0.11429280209230852,0.26549966877284137,0.9261001790046881,-0.23831834335816418,-0.07741451667939596,0.2817299751983893
350,11.39675,2.6300951898497584,-0.3258919117428072,-4.668777622315674,-0.03505520690326641,0.4598420202799156,-0.8871350805501454,0.9883736870989154,-0.1221236799313328,0.302434635738186,0.9354919998763772,-0.22315406103790192,-0.08114533591937013,0.2613614219212843
351,11.40675,3.0395501396752107,0.0020919034810976955,-4.43974330693542,-0.056910956898657286,0.43279826132586263,-0.8995221753978366,0.8132919004430056,-0.10035307736982402,0.2805576900437864,0.9441606167844557,-0.20793584868554596,-0.083347407331217,0.24128311486249673
352,11.41675,3.9579854047474146,0.33411048049879527,-4.201426509379715,-0.07331293216463904,0.3983936795636457,-0.9140537017607903,0.6514670157978173,0.08469549968616419,0.2741006372273361,0.9526820505172259,-0.1898151547026577,-0.0828176196419288,0.22209985920488998
353,11.42675,4.92780026732077,0.565739304678442,-4.05053901743546,-0.08463794630804787,0.35400707146858,-0.931082460960917,0.5357500839604407,0.2836977161124801,0.2734630836476471,0.9612089221452261,-0.16729992962442886,-0.07960508724859214,0.20378943956606926
354,11.43675,5.56580260406654,0.6562211051277712,-3.9599091257329446,-0.09194370132284464,0.30085570603867057,-0.948823375477793,0.45759350937573434,0.38148731610439235,0.3086718592540601,0.9693927466147941,-0.14089327580950758,-0.07458196426001101,0.1860280830663404
355,11.44675,5.719088888932628,0.5994325151907911,-3.883757336562959,-0.09654342493633288,0.24287699108445931,-0.9648145276797409,0.42589837502167205,0.34295321802432077,0.44270369010208765,0.9766838728060703,-0.11245828275122,-0.06895679659078334,0.1685787941153211
356,11.45675,5.54906960039213,0.4842116602086477,-3.821988934923519,-0.09952012639496198,0.18428781474134553,-0.9774231567915402,0.44906853576931843,0.20216192949023656,0.6351496612154461,0.9827235370756855,-0.08397508939569223,-0.06367959282741315,0.1513075931305128
357,11.46675,5.342475233039526,0.4227824322949559,-3.7393957224700993,-0.10102598537386329,0.12705330612442123,-0.9863743600582198,0.5037796166671463,0.05413231988054787,0.8480606332761907,0.9874803603381147,-0.056335954390960646,-0.058915800564419356,0.13417005548060687
358,11.47675,5.259636436285784,0.47468382625551586,-3.545459359979846,-0.10032163070084929,0.07098230223472765,-0.9920753529120051,0.5404583944540435,-0.03149216268710575,1.0305478515841286,0.991043414701677,-0.029386731034954348,-0.05419889875480408,0.11751383572256621
359,11.48675,5.274092949604155,0.6169875664186772,-3.221413407761874,-0.09644451487118567,0.01532849496246537,-0.9948797538808714,0.5463301215625475,-0.024861615097151898,1.164507649312767,0.9934699080841491,-0.0026864963628916334,-0.04890532949882907,0.10201602439974948
360,11.49675,5.299327646896568,0.7854348125509736,-2.859776615997273,-0.08915487065999461,-0.04010737884628538,-0.994869007176108,0.5590951188703723,0.050491740921319805,1.2782974018935642,0.9947983901111507,0.02396134554270884,-0.042765436702906334,0.08815999700452554
361,11.50675,5.310322911232057,0.9756002873842258,-2.5091419005677023,-0.07868246944468761,-0.09508116171793965,-0.9920131928973547,0.6006303997295326,0.13127453703053424,1.3629677957381683,0.9950875945628477,0.05052422200093799,-0.03574252913030728,0.07601513539612792
362,11.51675,5.312088817739453,1.1979450519408708,-2.1365120897173533,-0.06515606745185633,-0.149340401145674,-0.9862917673977843,0.6464194098259428,0.18250523012165826,1.3807370905991339,0.9943920726783314,0.07694568621477607,-0.027735948803516777,0.06564735728258239
363,11.52675,5.288705624860784,1.4154905123677097,-1.7289944417238299,-0.048964044421176904,-0.2025273392899202,-0.9777055350537851,0.6727328926612888,0.2173821026026962,1.3177432129144875,0.9927544999773412,0.10311058182608238,-0.018754230258424168,0.05725012095181631
364,11.53675,5.2633622075765585,1.557619348239123,-1.3172223793007896,-0.031041350292527085,-0.2544409105865395,-0.9662438589251923,0.6953556113399832,0.2749992964347952,1.1875857658646642,0.9902113086532827,0.12897204320311198,-0.00906445761422712,0.05094144591567337
365,11.54675,5.188372066621021,1.5862005805584172,-0.9790339564206425,-0.012747734299886905,-0.30490338364327874,-0.9519569525881462,0.7449134505219536,0.38790742434123116,1.0039901324122396,0.9868168777580688,0.15447816658888136,0.0008115651615889586,0.046529849027835954
366,11.55675,5.01387933811646,1.5306791174599106,-0.782919451474019,0.004811102144275607,-0.35316498236044236,-0.9352263406500368,0.8291456969110679,0.5309369085812994,0.826084185245258,0.9827127825046857,0.17925976941521654,0.0103576958378978,0.04339573593121229
367,11.56675,4.7418772242013105,1.4861126825163082,-0.6960527850144899,0.021482225713902493,-0.398298160951984,-0.9167093023913782,0.9030246519084411,0.6565938647328737,0.6975105508974419,0.9780994283215194,0.20282363375302187,0.019453424121647866,0.0408680773498693
368,11.57675,4.425508284121883,1.5171469508980269,-0.617679060039286,0.0378317707424935,-0.4397102352943699,-0.8970763716107039,0.8957018663673988,0.7313402210663228,0.6318451632039394,0.9731568871839885,0.22481814382200443,0.02837831009974737,0.03870054769829936
369,11.58675,4.110146445641728,1.5640937057857456,-0.3820827399309261,0.053853327704872195,-0.4773534525516145,-0.8768217534133881,0.7751139566290939,0.7278046917831895,0.6132212910050934,0.9679941493542129,0.245155923067494,0.037272724815046926,0.037314914567917475
370,11.59675,3.5658389624979434,1.614786438196336,0.0008766350514317622,0.06849184698484242,-0.5108229486723236,-0.8567558268022891,0.598893753393868,0.6273693399024912,0.589147190860677,0.9627866124343968,0.26351000735993263,0.04587486005005127,0.03760542852874393
371,11.60675,2.4266855731348698,1.745907680338298,0.26106270167137124,0.08195383964144459,-0.536661075961676,-0.8396902016275568,0.4460921721702406,0.43367150992373726,0.5772366970394613,0.9582555680029651,0.27776880796020487,0.05432175307690407,0.03982610181162411
372,11.61675,1.0808001082587753,1.8351063604499553,0.4119259609144015,0.09507796084240525,-0.5516071507707012,-0.8286194438291385,0.31670063355700206,0.2575135521828621,0.5911242576382321,0.9552040923316928,0.2858760281636372,0.06279007052094834,0.04347627830278951
373,11.62675,-0.11493405490401853,1.8574282849309347,0.5916736527375075,0.10758176986803558,-0.5560381471699399,-0.8241451233151342,0.19534370788749839,0.23776281825783233,0.5095170164568131,0.9537959751697791,0.28787711815146716,0.07099856760468282,0.04837268430085576
374,11.63675,-1.0402836759583236,1.8393347699012383,0.7291973858003262,0.11913612231231083,-0.5518543056521062,-0.8253650342719463,0.14668033785355125,0.23096614981987149,0.30068872308376565,0.9537877091512915,0.2847945764189002,0.07870146862236209,0.05443495621910447
375,11.64675,-1.5449896182525786,1.8273377070222612,0.7667751175434883,0.1301654801427237,-0.5417906864038969,-0.8303384431275557,0.1705685990407166,0.15483623179144484,0.048548540098031945,0.9546830530835538,0.2782378388063876,0.08598243462310054,0.06115308638457228
376,11.65675,-1.4175264353094164,1.8432307216363573,0.8074120198500415,0.14126295324683588,-0.5301647735199189,-0.8360090751535938,0.19637727464600677,0.13010155410905505,-0.26721213717776277,0.9556985577783033,0.27072378057021157,0.09317798837730384,0.06807899794145586
377,11.66675,-0.7594074801512459,1.7616250414831014,0.9497685662774544,0.15186510012950488,-0.5221290168774574,-0.8392180329473422,0.21286270772300503,0.2396132006506856,-0.6718146287014,0.9560034785936213,0.2651796210383949,0.10028076041038486,0.07520608021596292
378,11.67675,-0.056817188246389205,1.4659232678734884,1.1383121579859945,0.16007219005736634,-0.5204915828108568,-0.8387216968284336,0.2898287941816452,0.41851227512911415,-1.0146464779052284,0.9552677016978964,0.2632180985601326,0.10652802446936958,0.08254281527920136
379,11.68675,0.09939373912580446,1.0273966498508784,1.2224285187905697,0.16436100636676076,-0.5229575981714677,-0.8363583519563621,0.48154449054613396,0.5131475682099613,-1.1829514292908776,0.9539908170156637,0.2636342081932536,0.1109715278766617,0.08983263105014723
380,11.69675,-0.34976729132714424,0.5833126604221979,1.140124238954395,0.16482228088978734,-0.5241268427489084,-0.8355384848444639,0.7072075085767973,0.3697050834848281,-1.1673679652710898,0.9531136013472636,0.26348028269562623,0.11317393604509243,0.09661818402171979
381,11.70675,-1.0250407452684307,0.28141426868867836,0.986972589053604,0.162785770912583,-0.5200950477358144,-0.8384456286543308,0.8012188890691729,0.030804967834162145,-0.9775157973308131,0.9532490538779663,0.26058925803241656,0.11343556757295076,0.10262783960853238
382,11.71675,-1.4571645414276744,0.13075101311178278,0.882947602578312,0.15964478656559533,-0.5109545764414652,-0.8446337074622661,0.6982420829479126,-0.2926428055366839,-0.6868971153499174,0.954274748100633,0.2549850117048509,0.11250699666770454,0.108031271387533
383,11.72675,-1.517089512897992,0.062422537146914335,0.8393463204186281,0.15611734013423473,-0.49951617923936725,-0.8520974731477972,0.4980983007385087,-0.4352862527390099,-0.43701573575975305,0.9556439326602141,0.2482135359989376,0.11104718060428159,0.11308479186258164
384,11.73675,-1.3217273222811132,-0.02032006499025045,0.8407782795297262,0.15216796898512444,-0.4885927314813661,-0.8591206431313011,0.3301578365084926,-0.39107352301406706,-0.2986514588371032,0.9568976667018028,0.24183511385298767,0.10930455235614929,0.11790903993538014
385,11.74675,-1.0867303579626297,-0.10766227469112824,0.8615771735850745,0.14747969672734723,-0.47952818295939004,-0.8650305892647255,0.23860376411313755,-0.25513857836007037,-0.22495368556761441,0.9578570912470781,0.2365926625843943,0.10725254688080979,0.12255979325238309
386,11.75675,-0.9527325439800921,-0.17453950420287945,0.8830131283532694,0.1420859985465983,-0.4720141301318582,-0.8700540829647724,0.1878904219672864,-0.1420393794137609,-0.17121415188190112,0.9585743364876207,0.2322965078127123,0.10491430832811038,0.12711508250744732
387,11.76675,-0.9276091418475748,-0.22287094953279363,0.9100352666390554,0.13613498305677874,-0.4650947519947585,-0.8747195107969238,0.12243960457063977,-0.09622330379562019,-0.12602833266738556,0.9591762287933205,0.22840265120498826,0.10231490860186085,0.13166900573285859
388,11.77675,-0.9514633873656491,-0.25033552961689876,0.9272812642187163,0.1298015989791488,-0.4580930895463219,-0.8793639892016325,0.02845572805113214,-0.0725697447231237,-0.06683386410425965,0.9597412340452104,0.22452732452243568,0.09950420241946754,0.13628891132508344
389,11.78675,-1.002602961248559,-0.271662377029976,0.9213577322262607,0.12328773244587535,-0.4506783788555295,-0.8841188659648365,-0.06815661042665788,-0.029401475655808647,0.024524079809939654,0.9603106076780438,0.22048810009772044,0.09654401503987341,0.14092189077903136
390,11.79675,-1.108933450856986,-0.29632555517434295,0.8799000830588761,0.11673111246250535,-0.4424411565813695,-0.8891532345552352,-0.15057517534130196,0.02658477298523573,0.1300397374125641,0.9609469760758896,0.21607217025998207,0.0934374354922817,0.1454433235308643
391,11.80675,-1.2558207848657195,-0.33417879944183404,0.7976265645152795,0.11024823362789805,-0.43288167047337456,-0.8946658964987313,-0.20793266148413264,0.07076907524509786,0.2503200376571731,0.9617282068450909,0.21102393613871037,0.09016033215469248,0.1496945850802559
392,11.81675,-1.4336644631721975,-0.40293400389456946,0.6791923750915025,0.10379397404567814,-0.4216208658933576,-0.9007900340282354,-0.243251382654772,0.08570717627660959,0.3814830165151853,0.9627249349426752,0.20516976036295345,0.08660948540169651,0.15347037541164038
393,11.82675,-1.6394606082322414,-0.4857106622529983,0.5465106243081926,0.09722648680761474,-0.40833662676451143,-0.9076104274723479,-0.25755696546964046,0.060131274013655714,0.5021171813838491,0.9639871534437832,0.19836972481928436,0.08265721662237593,0.1566273101714261
394,11.83675,-1.8436618388495418,-0.5612981071373778,0.4089829134111532,0.09051820804639708,-0.3929008061079675,-0.9150795182928325,-0.26045742828298846,0.02628022953025716,0.6201611698513875,0.9655149207507654,0.19057045879778878,0.07828017912600681,0.15912058831278544
395,11.84675,-1.8868189101661215,-0.6387412671615551,0.30456884963782327,0.08362876388802377,-0.3759320237693913,-0.9228261139393907,-0.2715594029519645,0.031497666860700005,0.744645882216473,0.967210230455005,0.18210230181155893,0.07354046232943855,0.16098570285479732
396,11.85675,-1.6850394700053353,-0.7613287498826384,0.24831765485704985,0.0761441704623629,-0.3594499408516159,-0.9300169400392766,-0.3030683383982268,0.059174189873772466,0.8324963929736854,0.968841860047188,0.17403788972147297,0.06845756310354374,0.1623366893625092
397,11.86675,-1.2061433464866087,-0.845193681192417,0.1804211033626627,0.06783631206881169,-0.34593714610971604,-0.9357773313767749,-0.33549358666078544,0.11503932610376436,0.8297473121510964,0.9701837686108319,0.16766191606572192,0.0631630077476519,0.16319238414166465
398,11.87675,-0.49154522615092977,-0.8268250016740722,0.018445925042603367,0.059587776619897996,-0.33791371450423974,-0.9392777144083372,-0.36171464766780625,0.25076709055797475,0.8330960601622185,0.9710714092506725,0.16418968567255057,0.058289086051653484,0.16327624220328354
399,11.88675,0.3536433861760106,-0.7108465996372832,-0.18153857059385767,0.05260012145080565,-0.3372175292524917,-0.9399519398253398,-0.3973859204840527,0.431250000816646,0.8393433677204274,0.971415148559971,0.1644586297139179,0.05454414133518771,0.16226010998157656
400,11.89675,1.1117780931967904,-0.5915380576811166,-0.30670556558596596,0.04736644821805534,-0.34405497772871896,-0.9377443455838812,-0.4632550734690696,0.5712096697768151,0.8372953656573605,0.9711693992871722,0.1685166254050273,0.05220226361565932,0.16031634881223109
401,11.90675,1.6432224435111507,-0.5257431549488157,-0.40746378233025277,0.043409054824567535,-0.3569431897025076,-0.933094736331418,-0.5324073650555957,0.6005312974778202,0.7930683287896282,0.9703892901024611,0.175639777341794,0.050918803390530204,0.15776760626274716
402,11.91675,1.897912317869586,-0.49535566137219983,-0.6472616319147089,0.040550625396995554,-0.3733123449688224,-0.9267877067650864,-0.5512631906810217,0.5324930545298585,0.694320248008487,0.9693105582961462,0.18455671150116987,0.05030228735350294,0.15436463851904386
403,11.92675,1.9737038819522674,-0.4887299106103732,-1.0639067910650803,0.03928504794116911,-0.39089776872582366,-0.919561179543726,-0.5270734893894325,0.4760447137215059,0.5868182739310346,0.9682367709796654,0.1941194263350598,0.05021207285854018,0.14930804535336772
404,11.93675,1.9119211912855192,-0.5394388156130948,-1.5177357758796979,0.03976505376771415,-0.40816072235562056,-0.912011159869487,-0.5024298618009864,0.5319428391983513,0.4564341473328416,0.9673746916319239,0.20355846666705282,0.05043362087173467,0.14206172840086706
405,11.94675,1.6882861658291104,-0.6876351770911965,-1.892370088353316,0.041364879326096296,-0.4238534689250076,-0.9047590959883722,-0.4780688221572711,0.6259326109492458,0.28971674154522276,0.9668280357834845,0.21226656015025255,0.05050980784565302,0.13269083480107774
406,11.95675,1.2071712176118368,-0.9042172834668235,-2.0438478762922334,0.04283483875578287,-0.4362678404519359,-0.8987810942532752,-0.4501174540490976,0.598486986204279,0.11638619063848077,0.9667073715872647,0.21936855844278502,0.04979226867754702,0.12184747884343664
407,11.96675,0.017698902890783907,-1.312854466536956,-1.7455172903558545,0.0414140747233512,-0.44159049218155444,-0.8962584714667019,-0.43691908174694505,0.3501116039972524,-0.02839968047532712,0.9673452419741909,0.2228413681455297,0.04700628878208579,0.1111479909290987
408,11.97675,-2.3065046716188653,-1.7060305983223936,-1.1167217579909727,0.03404817191702956,-0.431279653795946,-0.901546490543672,-0.4376191220232509,-0.14659641174261023,-0.16590658498111124,0.9696441970948598,0.21807553200245822,0.04067187894808303,0.1027234329795416
409,11.98675,-5.363712244198802,-1.9039296454057966,-0.5762683599854749,0.021048183610691912,-0.396340008672728,-0.9176716806808968,-0.39619949234022717,-0.7461571303690204,-0.2128539863012598,0.9743386995895785,0.2003135696307863,0.03085619280314182,0.09742731004778919
410,11.99675,-8.544922451424627,-2.1245448078203215,-0.19285918862326623,0.0038233534188832196,-0.3313734754595367,-0.9429717096899215,-0.33071094058191775,-1.2375775061132193,-0.13646640728166592,0.9810889037593685,0.16717388995783422,0.018090893401896957,0.0945589514019387
411,12.00675,-11.406095248618147,-2.552552741780295,0.022721176238949994,-0.018345303808395108,-0.23534010054109794,-0.9707774951589494,-0.28258793888617817,-1.5704986954764655,-0.04936297205711852,0.9882953872953947,0.11893656571864317,0.0019434835728786553,0.09301887331590775
412,12.01675,-13.733373952561923,-3.1263893044214894,0.10323845816840993,-0.046340931374690024,-0.11139527484165544,-0.9912748189377637,-0.14104840003191346,-1.6929756668391054,0.06697218749592171,0.9936032001515598,0.05775589885000649,-0.017965920989445938,0.09157520712921625
413,12.02675,-15.517710260783097,-3.6808009708553526,0.23610001978130007,-0.08034856142557166,0.03451766379220669,-0.9943113367093406,0.02479573705855062,-1.6886534144008198,0.13292006388385105,0.9945264181328454,-0.013602522680463983,-0.04160379981646108,0.08984570377002454
414,12.03675,-16.72232833659426,-4.073380885136521,0.35376906417493403,-0.11831529427336113,0.19399475624864237,-0.9715847055439215,0.04421737777490377,-1.6352904453967814,0.08157993375739855,0.988965058027417,-0.09212612279493886,-0.06801399669647254,0.08793477934597357
415,12.04675,-16.86278909696997,-4.305484834248844,0.2577198684146311,-0.15728205064365958,0.35469379063103046,-0.9191110426743981,-0.07799927590709069,-1.398817979920449,0.0030161309676930564,0.9758204593624775,-0.1735537328509324,-0.09581165842238723,0.0854173956626674
416,12.05675,-14.614674398343514,-4.282161186343736,-0.21160782770790149,-0.195092182007954,0.4951802138908609,-0.8442687303738844,-0.25276996655881795,-0.8761377514358861,0.029454137433349563,0.9567770580576549,-0.2485295598524377,-0.12317071272991532,0.08153719956782406
417,12.06675,-11.423484020449967,-4.4805934410324095,-1.0291913166429467,-0.23407908268888478,0.5992519486159111,-0.7638637506274779,-0.36508608725377034,-0.19688266955341405,0.1835203327806612,0.9359991754369783,-0.3081528114016136,-0.15007877375975012,0.07593632418489263
418,12.07675,-4.961253891454932,-3.9261729240090473,-1.4861385445489659,-0.2742162515193648,0.6579987499531988,-0.7005027259074706,-0.3949611380869155,0.7093778839050286,0.34844471505546426,0.9193953283888601,-0.34455764784459786,-0.1754557340582778,0.07015988957507421
419,12.08675,2.284382199092744,-1.54083995650821,-0.7038733026721344,-0.3016198148905257,0.6637177567615961,-0.6844027281175084,-0.4378071673745755,2.3766979791829543,0.7851836457779212,0.915141554410342,-0.3483024403877175,-0.19093696753787537,0.06867843915803447
420,12.09675,7.622645950268741,1.5423061205698692,0.592404961769875,-0.3017081221965695,0.6275812375827259,-0.7173476282273663,-0.7465126447663182,3.9339194952033782,0.6522180460707178,0.9237204225764918,-0.3247228036637179,-0.18910780108280542,0.07343125994568342
421,12.10675,10.779782456642831,3.811164111398557,1.0110331653121993,-0.27583668581895826,0.560287294213414,-0.7800337371285622,-1.1132136492625164,4.342873380414123,0.7337022525052094,0.9398282275978574,-0.2833130544685258,-0.17139086095849163,0.0817659216114552
422,12.11675,13.227777613887595,5.096604572578977,0.12185408317993096,-0.2356832002826145,0.463749818801043,-0.8525787221115245,-1.2042945982344189,3.3591756075541523,1.343023496579123,0.9583242446066892,-0.22881905180293585,-0.14414488161626535,0.08858897187519006
423,12.12675,14.196055924838168,5.617064183004911,-1.2664341924720492,-0.1890340806057279,0.33924677075457854,-0.9197253567211716,-1.1351846528586569,1.897614094495211,1.0554374786228073,0.9756324001318933,-0.16378217361428632,-0.11194442080961148,0.08923738369427177
424,12.13675,13.636058205568306,4.392529319516224,-2.1092668329252127,-0.14565482910731517,0.20500487316835303,-0.9662827899722286,-0.955614056293999,0.5767853142117711,-0.020630394311805023,0.9879507253206687,-0.0968495772547775,-0.08206373379597824,0.084093176875811
425,12.14675,13.889064011516124,2.5613485382702237,-2.7103216273803885,-0.11529349807766112,0.06797464147515553,-0.9896094440395711,-0.2012150733153636,-0.24931682136170563,-0.7594871960292353,0.9945034057306099,-0.02960242842782526,-0.060319663966427406,0.07584895655211388
426,12.15675,14.282936186809756,2.142967827900891,-3.3459719944129205,-0.09230262294190839,-0.07567416024201401,-0.9913763102419763,1.1974630479056736,-0.4777465247049105,-0.5324522008484764,0.9957516329123935,0.04085484018767727,-0.04382352150933224,0.06439902188703078
427,12.16675,12.844614305589879,1.815304754250728,-4.0107500358135155,-0.06706166905640884,-0.21298147655747923,-0.9734000790154745,1.8420615624964127,-0.5741894831275198,-0.12090218224703098,0.9920794797967947,0.10883429670578235,-0.02850895673954562,0.04942895001330792
428,12.17675,9.363643043781948,1.5136742078510532,-4.978306279275575,-0.038741470885351556,-0.3237193874420091,-0.9444458192445996,1.3175226668863733,-0.5388924277126875,0.047414139408331765,0.985535396738829,0.1647693214928452,-0.014831562904586829,0.029668395935948576
429,12.18675,5.509746800026411,1.3376613782077813,-5.582627926644842,-0.006306756181603611,-0.393502047121608,-0.9188968274574804,0.6419252495042093,-0.4512427969771491,0.48877023616950904,0.9794558603986347,0.20095795560476892,-0.002303945466522378,0.004962638187012168
430,12.19675,2.8787925889009256,1.408211533644178,-4.5065208188455586,0.027504622514147696,-0.43104460763322827,-0.9017329521312956,0.07565248769806876,-0.05088194110046779,0.7814758115730949,0.9749085498895191,0.22130480598532323,0.009827250104269915,-0.0186349080324346
431,12.20675,-0.15796747357840424,1.3280313033040738,-2.993041916979273,0.05619317433287347,-0.4421523573113248,-0.8951174885564006,-0.15540930243413897,0.050564465339926895,0.887273392639742,0.9727669691721302,0.22803650651049806,0.020582535920893853,-0.03537855432646478
432,12.21675,-2.9352810289660867,0.9749537473671885,-1.9519285308936607,0.07733650570335446,-0.426192808047534,-0.9012596273739062,0.26592728832987816,-0.7027338590405137,0.803310823645649,0.9739272670313461,0.22019142366548997,0.029392343743307903,-0.045652723523008344
433,12.22675,-4.722308681859597,0.5727900572634776,-1.5288736438784378,0.09135391391397511,-0.3894093030730002,-0.9163860709710471,0.6842723754159047,-1.2790031861098317,0.9390466273055316,0.9774571832734983,0.2011425310491646,0.03592688605261296,-0.05256823030217357
434,12.23675,-5.597646007272752,0.21870797191575508,-1.0642706262846517,0.09991330485840699,-0.3397765844255834,-0.9349826718840688,0.89889471491851,-1.4042853463784606,0.9039053332175131,0.9819201945442162,0.17541615112124107,0.04059854799709357,-0.05760777571786507
435,12.24675,-6.168810914501264,-0.18467618658485066,-0.500048103525564,0.1024122434416508,-0.2836822917800585,-0.9532063765999087,0.8903989109011438,-1.13706485538331,0.72688604126661,0.9863943288823177,0.14643819869335825,0.04297942419271826,-0.06021906500032891
436,12.25675,-7.168469491914423,-0.5485915299383618,0.1029910003524338,0.09951528366781842,-0.2194698234205664,-0.9702479434307432,0.7161180140291761,-0.6961095098426842,0.583751918551195,0.9907168667545695,0.11340670554314967,0.04335160046583958,-0.06001379234161715
437,12.26675,-7.683727613823533,-0.9954854691016599,0.7526873992440509,0.0912301979828831,-0.1466755321343127,-0.9846235268652631,0.5379258192087765,-0.39885715516962195,0.37059631303548785,0.994534017639068,0.07612366857598304,0.04151280179036065,-0.056659736829471674
438,12.27675,-7.353611631734839,-1.4928326757349022,1.1444145007101902,0.07780327347866128,-0.07228938990874442,-0.9940038155401951,0.4295708117589147,-0.19028589979950775,0.2634577558608894,0.9972121660337426,0.03814170439643848,0.03704668486225371,-0.050638419330049214
439,12.28675,-5.753511409323134,-1.7271938593840035,1.2021422724704562,0.061108053198854,-0.00716847684391133,-0.9978550377476102,0.4327717953222434,-0.045454520594284856,0.31950884897006065,0.9985025477330656,0.004929615736064628,0.030358732923251537,-0.043754158046411966
440,12.29675,-2.872175233583416,-1.7708809398430296,1.2573090460181247,0.043709748716615,0.036056019047523605,-0.9982851888322855,0.4513309402014574,0.21477879571733502,0.6050714085774411,0.9988836036962438,-0.017207933573436286,0.022501348842514635,-0.03700169046135497
441,12.30675,0.8563227429724276,-1.5129899029660352,1.254639775607457,0.02745773635903294,0.04599146676223178,-0.9985483413225111,0.44798112306632265,0.6238320735739278,0.7713665284565375,0.9991710035365087,-0.02256930984453378,0.014425894328774155,-0.030441787873190695
442,12.31675,4.111162578556056,-0.9780896114017081,1.3292347204492079,0.015560601105310223,0.02023523776717193,-0.9996166951295405,0.5201552227889963,1.2359838248069361,0.5646140721802221,0.9996138773455151,-0.009925136691345298,0.008032414014971553,-0.023996230603349725
443,12.32675,6.126074510500214,-0.6798540471700322,1.3199317170986378,0.007443777962885951,-0.03178463292786668,-0.9992998908377911,0.6192305586700819,1.9176255426048656,0.15810891388235,0.9996699235378242,0.01596117264586215,0.0034634635344822366,-0.01747411678923651
444,12.33675,7.072074395760375,-0.5869439012223265,1.2260361249404508,0.00033228582535843685,-0.09820887263639833,-0.9949155212350136,0.7006673305347146,2.200609060847563,-0.05301153073138877,0.9986623184159082,0.04917266444874264,-0.0003671531092081966,-0.01127696937425266
