time,seconds_elapsed,rotationRateX,rotationRateY,rotationRateZ,gravityX,gravityY,gravityZ,accelerationX,accelerationY,accelerationZ,quaternionW,quaternionX,quaternionY,quaternionZ
1681410926716922400,0.06692236328125,-0.11915324628353119,0.06766441464424133,-0.24825245141983032,0.1169838234782219,-0.15872110426425934,-0.9803684949874878,-0.10491404682397842,-0.058457329869270325,-0.02025705575942993,0.9950799723340434,0.07975294144137446,0.05878111585588858,4.212333558748303e-17
1681410926726899500,0.0768994140625,-0.02547309175133705,0.03951852768659592,-0.2603626251220703,0.11792146414518356,-0.157667338848114,-0.9804261922836304,-0.082215815782547,-0.015352174639701843,-0.051754534244537354,0.9950937238616417,0.07929312800407927,0.05915657321360442,-0.0011904772448824044
1681410926736875300,0.086875244140625,0.049459341913461685,0.0059620048850774765,-0.26708984375,0.11854804307222366,-0.15753157436847687,-0.9803724884986877,-0.0538354367017746,0.0011441409587860107,-0.07843488454818726,0.9950778774130554,0.07930565821863347,0.05936649573886841,-0.0025185495267661907
1681410926746852000,0.09685205078125,0.09429392218589783,-0.007423042319715023,-0.26393425464630127,0.1189439669251442,-0.15787135064601898,-0.9802698493003845,-0.048234663903713226,-0.03928755223751068,-0.0768742561340332,0.9950478365417565,0.07955882832903825,0.05945980836786358,-0.003854137691739549
1681410926756828400,0.106828369140625,0.19541794061660767,0.022474616765975952,-0.2548636496067047,0.1193917989730835,-0.15898393094539642,-0.9800355434417725,-0.04958275705575943,-0.07458245754241943,-0.06444376707077026,0.9949828354439517,0.08020307014064063,0.05957924572259333,-0.005181497177705747
1681410926766805200,0.11680517578125,0.2467421144247055,0.018516359850764275,-0.2821759581565857,0.12004807591438293,-0.16081450879573822,-0.9796566367149353,-0.06514687091112137,-0.10076701641082764,-0.04382658004760742,0.9948795660197773,0.08121502131032846,0.059797948934184435,-0.006553959770785238
1681410926776781300,0.12678125,0.2824114263057709,-0.029021862894296646,-0.28375735878944397,0.12046964466571808,-0.1630409210920334,-0.9792367815971375,-0.06939839571714401,-0.10241633653640747,-0.03898215293884277,0.9947628955522685,0.08243573475573918,0.05988276865038712,-0.008074983313383093
1681410926786759700,0.136759765625,0.3070475459098816,-0.008341619744896889,-0.3038399815559387,0.12073980271816254,-0.1655753254890442,-0.9787781834602356,-0.055386364459991455,-0.08636258542537689,-0.0035826563835144043,0.9946805376985058,0.08323040310504877,0.06069275309141821,2.0077857223479122e-17
1681410926796736800,0.14673681640625,0.3640211820602417,0.02915361151099205,-0.3558637201786041,0.12137152999639511,-0.16845060884952545,-0.9782092571258545,-0.028857462108135223,-0.10109592974185944,0.007643520832061768,0.9945359811943871,0.08479462889915149,0.06087069996018271,-0.001741448413466163
1681410926806712600,0.156712646484375,0.38817474246025085,0.03957695886492729,-0.38139569759368896,0.12234872579574585,-0.1717527061700821,-0.9775130748748779,-0.033420465886592865,-0.11769132316112518,-0.00579380989074707,0.9943556199519529,0.0865902860644979,0.061201204035887864,-0.003679435186968255
1681410926816689700,0.166689697265625,0.28801649808883667,0.02292245253920555,-0.3763129711151123,0.12332706153392792,-0.17461957037448883,-0.9768819808959961,-0.022557973861694336,-0.09695640206336975,-0.01933377981185913,0.9941876223026103,0.08817101945357372,0.06152129067035133,-0.005668796297064946
1681410926826665700,0.176665771484375,0.12239503115415573,0.020763162523508072,-0.3577193021774292,0.12416248023509979,-0.17614153027534485,-0.9765028953552246,0.008421182632446289,-0.08234240114688873,-0.01844644546508789,0.9940799069856247,0.0890635385589237,0.06177582534899777,-0.007535446149897906
1681410926836642800,0.186642822265625,0.005358690395951271,0.00327077554538846,-0.35746124386787415,0.12492045015096664,-0.17625945806503296,-0.9763849377632141,0.025226078927516937,-0.10216772556304932,-0.02158564329147339,0.9940348451503217,0.08924144564867233,0.06199603931364978,-0.00934544265602058
1681410926846618600,0.19661865234375,-0.06604757905006409,0.0228617861866951,-0.27632057666778564,0.12558552622795105,-0.17556844651699066,-0.9764240980148315,0.03188522160053253,-0.09764023125171661,-0.04087936878204346,0.994028671209049,0.08899453966180712,0.06219266086842927,-0.010916134696800259
1681410926856594700,0.2065947265625,-0.12149886041879654,0.020679008215665817,-0.18352247774600983,0.12619708478450775,-0.17433367669582367,-0.9765664935112,0.05790024995803833,-0.06065171957015991,-0.07239896059036255,0.9940517302507763,0.08844292697644113,0.06240684709495591,-0.012018008383112599
1681410926866571800,0.21657177734375,-0.14516210556030273,0.019694169983267784,-0.06268340349197388,0.1266099363565445,-0.17287930846214294,-0.9767715334892273,0.09035483002662659,-0.029162362217903137,-0.08813929557800293,0.9940962451028135,0.08774539229008191,0.06256970760207789,-0.012589357405218222
1681410926876547600,0.226547607421875,-0.13274236023426056,0.038309238851070404,0.05995634198188782,0.12687204778194427,-0.17147105932235718,-0.97698575258255,0.1078844666481018,-0.01847037672996521,-0.07597744464874268,0.9941509364050084,0.0870301524828243,0.06271264160274706,-0.012526588101607578
1681410926886524700,0.236524658203125,-0.12812656164169312,0.05789066478610039,0.16875578463077545,0.12714435160160065,-0.170341357588768,-0.9771479368209839,0.12152817845344543,-0.003776729106903076,-0.07630354166030884,0.9941994870508696,0.08642042662323346,0.0629088863331978,-0.011897603148698553
1681410926896500500,0.24650048828125,-0.10412959009408951,0.07646147906780243,0.2755014896392822,0.1274174004793167,-0.1694885492324829,-0.9772607088088989,0.11921043694019318,0.018258631229400635,-0.07394778728485107,0.9942412296463926,0.08591630253675855,0.06315097384582627,-0.010724407774716723
1681410926906476800,0.256476806640625,-0.16534607112407684,0.05191884562373161,0.3465770184993744,0.12753145396709442,-0.16860118508338928,-0.9773992896080017,0.12931978702545166,0.0533972829580307,-0.06611877679824829,0.9942922021074952,0.08536409314521545,0.0633508188277871,-0.009096318079111732
1681410926916453600,0.26645361328125,-0.18708857893943787,0.033080920577049255,0.37486767768859863,0.12731687724590302,-0.1672888547182083,-0.9776527285575867,0.14226019382476807,0.09453490376472473,-0.06273728609085083,0.9943714188880751,0.08457805448245455,0.06340495082663133,-0.007216645520111974
1681410926926429700,0.2764296875,-0.17517893016338348,0.06648814678192139,0.38892996311187744,0.12718118727207184,-0.16601073741912842,-0.9778882265090942,0.15351954102516174,0.12330132722854614,-0.03746211528778076,0.9944430998964933,0.0838024648013338,0.06350615722890428,-0.005218631327672665
1681410926936406500,0.286406494140625,-0.11298775672912598,0.05073224753141403,0.30765578150749207,0.1271464228630066,-0.16496767103672028,-0.9780692458152771,0.1635182797908783,0.1251574456691742,-0.026371002197265625,0.9944964675449603,0.08315824984388875,0.06364023583042819,-0.0034058319460502735
1681410926946382800,0.2963828125,0.05485636740922928,0.028858372941613197,0.23636004328727722,0.12714548408985138,-0.16501133143901825,-0.9780620336532593,0.1519530713558197,0.16649138927459717,-0.03364145755767822,0.9944983869717534,0.08309360355302071,0.06375302532259304,-0.002051467315214818
1681410926956359700,0.306359619140625,0.16076362133026123,0.0016527455300092697,0.2419208437204361,0.1268547922372818,-0.16637827455997467,-0.9778681397438049,0.14299693703651428,0.2240259200334549,-0.015433192253112793,0.9944512870712369,0.08371112707282692,0.0637053191966637,-0.0009026378741465931
1681410926966335700,0.316335693359375,0.25043198466300964,-0.016593370586633682,0.29384610056877136,0.12634097039699554,-0.168709859251976,-0.9775351285934448,0.16328613460063934,0.23777110874652863,-0.0306740403175354,0.9943679320650152,0.08481076636612322,0.06355757364288026,0.000343414589083811
1681410926976312600,0.3263125,0.2609671354293823,-0.04506660997867584,0.33815494179725647,0.12552903592586517,-0.17165139317512512,-0.9771275520324707,0.17615251243114471,0.20793674886226654,-0.03659003973007202,0.9942638949915125,0.0862044735961123,0.06328512766968104,0.0018282150728231516
1681410926986288600,0.33628857421875,0.18466410040855408,-0.07314831018447876,0.36191272735595703,0.12430451065301895,-0.17428667843341827,-0.9768175482749939,0.18077975511550903,0.181626096367836,-0.038837969303131104,0.9941816062604635,0.08743443637945392,0.06282067400063708,0.0034643583957674282
1681410926996264700,0.3462646484375,0.023610198870301247,-0.07299140095710754,0.3887649178504944,0.12293338775634766,-0.175794318318367,-0.976720929145813,0.18422608077526093,0.16027608513832092,-0.015481829643249512,0.9941494082785628,0.0880857661675337,0.062293180316516164,0.0052452840590815255
1681410927006241500,0.356241455078125,-0.16260680556297302,-0.07315172255039215,0.4525468349456787,0.12147334218025208,-0.17562063038349152,-0.9769347906112671,0.1609363704919815,0.10152389109134674,0.017019689083099365,0.994190079160443,0.0878690539397944,0.06173834764842292,0.007317508489144687
1681410927016217600,0.366217529296875,-0.3328686058521271,-0.07538733631372452,0.5299245119094849,0.11991182714700699,-0.1737772673368454,-0.9774572253227234,0.134116530418396,0.044916749000549316,0.06077021360397339,0.9943001730188563,0.08678436452702391,0.06115442422786856,0.009793700933167112
1681410927026194700,0.376194580078125,-0.45482301712036133,-0.06603724509477615,0.5932108163833618,0.11822056025266647,-0.1705913245677948,-0.9782241582870483,0.1312301754951477,0.028638765215873718,0.10127103328704834,0.994460372528437,0.08499925290934207,0.060523121597575204,0.012677369643339941
1681410927036170800,0.386170654296875,-0.4922243654727936,-0.046375822275877,0.6401070952415466,0.116625115275383,-0.16660860180854797,-0.9791017174720764,0.12632536888122559,0.03669522702693939,0.13184219598770142,0.9946352552886232,0.08279734908187264,0.05994783185478357,0.01586609244910694
1681410927046146600,0.396146484375,-0.46935632824897766,-0.03150685876607895,0.6603308916091919,0.11515606194734573,-0.16264966130256653,-0.9799408912658691,0.11639609932899475,0.04529426991939545,0.14993906021118164,0.9947870151005712,0.08060254825664906,0.05943717139969336,0.019221403090529058
1681410927056123600,0.40612353515625,-0.45724478363990784,-0.007659370079636574,0.7266419529914856,0.11388997733592987,-0.1588933765888214,-0.9807048439979553,0.10897993296384811,0.05047963559627533,0.15012317895889282,0.9949041509521002,0.07850273474792673,0.05903306985939401,0.02276681260918748
1681410927066099700,0.416099609375,-0.598495364189148,0.0656776949763298,1.1636765003204346,0.11264700442552567,-0.15499071776866913,-0.9814726114273071,0.10659132152795792,0.08002424240112305,0.1843382716178894,0.9949829784190379,0.07627536536587794,0.05870051039024495,0.027302476317799265
1681410927076076800,0.426076904296875,-0.5775510668754578,-0.14316248893737793,1.2975544929504395,0.1099892109632492,-0.15049424767494202,-0.9824733138084412,0.13360214233398438,0.09109172224998474,0.21639060974121094,0.9950396746037988,0.0736683793372658,0.057760715031857576,0.033658938177499306
1681410927086052600,0.436052490234375,-0.42988869547843933,0.04150056093931198,1.216586947441101,0.1073688492178917,-0.14661702513694763,-0.983349084854126,0.2516704797744751,0.09716324508190155,0.269268274307251,0.995021265070865,0.07138554336559572,0.05682932622271683,0.040091635590773805
1681410927096029700,0.44602978515625,-0.2001146823167801,0.0907912477850914,1.043808102607727,0.10702455043792725,-0.14522555470466614,-0.9835930466651917,0.24751344323158264,0.04328155517578125,0.3102990388870239,0.9948424842952366,0.07037207047756566,0.05701970981327705,0.045662361208003203
1681410927106005800,0.456005859375,-0.43222859501838684,0.003733313176780939,1.3395640850067139,0.10567537695169449,-0.14360330998897552,-0.9839770197868347,0.040152907371520996,0.007296502590179443,0.317152738571167,0.9946486649981846,0.06924573348257516,0.05671428709189823,0.051600315002178994
1681410927115981600,0.465981689453125,-1.038217544555664,-0.07887192070484161,1.599961757659912,0.1033337339758873,-0.13799172639846802,-0.9850281476974487,0.10212589800357819,0.04506564140319824,0.38209235668182373,0.9944839410457872,0.06604611404089392,0.05589135709374386,0.05929479650285966
1681410927125958700,0.475958740234375,-1.7326778173446655,-0.019960936158895493,1.6353709697723389,0.10081899166107178,-0.12604165077209473,-0.986888587474823,0.2706562578678131,-0.08451443910598755,0.505992591381073,0.9944218596506762,0.05965274978858001,0.05474730697478137,0.06759829648388752
1681410927135934500,0.4859345703125,-2.2909343242645264,-0.07298963516950607,1.7475242614746094,0.09836307168006897,-0.10769697278738022,-0.989305853843689,0.2516125440597534,-0.25897178053855896,0.5955528020858765,0.9943846982255826,0.05005139281853993,0.05330976970414768,0.07649906117067365
1681410927145911800,0.495911865234375,-2.635286331176758,-0.05428998917341232,1.9511404037475586,0.09595824778079987,-0.0850382074713707,-0.991746187210083,0.19374516606330872,-0.285155326128006,0.624955415725708,0.9941976532173414,0.03829078462913772,0.0515821402722448,0.0862797602655524
1681410927155887600,0.5058876953125,-2.7914135456085205,-0.04854139685630798,2.163900375366211,0.09398900717496872,-0.0599932037293911,-0.9937639832496643,0.22099819779396057,-0.20488415658473969,0.6675921678543091,0.9936999559208045,0.025320013224753392,0.04976844858156819,0.0971721344186023
1681410927165864700,0.51586474609375,-2.883098840713501,-0.03730551898479462,2.3543002605438232,0.09250660240650177,-0.03394542261958122,-0.9951332807540894,0.23841078579425812,-0.11699455976486206,0.6868752241134644,0.992810987920556,0.011835329515012045,0.04788827407199731,0.10905520733585769
1681410927175840500,0.525840576171875,-3.014084577560425,-0.04306300729513168,2.540886402130127,0.09162784367799759,-0.00693745631724596,-0.9957691431045532,0.284653902053833,-0.0345817431807518,0.6794087290763855,0.9914808857359311,-0.00214835252872865,0.04594351826008128,0.12186220976650174
1681410927185816800,0.53581689453125,-3.210336208343506,-0.04775523021817207,2.733612537384033,0.09136537462472916,0.02150786854326725,-0.9955851435661316,0.32596254348754883,0.014869051054120064,0.6606242060661316,0.9896512973108916,-0.0168737340860821,0.043848654539413834,0.13558406284358993
1681410927195793700,0.545793701171875,-3.5180866718292236,-0.05791860073804855,2.92122220993042,0.09189163148403168,0.05224555358290672,-0.9943974614143372,0.3648497462272644,0.03161672130227089,0.6629613041877747,0.9872306642468225,-0.03278432225164909,0.041550597594818564,0.15024841581120774
1681410927205769700,0.555769775390625,-3.9547882080078125,-0.06109815090894699,3.0981013774871826,0.09338884055614471,0.08641156554222107,-0.9918727874755859,0.39712023735046387,-0.00758468359708786,0.6691799163818359,0.9840957893143727,-0.050465971509175526,0.0389461972417806,0.1658074185570707
1681410927215746600,0.56574658203125,-4.500017166137695,-0.04096437990665436,3.283679246902466,0.09624603390693665,0.12508843839168549,-0.9874662756919861,0.41464877128601074,-0.07694698870182037,0.6848081946372986,0.9800621533125647,-0.07050902067026005,0.035991038496213164,0.18223996959849253
1681410927225722600,0.57572265625,-5.102288722991943,-0.008329741656780243,3.474299907684326,0.10093408077955246,0.16887201368808746,-0.9804562926292419,0.41951271891593933,-0.15500177443027496,0.7018155455589294,0.9748899438498572,-0.09329789717495908,0.03267034104551349,0.19954417198191973
1681410927235699700,0.58569970703125,-5.715378761291504,0.018562912940979004,3.660027265548706,0.10786467045545578,0.21781601011753082,-0.9700110554695129,0.419173926115036,-0.23168626427650452,0.7217200398445129,0.9683128886425636,-0.1189799566709678,0.028952600659096186,0.21765983002770364
1681410927245675500,0.595675537109375,-6.299076557159424,0.041788339614868164,3.8522865772247314,0.11733505874872208,0.2713354825973511,-0.9553059935569763,0.4235127568244934,-0.2944525480270386,0.7381581664085388,0.9600596450665606,-0.1474191321399631,0.02479107927139799,0.2365134970719134
1681410927255651800,0.60565185546875,-6.8361334800720215,0.038246601819992065,4.036628723144531,0.12953974306583405,0.3284817337989807,-0.9355849623680115,0.42917609214782715,-0.3339291214942932,0.742912232875824,0.9498704257785255,-0.17833261336906897,0.020124602862790164,0.2560053703065154
1681410927265628700,0.615628662109375,-7.307316780090332,-0.006026053801178932,4.201345920562744,0.14444267749786377,0.3880489766597748,-0.9102495908737183,0.44430243968963623,-0.3422268331050873,0.7137774229049683,0.9375234434211356,-0.21131837112314647,0.014824164327311215,0.2759974926601987
1681410927275604700,0.625604736328125,-7.671810626983643,-0.10431773960590363,4.3641438484191895,0.16184286773204803,0.4484401345252991,-0.8790383338928223,0.47208356857299805,-0.3085780441761017,0.6605019569396973,0.9228644521114031,-0.2457726339131329,0.00875486390883155,0.2963791339921431
1681410927285581600,0.63558154296875,-7.906893730163574,-0.2138785868883133,4.527158737182617,0.18171395361423492,0.5078145861625671,-0.8420833945274353,0.5061980485916138,-0.23683369159698486,0.5961269736289978,0.9058178354903027,-0.2809884561817284,0.0019461399418380636,0.31707397018139616
1681410927295557600,0.6455576171875,-7.945399284362793,-0.3182680606842041,4.699606895446777,0.20420192182064056,0.5640034675598145,-0.8001260757446289,0.539847195148468,-0.13556712865829468,0.5223245620727539,0.886454021133283,-0.31608278515969546,-0.005351274542572974,0.3380273222176047
1681410927305534700,0.65553466796875,-7.790583610534668,-0.413650780916214,4.890454292297363,0.22957439720630646,0.6147586703300476,-0.7545644044876099,0.5584810376167297,-0.018689274787902832,0.44442951679229736,0.8650092232365036,-0.3500813582158323,-0.012682196824227754,0.3592233990217452
1681410927315510800,0.6655107421875,-7.504858016967773,-0.48443618416786194,5.093854904174805,0.2580152153968811,0.6584234237670898,-0.7070409059524536,0.5574602484703064,0.07399851083755493,0.3679601550102234,0.8417840677502917,-0.38222424600417265,-0.01960006267139337,0.38068394148512263
1681410927325486600,0.675486572265625,-7.158397674560547,-0.5297251343727112,5.315223217010498,0.2897084057331085,0.6942157745361328,-0.6588881015777588,0.5346934795379639,0.1388530731201172,0.30053550004959106,0.817021922377566,-0.4121831920070751,-0.025709231736684487,0.4023919614547725
1681410927335463700,0.685463623046875,-6.75196647644043,-0.5413315892219543,5.547220706939697,0.3247048556804657,0.7216775417327881,-0.6113495230674744,0.4910910427570343,0.19442963600158691,0.2525239586830139,0.7909599681210167,-0.4397559232591103,-0.030658687616454308,0.4243313560745694
1681410927345439700,0.695439697265625,-6.31815242767334,-0.5387731194496155,5.744047164916992,0.3627864122390747,0.7406832575798035,-0.5654861330986023,0.4373387396335602,0.24208968877792358,0.21412205696105957,0.7638575712277899,-0.464852960983705,-0.03418567066560043,0.4463910281500897
1681410927355416800,0.705416748046875,-5.962439060211182,-0.5571958422660828,5.854155540466309,0.403087854385376,0.7517390251159668,-0.5219280123710632,0.3934820294380188,0.28910887241363525,0.14631766080856323,0.7359486135294193,-0.48755519051864477,-0.036413457418552064,0.46834155507608843
1681410927365392600,0.715392578125,-5.728694915771484,-0.5916880369186401,5.879530429840088,0.44445106387138367,0.75608891248703,-0.480409175157547,0.3708413243293762,0.37353456020355225,0.06540068984031677,0.7073009443928461,-0.5082960926413618,-0.03782184721228703,0.4898266241689063
1681410927375369500,0.725369384765625,-5.502715110778809,-0.6039049029350281,5.804176330566406,0.48577380180358887,0.7547786235809326,-0.44083255529403687,0.3645985722541809,0.5235265493392944,-0.01639699935913086,0.6780867160379733,-0.5273304197056286,-0.03881170560430793,0.5105046100036315
1681410927385345800,0.735345703125,-5.1404643058776855,-0.5816954374313354,5.705865859985352,0.5264459252357483,0.7482052445411682,-0.40378668904304504,0.3652471899986267,0.7035312652587891,-0.10074511170387268,0.6487570122774015,-0.544579306024198,-0.03924336345198302,0.5301016262270601
1681410927395321600,0.745321533203125,-4.512899875640869,-0.5482252836227417,5.587808132171631,0.5661096572875977,0.7361220121383667,-0.37100452184677124,0.3450232148170471,0.8173906207084656,-0.18392705917358398,0.6201213296059741,-0.5594784044026725,-0.03849228138126435,0.5485908052462665
1681410927405298700,0.755298583984375,-3.6356256008148193,-0.4919431209564209,5.472729682922363,0.6043989658355713,0.7184263467788696,-0.3443334400653839,0.2953050136566162,0.8746980428695679,-0.2417565882205963,0.5931137221624716,-0.5714450216586311,-0.03583116338687488,0.5660237236929017
1681410927415274500,0.7652744140625,-2.536018133163452,-0.40138205885887146,5.385254859924316,0.6412023305892944,0.6950293779373169,-0.32525959610939026,0.22709906101226807,0.9706506133079529,-0.28644993901252747,0.5685973816322616,-0.5800399648911777,-0.030394750684745103,0.5825177091056474
1681410927425251800,0.775251953125,-1.398648738861084,-0.2169879823923111,5.2444539070129395,0.6763609647750854,0.6662908792495728,-0.31399422883987427,0.15258800983428955,1.1495966911315918,-0.32432660460472107,0.5471700346410338,-0.5852667570123429,-0.02158032314997674,0.5979984278322977
1681410927435227600,0.7852275390625,-0.4061209559440613,0.10267885774374008,4.978373050689697,0.7093753814697266,0.6336567401885986,-0.3086514174938202,0.07333946228027344,1.3750407695770264,-0.37012049555778503,0.5291105323441558,-0.5878647487894445,-0.009451478452647521,0.6118560028768097
1681410927445204700,0.795204833984375,0.17307475209236145,0.5018382668495178,4.581180572509766,0.7397910952568054,0.599270224571228,-0.30591604113578796,-0.02220064401626587,1.590289831161499,-0.41909003257751465,0.5141087045086569,-0.5890801053925339,0.00515882305254186,0.6234183411396966
1681410927455180500,0.8051806640625,0.08874296396970749,0.8159481287002563,4.032144069671631,0.7669130563735962,0.5662820339202881,-0.3019425868988037,-0.13481754064559937,1.685198187828064,-0.4698621928691864,0.501075818614231,-0.5904441847529025,0.020108880013661245,0.6323721650102541
1681410927465156600,0.815156494140625,-0.6002237200737,1.046687126159668,3.3959152698516846,0.7901745438575745,0.5381059050559998,-0.29337090253829956,-0.2382029891014099,1.64350426197052,-0.47155213356018066,0.4884878355046313,-0.5935044352805998,0.03266552262506427,0.6387998610570734
1681410927475133700,0.8251337890625,-1.4910387992858887,1.1572976112365723,2.747868537902832,0.8094882965087891,0.5165745615959167,-0.2790694236755371,-0.3103121519088745,1.5665096044540405,-0.4183487296104431,0.4753531189357242,-0.5989783775579721,0.04111189392706551,0.6430974748173554
1681410927485109500,0.835109619140625,-2.1992125511169434,1.2565925121307373,2.1488168239593506,0.8251377940177917,0.5016719698905945,-0.25975626707077026,-0.37280601263046265,1.5084600448608398,-0.36725786328315735,0.4616248430265132,-0.6066896270243354,0.0452721072970682,0.6455857340963417
1681410927495086600,0.845086669921875,-2.5381221771240234,1.3467603921890259,1.663953423500061,0.8377982974052429,0.4918137490749359,-0.23709359765052795,-0.44624245166778564,1.4877395629882812,-0.3267796039581299,0.447900174418907,-0.615879484672848,0.04632132105420783,0.6464768385071423
1681410927505062700,0.855062744140625,-2.5020041465759277,1.3640896081924438,1.1941022872924805,0.847831130027771,0.485493540763855,-0.21325695514678955,-0.5423958897590637,1.551798939704895,-0.2897489666938782,0.435105738526358,-0.62553683649892,0.04555425837430214,0.6459965533211771
1681410927515039700,0.865039794921875,-2.1205456256866455,1.3256133794784546,0.7261700630187988,0.855167031288147,0.48204946517944336,-0.1905728280544281,-0.6473879814147949,1.6809145212173462,-0.24985677003860474,0.4243898949565588,-0.634651499985033,0.04394381886587081,0.6443444846348354
1681410927525016000,0.87501611328125,-1.4930437803268433,1.2427514791488647,0.29023477435112,0.8599058985710144,0.48101702332496643,-0.17083556950092316,-0.7566648125648499,1.759400486946106,-0.25364863872528076,0.416712621304454,-0.6424816056388863,0.04242173230647456,0.6416919604064096
1681410927534992000,0.884991943359375,-0.9033194184303284,1.1689503192901611,-0.09299979358911514,0.8623244762420654,0.4821220934391022,-0.1547747403383255,-0.8747906684875488,1.6833901405334473,-0.3382824659347534,0.41232818873359556,-0.6487651187165934,0.04143011030772126,0.6382578591387624
1681410927544969000,0.894968994140625,-0.46893757581710815,1.0936797857284546,-0.45721903443336487,0.8626606464385986,0.48550310730934143,-0.1417863965034485,-1.0043079853057861,1.4725810289382935,-0.40389835834503174,0.41078287460440455,-0.6537961883570971,0.04071052303895236,0.6341534909420584
1681410927554945000,0.904945068359375,-0.22914521396160126,1.0284336805343628,-0.8070112466812134,0.8610064387321472,0.49142923951148987,-0.13101749122142792,-1.1340317726135254,1.2215683460235596,-0.4168187379837036,0.4114657387483928,-0.6579605387756319,0.03973894075091565,0.6294480862816645
1681410927564922000,0.914922119140625,-0.13595269620418549,0.9675135612487793,-1.0952845811843872,0.8575294613838196,0.4998560845851898,-0.12160429358482361,-1.2402348518371582,0.9742040634155273,-0.40723472833633423,0.41369043389666715,-0.6616242722090592,0.03809429876172763,0.6242296478355533
1681410927574898000,0.92489794921875,-0.13985168933868408,0.8941693902015686,-1.337784767150879,0.8524755239486694,0.510410726070404,-0.11299022287130356,-1.3063479661941528,0.741618812084198,-0.3953104615211487,0.41685393371085344,-0.6650108814002321,0.03557267260004659,0.6186502609247766
1681410927584875000,0.934875,-0.13625936210155487,0.7977554798126221,-1.5508430004119873,0.8459418416023254,0.5228157043457031,-0.10510199517011642,-1.3209784030914307,0.5456963777542114,-0.3897404670715332,0.4206901473173032,-0.6681454613693167,0.03210368053613976,0.6128384469696032
1681410927594851000,0.94485107421875,-0.0936925932765007,0.6684659719467163,-1.7335021495819092,0.8379920125007629,0.5367534160614014,-0.09831368178129196,-1.2896368503570557,0.3906148672103882,-0.40003830194473267,0.425195665471513,-0.670872615617872,0.02780451951464482,0.6069313674787769
1681410927604827000,0.954826904296875,-0.028553802520036697,0.5187119245529175,-1.9256303310394287,0.8286284804344177,0.5520089268684387,-0.09306716918945312,-1.2188260555267334,0.26647263765335083,-0.4120138883590698,0.4304302897269195,-0.6730143355274489,0.022762236384543617,0.6010520860314085
1681410927614804000,0.964803955078125,0.02986503206193447,0.3946720063686371,-2.1213464736938477,0.8177269697189331,0.5686300992965698,-0.08934729546308517,-1.1345449686050415,0.17186379432678223,-0.39341020584106445,0.43642062971107803,-0.674566177458521,0.0169359460933692,0.5951562646736219
1681410927624780000,0.974780029296875,0.14799247682094574,0.3089384436607361,-2.3070900440216064,0.8052701950073242,0.5864881873130798,-0.08701691776514053,-1.0518978834152222,0.09554928541183472,-0.3602791428565979,0.4432406433616943,-0.675559828384967,0.010509974161931824,0.5891064278970813
1681410927634757000,0.984757080078125,0.17970891296863556,0.26487997174263,-2.484518051147461,0.7912641763687134,0.6054299473762512,-0.08576612174510956,-0.9796949028968811,0.023659467697143555,-0.328097939491272,0.4508081645050424,-0.6760948705399284,0.003558900093867747,0.5827994123317521
1681410927644733000,0.99473291015625,0.1607956886291504,0.2699418365955353,-2.6993212699890137,0.7755802869796753,0.6255385279655457,-0.084718257188797,-0.9221559762954712,-0.031666338443756104,-0.28677213191986084,0.4588589583590142,-0.6764791767801782,-0.004098316889747524,0.5760276096781443
1681410927654710000,1.0047099609375,0.25969651341438293,0.3185172379016876,-2.9305920600891113,0.7579398155212402,0.6469212770462036,-0.08378870785236359,-0.8775227665901184,-0.010248124599456787,-0.23063379526138306,0.4675996382373745,-0.6767222086121414,-0.01235709497186817,0.5685465724415678
1681410927664686000,1.01468603515625,0.49054887890815735,0.4001772105693817,-3.1220033168792725,0.738328218460083,0.6692468523979187,-0.08354862779378891,-0.8322460055351257,0.05322641134262085,-0.20246201753616333,0.47741361960988504,-0.6766068208605752,-0.0207097659551987,0.5602237933647816
1681410927674662000,1.024661865234375,0.8078804612159729,0.49290597438812256,-3.270988702774048,0.7169762253761292,0.691932737827301,-0.08470238745212555,-0.7753409743309021,0.10509496927261353,-0.2092885971069336,0.4885058318524125,-0.675890444335019,-0.028651561107107742,0.5511019824062845
1681410927684639000,1.034638916015625,1.251157283782959,0.6090677976608276,-3.463257312774658,0.6938542127609253,0.7147234082221985,-0.08795874565839767,-0.7063664197921753,0.207075297832489,-0.21880388259887695,0.5011679731021039,-0.6743402415286123,-0.035858980875760775,0.5411192621363636
1681410927694614800,1.04461474609375,1.8750371932983398,0.7732627987861633,-3.7266972064971924,0.6684473156929016,0.7377272248268127,-0.09453482925891876,-0.6310021877288818,0.43837451934814453,-0.24463742971420288,0.51609780761226,-0.6715391952909727,-0.04204394139968549,0.5300099493910785
1681410927704592000,1.054591796875,2.7746875286102295,1.0627981424331665,-3.953303098678589,0.6405969262123108,0.76055508852005,-0.1057901531457901,-0.5530571937561035,0.8266488909721375,-0.31442153453826904,0.5340327021540927,-0.6670406562832749,-0.04649392753919044,0.517401346795314
1681410927714568000,1.06456787109375,3.9042413234710693,1.5163379907608032,-3.9755892753601074,0.6114883422851562,0.7815746665000916,-0.12338227778673172,-0.44278717041015625,1.3540606498718262,-0.4167634844779968,0.5555104888605351,-0.6603329605946969,-0.047636549147663194,0.5030897996094164
1681410927724544000,1.0745439453125,4.817444801330566,2.073526620864868,-3.967496156692505,0.5826265811920166,0.7992493510246277,-0.147468701004982,-0.21662920713424683,2.0008301734924316,-0.5941846370697021,0.5800962748013321,-0.6513578093421758,-0.04470632013688782,0.48705529219786636
1681410927734520800,1.084520751953125,4.921932220458984,2.6300806999206543,-4.172705173492432,0.5535935759544373,0.8144915103912354,-0.17360267043113708,0.24627214670181274,2.727332830429077,-0.8956568837165833,0.606149315054647,-0.6416125768834545,-0.03914030345679579,0.46838492559726874
1681410927744497200,1.0944970703125,3.994337320327759,2.693262815475464,-3.7899961471557617,0.5255728363990784,0.8278902769088745,-0.19588524103164673,1.0414743423461914,3.348745346069336,-1.0400766134262085,0.6302133846922063,-0.6332087454573497,-0.03322750083022006,0.44807786139338784
1681410927754474000,1.104473876953125,3.1196913719177246,1.4055043458938599,-3.204680919647217,0.5012086033821106,0.8383830189704895,-0.21425196528434753,2.116863965988159,3.6889760494232178,-0.737026572227478,0.6491597265686011,-0.6260975301111525,-0.029595578771172193,0.4309497210479379
1681410927764450000,1.114449951171875,2.144162178039551,-0.15446117520332336,-3.6788830757141113,0.47375819087028503,0.8489571809768677,-0.23414775729179382,3.201550006866455,3.487926483154297,-0.10471934080123901,0.6647773658278818,-0.6179460322105963,-0.032692798413370985,0.4185034228723158
1681410927774427000,1.124427001953125,0.6447253823280334,-0.07626128196716309,-4.068964004516602,0.43982720375061035,0.8634349703788757,-0.24704675376415253,3.472144842147827,2.490645170211792,0.581534743309021,0.6770838913691506,-0.6121023800428491,-0.04251237010143053,0.40630138824416956
1681410927784403200,1.1344033203125,-0.37507137656211853,0.9636490345001221,-3.886202096939087,0.40604960918426514,0.8801082372665405,-0.24603568017482758,2.6742422580718994,1.443835973739624,0.9383575320243835,0.6854271815971694,-0.6116877386679027,-0.05310624767112821,0.3914174735433941
1681410927794379000,1.14437890625,-0.7435992956161499,1.7539911270141602,-3.476243257522583,0.3767465651035309,0.8959226608276367,-0.23533965647220612,1.8461538553237915,0.9122744202613831,0.8054080605506897,0.6910543614562127,-0.6153401377039139,-0.060718079003312574,0.37431782271843916
1681410927804356000,1.154356201171875,-0.6113983988761902,1.9784520864486694,-2.954469680786133,0.3520161807537079,0.9092602729797363,-0.22210486233234406,1.4546550512313843,0.5067554712295532,0.5030802488327026,0.6953671592717441,-0.620219204678647,-0.06538888721658491,0.3570953145206543
1681410927814332000,1.164331787109375,-0.05196654796600342,1.8479716777801514,-2.254701852798462,0.3323329985141754,0.9189533591270447,-0.21232029795646667,1.3870121240615845,0.18404370546340942,0.37180522084236145,0.6994702569464761,-0.6239340128480897,-0.06742550831232205,0.3419089830720908
1681410927824309000,1.17430908203125,0.7721121311187744,1.6823209524154663,-1.4414621591567993,0.31901559233665466,0.9242216348648071,-0.20986594259738922,1.434661865234375,-0.03576326370239258,0.3726162314414978,0.7042647121014529,-0.6250221755558991,-0.06644027940368409,0.33006724331417797
1681410927834285000,1.18428515625,1.5279484987258911,1.6147067546844482,-0.666452944278717,0.312808632850647,0.9250555634498596,-0.21546055376529694,1.3885464668273926,-0.2745732069015503,0.40395238995552063,0.7101290961386745,-0.6232352820987337,-0.06202827302532437,0.32163198143202176
1681410927844262000,1.194261962890625,2.00395131111145,1.647157907485962,0.05335581675171852,0.3135611414909363,0.922078549861908,-0.22682780027389526,1.1840890645980835,-0.5683645009994507,0.41638779640197754,0.7166253839993633,-0.6193803465768791,-0.05435149519285569,0.316009758254119
1681410927854238000,1.204238037109375,2.3117423057556152,1.6558085680007935,0.8388925194740295,0.32145407795906067,0.9156264066696167,-0.2414451539516449,0.8812437057495117,-0.8854901790618896,0.41509026288986206,0.7230001757963463,-0.6143046824575649,-0.04367123781373157,0.3130390440148529
1681410927864214000,1.214214111328125,2.265218496322632,1.6100062131881714,1.5968822240829468,0.3366486728191376,0.905811071395874,-0.2572435736656189,0.5867828130722046,-1.2292057275772095,0.47326231002807617,0.72848623750003,-0.608649450682696,-0.030398399059201924,0.31293736481338913
1681410927874191000,1.224191162109375,1.5784801244735718,1.8080798387527466,2.20300555229187,0.35822442173957825,0.8940838575363159,-0.2688671052455902,0.34145215153694153,-1.6048381328582764,0.5921551585197449,0.7315782711194929,-0.6044241673247764,-0.015423121573465306,0.31500301007081677
1681410927884167000,1.2341669921875,0.6865640878677368,2.124065399169922,2.7151153087615967,0.38534897565841675,0.8818640112876892,-0.27170276641845703,0.08668172359466553,-1.9340031147003174,0.7194872498512268,0.7312029397844586,-0.6034464900117806,0.0009740448649577328,0.318109829667372
1681410927894144000,1.24414404296875,-0.1699870377779007,2.372934579849243,3.28057599067688,0.41755443811416626,0.8691794276237488,-0.2649071216583252,-0.1564612090587616,-2.1686787605285645,0.8606560826301575,0.7270862806309151,-0.6059697287534619,0.018631153539661507,0.3221790571254471
1681410927904120000,1.2541201171875,-1.0248277187347412,2.381549835205078,3.8428122997283936,0.45433998107910156,0.8552108407020569,-0.24937860667705536,-0.2984103858470917,-2.421342372894287,0.9367566108703613,0.7191639853631379,-0.6115015139323874,0.03710248535358126,0.32786054599560344
1681410927914097200,1.26409716796875,-1.7203009128570557,2.2099449634552,4.350306034088135,0.4945003092288971,0.8390937447547913,-0.22669629752635956,-0.2910853624343872,-2.6364874839782715,0.9423030614852905,0.7075668562985318,-0.6193225776507263,0.055600316660429236,0.33570423249339926
1681410927924073000,1.274072998046875,-2.020286798477173,1.9148491621017456,4.778765678405762,0.5367027521133423,0.8196179866790771,-0.20044131577014923,-0.1847739815711975,-2.697181463241577,0.9499531388282776,0.6932590209690832,-0.6279577531910182,0.07381327027299779,0.3458507564174049
1681410927934048800,1.284048828125,-2.0224671363830566,1.5938658714294434,5.203971862792969,0.5801936388015747,0.7956221699714661,-0.17424361407756805,-0.07169443368911743,-2.555525064468384,0.9007604122161865,0.6773465969126015,-0.635941611912315,0.09195900889659207,0.35822264784726904
1681410927944026000,1.294026123046875,-1.7052241563796997,1.3218495845794678,5.68084716796875,0.6249364614486694,0.7659564018249512,-0.15088210999965668,-0.025296509265899658,-2.255275249481201,0.7421144843101501,0.6607113618905509,-0.6421046246130396,0.11072758428825752,0.37269513218527295
1681410927954002000,1.304001953125,-1.2611004114151,1.1927754878997803,6.143770694732666,0.6708489060401917,0.7297948598861694,-0.1317632496356964,-0.042736053466796875,-1.8614170551300049,0.6025427579879761,0.6439640884667274,-0.6457273216065921,0.13097557227579482,0.3888342339512463
1681410927963979000,1.31397900390625,-0.8898799419403076,1.2113491296768188,6.462847709655762,0.7169854640960693,0.687385082244873,-0.11590486764907837,-0.07770311832427979,-1.5056376457214355,0.5035849809646606,0.6271535556451533,-0.6470182537374916,0.15301943437005927,0.40574751755641286
1681410927973954800,1.323954833984375,-0.6397719383239746,1.2615811824798584,6.628013610839844,0.7617318034172058,0.6398502588272095,-0.10176660865545273,-0.09505999088287354,-1.2175021171569824,0.4239407777786255,0.6101557472137411,-0.6465238573936636,0.17641881273669432,0.42260303630203294
1681410927983932000,1.333931884765625,-0.5148731470108032,1.275944471359253,6.710517406463623,0.8038286566734314,0.5882652401924133,-0.08833856135606766,-0.059977829456329346,-0.988945722579956,0.38240599632263184,0.5927869899402713,-0.6446929586285399,0.20050363789420422,0.4390591913992463
1681410927993908000,1.343907958984375,-0.6028613448143005,1.2970962524414062,6.7549052238464355,0.8425746560096741,0.5333609580993652,-0.07479603588581085,0.03642326593399048,-0.835225522518158,0.3563513159751892,0.5746818468967032,-0.6419725927205883,0.22466234782246441,0.4551252998124982
1681410928003884000,1.353884033203125,-0.941368818283081,1.3151538372039795,6.724792957305908,0.8774177432060242,0.475983589887619,-0.05981789901852608,0.17273813486099243,-0.7244423627853394,0.313312292098999,0.5551642521402756,-0.6391502589806731,0.24814914366405613,0.47085222992031067
1681410928013860900,1.36386083984375,-1.5208320617675781,1.3320679664611816,6.676363468170166,0.9079166054725647,0.41696226596832275,-0.04278215393424034,0.32325416803359985,-0.5885168313980103,0.2685665488243103,0.5336212157121104,-0.6369128490586334,0.2700943265744511,0.4864562550993673
1681410928023837200,1.373837158203125,-2.0189387798309326,1.3014824390411377,6.6989827156066895,0.9341805577278137,0.35601744055747986,-0.023634551092982292,0.48224717378616333,-0.4214470684528351,0.2384936809539795,0.5096053710464475,-0.6354753933437821,0.2904371685217385,0.5021153382385495
1681410928033814000,1.38381396484375,-2.6392621994018555,1.6520814895629883,6.612229347229004,0.955985963344574,0.2934019863605499,-0.0025072551798075438,0.6684800386428833,-0.3064787983894348,0.25591009855270386,0.4831473239696487,-0.6349020530839432,0.3092664795012475,0.5175155987302802
1681410928043790000,1.3937900390625,-3.588674306869507,2.1896004676818848,6.313234806060791,0.9727230668067932,0.2307138592004776,0.024109022691845894,0.8880253434181213,-0.3404703140258789,0.3323974609375,0.4533640429727307,-0.6368756387537058,0.3262574627732838,0.5314195117109914
1681410928053767000,1.403766845703125,-4.945329666137695,2.5938262939453125,5.673430919647217,0.9837952256202698,0.17033909261226654,0.05596167966723442,1.1410675048828125,-0.25156164169311523,0.31558990478515625,0.41964074312104754,-0.6426138029987124,0.3391582809177409,0.5439860876493263
1681410928063743000,1.413742919921875,-5.228206157684326,1.608452558517456,4.549243450164795,0.9895752668380737,0.1160811111330986,0.08524105697870255,1.5771666765213013,0.1842728853225708,0.3716682195663452,0.3850621839600859,-0.6503091431949957,0.34600368260617015,0.5559735691266566
1681410928073719000,1.423718994140625,-4.383510112762451,-0.3002356290817261,4.162021636962891,0.9929060935974121,0.06935639679431915,0.09657923132181168,2.2841477394104004,0.820169985294342,0.32923269271850586,0.3561448401508117,-0.6537731790674081,0.3476639848558442,0.5699748996311885
1681410928083695900,1.43369580078125,-3.059634208679199,-1.7155139446258545,3.674264430999756,0.9958377480506897,0.026489371433854103,0.08721090108156204,3.11411714553833,1.4087523221969604,-0.007834553718566895,0.33441921966436466,-0.6501022107497852,0.3478111052262416,0.5869910006693688
1681410928093672000,1.443671875,-1.484060287475586,-1.8843790292739868,2.6469802856445312,0.9975899457931519,-0.007326277904212475,0.06900065392255783,3.7920525074005127,2.171968698501587,-0.5081179141998291,0.3207883795839239,-0.6427036448655246,0.3484714482421391,0.6021583710849695
1681410928103649000,1.45364892578125,-0.3456033766269684,-1.8814077377319336,1.3536458015441895,0.9983522891998291,-0.027801094576716423,0.05020084232091904,3.339752197265625,2.7869715690612793,-0.8097984790802002,0.31518835536339807,-0.6349276336757635,0.3492382020960006,0.6128262675405752
1681410928113625000,1.463625,0.11019273102283478,-2.0966897010803223,0.2710421681404114,0.9988938570022583,-0.035820212215185165,0.030468758195638657,2.3772048950195312,2.762840509414673,-0.7694518566131592,0.315963033987758,-0.6275459906797201,0.34845431388048803,0.620429804030554
1681410928123602000,1.473601806640625,-0.0895688533782959,-2.180393934249878,-0.5554434657096863,0.9993746280670166,-0.034212857484817505,0.008951284922659397,1.729629397392273,2.513582944869995,-0.28229713439941406,0.3202962339743559,-0.6210539263963998,0.3446268460870666,0.6268451349942946
1681410928133578000,1.483577880859375,-0.32612699270248413,-1.982690691947937,-0.9973662495613098,0.9995830655097961,-0.026251064613461494,-0.012047040276229382,1.2698416709899902,2.282217264175415,0.14560729265213013,0.32571675944650486,-0.6161646938240904,0.33810878448549225,0.6324020840047225
1681410928143554000,1.493553955078125,-0.47008150815963745,-1.7310675382614136,-1.2052505016326904,0.9994162917137146,-0.015144361183047295,-0.030625229701399803,0.813083827495575,2.0382614135742188,0.2489480972290039,0.3310463635810033,-0.6128095002041979,0.3303814492365624,0.6369623278957176
1681410928153531100,1.50353125,-0.4178985357284546,-1.6526981592178345,-1.3735276460647583,0.9988771677017212,-0.0020927484147250652,-0.047332294285297394,0.38688039779663086,1.694475531578064,0.11099207401275635,0.33651233339050995,-0.61033258179066,0.3222235127390404,0.6406447923317311
1681410928163507000,1.5135068359375,-0.4459248185157776,-1.829365849494934,-1.5342715978622437,0.9978376030921936,0.012611049227416515,-0.06450661271810532,0.057506024837493896,1.35846745967865,-0.05904369801282883,0.3426284291854259,-0.6078155326182327,0.3135394285726109,0.6440955693652255
1681410928173484000,1.523484130859375,-0.5596755146980286,-2.1387031078338623,-1.7257330417633057,0.9960286617279053,0.02916891500353813,-0.08412173390388489,-0.18596994876861572,1.1011717319488525,-0.16627490520477295,0.34940805794621904,-0.6047962890852183,0.30357961218616447,0.64805484666093
1681410928183460000,1.533460205078125,-0.7549688220024109,-2.340855121612549,-1.963742971420288,0.9931750297546387,0.048069752752780914,-0.10626884549856186,-0.40401774644851685,0.9995376467704773,-0.21387571096420288,0.35678565543846386,-0.601354487889298,0.29195608636922155,0.6525631359649785
1681410928193437200,1.543437255859375,-0.9999428391456604,-2.325829267501831,-2.271024465560913,0.9891765713691711,0.07000250369310379,-0.12895567715168,-0.6830394268035889,0.9685717225074768,-0.22758112847805023,0.3644123061983323,-0.5982725636759954,0.27855359359216814,0.6570248460511054
1681410928203413000,1.5534130859375,-1.2601827383041382,-2.1583163738250732,-2.6254265308380127,0.9840186834335327,0.0957041084766388,-0.15016065537929535,-1.0535223484039307,0.8992147445678711,-0.23469644784927368,0.3721450747844415,-0.5962684028657219,0.2634077937264318,0.6607484702967584
1681410928213388800,1.563388916015625,-1.5785984992980957,-1.9280967712402344,-2.882028341293335,0.9777336120605469,0.12496968358755112,-0.1685812622308731,-1.4455223083496094,0.7568509578704834,-0.25222551822662354,0.37965897690684064,-0.5956892220676359,0.24670573071795066,0.6634378395452882
1681410928223366100,1.5733662109375,-1.9585285186767578,-1.75813889503479,-3.048078775405884,0.970327615737915,0.15693721175193787,-0.18394385278224945,-1.773138165473938,0.5384057760238647,-0.24534684419631958,0.38641855896703486,-0.5965005304422042,0.22850643707818027,0.6653215940503058
1681410928233342000,1.583342041015625,-2.225749969482422,-1.7056809663772583,-3.2229504585266113,0.9616149663925171,0.19112898409366608,-0.19689224660396576,-1.964895486831665,0.3526179790496826,-0.19007055461406708,0.39242275516099295,-0.5982863763551798,0.20882358403590326,0.6666713188705138
1681410928243319000,1.593319091796875,-2.1445319652557373,-1.779428243637085,-3.479966402053833,0.9511095881462097,0.22755542397499084,-0.2088286131620407,-1.988020420074463,0.27641189098358154,-0.11430668830871582,0.39865987815527515,-0.6001940397021837,0.1880234184150066,0.6674464927805541
1681410928253294800,1.603294921875,-1.6865025758743286,-1.8893858194351196,-3.7434515953063965,0.9382632374763489,0.2657547891139984,-0.22144241631031036,-1.869537591934204,0.285758912563324,-0.06588047742843628,0.40657023368851325,-0.6011287469292586,0.16710182110834962,0.6673994509443842
1681410928263272000,1.61327197265625,-1.2403589487075806,-1.9920742511749268,-3.9706692695617676,0.9228360056877136,0.3049176037311554,-0.2353701889514923,-1.7092739343643188,0.3074481189250946,0.005313470959663391,0.4165712707905422,-0.6006640357056076,0.14668886740918224,0.666448481661967
1681410928273248000,1.623248046875,-0.8429169058799744,-2.0094728469848633,-4.148655891418457,0.9047736525535583,0.3445456027984619,-0.2503461539745331,-1.594287633895874,0.2929971516132355,0.06630998849868774,0.42835740673152994,-0.5989495268206784,0.12683211959376448,0.6645924720958993
1681410928283224000,1.63322412109375,-0.6929559111595154,-1.9668699502944946,-4.310353755950928,0.8840381503105164,0.3846743404865265,-0.2655230164527893,-1.526707649230957,0.2440030872821808,0.12086975574493408,0.44144110631889083,-0.5964400885149631,0.10722741957950145,0.6617336863723883
1681410928293201000,1.643200927734375,-0.7920645475387573,-1.9460827112197876,-4.4795966148376465,0.8609256148338318,0.42498695850372314,-0.27963095903396606,-1.4739930629730225,0.10902494192123413,0.13262784481048584,0.45471822989972416,-0.5937590294633771,0.087376988489092,0.6580630699365734
1681410928303177000,1.653177001953125,-1.094462513923645,-1.922995686531067,-4.643166542053223,0.8351141214370728,0.46626535058021545,-0.291858047246933,-1.4039007425308228,-0.042421936988830566,0.14584675431251526,0.4676374106914922,-0.5913238421696416,0.06638595813856993,0.6536393225769821
1681410928313154000,1.663154052734375,-1.4456807374954224,-1.9162724018096924,-4.783838272094727,0.8064857125282288,0.5086783170700073,-0.30137595534324646,-1.3059210777282715,-0.17266440391540527,0.15890467166900635,0.47974251502187,-0.5893990963186754,0.04382610144470714,0.648486933282929
1681410928323129900,1.6731298828125,-1.7736661434173584,-1.8925271034240723,-4.86658239364624,0.7751308083534241,0.5517059564590454,-0.3078848123550415,-1.2065577507019043,-0.28568416833877563,0.15224522352218628,0.4908696403845272,-0.587932199834776,0.019832323893215594,0.6426426483893161
1681410928333107000,1.68310693359375,-2.0761208534240723,-1.7919565439224243,-4.8965349197387695,0.7414814233779907,0.5946343541145325,-0.3108305335044861,-1.1218829154968262,-0.3954460024833679,0.14875170588493347,0.50086718809662,-0.5869902914146996,-0.005208789649361701,0.636040554642675
1681410928343083000,1.6930830078125,-2.2955362796783447,-1.6326770782470703,-4.929263114929199,0.7059729099273682,0.6368919014930725,-0.309792160987854,-1.0561773777008057,-0.48457860946655273,0.14293736219406128,0.5097973101782265,-0.5866459989585083,-0.03082838167066093,0.6284926220936312
1681410928353059000,1.70305908203125,-2.4105286598205566,-1.4169660806655884,-4.96349573135376,0.6688271164894104,0.678078293800354,-0.30476272106170654,-1.0025215148925781,-0.5222249031066895,0.13241475820541382,0.5179565336567702,-0.5868708846244385,-0.05657921842749355,0.6197600640102114
1681410928363036000,1.713035888671875,-2.3005990982055664,-1.2311985492706299,-4.982326030731201,0.6302183270454407,0.7174320816993713,-0.2968437969684601,-0.9477384090423584,-0.5078067779541016,0.09799128770828247,0.5258189485475182,-0.5872626563614061,-0.08185768149853863,0.6098659237913922
1681410928373012000,1.723011962890625,-2.0339479446411133,-1.027487874031067,-5.012532711029053,0.5902167558670044,0.7542270421981812,-0.2877252697944641,-0.8635779619216919,-0.4474490284919739,0.039358049631118774,0.5339759750964874,-0.5872720656901292,-0.10606079195364117,0.5989426650301878
1681410928382989000,1.732989013671875,-1.6046921014785767,-0.8518438339233398,-5.052469253540039,0.5488193035125732,0.7879956960678101,-0.27903473377227783,-0.744421660900116,-0.3585827946662903,-0.03132897615432739,0.5429719856503644,-0.5864399560859537,-0.12872765671483044,0.5871107050173144
1681410928392965000,1.742965087890625,-1.0972564220428467,-0.6863619089126587,-5.049559593200684,0.5061757564544678,0.8183274269104004,-0.2722621560096741,-0.626537024974823,-0.25579679012298584,-0.09136998653411865,0.5531441397366021,-0.5843923954125098,-0.1495140639035018,0.5745980245704102
1681410928402942000,1.75294189453125,-0.6001478433609009,-0.5382059812545776,-4.9064555168151855,0.4630868136882782,0.8447631597518921,-0.2681904137134552,-0.5266854166984558,-0.17246079444885254,-0.12627971172332764,0.5643395910280853,-0.5810594250230837,-0.16815092423150493,0.5617973371638691
1681410928412918000,1.76291796875,-0.34670963883399963,-0.3741801083087921,-4.63100528717041,0.421120285987854,0.8669824004173279,-0.26645731925964355,-0.4439321458339691,-0.10263901948928833,-0.11933058500289917,0.5758713327817852,-0.5768389035252097,-0.18446740442464063,0.5491821631874031
1681410928422894000,1.77289404296875,-0.4602961242198944,-0.17045389115810394,-4.39209508895874,0.38097286224365234,0.8860329389572144,-0.26420721411705017,-0.39200496673583984,0.03329390287399292,-0.07337817549705505,0.5867001198509763,-0.5728861402871717,-0.19924324443592184,0.5365507154323134
1681410928432871200,1.78287109375,-0.5406744480133057,0.30751875042915344,-4.4171342849731445,0.34195753931999207,0.9031532406806946,-0.2595755457878113,-0.4126362204551697,0.37545710802078247,-0.08946919441223145,0.5969120215173166,-0.5699792684039864,-0.21292219277281008,0.5229568965476902
1681410928442847000,1.792846923828125,-0.04385296255350113,1.1264549493789673,-4.529724597930908,0.30291512608528137,0.9185652136802673,-0.2539299428462982,-0.5105414986610413,0.9756609201431274,-0.2672949731349945,0.608142637447726,-0.5679903259713477,-0.2245484874869892,0.5070774387530319
1681410928452823800,1.80282373046875,0.9960411190986633,2.210235595703125,-4.248837471008301,0.2665727734565735,0.9296931028366089,-0.254184752702713,-0.5921342372894287,1.8368170261383057,-0.6938132047653198,0.622478658153623,-0.5654685522298658,-0.23054921814950985,0.4895026384077608
1681410928462800100,1.812800048828125,1.1038429737091064,3.0236499309539795,-4.572583198547363,0.2328469306230545,0.9377943873405457,-0.25753480195999146,-0.4564949870109558,2.7708849906921387,-1.1815367937088013,0.6389001166864409,-0.5634151294796342,-0.23193963544531446,0.4696532123942024
1681410928472777000,1.82277685546875,1.6939047574996948,3.5187408924102783,-5.333711624145508,0.19452834129333496,0.944918692111969,-0.2632254660129547,0.06505419313907623,3.5544862747192383,-1.4192848205566406,0.6578970798627998,-0.5607787273281033,-0.2321949194885054,0.4458523784103575
1681410928482753000,1.8327529296875,2.3704264163970947,3.5999646186828613,-4.648215293884277,0.15590597689151764,0.9483485221862793,-0.27627643942832947,0.910668134689331,4.328903675079346,-1.3719626665115356,0.6788555930561592,-0.5558651928532345,-0.22994711262145362,0.4210622862994323
1681410928492728800,1.842728759765625,2.7241578102111816,1.9693979024887085,-3.787853717803955,0.12515810132026672,0.9467164874076843,-0.2967548668384552,2.0676214694976807,4.76104736328125,-1.2283306121826172,0.6977016707538188,-0.5481660181146507,-0.2261340020642602,0.40198245549775774
1681410928502706200,1.8527060546875,2.264863967895508,0.7274202704429626,-4.41721248626709,0.0904879942536354,0.9433206915855408,-0.3193090856075287,3.39738130569458,4.478783130645752,-0.7268182039260864,0.7140017888541279,-0.537070121520858,-0.22781822647094352,0.38711261350470305
1681410928512682000,1.862681884765625,1.0801777839660645,0.9055163264274597,-4.78315544128418,0.04939861595630646,0.9409412741661072,-0.33494681119918823,3.5872132778167725,3.104346752166748,0.0774853527545929,0.7281927654594892,-0.5269757985989796,-0.2341433327856299,0.3704169902947768
1681410928522657000,1.872656982421875,-0.49144381284713745,1.6195518970489502,-4.689028739929199,0.008987585082650185,0.9413305521011353,-0.33736667037010193,2.4170377254486084,1.4314723014831543,0.5182139277458191,0.7390114376502328,-0.5225194399323109,-0.241433419797584,0.350065159815447
1681410928532632800,1.8826328125,-1.8952513933181763,2.184614896774292,-4.337383270263672,-0.027257727459073067,0.9449132084846497,-0.32618460059165955,1.6184442043304443,0.41781890392303467,0.5766729712486267,0.7458499711688525,-0.5247047123192973,-0.24817868079405742,0.32680323674175416
1681410928542610000,1.89260986328125,-2.825291156768799,2.5110201835632324,-3.713336944580078,-0.05804559215903282,0.9507778286933899,-0.30438873171806335,1.2980968952178955,-0.20167797803878784,0.5627506375312805,0.748803096232793,-0.5323474887331142,-0.2537947645269222,0.30247068417867184
1681410928552585700,1.902585693359375,-2.8111331462860107,2.5818076133728027,-2.8211960792541504,-0.0818023830652237,0.9568373560905457,-0.2788744270801544,1.1462249755859375,-0.6446424126625061,0.5142565965652466,0.7491362584345914,-0.5426030477341593,-0.25718615425148206,0.2797003825201054
1681410928562562800,1.912562744140625,-2.0257441997528076,2.6005725860595703,-1.836721420288086,-0.0972093716263771,0.9613384008407593,-0.2576414942741394,1.1029771566390991,-0.8479197025299072,0.3963592052459717,0.7488967869601932,-0.5523025611379061,-0.25717917559255893,0.2607193619132219
1681410928572539000,1.922538818359375,-0.7434623837471008,2.5146656036376953,-0.8269316554069519,-0.1035764217376709,0.9635376334190369,-0.24671314656734467,1.0553739070892334,-0.8705199956893921,0.25396114587783813,0.7499473398395163,-0.5590975613449576,-0.2530876141333325,0.24685167798421503
1681410928582515000,1.932514892578125,0.764046847820282,2.3975043296813965,0.1372985690832138,-0.10074342787265778,0.9631698131561279,-0.24930886924266815,0.9557086229324341,-0.7486158609390259,0.10489976406097412,0.7534340262644421,-0.5616179500781089,-0.24480777413603536,0.2387295349194567
1681410928592491800,1.94249169921875,2.084824323654175,2.3656694889068604,0.9656303524971008,-0.0892900601029396,0.9599686861038208,-0.2654946744441986,0.8403581380844116,-0.6003952622413635,0.02721351385116577,0.7596682803491713,-0.559618068283625,-0.23255165674071637,0.2359056937622259
1681410928602468000,1.952468017578125,2.753528594970703,2.443981647491455,1.6550966501235962,-0.0700611025094986,0.9541504383087158,-0.29101309180259705,0.7021869421005249,-0.6681700944900513,0.06977599859237671,0.7676698591175841,-0.5544984856886658,-0.2168522145824335,0.23704367605671728
1681410928612445000,1.96244482421875,2.5586442947387695,2.6186537742614746,2.1875641345977783,-0.04405643045902252,0.9470164179801941,-0.3181493580341339,0.5657849311828613,-1.0165659189224243,0.2447088658809662,0.7754449114086581,-0.5490810238198361,-0.19858336941462965,0.24033292441916038
1681410928622421000,1.9724208984375,1.7213879823684692,2.824384927749634,2.5517256259918213,-0.012708510272204876,0.9405826330184937,-0.33932745456695557,0.48235878348350525,-1.5008699893951416,0.5260035395622253,0.781045814469127,-0.5461954017007202,-0.1789045980597893,0.24419545046614413
1681410928632397800,1.982397705078125,0.6425348520278931,2.8960492610931396,2.7697834968566895,0.022180456668138504,0.9363790154457092,-0.35028940439224243,0.4572049379348755,-1.9905171394348145,0.7972956895828247,0.783422988659699,-0.5473466653976289,-0.15895573049099374,0.24777679405579547
1681410928642374000,1.992373779296875,-0.47671160101890564,2.773317813873291,2.8771283626556396,0.058544132858514786,0.9349376559257507,-0.3499491512775421,0.4957771897315979,-2.4201669692993164,0.9534342885017395,0.7822551577930689,-0.5526579112549225,-0.13998093215486276,0.2511008511492659
1681410928652350000,2.002349853515625,-1.4530528783798218,2.5324933528900146,3.0104401111602783,0.09506472200155258,0.9360685348510742,-0.33873096108436584,0.5772070288658142,-2.70312762260437,0.9718791246414185,0.7775643092770538,-0.5617597769715136,-0.12272114220281932,0.2544787767573319
1681410928662326800,2.012326904296875,-2.024387836456299,2.13908314704895,3.379567861557007,0.13249672949314117,0.9382498264312744,-0.3195810914039612,0.6725722551345825,-2.742341995239258,0.9183818101882935,0.7698445997892194,-0.5733907498248891,-0.10692290688099812,0.25909449648503874
1681410928672302800,2.022302734375,-2.1689810752868652,1.6310850381851196,3.9391260147094727,0.1725165843963623,0.9392024874687195,-0.29687821865081787,0.7558891773223877,-2.5555813312530518,0.9221224784851074,0.7598678557970946,-0.5857536793794834,-0.09194300379478273,0.2665332326451749
1681410928682280000,2.032280029296875,-2.0200681686401367,1.2334935665130615,4.544395923614502,0.21626847982406616,0.9369701743125916,-0.2744355797767639,0.7842961549758911,-2.276798725128174,0.8678194284439087,0.7485052193401449,-0.5973802288478903,-0.07693546068562569,0.2774126466395094
1681410928692256000,2.042256103515625,-1.8088446855545044,1.0023466348648071,5.142405986785889,0.26430436968803406,0.9303992986679077,-0.2539692521095276,0.6994712352752686,-2.0191445350646973,0.7693196535110474,0.736276182779022,-0.6076980212813542,-0.06097944023394046,0.2913451865554385
1681410928702232800,2.05223291015625,-1.601525068283081,0.822109580039978,5.745951175689697,0.3167564272880554,0.9187859296798706,-0.23558075726032257,0.5533608198165894,-1.798531174659729,0.6537631750106812,0.7231688848542026,-0.6166930316201049,-0.0435812782877571,0.3079244131658269
1681410928712209000,2.062208984375,-1.420608639717102,0.631618320941925,6.2935791015625,0.3731524646282196,0.9014440178871155,-0.21944497525691986,0.4585736393928528,-1.5952458381652832,0.5682914853096008,0.7091016869092616,-0.6242332930504713,-0.02470436044693296,0.3269516919407477
1681410928722185000,2.07218505859375,-1.4464302062988281,0.45098596811294556,6.687952995300293,0.4320317208766937,0.8783296942710876,-0.20466001331806183,0.47821614146232605,-1.4555084705352783,0.5194031596183777,0.69375955323017,-0.6305921967731873,-0.004844883757197491,0.34789052774139784
1681410928732162000,2.082162109375,-1.712904930114746,0.2724124789237976,6.9667134284973145,0.49165353178977966,0.8499109745025635,-0.18954774737358093,0.5770720839500427,-1.368969202041626,0.4673646092414856,0.6765835328981336,-0.636392809243415,0.015176146043135857,0.37014691623193186
1681410928742137900,2.092137939453125,-2.045250654220581,0.12420811504125595,7.235598087310791,0.551031231880188,0.8163834810256958,-0.17286714911460876,0.6868839263916016,-1.2591780424118042,0.4434818625450134,0.657023387341611,-0.6421458356625362,0.0348589720892293,0.3933879837194132
1681410928752115000,2.102114990234375,-2.127974271774292,0.22359967231750488,7.508588790893555,0.6099536418914795,0.7770839929580688,-0.15523383021354675,0.7952284216880798,-1.1119226217269897,0.4205842614173889,0.635304599207911,-0.6475921282056526,0.054840834012196804,0.41713937481179747
1681410928762091000,2.112091064453125,-2.2011682987213135,0.7912399172782898,7.607968330383301,0.6676928997039795,0.7319613695144653,-0.13571767508983612,0.9198927283287048,-0.9251527190208435,0.3370422124862671,0.611894705229578,-0.6529346110161771,0.07627291478059632,0.43982269310667194
1681410928772068000,2.122068115234375,-1.7986198663711548,1.2748886346817017,7.276707172393799,0.7220625877380371,0.6823886036872864,-0.11389318108558655,1.0798784494400024,-0.5833132266998291,0.2737748622894287,0.5879150560088281,-0.65814358830293,0.09950088001416636,0.459676628945628
1681410928782044000,2.1320439453125,-1.088189721107483,2.3644301891326904,6.885422229766846,0.7698290348052979,0.6316754221916199,-0.09137541055679321,1.3712079524993896,0.09061461687088013,0.3265897035598755,0.565980061227752,-0.6624347800936451,0.12446869706027411,0.47471500380767767
1681410928792020000,2.14202001953125,0.5889027714729309,0.9639832377433777,6.563216686248779,0.8122808933258057,0.5785780549049377,-0.07380662858486176,2.020833969116211,1.077794075012207,0.2874297499656677,0.5470385819841328,-0.6635160535163415,0.1511394425966433,0.4874958723264077
1681410928801997000,2.1519970703125,2.678126811981201,-1.0146887302398682,5.458154201507568,0.8456616401672363,0.526874840259552,-0.08520342409610748,3.4497790336608887,2.5664784908294678,-0.10400545597076416,0.5381027205856106,-0.6532531829492018,0.17509588011015928,0.5030381101751985
1681410928811972900,2.161972900390625,1.9852529764175415,-0.818621814250946,3.5290772914886475,0.867592453956604,0.48586440086364746,-0.10592136532068253,5.0040202140808105,3.6775572299957275,-0.6075337529182434,0.5353571523099848,-0.640073090341048,0.1932504998750502,0.5160944660567784
1681410928821950000,2.171949951171875,0.9751742482185364,-1.1836527585983276,1.801397442817688,0.8789522647857666,0.4614159166812897,-0.1205763891339302,4.634490966796875,3.5883584022521973,-0.9898819327354431,0.5340402145433514,-0.6312963660762773,0.20292044123418945,0.5244897369669999
1681410928831925800,2.18192578125,0.27877336740493774,-2.5243735313415527,0.8051117062568665,0.8822703957557678,0.4495237469673157,-0.1397417187690735,3.5489280223846436,3.6197969913482666,-1.1457806825637817,0.5345472387371522,-0.6234532927682055,0.20355622178263397,0.5330387593602758
1681410928841902800,2.19190283203125,-0.39991724491119385,-3.280362129211426,0.4723646640777588,0.8804665803909302,0.4442843198776245,-0.16550028324127197,3.047740936279297,3.254568338394165,-0.6546137928962708,0.5356937699767362,-0.6150575187779587,0.19736794499346602,0.5438589148119328
1681410928851879000,2.20187890625,-1.1153488159179688,-3.302841901779175,0.4706931412220001,0.876591145992279,0.44159552454948425,-0.19126366078853607,2.5287587642669678,2.56870436668396,0.08561185002326965,0.5353003285068288,-0.6075320804281369,0.18781090804411363,0.5559547292411415
1681410928861856000,2.21185595703125,-1.578975796699524,-3.084059000015259,0.5601977109909058,0.8724194169044495,0.43986329436302185,-0.21308447420597076,1.6194477081298828,1.9171924591064453,0.29444438219070435,0.5326311049808153,-0.6017633096110566,0.17702734706878007,0.5681958702816614
1681410928871831800,2.221831787109375,-1.8409960269927979,-3.0320563316345215,0.6532679796218872,0.8683195114135742,0.43841102719306946,-0.2319856435060501,0.7281466722488403,1.3708999156951904,0.09363424777984619,0.5283735638273169,-0.5970686163703363,0.16588020381828741,0.5803571317035137
1681410928881808000,2.231807861328125,-2.0004265308380127,-3.289013385772705,0.7877852916717529,0.8638796210289001,0.4368475377559662,-0.2507518529891968,0.0807158350944519,0.9732630252838135,-0.10049015283584595,0.5230559225103532,-0.5923459369171854,0.1541115292327206,0.5931177133677923
1681410928891785000,2.241784912109375,-1.878823161125183,-3.6450631618499756,0.8301528692245483,0.8584131598472595,0.4348800778388977,-0.27204111218452454,-0.37600642442703247,0.7813370227813721,-0.1613236665725708,0.5173800844616528,-0.5864408012092409,0.14165673197032347,0.6069090015270918
1681410928901760800,2.2517607421875,-1.4869701862335205,-3.6992714405059814,0.5491099953651428,0.8509678244590759,0.4335973262786865,-0.29639026522636414,-0.7973942160606384,0.7550318241119385,-0.1594354808330536,0.5128172024200723,-0.578926192355481,0.12903227769245243,0.620655887404477
1681410928911737900,2.26173779296875,-1.3186577558517456,-3.06990385055542,0.07064489275217056,0.8418174386024475,0.43517521023750305,-0.31932148337364197,-1.3753409385681152,0.6892907619476318,-0.14555275440216064,0.5099819196827935,-0.5715539172836599,0.11689903791741864,0.632122906385789
1681410928921714000,2.2717138671875,-1.4477756023406982,-2.2763020992279053,-0.21120703220367432,0.8327047228813171,0.44050082564353943,-0.33550283312797546,-2.119386672973633,0.5127158164978027,-0.09903693199157715,0.5078692330528676,-0.5666712134757725,0.10550983324822931,0.6401722228265438
1681410928931691000,2.28169091796875,-1.5641653537750244,-2.049015760421753,-0.07865221798419952,0.8248115181922913,0.44698187708854675,-0.3462561070919037,-2.7244086265563965,0.3616424798965454,-0.058284878730773926,0.5051535340745484,-0.5638050265952589,0.09484640372138976,0.6464890489057846
1681410928941666800,2.291666748046875,-1.4844177961349487,-2.448759078979492,-0.08806382864713669,0.8167456388473511,0.45282885432243347,-0.3575931787490845,-2.799274206161499,0.2477937638759613,0.014056861400604248,0.5020208524205859,-0.5604705991434553,0.08411964721169103,0.6532778068182679
1681410928951643000,2.301642822265625,-1.3273497819900513,-2.896998167037964,-0.5071735978126526,0.8056829571723938,0.4602164924144745,-0.37292900681495667,-2.3428683280944824,0.16162508726119995,0.11861082911491394,0.5000771474439242,-0.5552907168335369,0.07202576220079346,0.6605963874817958
1681410928961620000,2.311619873046875,-1.16521418094635,-3.053110122680664,-1.003340244293213,0.7907165884971619,0.4710245132446289,-0.3910285234451294,-1.901190161705017,0.1273031234741211,0.24141618609428406,0.500148708981435,-0.5487109616207956,0.058326825191030135,0.6673571910876025
1681410928971596000,2.321595947265625,-1.0296945571899414,-2.893686056137085,-1.3923362493515015,0.7730361223220825,0.4847591519355774,-0.40917474031448364,-1.798670768737793,0.11112716794013977,0.4308727979660034,0.5019766394892798,-0.5417397088878255,0.04394000211876836,0.6727607341833101
1681410928981572900,2.33157275390625,-1.0205755233764648,-2.5827438831329346,-1.7219988107681274,0.7539570927619934,0.5008906722068787,-0.42503824830055237,-1.9059498310089111,0.04752558469772339,0.6449632048606873,0.5049896737399591,-0.5353639917891729,0.029432625013717132,0.6763909810576395
1681410928991549000,2.341548828125,-1.107486367225647,-2.2962987422943115,-2.0479986667633057,0.7338739633560181,0.5194312930107117,-0.4377445578575134,-2.032442569732666,-0.058631062507629395,0.7716679573059082,0.5088194634790919,-0.5300111877636371,0.014692041849242754,0.6782147372215459
1681410929001525800,2.35152587890625,-1.3019911050796509,-2.0959692001342773,-2.3512370586395264,0.7125447392463684,0.5406219959259033,-0.44722265005111694,-2.0591633319854736,-0.17785948514938354,0.8264341354370117,0.513199006376046,-0.5257262775050312,-0.0007499912511473833,0.6784086488979894
1681410929011502000,2.361502197265625,-1.563683032989502,-1.9654346704483032,-2.603895425796509,0.6897108554840088,0.5644166469573975,-0.4535782039165497,-1.9716778993606567,-0.3074737787246704,0.7946579456329346,0.5177746318005549,-0.5224093738855191,-0.017301742435158814,0.6772731041433205
1681410929021479000,2.37147900390625,-1.8706709146499634,-1.7812310457229614,-2.7991623878479004,0.6653870344161987,0.5906702876091003,-0.45647451281547546,-1.8317534923553467,-0.41589605808258057,0.7178881168365479,0.5222652668763108,-0.5201253780881347,-0.03510455753243541,0.6748899641765489
1681410929031454700,2.381454833984375,-2.1314139366149902,-1.5353951454162598,-2.9518611431121826,0.6404324173927307,0.6185619831085205,-0.45522254705429077,-1.702840805053711,-0.47877615690231323,0.6262125968933105,0.5263746119993796,-0.5191429677209183,-0.05365917775641848,0.6712236531996795
1681410929041431000,2.39143115234375,-2.3045763969421387,-1.2764590978622437,-3.0650136470794678,0.6150528788566589,0.6474776268005371,-0.44998082518577576,-1.5916459560394287,-0.4982924461364746,0.5370932817459106,0.5302315596580148,-0.5193666148837932,-0.07258031369040344,0.666216918612748
1681410929051408000,2.401407958984375,-2.392580986022949,-1.0622469186782837,-3.1171979904174805,0.5894067883491516,0.6765264272689819,-0.44148802757263184,-1.4745995998382568,-0.5101597905158997,0.447896808385849,0.5339014100401089,-0.5204681002988408,-0.09148194499144212,0.660070709413754
1681410929061384000,2.411384033203125,-2.425067901611328,-0.8560568690299988,-3.156066656112671,0.5636351108551025,0.7050748467445374,-0.4303313195705414,-1.3348143100738525,-0.5312924385070801,0.36618342995643616,0.5374041948880092,-0.5222172863655923,-0.11010654663879568,0.6529643772749821
1681410929071360800,2.42136083984375,-2.2061212062835693,-0.6934033036231995,-3.2036125659942627,0.5375419855117798,0.7324280142784119,-0.4178493320941925,-1.1863760948181152,-0.5382292866706848,0.2967403531074524,0.5411549738609084,-0.5240985247615614,-0.12804714283397964,0.6450396460238571
1681410929081337000,2.431337158203125,-1.812725305557251,-0.5062488317489624,-3.2544474601745605,0.5110877752304077,0.7575918436050415,-0.40600982308387756,-1.0498449802398682,-0.5111318230628967,0.23872774839401245,0.5457829595587538,-0.5254482985447624,-0.1445654598726973,0.6364950880370229
1681410929091314000,2.44131396484375,-1.3329737186431885,-0.3190619647502899,-3.3661952018737793,0.4840910732746124,0.78031325340271,-0.3959383964538574,-0.9357054233551025,-0.4646698832511902,0.17728003859519958,0.5517474388062572,-0.52596948769506,-0.15933265281852899,0.6273309055786404
1681410929101290000,2.4512900390625,-0.7600258588790894,-0.12192357331514359,-3.512014150619507,0.4560866951942444,0.800564706325531,-0.3886915147304535,-0.8340164422988892,-0.3340272307395935,0.09811848402023315,0.5594838560625024,-0.525345591789561,-0.17223895579317094,0.6175140213235173
1681410929111265800,2.461265869140625,-0.17908871173858643,0.023090925067663193,-3.6157801151275635,0.4270813763141632,0.8180745840072632,-0.3851696848869324,-0.7469208240509033,-0.16063427925109863,0.03923773765563965,0.5691368745479528,-0.5233378611771883,-0.18311919368136514,0.6071805642979863
1681410929121243000,2.471242919921875,0.15815269947052002,0.02806411124765873,-3.6277434825897217,0.3973581790924072,0.832923948764801,-0.3851550221443176,-0.6561167240142822,-0.046089112758636475,0.013695120811462402,0.5800874306244876,-0.5199999934798326,-0.19241229342497163,0.5967212523205858
1681410929131219000,2.481218994140625,0.13925300538539886,0.04957691580057144,-3.5689313411712646,0.36733248829841614,0.845956563949585,-0.38655468821525574,-0.5498580932617188,0.03153073787689209,0.0224800705909729,0.5912084359612204,-0.5160303245351425,-0.201085438401082,0.586302089601609
1681410929141196000,2.491196044921875,-0.24637484550476074,0.23753483593463898,-3.478510618209839,0.33785176277160645,0.8585255146026611,-0.3857332170009613,-0.47934651374816895,0.18824267387390137,0.09746423363685608,0.6014515128331103,-0.5129215283165826,-0.20986877876084073,0.5754326217699631
1681410929151171800,2.501171875,-0.48437538743019104,0.8020326495170593,-3.4141387939453125,0.31004980206489563,0.871137261390686,-0.38077425956726074,-0.5244357585906982,0.5332969427108765,0.1356419324874878,0.6107584663883154,-0.5118290972821602,-0.21827470630580315,0.5633482508772195
1681410929161149000,2.51114892578125,0.11964844912290573,1.730717420578003,-3.3152036666870117,0.28514254093170166,0.8821048736572266,-0.3749464154243469,-0.6594101190567017,1.1322994232177734,-0.0420609712600708,0.6208964244033526,-0.5122994296034238,-0.22377685821352283,0.5495097447425967
1681410929171125000,2.521125,0.6430303454399109,2.904399871826172,-3.2159905433654785,0.26522383093833923,0.8893296718597412,-0.3724904954433441,-0.7332566976547241,2.004225015640259,-0.4522317051887512,0.6333526871175107,-0.5135753263924713,-0.22359591190681433,0.5339567100794493
1681410929181101800,2.531101806640625,0.6328120231628418,3.5667667388916016,-4.120974540710449,0.24534887075424194,0.8961357474327087,-0.36979013681411743,-0.5951718688011169,2.896237850189209,-0.8283604383468628,0.6480225331902151,-0.516143353319993,-0.22068297247655902,0.5147445433992104
1681410929191078000,2.541077880859375,1.1729259490966797,3.899869680404663,-5.3218674659729,0.21613159775733948,0.9040043950080872,-0.3688678443431854,-0.12155760824680328,3.6760740280151367,-1.0552806854248047,0.666295567759179,-0.5174517823467686,-0.2186543653343112,0.4903920427918003
1681410929201054000,2.551053955078125,2.032393455505371,4.249995231628418,-4.890921115875244,0.18406784534454346,0.9084449410438538,-0.37529614567756653,0.6316059827804565,4.2856011390686035,-1.1137022972106934,0.6873487253388361,-0.5161118489185486,-0.21443062088271217,0.4638966148739978
1681410929211031000,2.561031005859375,2.4351372718811035,3.104088544845581,-3.9190773963928223,0.15918554365634918,0.9072077870368958,-0.3894023001194,1.6645907163619995,4.562870025634766,-0.9969043731689453,0.7070057511832295,-0.5122111408162677,-0.20721631868207702,0.4414115251871639
1681410929221006800,2.5710068359375,1.9943633079528809,1.4695510864257812,-4.252367973327637,0.1314973533153534,0.9040383100509644,-0.4067226052284241,2.8929624557495117,4.395644187927246,-0.5684055089950562,0.7237621027354236,-0.5047372357736003,-0.20464363921935064,0.42370955647331104
1681410929230984000,2.58098388671875,0.8845495581626892,1.2214512825012207,-4.598746299743652,0.09656058251857758,0.903099536895752,-0.4184345006942749,3.4357728958129883,3.332709789276123,0.06096690893173218,0.7379360922078335,-0.49745913201609776,-0.2081277429917389,0.4057926599600451
1681410929240960000,2.5909599609375,-0.26053035259246826,1.7297486066818237,-4.521851062774658,0.061328861862421036,0.9054523706436157,-0.4199937582015991,2.6602134704589844,1.7980846166610718,0.4904131591320038,0.7492553402662974,-0.4944088796421994,-0.2134548514141126,0.38550403670693834
1681410929250937000,2.60093701171875,-1.151051640510559,2.282970428466797,-4.195143699645996,0.03009641543030739,0.9104421138763428,-0.41254034638404846,1.786492943763733,0.7130168080329895,0.48282235860824585,0.7578091153719066,-0.4961809071429465,-0.2180236925908601,0.3633121439580432
1681410929260913000,2.610912841796875,-1.6556367874145508,2.65254807472229,-3.6866002082824707,0.004134553484618664,0.9169347882270813,-0.3990160822868347,1.3611913919448853,0.08686476945877075,0.3609912395477295,0.7638832162714015,-0.5016660876877984,-0.2209594844734375,0.34057418378725896
1681410929270890000,2.620889892578125,-1.5994092226028442,2.8927953243255615,-3.037053346633911,-0.015950778499245644,0.9232226610183716,-0.3839343190193176,1.1683708429336548,-0.2670031189918518,0.3310932219028473,0.7683058913877195,-0.5088617436117855,-0.2215684180153634,0.3188625076218606
1681410929280865800,2.63086572265625,-0.9828819632530212,3.0518925189971924,-2.300689697265625,-0.029401851817965508,0.9276095628738403,-0.37239232659339905,1.1050091981887817,-0.41744720935821533,0.3268449604511261,0.7723234257615119,-0.5156019091120427,-0.218994299088643,0.2995208093541695
1681410929290841900,2.640841796875,-0.017967205494642258,3.0724453926086426,-1.5815560817718506,-0.03598761186003685,0.9288623332977295,-0.36867302656173706,1.0820233821868896,-0.47154104709625244,0.24220824241638184,0.7771321053892705,-0.5199519562200036,-0.21286956010942543,0.2835530514301823
1681410929300819000,2.65081884765625,0.9564285278320312,3.0138187408447266,-0.9684322476387024,-0.036465927958488464,0.926621675491333,-0.3742228150367737,1.0425236225128174,-0.5097819566726685,0.11300766468048096,0.7832998089871482,-0.5209727301007961,-0.20365660015911421,0.2712065406252616
1681410929310794800,2.660794677734375,1.6353788375854492,2.955120086669922,-0.4236401617527008,-0.0315428227186203,0.9213553071022034,-0.3874397873878479,0.992556631565094,-0.5847005844116211,0.06645599007606506,0.790603112481694,-0.5190572551707467,-0.19198873212608106,0.2620433036454463
1681410929320771800,2.670771728515625,1.9163812398910522,2.898995876312256,0.11848222464323044,-0.02137734927237034,0.9141948819160461,-0.4047110974788666,0.9470517635345459,-0.7270457148551941,0.14532697200775146,0.7981533569633925,-0.515553985198895,-0.17846159503295916,0.25555237640643896
1681410929330748000,2.680747802734375,1.7955057621002197,2.8226521015167236,0.5864276885986328,-0.006326056085526943,0.9064749479293823,-0.42221248149871826,0.9219754934310913,-0.9751851558685303,0.31396669149398804,0.8049628307367847,-0.511940978478344,-0.16373819253047106,0.25127922245461504
1681410929340725000,2.69072509765625,1.2093216180801392,2.8284592628479004,0.9131717085838318,0.012572609819471836,0.8999186158180237,-0.4358766973018646,0.8996893763542175,-1.329422950744629,0.5181978940963745,0.8101011988866914,-0.5098957220928589,-0.14855301526649453,0.2483434853757729
1681410929350700800,2.70070068359375,0.42025914788246155,2.8483026027679443,1.191805124282837,0.034456562250852585,0.8961049914360046,-0.4425027668476105,0.8525826334953308,-1.7178059816360474,0.6963480710983276,0.8128741415257177,-0.5108446375358009,-0.1333655866561383,0.24594115155762472
1681410929360677000,2.710677001953125,-0.19873087108135223,2.7386796474456787,1.5333000421524048,0.0589589886367321,0.8950352072715759,-0.4420815110206604,0.8006296753883362,-2.038238763809204,0.8242684006690979,0.8132272973218846,-0.5147232649204969,-0.11840271196007114,0.24434063977156373
1681410929370654000,2.720654052734375,-0.6038841605186462,2.4266865253448486,1.9470356702804565,0.08581399917602539,0.8955832719802856,-0.43653932213783264,0.8085341453552246,-2.286543846130371,0.9111945629119873,0.8114902717705976,-0.5205105389126827,-0.10391879542683935,0.24444478980747236
1681410929380630000,2.730630126953125,-0.8238397240638733,1.9572352170944214,2.4729976654052734,0.11500092595815659,0.8964966535568237,-0.4278651177883148,0.8877456784248352,-2.4211244583129883,0.932961642742157,0.8079593025999966,-0.5271976847656679,-0.0901667434013507,0.24725359252058507
1681410929390606800,2.74060693359375,-0.8286263942718506,1.4588154554367065,3.092092990875244,0.14702530205249786,0.8963807821273804,-0.4181928038597107,0.9612815976142883,-2.3787567615509033,0.947474479675293,0.8029997406562709,-0.5338285030057544,-0.07701119326490313,0.25355075569073826
1681410929400583000,2.7505830078125,-0.7305552363395691,1.0744396448135376,3.7896206378936768,0.18288597464561462,0.8939331769943237,-0.40918973088264465,0.9494535326957703,-2.212643623352051,0.9404550790786743,0.7969318990031146,-0.5397540396775999,-0.06380211231373069,0.2636180884349501
1681410929410560000,2.76056005859375,-0.6357039213180542,0.8507921099662781,4.5544610023498535,0.22380805015563965,0.8882219791412354,-0.4012131094932556,0.8213732838630676,-2.0249404907226562,0.8769211769104004,0.7897396515896775,-0.5449099893278216,-0.04966436888598595,0.27734111485155133
1681410929420535800,2.770535888671875,-0.5986148715019226,0.7165837287902832,5.311112880706787,0.2704147696495056,0.8784697651863098,-0.3939124047756195,0.6474777460098267,-1.84798264503479,0.7822943925857544,0.7811967513124832,-0.5494428948128308,-0.03400448818622519,0.29442837385195303
1681410929430513000,2.780512939453125,-0.6965802311897278,0.5988356471061707,5.915870189666748,0.32191693782806396,0.8643129467964172,-0.3864361643791199,0.5230538249015808,-1.697396993637085,0.6792981624603271,0.7709860223073238,-0.553620002979064,-0.016935451472790446,0.3143229325758165
1681410929440488700,2.79048876953125,-0.9633253812789917,0.4686533808708191,6.3099446296691895,0.37623104453086853,0.8460813164710999,-0.37761983275413513,0.48434948921203613,-1.5847439765930176,0.5973159670829773,0.7588079945590683,-0.5578436161372853,0.0007600975633561904,0.33618517152299376
1681410929450465000,2.800465087890625,-1.3564026355743408,0.3597531318664551,6.535027503967285,0.4313596785068512,0.8244693279266357,-0.3663051426410675,0.5055605173110962,-1.4898288249969482,0.5503109097480774,0.7444033839206474,-0.5625953753527946,0.018272367022496423,0.35918857533776327
1681410929460441900,2.81044189453125,-1.6570053100585938,0.23843418061733246,6.700915336608887,0.4860866069793701,0.7995888590812683,-0.35267239809036255,0.5544866323471069,-1.372403621673584,0.5396078824996948,0.7278370661875925,-0.5678227977501377,0.03522877523836696,0.3828703261002031
1681410929470418000,2.82041796875,-1.8950722217559814,0.16218069195747375,6.807034492492676,0.5397398471832275,0.7711063027381897,-0.3377518653869629,0.6167391538619995,-1.209338665008545,0.5396867394447327,0.7094238892606577,-0.5731096771597586,0.05166594784651855,0.40693233873058887
1681410929480394800,2.830394775390625,-2.155200958251953,0.17958657443523407,6.780588150024414,0.5916159152984619,0.7393178343772888,-0.3215585947036743,0.6973856091499329,-0.9575489163398743,0.3959147334098816,0.6893258526999484,-0.5784934990519446,0.067571939566525,0.4308239794187132
1681410929490371000,2.84037109375,-2.1771764755249023,0.24515807628631592,6.222236156463623,0.6397127509117126,0.7057884931564331,-0.3043521046638489,0.8463254570960999,-0.4596031904220581,0.13169899582862854,0.6684114813004243,-0.5839553168275388,0.08258408855596816,0.45321315883382174
1681410929500348000,2.850347900390625,-2.065412759780884,1.3624273538589478,6.219188213348389,0.6841855049133301,0.6712648868560791,-0.28512102365493774,1.161349892616272,0.3838651776313782,0.06957542896270752,0.6478521674113421,-0.5897205681656909,0.09833176878077647,0.4720681678150553
1681410929510324000,2.860323974609375,-1.6857372522354126,0.8999810218811035,6.094430446624756,0.7284504771232605,0.632732629776001,-0.26269662380218506,1.6828503608703613,1.4304234981536865,0.12689346075057983,0.6263205662663563,-0.5959217177896619,0.11631421094901838,0.48894887173191515
1681410929520300800,2.87030078125,-1.2480032444000244,-1.357555627822876,4.4858078956604,0.7606416344642639,0.5961934924125671,-0.25686115026474,2.6820921897888184,2.648801565170288,-0.32716891169548035,0.6092276807293823,-0.595953082864773,0.12809898385190685,0.5072201037741899
1681410929530278000,2.88027783203125,-2.5894362926483154,-1.441684365272522,2.384193181991577,0.7767552137374878,0.5749119520187378,-0.25715306401252747,3.6774685382843018,3.4483423233032227,-0.5972779989242554,0.5957126091621826,-0.5956748378699513,0.12882143095909454,0.5231663808955062
1681410929540254000,2.89025390625,-2.402022361755371,-1.565268874168396,0.924306333065033,0.7823083400726318,0.5690077543258667,-0.2534243166446686,3.4773199558258057,3.6201095581054688,-0.7725307941436768,0.584565217329962,-0.5985661099188415,0.12250085342241403,0.5338498431741682
1681410929550231000,2.90023095703125,-1.3204739093780518,-2.31296443939209,0.07638583332300186,0.7799793481826782,0.5701295137405396,-0.25804030895233154,2.606693744659424,4.0042724609375,-1.157303810119629,0.5789325519125226,-0.5984564608384172,0.11326829528316715,0.5420861874083144
1681410929560206800,2.910206787109375,-0.4272158443927765,-2.7216110229492188,-0.20949599146842957,0.7727434039115906,0.5730593204498291,-0.2728938162326813,2.1043167114257812,3.88873291015625,-1.106454849243164,0.5780183312673197,-0.5940293761723662,0.10335466344070394,0.5498563134080762
1681410929570184000,2.920183837890625,0.12525109946727753,-2.872370719909668,-0.3446296453475952,0.7632452249526978,0.5755536556243896,-0.29358971118927,1.6323847770690918,3.273704767227173,-0.5341689586639404,0.579746268346064,-0.5868197890679773,0.09406209579220606,0.5573950712388457
1681410929580160000,2.930159912109375,0.4592397212982178,-2.8868534564971924,-0.4686346650123596,0.7520995140075684,0.5776789784431458,-0.3172280192375183,0.9370638132095337,2.436694860458374,-0.16734528541564941,0.5830900148733728,-0.5780108826323278,0.08537805003120692,0.5644645673716397
1681410929590137000,2.94013720703125,0.4693986177444458,-2.8440797328948975,-0.49805566668510437,0.7398342490196228,0.5797774195671082,-0.3413262665271759,0.278567910194397,1.6291307210922241,-0.09240478277206421,0.5870222308270278,-0.5686946185364371,0.07696296133079497,0.5710237954228938
1681410929600113000,2.95011279296875,0.2924427390098572,-2.8992650508880615,-0.26888158917427063,0.727432131767273,0.5813338160514832,-0.3645457327365875,-0.27223193645477295,1.0073959827423096,-0.0075245201587677,0.5903161992358102,-0.559488413453226,0.06855541995595094,0.5777540632658577
1681410929610090000,2.960090087890625,-0.14936980605125427,-3.0627646446228027,0.05066310986876488,0.715682864189148,0.5817027688026428,-0.3865490257740021,-0.6594083905220032,0.532158374786377,0.10888487100601196,0.5918218872140392,-0.5505940654253891,0.05976336249559115,0.5856804344916868
1681410929620066000,2.970066162109375,-0.9992004632949829,-3.1247470378875732,0.10618708282709122,0.7039978504180908,0.5831792950630188,-0.40532609820365906,-0.891070544719696,0.13775283098220825,0.23097920417785645,0.5908775611153921,-0.5430563709368349,0.04926185565520913,0.5945813782769749
1681410929630042000,2.9800419921875,-2.0587894916534424,-2.9952619075775146,-0.09926608204841614,0.6914480328559875,0.5893939137458801,-0.4177494943141937,-1.1328542232513428,-0.18790459632873535,0.3632603883743286,0.5873699251552633,-0.5383784039022318,0.03569249456216664,0.6032175842018028
1681410929640019000,2.99001904296875,-2.851681709289551,-2.771697521209717,-0.2948954999446869,0.6781192421913147,0.6012066006660461,-0.42273539304733276,-1.4520602226257324,-0.4269053339958191,0.44406723976135254,0.5817409149254396,-0.5369013862746042,0.01921458580112857,0.6106926348984895
1681410929649995000,2.9999951171875,-3.1491713523864746,-2.654923439025879,-0.357257217168808,0.6647181510925293,0.6162375211715698,-0.42237600684165955,-1.7221980094909668,-0.5505635738372803,0.46290338039398193,0.5747612883741854,-0.5374108937569378,0.0012383740070973745,0.6171205464477332
1681410929659971800,3.009971923828125,-2.873581647872925,-2.629723310470581,-0.3771781921386719,0.6513601541519165,0.631435751914978,-0.4207363724708557,-1.8298726081848145,-0.5477870106697083,0.440496563911438,0.5676185912213387,-0.537916257080278,-0.016670875666281525,0.6230389297318155
1681410929669948200,3.0199482421875,-2.172245740890503,-2.6801977157592773,-0.4893445074558258,0.6374943852424622,0.6448538303375244,-0.4216213822364807,-1.7732975482940674,-0.43545740842819214,0.4186002016067505,0.5617994116025379,-0.5367356380069996,-0.033228953079283544,0.6286431567184647
1681410929679925000,3.029925048828125,-1.32659113407135,-2.667623281478882,-0.6898109912872314,0.6223320364952087,0.6559292674064636,-0.42715319991111755,-1.6648277044296265,-0.2999110817909241,0.42130911350250244,0.5584406510245,-0.5330474985102697,-0.04778880427540193,0.6338144938272174
1681410929689900800,3.03990087890625,-0.6109580993652344,-2.5353426933288574,-0.893749475479126,0.6058668494224548,0.6648921966552734,-0.43685704469680786,-1.603532075881958,-0.2283838391304016,0.43998509645462036,0.5577354708113655,-0.5272108963205796,-0.06016767456200533,0.6382475657615759
1681410929699878000,3.0498779296875,-0.28634750843048096,-2.3589794635772705,-1.085788607597351,0.5884667038917542,0.6726410388946533,-0.4486214220523834,-1.5945854187011719,-0.24658501148223877,0.4610878825187683,0.5589970613178077,-0.5202519702099903,-0.07090257913801207,0.641742285583379
1681410929709854000,3.05985400390625,-0.37088021636009216,-2.2546043395996094,-1.329937219619751,0.5698930025100708,0.680992066860199,-0.45986080169677734,-1.5862045288085938,-0.3445509076118469,0.4751196503639221,0.5611978464429319,-0.5132636558501241,-0.08142494590856084,0.6441952510858322
1681410929719830000,3.069830078125,-0.6308732032775879,-2.199479579925537,-1.5843119621276855,0.5495890974998474,0.69144606590271,-0.46888619661331177,-1.5267161130905151,-0.4661957025527954,0.512633204460144,0.5636670798803618,-0.5068652350112636,-0.09297599631464623,0.6455405429176829
1681410929729806800,3.079806884765625,-0.9396727085113525,-2.140328884124756,-1.7825103998184204,0.527583122253418,0.7042208313941956,-0.47510969638824463,-1.435877799987793,-0.5877504348754883,0.5757110118865967,0.5660576923094858,-0.5012330337389347,-0.10588008902895986,0.645858884526838
1681410929739783200,3.089783203125,-1.2907973527908325,-2.000598192214966,-1.9339182376861572,0.5044760704040527,0.7191058993339539,-0.47790229320526123,-1.3609213829040527,-0.7279406785964966,0.6270570158958435,0.568115247759342,-0.49664246492498243,-0.1199796495477405,0.6451327404977162
1681410929749760000,3.099760009765625,-1.6036083698272705,-1.8096147775650024,-2.0780622959136963,0.4804912209510803,0.7360334396362305,-0.4768470227718353,-1.3202738761901855,-0.8426770567893982,0.6553901433944702,0.569857054029489,-0.49326593523338835,-0.13514880838067975,0.6431847244110629
1681410929759736000,3.109736083984375,-1.8363137245178223,-1.5983848571777344,-2.195185661315918,0.4564773142337799,0.7542100548744202,-0.47201254963874817,-1.305827260017395,-0.8878769874572754,0.6623201966285706,0.571267381849087,-0.4911794385064409,-0.15078620143959137,0.6400469365962723
1681410929769713000,3.119712890625,-1.9799590110778809,-1.3681976795196533,-2.2486658096313477,0.4325694441795349,0.7730112671852112,-0.4640446901321411,-1.2969034910202026,-0.8864755034446716,0.6337072253227234,0.5725000005621419,-0.4901385918418468,-0.1665587589123188,0.6358193697384825
1681410929779689000,3.12968896484375,-2.113698720932007,-1.102704405784607,-2.2702293395996094,0.40926334261894226,0.7918568253517151,-0.4532841444015503,-1.2607799768447876,-0.8738269209861755,0.5750798583030701,0.5735624405068527,-0.49010684177085173,-0.18208022181657924,0.6306095236763617
1681410929789666000,3.139666015625,-2.280540943145752,-0.8091815710067749,-2.311328887939453,0.3866826891899109,0.8107317090034485,-0.4395347237586975,-1.2021428346633911,-0.8644730448722839,0.5057884454727173,0.5744575446840584,-0.49122928597514015,-0.19729782022815373,0.6243124572688101
1681410929799642000,3.14964208984375,-2.413078546524048,-0.5345172882080078,-2.4050517082214355,0.36453577876091003,0.8296760320663452,-0.42279013991355896,-1.1400790214538574,-0.8438361287117004,0.42658963799476624,0.5752922264751376,-0.4935016548989704,-0.2122758636064466,0.6167933532818043
1681410929809618000,3.159617919921875,-2.3843495845794678,-0.2892439663410187,-2.5224483013153076,0.34219932556152344,0.8483109474182129,-0.40406471490859985,-1.062093734741211,-0.7777542471885681,0.3346830904483795,0.5764156817634355,-0.49646480593454945,-0.22691481286243959,0.6080932939164716
1681410929819595000,3.169594970703125,-2.0903096199035645,-0.09472295641899109,-2.6414527893066406,0.319348007440567,0.8657218217849731,-0.38541263341903687,-0.9551512002944946,-0.6743612289428711,0.22429513931274414,0.5783775581380255,-0.4993741505110834,-0.24066395656187167,0.5984863868523522
1681410929829571000,3.179571044921875,-1.5711755752563477,0.06273932754993439,-2.709089756011963,0.2959362268447876,0.8808794021606445,-0.36942315101623535,-0.8321300745010376,-0.5555466413497925,0.10428649187088013,0.5816969514574174,-0.5013535849901017,-0.2528497719330612,0.5885069091341791
1681410929839548200,3.189548095703125,-0.8495107293128967,0.25727206468582153,-2.604736566543579,0.2728223204612732,0.8928978443145752,-0.35819217562675476,-0.7320660948753357,-0.40847694873809814,0.014594793319702148,0.5866315974988211,-0.5019170041653372,-0.2626466048021546,0.5787569587921462
1681410929849524000,3.19952392578125,-0.11889461427927017,0.5194401144981384,-2.2735676765441895,0.25224050879478455,0.9009960889816284,-0.3529604375362396,-0.6846898198127747,-0.2242533564567566,0.0106143057346344,0.5929683355637796,-0.5011470481867959,-0.2690193509376741,0.5699728534081391
1681410929859500800,3.209500732421875,0.2856390178203583,0.8984390497207642,-2.0412209033966064,0.23544256389141083,0.9057967066764832,-0.3522772490978241,-0.7012933492660522,0.0068773627281188965,0.027554988861083984,0.6002271071538976,-0.4999026531951718,-0.27195351831843984,0.5620197275586931
1681410929869477000,3.21947705078125,0.6406071186065674,1.500388741493225,-2.215402126312256,0.22056078910827637,0.9091435074806213,-0.3532862067222595,-0.8048961162567139,0.44177818298339844,-0.0470585823059082,0.6087028864766186,-0.4991043886609393,-0.2724916558161279,0.5532847631918997
1681410929879454000,3.229453857421875,1.791209101676941,2.4026639461517334,-2.3965890407562256,0.2062932848930359,0.909939706325531,-0.35979583859443665,-0.9723913073539734,1.1983672380447388,-0.2695986032485962,0.6206006901263512,-0.49765412205148135,-0.2691513510640477,0.5429115274580696
1681410929889430000,3.239429931640625,2.8275532722473145,3.425079107284546,-2.4744997024536133,0.19515332579612732,0.9060373902320862,-0.3755152225494385,-1.0631495714187622,2.0638418197631836,-0.6145512461662292,0.636827149574608,-0.49484075113858383,-0.2595669842001365,0.5312334602608476
1681410929899406800,3.24940673828125,2.684241771697998,3.996436834335327,-3.493602752685547,0.18332873284816742,0.9007574319839478,-0.393734335899353,-0.8536015748977661,2.791320323944092,-0.9516330361366272,0.6560042099141647,-0.4918771922607337,-0.24736544161824867,0.5162612553589121
1681410929909383200,3.259383056640625,2.645890712738037,4.579180717468262,-4.955793380737305,0.1620236188173294,0.8975598216056824,-0.4100424349308014,-0.2681179940700531,3.493248462677002,-1.0756447315216064,0.6784075455611243,-0.4886899777161503,-0.23698287313289987,0.49475698999844253
1681410929919359000,3.26935888671875,3.1126058101654053,5.140169143676758,-4.386710166931152,0.13934829831123352,0.8928506970405579,-0.42825189232826233,0.5518290996551514,4.283967971801758,-1.0249340534210205,0.702635406184231,-0.4850491776722135,-0.22494744192113383,0.46949916586329826
1681410929929336000,3.279336181640625,3.3893914222717285,3.5869367122650146,-2.8379783630371094,0.12780363857746124,0.8831918835639954,-0.45126304030418396,1.6547890901565552,4.77714729309082,-0.9545749425888062,0.7235784605713788,-0.47993267475570284,-0.2098406709304772,0.4495172418748996
1681410929939311900,3.289311767578125,2.8803155422210693,1.164904236793518,-3.3521978855133057,0.11209617555141449,0.8719257116317749,-0.4766341745853424,3.1479594707489014,4.634208679199219,-0.6759079098701477,0.7401473666647179,-0.4701767945201634,-0.2015358371120858,0.4364620077663174
1681410929949289000,3.2992890625,1.5327966213226318,0.6085011959075928,-4.01962423324585,0.08342868834733963,0.8648151755332947,-0.4951106905937195,4.003195285797119,3.5042951107025146,-0.015570372343063354,0.754108939230939,-0.4597985232972772,-0.20255855463393904,0.42293646036535226
1681410929959265000,3.30926513671875,0.13142845034599304,1.0063036680221558,-3.894106864929199,0.05297917127609253,0.8634042143821716,-0.50172358751297,3.0586845874786377,1.7339926958084106,0.5232537984848022,0.765064592353756,-0.4542215017477578,-0.2069324614452359,0.406863796238126
1681410929969242000,3.3192421875,-1.2469452619552612,1.4664493799209595,-3.5260348320007324,0.027095483615994453,0.8676630258560181,-0.4964139461517334,1.8323405981063843,0.4519323706626892,0.5971373319625854,0.7724765013686015,-0.4549510682993634,-0.21168975808343812,0.3892135176719785
1681410929979218000,3.329218017578125,-2.390049695968628,1.7677778005599976,-3.0684075355529785,0.006242446601390839,0.8772184252738953,-0.48005083203315735,1.2994369268417358,-0.26206034421920776,0.4935854375362396,0.7762619824331556,-0.46165011185986465,-0.21645729304375277,0.3707326963767869
1681410929989195000,3.339195068359375,-2.859607696533203,1.9829424619674683,-2.384321928024292,-0.009153907187283039,0.8896732330322266,-0.4565063714981079,1.0075517892837524,-0.6201570630073547,0.4887024760246277,0.7770308471657466,-0.47241377115071254,-0.22039065408956712,0.3528122875786609
1681410929999171000,3.349171142578125,-2.5546324253082275,2.1460747718811035,-1.5453805923461914,-0.01762503758072853,0.9016079902648926,-0.43219488859176636,0.8155223727226257,-0.6981624960899353,0.48047375679016113,0.7761418165026579,-0.48445398383727223,-0.22182626662174315,0.3371963648890878
1681410930009147000,3.35914697265625,-1.6996747255325317,2.2520151138305664,-0.6698206663131714,-0.01834220439195633,0.9104666709899902,-0.41317588090896606,0.7094585299491882,-0.6529744863510132,0.34394681453704834,0.7751463033370231,-0.4951827093573921,-0.21955897479178066,0.32517134129827785
1681410930019124000,3.3691240234375,-0.6944496035575867,2.3187029361724854,0.10143343359231949,-0.011559547856450081,0.9152701497077942,-0.40267515182495117,0.6325922608375549,-0.6170369386672974,0.19439274072647095,0.7750947912096854,-0.5031493425168728,-0.2133147187586894,0.31712126027700616
1681410930029100000,3.37910009765625,0.08899027109146118,2.384765148162842,0.7233678102493286,0.0016772870440036058,0.9164059162139893,-0.40024682879447937,0.547318696975708,-0.6446773409843445,0.12783172726631165,0.7761782839901655,-0.5083521212312984,-0.20360427561930178,0.3125232572790891
1681410930039077000,3.3890771484375,0.4493851959705353,2.503101348876953,1.2321151494979858,0.020420324057340622,0.9150974154472351,-0.4027157127857208,0.4519917964935303,-0.7624331116676331,0.1709499955177307,0.7778131434142618,-0.5119452408490202,-0.19119156814427424,0.31042670934221717
1681410930049053000,3.399052978515625,0.3227696418762207,2.7375705242156982,1.6441912651062012,0.04413073882460594,0.9129543304443359,-0.4056686758995056,0.37679821252822876,-0.9827937483787537,0.2649674415588379,0.7790429934515924,-0.515696673558069,-0.1766991856351258,0.30972011241353214
1681410930059030000,3.409030029296875,-0.2152983546257019,3.0106444358825684,1.952487587928772,0.0721929743885994,0.9116209149360657,-0.40464267134666443,0.3201562762260437,-1.269012212753296,0.3716379404067993,0.7788562382784361,-0.5213818372820914,-0.1607471478609459,0.3093613818120169
1681410930069006000,3.419006103515625,-0.8808618783950806,3.1724443435668945,2.1567087173461914,0.10338283330202103,0.9120092988014221,-0.396927148103714,0.28921055793762207,-1.5587377548217773,0.47581514716148376,0.7765940674829629,-0.5298678985268098,-0.1441403428175225,0.3088127255178571
1681410930078983200,3.428983154296875,-1.4967337846755981,3.1219773292541504,2.2414119243621826,0.13577821850776672,0.9140245318412781,-0.38226133584976196,0.32476258277893066,-1.8043289184570312,0.5444318056106567,0.7721497755140395,-0.5408489952177272,-0.12787376008746124,0.3080837760855742
1681410930088959000,3.438958984375,-1.9383965730667114,2.78485369682312,2.2841806411743164,0.16744209825992584,0.9170357584953308,-0.36195141077041626,0.43087032437324524,-1.9716010093688965,0.559339165687561,0.7657339984284655,-0.5534066950003054,-0.11298375955054504,0.30761564258042096
1681410930098936000,3.44893603515625,-2.085258722305298,2.2467103004455566,2.432579517364502,0.19778978824615479,0.9198592901229858,-0.33873051404953003,0.5662941336631775,-2.0389387607574463,0.5072181224822998,0.7577911316452789,-0.5662541881378818,-0.09995467991800273,0.3084121304469012
1681410930108911900,3.458911865234375,-1.8334708213806152,1.6320035457611084,2.724665880203247,0.22773106396198273,0.9208521842956543,-0.31649667024612427,0.6813113689422607,-2.0293421745300293,0.47936904430389404,0.7490990440208325,-0.5778760598878226,-0.0883794283337803,0.31160743024539517
1681410930118888000,3.468887939453125,-1.5489349365234375,1.0859854221343994,3.0207555294036865,0.2582091689109802,0.9189794659614563,-0.298001766204834,0.7079468965530396,-1.9791905879974365,0.48293834924697876,0.740315397934863,-0.5873395851316129,-0.07766159324272351,0.3177014771774403
1681410930128865000,3.478864990234375,-1.3733067512512207,0.9287494421005249,3.4286186695098877,0.29053252935409546,0.9144615530967712,-0.2816931903362274,0.6029764413833618,-1.891130805015564,0.4333351254463196,0.7311277674881994,-0.5955496327583111,-0.0668882356276561,0.3260351430529981
1681410930138840800,3.4888408203125,-0.7485225200653076,0.775057852268219,3.900149345397949,0.32609328627586365,0.9061554670333862,-0.2693430483341217,0.40292587876319885,-1.6471068859100342,0.33214834332466125,0.7221365461338429,-0.6019475507150339,-0.054659114103545216,0.33643793739428
1681410930148818000,3.49881787109375,-0.2593209445476532,0.6848204731941223,4.44642972946167,0.3654656708240509,0.893042802810669,-0.2625066936016083,0.19592049717903137,-1.3410711288452148,0.29204773902893066,0.713727006529633,-0.6059059045666968,-0.040307488565323,0.34906638788300076
1681410930158794000,3.5087939453125,0.0065400018356740475,0.5656911730766296,4.955921649932861,0.40864184498786926,0.8751776218414307,-0.2589908540248871,0.0659523606300354,-1.2465001344680786,0.30134934186935425,0.7050886008164248,-0.60821629782718,-0.024031338655849804,0.3637935062490509
1681410930168771000,3.51877099609375,0.1997673213481903,0.32837533950805664,5.329473495483398,0.4542320966720581,0.852706253528595,-0.2580033838748932,0.07260823249816895,-1.158186912536621,0.33519765734672546,0.6959019210401579,-0.6090606596346216,-0.006589041762031999,0.3804241352295671
1681410930178747000,3.528746826171875,0.23750723898410797,0.05463702604174614,5.569845199584961,0.5004181265830994,0.8261390328407288,-0.258990615606308,0.1731811761856079,-1.1135687828063965,0.39207786321640015,0.6859877719547767,-0.608590161204058,0.011077296942753133,0.3986429532128311
1681410930188724000,3.538723876953125,0.2822631001472473,-0.16255664825439453,5.799314498901367,0.5462734699249268,0.7957916855812073,-0.26134440302848816,0.29898715019226074,-1.1226654052734375,0.4044261872768402,0.6751849437956546,-0.6070482301053669,0.02863987149714209,0.41808793059207683
1681410930198700000,3.548699951171875,0.5282843112945557,-0.6480144262313843,6.009312629699707,0.5912044644355774,0.7612133026123047,-0.26651811599731445,0.3963291645050049,-1.0277384519577026,0.37809044122695923,0.6638257890437934,-0.6038337581377191,0.046105717592611346,0.4388560188855236
1681410930208677000,3.558677001953125,1.1255654096603394,-0.8000861406326294,6.135107040405273,0.6345462799072266,0.7218157052993774,-0.2762849032878876,0.4818020462989807,-0.7541947960853577,0.22263509035110474,0.6527001808668161,-0.5981284250436627,0.06403075065524258,0.4605704401648052
1681410930218653000,3.56865283203125,2.4000561237335205,-1.0707637071609497,5.741306304931641,0.673711359500885,0.6777167916297913,-0.29464060068130493,0.6454567909240723,-0.24033880233764648,-0.016180872917175293,0.644079987781344,-0.5880725095681182,0.08276725588139137,0.48216325738316823
1681410930228629000,3.57862890625,3.53206467628479,0.3251004219055176,5.968699932098389,0.7102100253105164,0.6283677220344543,-0.3174208700656891,0.9207409620285034,0.5028885006904602,0.015342652797698975,0.63887913881384,-0.5745635549598774,0.10567067706518055,0.5005438117362114
1681410930238606000,3.588606201171875,4.6313910484313965,2.027714729309082,6.952410697937012,0.7527466416358948,0.5682787299156189,-0.3323133885860443,1.3511505126953125,1.5445754528045654,-0.11728674173355103,0.6333333178775978,-0.5610114880779244,0.13823680693433826,0.514826087339949
1681410930248582000,3.598581787109375,5.265673637390137,-0.4077681601047516,6.334811210632324,0.7924310564994812,0.49814099073410034,-0.3520069420337677,2.166156768798828,2.903562068939209,-0.4657115340232849,0.628737214118502,-0.5421816606930363,0.17330774608982338,0.5298049124261015
1681410930258559000,3.60855908203125,2.752984046936035,-1.6224980354309082,3.5863091945648193,0.8115425109863281,0.442894846200943,-0.38110780715942383,3.2366907596588135,3.441473960876465,-0.8106645941734314,0.627624963310222,-0.5213034960877175,0.19413593902646686,0.5446475635484002
1681410930268534800,3.61853466796875,0.009383060038089752,-2.084476947784424,1.403912901878357,0.8148674368858337,0.41833987832069397,-0.40122687816619873,3.6472909450531006,3.024928092956543,-0.9174070954322815,0.6259135903253297,-0.5100516074586756,0.19807552829245406,0.5557389629596398
1681410930278512000,3.62851220703125,-0.8236265778541565,-2.6442902088165283,-0.13405993580818176,0.8075405359268188,0.41534560918807983,-0.4187679588794708,2.9123082160949707,2.811750888824463,-1.207437515258789,0.6254194669873107,-0.5041819172550095,0.1908313928597395,0.5641229972325461
1681410930288488000,3.638488037109375,-1.6906989812850952,-2.4783451557159424,-0.8205921649932861,0.7942071557044983,0.4249098598957062,-0.4343807101249695,2.1989264488220215,2.4908158779144287,-1.1301333904266357,0.6262665247378716,-0.5011647506004162,0.17788630317896767,0.5700707171895402
1681410930298465000,3.648465087890625,-2.642686367034912,-2.1545538902282715,-0.8669629096984863,0.7804623246192932,0.44119444489479065,-0.4429742395877838,1.516366958618164,1.8373852968215942,-0.5230444073677063,0.625191875625179,-0.5021538758570148,0.16234028795480934,0.5749977198975484
1681410930308440800,3.65844091796875,-3.2635741233825684,-2.170423984527588,-1.0080819129943848,0.7667903900146484,0.46152305603027344,-0.446126788854599,0.7838383316993713,1.298013687133789,-0.05903065204620361,0.622020321822631,-0.5059394078649991,0.14478231332781427,0.5797881184074496
1681410930318417200,3.668417236328125,-3.7170352935791016,-2.391575336456299,-1.2026269435882568,0.7514263391494751,0.48548832535743713,-0.4468330144882202,0.3279957175254822,0.7433019876480103,-0.0502220094203949,0.6179262107146353,-0.5108870466662496,0.12481155578578772,0.5844517559404343
1681410930328394000,3.67839404296875,-3.9861690998077393,-2.7352635860443115,-1.1569939851760864,0.734040379524231,0.5116857886314392,-0.44650039076805115,0.027739524841308594,0.29782354831695557,-0.13557660579681396,0.6129659602775547,-0.5159836721039962,0.10252148304255233,0.5895109006937285
1681410930338370000,3.6883701171875,-3.7708945274353027,-3.122673273086548,-0.7803142666816711,0.7158421874046326,0.5362145304679871,-0.44726303219795227,-0.2064884901046753,0.16309583187103271,-0.14447277784347534,0.6071043654620834,-0.5196593778861304,0.07951491202188314,0.5958658016632994
1681410930348347000,3.698346923828125,-3.236022710800171,-3.326613187789917,-0.3951265811920166,0.6982144117355347,0.5560134649276733,-0.4509388506412506,-0.4145992398262024,0.17819368839263916,-0.091053307056427,0.6007990403634335,-0.5207640907730796,0.05775239935864641,0.6037467616402409
1681410930358323200,3.7083232421875,-2.705449342727661,-3.1984660625457764,-0.31242266297340393,0.681452751159668,0.5717188119888306,-0.45690256357192993,-0.6985729932785034,0.1471533179283142,-0.03664296865463257,0.5949175938936044,-0.5197078054729931,0.03811195347839275,0.6119840756433902
1681410930368300000,3.718300048828125,-2.3494889736175537,-2.819214344024658,-0.44154560565948486,0.6654644012451172,0.5857756733894348,-0.4626273810863495,-1.0917339324951172,0.040368735790252686,0.017986327409744263,0.5899844721685469,-0.5179440386811358,0.020500673708402417,0.619057479727893
1681410930378276000,3.728276123046875,-2.0919485092163086,-2.472787618637085,-0.5200777053833008,0.6503463983535767,0.5992524027824402,-0.4668470025062561,-1.4753280878067017,-0.10204476118087769,0.06747877597808838,0.5859603786913496,-0.5162896072798174,0.00464176877433444,0.624558980597198
1681410930388253000,3.7382529296875,-1.9486902952194214,-2.3682618141174316,-0.4574763774871826,0.6361339688301086,0.61183762550354,-0.47009408473968506,-1.6625468730926514,-0.23888224363327026,0.11175674200057983,0.5822960606714501,-0.5146401006007486,-0.009925663638331342,0.6292682446856014
1681410930398229000,3.74822900390625,-1.8168494701385498,-2.5187571048736572,-0.4027116596698761,0.6220687627792358,0.6233829855918884,-0.47373446822166443,-1.5991957187652588,-0.33998143672943115,0.18538916110992432,0.5785941982344971,-0.5124029771957498,-0.023999118034693512,0.6341105635860931
1681410930408206000,3.7582060546875,-1.6761574745178223,-2.6975836753845215,-0.4818704426288605,0.6069350838661194,0.6343275904655457,-0.4788093864917755,-1.378495693206787,-0.3861280679702759,0.2669106125831604,0.575118023000748,-0.5090568377525007,-0.03816338041369521,0.6392527504908343
1681410930418182000,3.768181884765625,-1.4650648832321167,-2.7984302043914795,-0.6586446762084961,0.5900571346282959,0.6453019380569458,-0.48519906401634216,-1.1685330867767334,-0.399513304233551,0.3182985186576843,0.5723285054335879,-0.5046195429056016,-0.05253172765667512,0.6442357658267743
1681410930428159000,3.778158935546875,-1.255336880683899,-2.7932028770446777,-0.8432118892669678,0.5715430378913879,0.6562719345092773,-0.49259090423583984,-1.0662481784820557,-0.38944143056869507,0.3607092499732971,0.5705095049148143,-0.49924628710203683,-0.0667659649695628,0.6487021385242256
1681410930438134800,3.788134765625,-1.127700686454773,-2.746516466140747,-1.030212163925171,0.5516219735145569,0.6673856377601624,-0.5003096461296082,-1.071061611175537,-0.3981747627258301,0.41020655632019043,0.5695910818821602,-0.4932682942297036,-0.08081805686446548,0.6524729638743224
1681410930448111000,3.798111083984375,-1.0479620695114136,-2.6564762592315674,-1.1965792179107666,0.5305246710777283,0.6788584589958191,-0.5076366066932678,-1.1250375509262085,-0.45397430658340454,0.4614330530166626,0.5694048126642725,-0.48703392752928204,-0.09476095246946607,0.6554361988134147
1681410930458088000,3.808087890625,-1.1113828420639038,-2.5139548778533936,-1.325053095817566,0.5086902379989624,0.6908367276191711,-0.5137888789176941,-1.1883471012115479,-0.5509898066520691,0.5277812480926514,0.5696537780960442,-0.48093463919442053,-0.10866201897617947,0.657563025032466
1681410930468064000,3.81806396484375,-1.3769534826278687,-2.3105807304382324,-1.4788885116577148,0.486517071723938,0.7041341662406921,-0.5172005295753479,-1.252355694770813,-0.6879292130470276,0.5861092805862427,0.5699069115223255,-0.47569870505156664,-0.1229246740937351,0.6586399234634083
1681410930478040800,3.828040771484375,-1.7110744714736938,-2.0673303604125977,-1.6859101057052612,0.46395668387413025,0.7196250557899475,-0.5166082382202148,-1.306119680404663,-0.7834524512290955,0.6502905488014221,0.5700277175312537,-0.4718645339900051,-0.13798453086011617,0.658310454950709
1681410930488017200,3.83801708984375,-2.005073070526123,-1.816773533821106,-1.8838905096054077,0.4409162700176239,0.7373061776161194,-0.5118325352668762,-1.3248883485794067,-0.7964949607849121,0.6893991231918335,0.5701244743988518,-0.46948200013555585,-0.15385181629676545,0.6564102850262884
1681410930497994000,3.847993896484375,-2.2489736080169678,-1.5714961290359497,-2.0511560440063477,0.41762885451316833,0.7565447092056274,-0.5032161474227905,-1.3003191947937012,-0.7862381935119629,0.686397910118103,0.5702117321110877,-0.4684094259832255,-0.17024848112417845,0.6530443111877299
1681410930507970000,3.857969970703125,-2.434018135070801,-1.323157548904419,-2.215350866317749,0.39411914348602295,0.7768312692642212,-0.49112483859062195,-1.2334744930267334,-0.7808442115783691,0.6457269191741943,0.5703698366908184,-0.46848692165394734,-0.18696946702694858,0.6482599524549308
1681410930517947000,3.86794677734375,-2.4302361011505127,-1.054401159286499,-2.36859393119812,0.37034788727760315,0.7973986864089966,-0.4764430820941925,-1.1517504453659058,-0.7733354568481445,0.5870235562324524,0.5708670020430432,-0.4693850925977304,-0.20360770280279664,0.6421313171060548
1681410930527922700,3.877922607421875,-2.2152843475341797,-0.7541125416755676,-2.503314733505249,0.34646955132484436,0.8170304894447327,-0.4608907103538513,-1.0857731103897095,-0.7608017921447754,0.5262441635131836,0.5721969080731585,-0.47057510081051096,-0.21934840442311676,0.6348513843676171
1681410930537899800,3.887899658203125,-1.81304931640625,-0.4570361375808716,-2.637986898422241,0.3225303888320923,0.8347741365432739,-0.4462358355522156,-1.0409752130508423,-0.7248802185058594,0.45714592933654785,0.5748511417387162,-0.47155360540511615,-0.23349363571774892,0.6266292546234393
1681410930547875600,3.89787548828125,-1.3131585121154785,-0.21995395421981812,-2.7878127098083496,0.2982620298862457,0.850046694278717,-0.4341202676296234,-0.9971603155136108,-0.6257271766662598,0.3508073091506958,0.5791886196046507,-0.4717771954542475,-0.24569522077243314,0.6177383872918262
1681410930557852000,3.907851806640625,-0.6364860534667969,-0.05667394399642944,-2.8875091075897217,0.27330976724624634,0.8624200224876404,-0.4260677397251129,-0.9268131852149963,-0.44138413667678833,0.2324337661266327,0.5854020523933094,-0.47065516122081935,-0.2558316884751099,0.608554412549856
1681410930567828700,3.917828857421875,0.23886294662952423,0.19216522574424744,-2.722662925720215,0.24911631643772125,0.8706822395324707,-0.42409151792526245,-0.8313916921615601,-0.20002788305282593,0.16095376014709473,0.5935055180849274,-0.46779455162527644,-0.2629115715039171,0.5998308968449776
1681410930577804800,3.9278046875,1.1273545026779175,0.6346340179443359,-2.3043062686920166,0.22894087433815002,0.8736439943313599,-0.42933937907218933,-0.7645853757858276,0.027173936367034912,0.16813945770263672,0.6031439636980388,-0.4635343030232983,-0.26545481132623594,0.5923572442029755
1681410930587781600,3.93778173828125,1.403448224067688,1.1300512552261353,-2.203930139541626,0.21334174275398254,0.8728487491607666,-0.43888548016548157,-0.8033381104469299,0.2639616131782532,0.17852482199668884,0.6139067531154019,-0.4591844842033754,-0.2640205789923385,0.5852873885080462
1681410930597757700,3.9477578125,2.093294620513916,1.7587915658950806,-2.110136032104492,0.2007601261138916,0.8699594140052795,-0.450406551361084,-0.9829561710357666,0.7472281455993652,-0.019396185874938965,0.6258662523896796,-0.45533107719472665,-0.2597505298156448,0.5774900161283014
1681410930607734800,3.95773486328125,2.7476813793182373,2.728843927383423,-2.021681308746338,0.19355346262454987,0.8625311255455017,-0.4675225615501404,-1.1718554496765137,1.6302058696746826,-0.36728572845458984,0.6401432289176886,-0.45131306591546233,-0.2501104367896622,0.5691907700629952
1681410930617710800,3.9677109375,2.6818838119506836,3.073345422744751,-2.843749523162842,0.18722879886627197,0.8540748953819275,-0.48528507351875305,-1.084628701210022,2.4840445518493652,-0.7616326212882996,0.6565534022232572,-0.44789757197394947,-0.23821255512458842,0.5581938262102558
1681410930627687700,3.977687744140625,2.347836494445801,3.368370532989502,-4.346117973327637,0.17253713309764862,0.84809809923172,-0.5009597539901733,-0.6571409702301025,3.213608503341675,-0.9227615594863892,0.6756839214138457,-0.4441077676251422,-0.2286666173920778,0.5421542681415172
1681410930637663700,3.987663818359375,2.0373048782348633,4.1546173095703125,-5.418472766876221,0.1494913250207901,0.8450201749801636,-0.5134134888648987,-0.0146494060754776,3.7305872440338135,-0.9329670667648315,0.6978589265916249,-0.44094989039212085,-0.22103496245643386,0.5193263258481899
1681410930647640800,3.997640869140625,1.9859551191329956,4.333142280578613,-4.6698527336120605,0.1283635050058365,0.841919481754303,-0.524113118648529,0.7895747423171997,4.174529552459717,-0.8948931694030762,0.7199639444872535,-0.4392853148050325,-0.21206564861697152,0.49366861876206436
1681410930657617000,4.007616943359375,1.8805793523788452,2.743309736251831,-3.6800830364227295,0.11336404830217361,0.8362851142883301,-0.5364476442337036,1.8267451524734497,4.520175457000732,-0.7103480100631714,0.7378977161644525,-0.4365355859078893,-0.20300950470901327,0.4730021593331025
1681410930667592700,4.0175927734375,0.6901217103004456,1.4502854347229004,-4.303877830505371,0.09144479036331177,0.8331748843193054,-0.5453968644142151,3.0266735553741455,4.122757911682129,-0.3533458113670349,0.7519099732017138,-0.4323227901070979,-0.20099396541633133,0.45533514963118193
1681410930677569500,4.027569580078125,-0.6553405523300171,1.532571792602539,-4.788074970245361,0.06096024811267853,0.8365870714187622,-0.5444319844245911,3.296308994293213,2.7989110946655273,0.11492764949798584,0.7635816921739863,-0.4307832526676759,-0.20545023206290627,0.4349244301795518
1681410930687545900,4.0375458984375,-2.0193850994110107,2.0869147777557373,-4.690639019012451,0.03076993301510811,0.8459305167198181,-0.5324049592018127,2.2415690422058105,1.2834184169769287,0.3670912981033325,0.772638068320408,-0.43477802305399815,-0.211578796431123,0.4113795764382745
1681410930697522700,4.047522705078125,-3.257556915283203,2.4389328956604004,-4.3782219886779785,0.003897547023370862,0.8605204224586487,-0.509401261806488,1.3528834581375122,0.23931795358657837,0.33604615926742554,0.778284697620452,-0.44470219057963845,-0.21803518984222742,0.3859711712441785
1681410930707498800,4.057498779296875,-4.047374725341797,2.7702434062957764,-3.9025402069091797,-0.01931498572230339,0.8783613443374634,-0.4776071608066559,1.0330173969268799,-0.28519105911254883,0.31888526678085327,0.7805672495732439,-0.45930246521200435,-0.22413759103905598,0.35988696443648
1681410930717475600,4.0674755859375,-4.020299434661865,3.2002594470977783,-3.193519115447998,-0.037188589572906494,0.8961537480354309,-0.4421827793121338,0.870120108127594,-0.5193683505058289,0.37655478715896606,0.7805511149119596,-0.47640102525371764,-0.22792690577784905,0.3344121795580785
1681410930727452000,4.077451904296875,-2.9781973361968994,3.5162975788116455,-2.2643885612487793,-0.047538984566926956,0.9101329445838928,-0.41158023476600647,0.7685930728912354,-0.557441234588623,0.30595892667770386,0.7802081085244141,-0.4925557477730958,-0.2271535157992034,0.31155361117966845
1681410930737428700,4.0874287109375,-1.3486524820327759,3.576449155807495,-1.30231511592865,-0.04947443678975105,0.917992353439331,-0.39350029826164246,0.7091118693351746,-0.530739426612854,0.11119750142097473,0.7814800172396225,-0.5043992572739632,-0.22097793194059745,0.2933244216553107
1681410930747404800,4.09740478515625,0.08952642977237701,3.4467759132385254,-0.5081785321235657,-0.043906036764383316,0.9199145436286926,-0.38965344429016113,0.6782901883125305,-0.5537492632865906,-0.03365582227706909,0.78502648580112,-0.5108113447496455,-0.21034506816161752,0.28028631989945385
1681410930757381600,4.107381591796875,1.05271315574646,3.2693707942962646,0.054519448429346085,-0.03273558244109154,0.9174795746803284,-0.39643383026123047,0.6588189601898193,-0.6137227416038513,-0.042073190212249756,0.7902672349274036,-0.5128544064105965,-0.1968843337062957,0.2714677779098117
1681410930767358000,4.11735791015625,1.5981792211532593,3.1356797218322754,0.4887809157371521,-0.01734986901283264,0.9121114015579224,-0.40957534313201904,0.63005131483078,-0.7386341094970703,0.0956258475780487,0.796373576464234,-0.5120492834850159,-0.18170816383177493,0.2656631889583371
1681410930777334800,4.127334716796875,1.6087900400161743,3.125718116760254,0.8622115254402161,0.0017918474040925503,0.9053310751914978,-0.4247029721736908,0.5797511339187622,-1.042064905166626,0.3045247793197632,0.8023681879236669,-0.5101960910490829,-0.1653737193907167,0.26183370988545973
1681410930787310800,4.137310791015625,1.078472375869751,3.2536981105804443,1.1632636785507202,0.024643102660775185,0.8993193507194519,-0.4365977346897125,0.514327883720398,-1.46604585647583,0.5206126570701599,0.8070201235310006,-0.5096403768729173,-0.14821542887617178,0.2588774187490743
1681410930797286700,4.14728662109375,0.3781350553035736,3.2908689975738525,1.3948880434036255,0.05053023248910904,0.8956670165061951,-0.44184544682502747,0.45062944293022156,-1.8293217420578003,0.7017484903335571,0.8094992059785401,-0.5118350426224194,-0.13077525035203832,0.2561910908115406
