time,seconds_elapsed,rotationRateX,rotationRateY,rotationRateZ,gravityX,gravityY,gravityZ,accelerationX,accelerationY,accelerationZ,quaternionW,quaternionX,quaternionY,quaternionZ
1681504109154291700,0.100291748046875,0.21755540370941162,0.13951098918914795,0.013325479812920094,-0.022215334698557854,0.021551189944148064,-0.9995208978652954,0.005018118768930435,0.004786023870110512,0.008416831493377686,0.9998802548823393,-0.0107768856014397,-0.011108997779462712,-1.4399187872047457e-17
1681504109164266500,0.1102666015625,0.23416250944137573,0.08633032441139221,0.013602199032902718,-0.021191179752349854,0.019382478669285774,-0.9995875358581543,0.014720890671014786,-0.010287696495652199,-0.005371510982513428,0.9998968984714323,-0.009691408864774289,-0.01059744112448834,0.00007831961776676566
1681504109174240500,0.120240478515625,0.2415836751461029,0.04925858601927757,0.010280437767505646,-0.020660381764173508,0.01708119921386242,-0.9996406435966492,0.02392520010471344,-0.005834924057126045,0.00492018461227417,0.9999101779825653,-0.008539808003891997,-0.010332407284686493,0.0001508115720313187
1681504109184215600,0.130215576171875,0.21863947808742523,0.029917113482952118,0.005442006513476372,-0.020400403067469597,0.0147696016356349,-0.9996827840805054,0.02386358566582203,0.0021987175568938255,0.011218488216400146,0.999920666822644,-0.00738337262875635,-0.010202468133643337,0.00019740121112929516
1681504109194192000,0.14019189453125,0.19029279053211212,0.03023536130785942,0.009751267731189728,-0.02023695781826973,0.012718262150883675,-0.9997143149375916,0.01852695271372795,-0.000022307969629764557,0.004337787628173828,0.9999285851794765,-0.0063595851189379785,-0.010119201328829725,-8.829699744027891e-18
1681504109204167000,0.1501669921875,0.1370955854654312,0.041449133306741714,0.0072122598066926,-0.020000465214252472,0.0111406110227108,-0.9997379183769226,0.009470878168940544,-0.017884353175759315,0.010327517986297607,0.999934524158514,-0.005570201311615185,-0.010001148369394338,0.00004688473595680072
1681504109214141000,0.160140869140625,0.11500093340873718,0.04806122928857803,0.011171314865350723,-0.019651006907224655,0.010032949969172478,-0.9997565746307373,0.0023312605917453766,-0.03874934837222099,0.012192487716674805,0.9999391720004254,-0.005015824025053027,-0.009826589664258771,0.00009731358298725773
1681504109224116000,0.170115966796875,0.12430901825428009,0.0490710474550724,0.012329423800110817,-0.019223857671022415,0.008992619812488556,-0.9997747540473938,0.000027278438210487366,-0.04303433746099472,0.015750765800476074,0.9999436780905604,-0.004495042291281329,-0.009613181081199879,0.00015818426081048003
1681504109234090800,0.1800908203125,0.18221518397331238,0.059973761439323425,0.010952835902571678,-0.018681218847632408,0.007530861999839544,-0.9997971057891846,0.0022922568023204803,-0.027229316532611847,0.010585129261016846,0.9999492108709173,-0.003763556484999829,-0.009341915933732644,0.0002211280405418977
1681504109244064800,0.190064697265625,0.23900067806243896,0.08098775148391724,0.006761069875210524,-0.01792900636792183,0.005432555451989174,-0.9998245239257812,0.00042615272104740143,-0.001907132100313902,-0.00012969970703125,0.9999561814138838,-0.002713850613536866,-0.008965666826655146,0.00028396413256898367
1681504109254039800,0.200039794921875,0.2897149920463562,0.10676954686641693,0.0038339896127581596,-0.016902275383472443,0.0028051473200321198,-0.9998531937599182,-0.005010366439819336,0.022204650565981865,-0.014810442924499512,0.9999632303278738,-0.0013999147514478746,-0.008451897731919726,0.0003206830154978493
1681504109264014800,0.210014892578125,0.32069334387779236,0.13503964245319366,0.0020862568635493517,-0.015602807514369488,-0.00019800938025582582,-0.9998782277107239,-0.00946840550750494,0.03743009641766548,-0.017242074012756348,0.9999694494391936,0.00010177108453408459,-0.007801606001882434,0.0003541947037089985
1681504109273990000,0.219989990234375,0.30068713426589966,0.14963509142398834,-0.00048529147170484066,-0.014127365313470364,-0.003279017983004451,-0.9998947978019714,-0.01515527255833149,0.032286617904901505,-0.005155801773071289,0.9999736443971027,0.0016421582666897756,-0.007063263170601324,0.00036894556801030337
1681504109283964000,0.2299638671875,0.26180675625801086,0.16232489049434662,0.005691793747246265,-0.0125367920845747,-0.006104836240410805,-0.9999027848243713,-0.014899533241987228,0.00874524936079979,-0.0016536116600036621,0.9999756700080745,0.0030549545054847295,-0.006267348362036932,0.0003928297514315614
1681504109293939000,0.23993896484375,0.21177634596824646,0.15876825153827667,0.009052704088389874,-0.010945422574877739,-0.008537248708307743,-0.999903678894043,-0.008708919398486614,-0.016608592122793198,0.004130363464355469,0.9999757779558051,0.004271120281315451,-0.00547097597395863,0.00043733458857259176
1681504109303913700,0.249913818359375,0.17771027982234955,0.15046115219593048,0.014453943818807602,-0.009438649751245975,-0.010544952936470509,-0.9998998641967773,-0.004402093589305878,-0.030134335160255432,0.008963584899902344,0.9999748125268899,0.005274986321275015,-0.004716785592859053,0.0005039314222440022
1681504109313888800,0.259888671875,0.1805468201637268,0.15469372272491455,0.024236001074314117,-0.007953476160764694,-0.012347569689154625,-0.9998921155929565,0.0029780901968479156,-0.02853008173406124,0.014708459377288818,0.9999728389868972,0.006176353730122248,-0.0039731129734706,0.0006043885356549832
1681504109323862800,0.26986279296875,0.1684255450963974,0.16552409529685974,0.03407064080238342,-0.006395626813173294,-0.014045890420675278,-0.9998809099197388,0.004822949878871441,-0.02132333815097809,0.01822197437286377,0.9999699554047321,0.007025543418558803,-0.0031926568142010827,0.0007476248130658245
1681504109333837800,0.279837890625,0.15099382400512695,0.18109586834907532,0.0368640311062336,-0.004730811808258295,-0.015543299727141857,-0.9998679757118225,-0.0011906195431947708,-0.008412354625761509,0.010747551918029785,0.9999665596992539,0.0077741082942684855,-0.002358236888566092,0.0009322981366932081
1681504109343812900,0.289812744140625,0.11117533594369888,0.2166965901851654,0.041144341230392456,-0.002824698342010379,-0.016725001856684685,-0.9998561143875122,-0.009093436412513256,-0.004072081297636032,0.0031520724296569824,0.9999633508640485,0.008364390020506932,-0.00140296443156158,0.0011281373500572948
1681504109353788000,0.299787841796875,0.05663939192891121,0.24467654526233673,0.038377851247787476,-0.0006063210894353688,-0.017433403059840202,-0.9998478293418884,-0.016652390360832214,-0.011725498363375664,0.0010990500450134277,0.9999610196869952,0.008717429901115912,-0.0002915555944991221,0.001332540243477571
1681504109363762000,0.309761962890625,0.023228967562317848,0.2664376199245453,0.0513736791908741,0.0018748979782685637,-0.017766067758202553,-0.9998404383659363,-0.019072573632001877,-0.027109384536743164,0.01215428113937378,0.9999589381678333,0.008881904602588557,0.0009514309104413971,0.0015698045163835216
1681504109373737000,0.319737060546875,0.00653094844892621,0.2699183523654938,0.05457399785518646,0.004490960389375687,-0.017936328426003456,-0.9998290538787842,-0.015783485025167465,-0.04410526156425476,0.01162409782409668,0.9999556150436769,0.008964378781578035,0.0022621567694314066,0.0018491091726071777
1681504109383711700,0.329711669921875,-0.05692735314369202,0.24333517253398895,0.1463582068681717,0.007062665186822414,-0.017826026305556297,-0.9998161792755127,-0.010420618578791618,-0.04238450527191162,0.00508040189743042,0.9999514379317513,0.008905350394828287,0.0035518029252231075,0.0022792969150824027
1681504109393686800,0.339686767578125,-0.5655602216720581,-1.1175071001052856,0.1853596568107605,0.004451236687600613,-0.014901604503393173,-0.9998790621757507,0.0030703283846378326,-0.024679046124219894,0.0025188326835632324,0.9999638655043828,0.0074433106045285365,0.00225135764308869,0.0034471291564780885
1681504109403660800,0.349660888671875,-0.4645066559314728,0.0010887137614190578,-0.13983631134033203,-0.0021627882961183786,-0.009426395408809185,-0.9999532103538513,0.029322415590286255,-0.011309648863971233,0.028136253356933594,0.9999823699174059,0.004716947156835176,-0.0010651766207605924,0.003442115500748876
1681504109413636000,0.359635986328125,-0.2619202435016632,0.5448031425476074,-0.1387161910533905,0.001514532952569425,-0.005955786444246769,-0.9999811053276062,-0.06888310611248016,-0.06922361999750137,0.1166650652885437,0.9999917267010912,0.002975866384579031,0.0007652501239025718,0.0026806665844595007
1681504109423611000,0.36961083984375,-0.20445245504379272,0.16523295640945435,-0.10100018233060837,0.005228342954069376,-0.0036649650428444147,-0.9999796152114868,-0.23194445669651031,-0.07375748455524445,-0.036946654319763184,0.9999926956569242,0.0018269586914474432,0.0026180547062844943,0.002115008142394586
1681504109433585000,0.3795849609375,-0.14654441177845,-0.09732674807310104,-0.09747282415628433,0.00536854425445199,-0.0019115392351523042,-0.9999837875366211,-0.02206267975270748,0.053456373512744904,-0.0721902847290039,0.9999946056132236,0.0009514351304814819,0.0026858239479095347,0.0016157594011702
1681504109443560000,0.389559814453125,-0.11296965181827545,-0.10763227939605713,-0.07544786483049393,0.004194134846329689,-0.0006448076455853879,-0.9999909996986389,0.18364053964614868,0.04576569050550461,0.003683626651763916,0.9999970197849247,0.0003199326367497916,0.002097450841695858,0.0011786453606493464
1681504109453534700,0.39953466796875,-0.10342887789011002,-0.01097338180989027,-0.051256511360406876,0.0036109250504523516,0.00042169020161964,-0.9999933838844299,0.1414686143398285,-0.02929067425429821,0.012612402439117432,0.9999979593344468,-0.00021241461513542013,0.001805281560402958,0.0008691593908403283
1681504109463509800,0.409509765625,-0.11715304106473923,0.06733611971139908,-0.050404682755470276,0.003913485445082188,0.0015201575588434935,-0.9999911785125732,0.03249296545982361,-0.03887302801012993,0.004355192184448242,0.9999976284914043,-0.000761305168653687,0.001956270771917879,0.0006259664602670518
1681504109473483800,0.41948388671875,-0.14340834319591522,0.07903991639614105,-0.04905739054083824,0.004689783789217472,0.0028016925789415836,-0.9999850988388062,-0.025107065215706825,-0.02066909149289131,-0.004714608192443848,0.9999962645345039,-0.0014017241624315608,0.0023443788195688614,0.00037223432043786444
1681504109483458800,0.429458740234375,-0.19651071727275848,0.02663455531001091,-0.023511283099651337,0.005225632805377245,0.004504413343966007,-0.9999762177467346,-0.019218964502215385,-0.024233385920524597,-0.00034421682357788086,0.9999940520792373,-0.0022527090876193886,0.002612410158425195,0.00018718794976791087
1681504109493433900,0.439433837890625,-0.2476135790348053,0.02715972810983658,0.005824768915772438,0.005500845145434141,0.006722636520862579,-0.9999622702598572,0.015601037070155144,-0.040840644389390945,0.012566030025482178,0.9999905283008853,-0.003361742218754668,0.0027499691704162684,0.0001426277040688946
1681504109503409000,0.449408935546875,-0.28372693061828613,0.03987376391887665,0.029445510357618332,0.005840059835463762,0.009391628205776215,-0.9999388456344604,0.03195493668317795,-0.05080333724617958,0.01811206340789795,0.9999847610771002,-0.0046965630504080345,0.0029189843075007635,0.0002321289651365951
1681504109513383000,0.4593828125,-0.2686459720134735,0.04843316972255707,0.04497546702623367,0.006288452539592981,0.01222580298781395,-0.9999054670333862,0.021420486271381378,-0.048678409308195114,0.014477670192718506,0.9999763769730011,-0.006114357446372377,0.00314174828744561,0.00041739783286953193
1681504109523358000,0.46935791015625,-0.1968289613723755,0.047148775309324265,0.05209066718816757,0.006784713827073574,0.014509462751448154,-0.9998717308044434,0.010929718613624573,-0.037458036094903946,0.005059719085693359,0.9999676649109391,-0.00725722945000452,0.0033876171214059264,0.0006682072642091925
1681504109533332700,0.479332763671875,-0.16951479017734528,0.05132860690355301,0.03515589237213135,0.007238314021378756,0.01630524918437004,-0.9998408555984497,0.011086469516158104,-0.019356364384293556,-0.006216824054718018,0.9999598442874128,-0.008156196496765775,0.0036119765959150094,0.00089813200202068
1681504109543307800,0.489307861328125,-0.16992054879665375,0.05378904938697815,0.00985424779355526,0.00774289621040225,0.01798422262072563,-0.9998083114624023,0.018791116774082184,-0.004906795918941498,-0.010994911193847656,0.9999515398304958,-0.008996447389898158,0.003862551569365692,0.0010097019398438941
1681504109553281800,0.49928173828125,-0.1785726249217987,0.03382918983697891,-0.014843374490737915,0.008210391737520695,0.01972990669310093,-0.9997716546058655,0.0167672261595726,-0.012496596202254295,-0.0002588629722595215,0.9999424479401976,-0.009869616916717073,0.004095562744622315,0.0009999075624607598
1681504109563256800,0.5092568359375,-0.19407621026039124,-0.009950249455869198,-0.02414846047759056,0.008301470428705215,0.02159157209098339,-0.9997324347496033,0.019880492240190506,-0.031219223514199257,0.0057138800621032715,0.9999327081351155,-0.010800255831173021,0.004141252863879595,0.0009037761008691251
1681504109573231900,0.51923193359375,-0.17486976087093353,-0.039811741560697556,-0.029218852519989014,0.008053159341216087,0.023441415280103683,-0.9996927976608276,0.023821428418159485,-0.03950827568769455,0.010785937309265137,0.9999228594010188,-0.011724733108108456,0.0040177831275440565,0.000776685381107266
1681504109583206000,0.529205810546875,-0.12960603833198547,-0.04813252389431,-0.03320828080177307,0.007612643763422966,0.024943845346570015,-0.9996598958969116,0.020935527980327606,-0.02859005145728588,0.014232039451599121,0.9999147522691029,-0.012475361863476067,0.003798843848265449,0.0006253915292231122
1681504109593181000,0.539180908203125,-0.06730779260396957,-0.06432214379310608,-0.03242824226617813,0.007068193051964045,0.025877373293042183,-0.9996401071548462,0.014369383454322815,-0.004880636930465698,0.0017306208610534668,0.9999099498759579,-0.01294149545753362,0.003528386568949847,0.0004657689461757592
1681504109603156000,0.549156005859375,-0.023779286071658134,-0.07209382951259613,-0.026412995532155037,0.006389209534972906,0.02624472975730896,-0.9996351003646851,0.012301784008741379,0.019684867933392525,-0.006422579288482666,0.9999087514688736,-0.013124586692699159,0.003190683198640245,0.0003209855863213868
1681504109613130800,0.559130859375,0.030180351808667183,-0.075015589594841,-0.015359011478722095,0.005674238782376051,0.026147956028580666,-0.9996419548988342,0.013474519364535809,0.02644973248243332,-0.009757399559020996,0.999910430986241,-0.013075775212571663,0.0028344852232511097,0.00022087713050309723
1681504109623104800,0.569104736328125,0.09644562751054764,-0.07427384704351425,-0.008388138376176357,0.004957977682352066,0.025480687618255615,-0.9996629953384399,0.014587508514523506,0.01935027725994587,-0.0006878972053527832,0.9999157131551579,-0.012741827604061177,0.0024770898765024405,0.00016541890495623673
1681504109633079800,0.579079833984375,0.14617350697517395,-0.07375799119472504,-0.007600375451147556,0.004269979894161224,0.02422850951552391,-0.9996973276138306,0.013062981888651848,0.020220985636115074,0.005007386207580566,0.9999242871098065,-0.012115459213314913,0.002133519625921422,0.00013469849199969057
1681504109643054800,0.589054931640625,0.17967461049556732,-0.08299361914396286,-0.007201500702649355,0.0035357335582375526,0.02250479720532894,-0.999740481376648,0.00905174482613802,0.029253656044602394,0.00001519918441772461,0.9999350940470154,-0.011253299038912824,0.0017669003848922124,0.00009606331400913515
1681504109653030000,0.59902978515625,0.15769873559474945,-0.09967832267284393,-0.00809019710868597,0.0026704708579927683,0.02073202095925808,-0.9997814893722534,0.009978042915463448,0.023473331704735756,-0.0014544129371643066,0.999945341019084,-0.010366659279102538,0.0013346731074715358,0.00006128086122165383
1681504109663004000,0.60900390625,0.11878155916929245,-0.11141689866781235,-0.006674660835415125,0.0016969919670373201,0.019306445494294167,-0.9998121857643127,0.012050154618918896,0.0014461502432823181,-0.007786691188812256,0.9999530448154174,-0.009653699543972846,0.0008482678609719385,0.000027756650640964744
1681504109672979000,0.61897900390625,0.08346111327409744,-0.11328217387199402,-0.004428816959261894,0.000630497932434082,0.018308350816369057,-0.9998322129249573,0.00913410447537899,-0.02666952647268772,0.0005493760108947754,0.999958058885326,-0.009154560348166134,0.0003152466942767548,0.0000016921797675395014
1681504109682953700,0.62895361328125,0.07025136798620224,-0.10004903376102448,-0.006648927927017212,-0.0003695612831506878,0.017585882917046547,-0.9998452663421631,0.003923836629837751,-0.04286905378103256,0.008436024188995361,0.9999613066755201,-0.008793284441188026,-0.0001846528022535955,-0.000015350751434987805
1681504109692928800,0.6389287109375,0.055727023631334305,-0.0808577612042427,-0.007450006902217865,-0.0012232707813382149,0.017052127048373222,-0.9998538494110107,-0.004133586771786213,-0.033241063356399536,0.009207546710968018,0.9999634082803434,-0.008526400104231353,-0.0006113100385305227,-0.000040781776311923126
1681504109702902800,0.64890283203125,0.04629390686750412,-0.06417114287614822,-0.006836913991719484,-0.001894623157568276,0.016621308401226997,-0.9998600482940674,-0.007093826308846474,-0.019001038745045662,-0.002932250499725342,0.9999650909834886,-0.0083110077355387,-0.0009467896143714464,-0.00006678195653389274
1681504109712877800,0.6588779296875,0.05201064795255661,-0.06903434544801712,-0.0010067217517644167,-0.002517989370971918,0.016202041879296303,-0.9998655915260315,-0.0018165293149650097,-0.011623762547969818,0.003314077854156494,0.9999664398939734,-0.008101400018629345,-0.0012583475397639672,-0.00008509864872821609
1681504109722852900,0.668852783203125,0.061047088354825974,-0.07278087735176086,0.003238656558096409,-0.0031692031770944595,0.015743592754006386,-0.999871015548706,0.007791593670845032,-0.008739165961742401,0.00853806734085083,0.9999677868824445,-0.007872167259621735,-0.0015840708236889043,-0.0000739082238625652
1681504109732827000,0.678826904296875,0.07454957813024521,-0.06782500445842743,0.00006230440340004861,-0.0038301527965813875,0.015148866921663284,-0.9998779296875,0.011229642666876316,-0.0060234684497118,0.005218505859375,0.9999694601137114,-0.007574782936658566,-0.0019146675304951193,-0.00006170429526465314
1681504109742802000,0.688802001953125,0.08888307958841324,-0.06094925105571747,-0.0018506606575101614,-0.004424736835062504,0.014339812099933624,-0.9998874068260193,0.009276009164750576,-0.0033223237842321396,0.007776200771331787,0.9999718582858201,-0.007170220547789488,-0.0022120647352238325,-0.00005103003523394013
1681504109752777000,0.69877685546875,0.09775567054748535,-0.06140092760324478,-0.004474939778447151,-0.004999060649424791,0.01334754191339016,-0.9998984336853027,0.0022972323931753635,-0.0006515868008136749,0.0011191368103027344,0.9999745851509587,-0.006674075727429094,-0.0024992329238937164,-0.0000540885123513002
1681504109762751700,0.708751708984375,0.10374891012907028,-0.06352479755878448,-0.004969988018274307,-0.005575419869273901,0.012224940583109856,-0.9999096989631653,-0.0013073165901005268,-0.004106623120605946,-0.004835724830627441,0.9999774536345825,-0.006112819287886135,-0.002787309993552469,-0.00007572175220588302
1681504109772725800,0.718725830078125,0.10669835656881332,-0.0705757811665535,-0.0076387422159314156,-0.006240176036953926,0.011060073040425777,-0.9999193549156189,0.0000746031291782856,-0.006252912804484367,-0.003727436065673828,0.9999798797804746,-0.005530473381233599,-0.0031195735603940285,-0.00010436491232844667
1681504109782700800,0.72870068359375,0.09551504999399185,-0.07272468507289886,-0.00975783634930849,-0.0069706253707408905,0.009993266314268112,-0.9999257922172546,0.005046995356678963,-0.007810617797076702,-0.0020883679389953613,0.9999815014223502,-0.0049972355529923195,-0.003484645963928466,-0.0001463296784001925
1681504109792676000,0.738676025390625,0.0781610906124115,-0.07854582369327545,-0.007370844017714262,-0.007711908780038357,0.009098057635128498,-0.999928891658783,0.006978464312851429,-0.012729007750749588,0.002797544002532959,0.9999821972428086,-0.004549822247999583,-0.003855182568441115,-0.0001847479784748735
1681504109802651000,0.74865087890625,0.06437201052904129,-0.08437036722898483,-0.0034261203836649656,-0.008464333601295948,0.008390775881707668,-0.9999289512634277,0.008097099140286446,-0.01896447315812111,0.00044780969619750977,0.9999822009042617,-0.004196330787105913,-0.0042313808961201346,-0.0002052100692715374
1681504109812625000,0.758625,0.06943307816982269,-0.09069989621639252,0.0017691743560135365,-0.009270016103982925,0.007743251975625753,-0.9999270439147949,0.011161083355545998,-0.021933283656835556,0.0005984902381896973,0.9999817842672456,-0.0038726514496848006,-0.004634294223879542,-0.0002060681923856099
1681504109822600000,0.768599853515625,0.07554446905851364,-0.08658153563737869,0.001595852430909872,-0.010099729523062706,0.007014854345470667,-0.99992436170578,0.012585889548063278,-0.017695363610982895,0.007309675216674805,0.9999811287381434,-0.0035084711053504436,-0.005049280710750249,-0.00019365248427587311
1681504109832574700,0.77857470703125,0.07746940106153488,-0.0772455558180809,-0.0016441494226455688,-0.010905444622039795,0.006274417974054813,-0.9999208450317383,0.009103885851800442,-0.008318454027175903,0.004803717136383057,0.999980166017845,-0.0031383480968553657,-0.005452210511407709,-0.00019751670307847756
1681504109842549800,0.7885498046875,0.08214081823825836,-0.08241363614797592,-0.008302801288664341,-0.011679243296384811,0.005475326906889677,-0.9999167919158936,0.0026145009323954582,-0.003430007491260767,0.00718003511428833,0.9999792136935693,-0.002739022548799626,-0.005839132108275711,-0.00022301518407043968
1681504109852523800,0.798523681640625,0.07606774568557739,-0.08647389709949493,-0.0159149132668972,-0.01248241774737835,0.004708238411694765,-0.9999110102653503,0.0018917964771389961,-0.005562089383602142,0.011019468307495117,0.9999777580747472,-0.0023558752299011414,-0.00624070472178147,-0.00027299338901002305
1681504109862498800,0.808498779296875,0.086033396422863,-0.11986278742551804,-0.01581745781004429,-0.013500483706593513,0.0038874950259923935,-0.999901294708252,0.00448151770979166,-0.004665051586925983,0.0059896111488342285,0.9999752812131866,-0.0019461215898304877,-0.006749738074564264,-0.00034459517671770276
1681504109872473900,0.818473876953125,0.08244026452302933,-0.14644485712051392,-0.0215483158826828,-0.014752709306776524,0.003010444575920701,-0.9998866319656372,0.011883034370839596,-0.005710609257221222,-0.00023537874221801758,0.9999716634793446,-0.0015084698056522133,-0.007375908118420506,-0.00043449759940365713
1681504109882448000,0.82844775390625,0.06743054836988449,-0.1686677783727646,-0.021521352231502533,-0.01627001166343689,0.0021904148161411285,-0.9998652338981628,0.01752021163702011,-0.007988113909959793,0.009386777877807617,0.9999661364518617,-0.001099619280816597,-0.008134690216435776,-0.0005377721812074281
1681504109892423000,0.8384228515625,0.042904436588287354,-0.18711762130260468,-0.024379989132285118,-0.017961058765649796,0.001570909284055233,-0.9998374581336975,0.017441239207983017,-0.018812699243426323,0.002843499183654785,0.9999591054098356,-0.0007913107532229016,-0.00898038371209478,-0.0006484960799780057
1681504109902398000,0.84839794921875,0.007810864131897688,-0.20004135370254517,-0.024533070623874664,-0.0198013074696064,0.0012759929522871971,-0.9998031258583069,0.016199210658669472,-0.028786949813365936,-0.007856786251068115,0.999950492388491,-0.000645661568106339,-0.009900646309506916,-0.0007709709081330493
1681504109912372700,0.858372802734375,-0.022445043548941612,-0.21505838632583618,-0.028041785582900047,-0.021797211840748787,0.0013286885805428028,-0.9997615218162537,0.014288865029811859,-0.03173881396651268,-0.008096694946289062,0.999940013911743,-0.0006742326502754897,-0.010898650829059612,-0.0009035888559618845
1681504109922346800,0.8683466796875,-0.056939538568258286,-0.22414164245128632,-0.03995278850197792,-0.02393157407641411,0.001710947253741324,-0.9997121095657349,0.01575183868408203,-0.034852396696805954,-0.00011998414993286133,0.9999274977346229,-0.0008684022749915899,-0.011965720876094267,-0.0010752137880540437
1681504109932321800,0.87832177734375,-0.08842529356479645,-0.21657826006412506,-0.10538505762815475,-0.02607715129852295,0.0024138132575899363,-0.9996570348739624,0.012968827039003372,-0.03683700039982796,0.010643362998962402,0.9999133111649638,-0.0012253365035092294,-0.013037983394501549,-0.001405406104827666
1681504109942296800,0.888296875,-0.09302037209272385,-0.18403464555740356,-0.1936921924352646,-0.028005173429846764,0.0032864147797226906,-0.9996023774147034,0.007008057087659836,-0.03302515670657158,0.017409443855285645,0.9998981455308826,-0.0016742764790117102,-0.014000317594055936,-0.002206991407781569
1681504109952272000,0.89827197265625,-0.07191003113985062,-0.14746811985969543,-0.11684107780456543,-0.02954665757715702,0.004047501366585493,-0.999555230140686,-0.010295065119862556,-0.023303456604480743,0.02265709638595581,0.9998842156398106,-0.0020685463046902644,-0.014768798197185044,-0.003016913568951957
1681504109962246000,0.908245849609375,-0.06075078994035721,-0.13252414762973785,-0.035460568964481354,-0.030779222026467323,0.004641237203031778,-0.9995154142379761,-0.019545290619134903,-0.005983375478535891,0.01025766134262085,0.9998730981338355,-0.0023728526993891243,-0.015383552645975782,-0.003375879321855034
1681504109972221000,0.918220947265625,-0.056815434247255325,-0.128363236784935,-0.025712069123983383,-0.031959544867277145,0.005138075910508633,-0.9994759559631348,-0.0010614991188049316,0.007649424020200968,-0.001164853572845459,0.9998628292040429,-0.002625652767345539,-0.015972716324027244,-0.00352191738686411
1681504109982196000,0.928196044921875,-0.05442734435200691,-0.11357049643993378,-0.033432621508836746,-0.03305507451295853,0.005556168500334024,-0.9994381070137024,0.007541358470916748,-0.004060172475874424,-0.005246281623840332,0.9998528430515895,-0.00283918125798024,-0.01651953995424009,-0.003673181144041018
1681504109992170800,0.938170654296875,-0.04435740038752556,-0.09313099831342697,-0.03909050673246384,-0.03396567702293396,0.005902966018766165,-0.999405562877655,0.0012650638818740845,-0.013394396752119064,-0.004500627517700195,0.9998440235051815,-0.003017246733588504,-0.016973879148956164,-0.0038466774471623134
1681504110002144800,0.948144775390625,-0.02466398850083351,-0.0719020813703537,-0.04964321851730347,-0.0346870981156826,0.006071310490369797,-0.9993797540664673,-0.001858726143836975,-0.008771482855081558,-0.003824472427368164,0.9998367282163552,-0.003106723792852957,-0.0173337316854609,-0.0040707538402849465
1681504110012119800,0.958119873046875,-0.010152424685657024,-0.06173147261142731,-0.0441397950053215,-0.035256654024124146,0.006062985863536596,-0.9993599057197571,-0.00243358314037323,-0.0047195786610245705,-0.0037680864334106445,0.9998307501112507,-0.003108004984208966,-0.01761790465457786,-0.004313003858347369
1681504110022094800,0.9680947265625,-0.009361864998936653,-0.07152034342288971,-0.03404208645224571,-0.03586294502019882,0.006008508149534464,-0.9993386268615723,-0.000576067715883255,-0.00033160625025629997,-0.0038961172103881836,0.9998245707869834,-0.0030855021321200787,-0.017920720621358605,-0.004503542279830536
1681504110032070000,0.97806982421875,-0.014212546870112419,-0.0798131600022316,-0.028154369443655014,-0.03665218874812126,0.005999130662530661,-0.9993100762367249,0.006438761949539185,-0.0035723503679037094,0.001705765724182129,0.9998166940088167,-0.0030853912215807596,-0.018315089413347477,-0.0046552014050957454
1681504110042044000,0.9880439453125,-0.02062859944999218,-0.08463742583990097,-0.02521122619509697,-0.03754877671599388,0.006131868343800306,-0.9992759823799133,0.009212177246809006,-0.012570444494485855,0.008034586906433105,0.9998074676386336,-0.0031564848989057777,-0.0187628694821693,-0.004793666551495688
1681504110052019000,0.99801904296875,-0.0315432995557785,-0.08346617221832275,-0.03418421745300293,-0.03838047757744789,0.006403036415576935,-0.9992426633834839,0.006976861506700516,-0.016778379678726196,0.006368577480316162,0.9997983870769459,-0.003296958654996137,-0.01917781116650913,-0.0049419511484129295
1681504110061992700,1.00799267578125,-0.03057314269244671,-0.0703141987323761,-0.037788886576890945,-0.039099354296922684,0.00673171691596508,-0.9992126226425171,-0.0012611672282218933,-0.01709180325269699,-0.000024318695068359375,0.9997900514153449,-0.0034666927329315683,-0.019536014437854164,-0.005124194989496816
1681504110071966700,1.017966796875,-0.053174857050180435,-0.061594750732183456,-0.03476167097687721,-0.039706986397504807,0.007090426050126553,-0.9991862177848816,-0.006070408970117569,-0.012827099300920963,-0.0009357929229736328,0.9997825024055033,-0.003651273039300698,-0.019838434017086737,-0.005306156815901133
1681504110081941800,1.027941650390625,-0.07099250704050064,-0.052616752684116364,-0.03598307818174362,-0.0402667261660099,0.007676392327994108,-0.9991594552993774,-0.005892142653465271,-0.015503520146012306,-0.002702057361602783,0.9997747900781362,-0.003949514223846777,-0.020116211600661127,-0.005489529913005321
1681504110091916800,1.037916748046875,-0.0648438036441803,-0.03905753046274185,-0.021130099892616272,-0.04068109020590782,0.008296501822769642,-0.9991377592086792,-0.004089221358299255,-0.020167209208011627,0.0002364516258239746,0.9997685023878252,-0.004263750480958213,-0.020321223048982838,-0.005635125321080034
1681504110101891800,1.047891845703125,-0.07835298031568527,-0.03390900418162346,-0.006667353678494692,-0.04103910177946091,0.00897765252739191,-0.9991171956062317,0.0006938353180885315,-0.022984590381383896,0.020189642906188965,0.9997630619621568,-0.004606930579107664,-0.020498108956076445,-0.00570845517807718
1681504110111865900,1.057865966796875,-0.08863917738199234,-0.024722963571548462,0.002109093591570854,-0.04129348322749138,0.009793008677661419,-0.99909907579422,0.002916596829891205,-0.022167256101965904,-0.005890488624572754,0.9997582969004298,-0.00501592266850843,-0.020622975756638733,-0.0057317554581364175
1681504110121840600,1.067840576171875,-0.08073311299085617,-0.03763327747583389,-0.003003809368237853,-0.041533008217811584,0.01059152651578188,-0.999081015586853,0.0050024427473545074,-0.01149116549640894,0.004909932613372803,0.999753774357066,-0.0054161601090068345,-0.02074051934738402,-0.005740602169340867
1681504110131815700,1.077815673828125,-0.0693449005484581,-0.04724115878343582,0.000463093543658033,-0.04193013161420822,0.011236721649765968,-0.9990573525428772,0.005643703043460846,-0.01758374646306038,0.017444252967834473,0.9997477959581357,-0.005740293412705975,-0.020937313211699414,-0.005754551539563471
1681504110141790700,1.087790771484375,-0.050952184945344925,-0.050991903990507126,-0.003156874794512987,-0.04239388555288315,0.011763298884034157,-0.9990317225456238,0.006397373974323273,-0.021360445767641068,-0.006644487380981445,0.9997413775976569,-0.00600515746454146,-0.021167819133336225,-0.005761343202466484
1681504110151764700,1.0977646484375,-0.030450105667114258,-0.08064407110214233,-0.01922265999019146,-0.0430726632475853,0.012075715698301792,-0.9989989399909973,0.006206400692462921,-0.001165051944553852,0.00473630428314209,0.999732696622722,-0.006164879017006643,-0.02150614179953641,-0.0058296405626168555
1681504110161739800,1.10773974609375,-0.0348721481859684,-0.09129240363836288,-0.02634548395872116,-0.043960291892290115,0.012308049947023392,-0.9989574551582336,0.00715506449341774,0.002035842277109623,0.004923701286315918,0.9997217607051287,-0.006286166601423417,-0.02194890932381188,-0.005940731779030593
1681504110171714800,1.11771484375,-0.03644394874572754,-0.10680744796991348,-0.04470052570104599,-0.04494393244385719,0.012569599784910679,-0.9989104270935059,0.009145781397819519,-0.006541748531162739,-0.020208775997161865,0.9997088311048263,-0.0064241359062412315,-0.022439143845801944,-0.006126152591676235
1681504110181689900,1.12768994140625,-0.028782466426491737,-0.11062216013669968,-0.04844680801033974,-0.04601467773318291,0.012760809622704983,-0.9988592267036438,0.00975877046585083,-0.002704639919102192,0.0032996535301208496,0.9996945292660582,-0.00652856007804477,-0.02297281947247146,-0.006362344014748627
1681504110191663600,1.13766357421875,-0.043207213282585144,-0.09769997000694275,-0.031098974868655205,-0.04703101888298988,0.01299941074103117,-0.9988088607788086,0.008730430155992508,-0.009489260613918304,0.00816255807876587,0.9996805922802784,-0.006656010825951647,-0.02347930197177311,-0.006566609305591801
1681504110201638700,1.147638671875,-0.04881203547120094,-0.08699150383472443,-0.0205558892339468,-0.04793499410152435,0.013421302661299706,-0.9987602829933167,0.0051483213901519775,-0.01120814960449934,-0.0013006925582885742,0.9996676219907642,-0.006873273160053811,-0.023929397039001116,-0.006700427012301493
1681504110211613700,1.15761376953125,-0.04493580386042595,-0.06916403770446777,-0.019258396700024605,-0.04866371303796768,0.013803361915051937,-0.9987198114395142,0.0014062188565731049,-0.012261597439646721,0.007951498031616211,0.9996567876196589,-0.007069349150855835,-0.02429210629294696,-0.00680228088773798
1681504110221588700,1.167588623046875,-0.04956917092204094,-0.05728021264076233,-0.011623380705714226,-0.049231432378292084,0.014194031246006489,-0.9986865520477295,-0.0007726475596427917,-0.019793378189206123,0.006056606769561768,0.9996478866230687,-0.007268663951953155,-0.024574355953620088,-0.006880703874130744
1681504110231562500,1.1775625,-0.012562151998281479,-0.1273897886276245,-0.0013797972351312637,-0.04993138834834099,0.014844536781311035,-0.9986423254013062,-0.002727724611759186,-0.014904944226145744,-0.003936350345611572,0.9996364567632908,-0.007597757916392984,-0.024922096113827775,-0.006930690642530134
1681504110241537800,1.187537841796875,-0.07823576778173447,-0.07878006994724274,0.017774289473891258,-0.05053699016571045,0.015291458927094936,-0.9986051321029663,0.0026233606040477753,-0.0055099474266171455,0.014596402645111084,0.9996275382761096,-0.007822275226012742,-0.02522404416524468,-0.006883603958572043
1681504110251512800,1.197512939453125,-0.11061102151870728,0.02446002885699272,0.02687830664217472,-0.050636835396289825,0.016120919957756996,-0.9985870122909546,0.0012888871133327484,-0.011863091960549355,0.02046823501586914,0.9996237026026662,-0.008235223309513607,-0.025271989198578176,-0.006792667862494284
1681504110261486800,1.20748681640625,-0.11194446682929993,-0.010682778432965279,0.04767972230911255,-0.05077308788895607,0.017385490238666534,-0.9985588788986206,-0.012765537947416306,-0.019154882058501244,-0.03998476266860962,0.9996176365273213,-0.008864112797710908,-0.025337466187267184,-0.00662965065901071
1681504110271461600,1.217461669921875,-0.15643736720085144,-0.03139018639922142,0.03720391169190407,-0.05088583007454872,0.018743256106972694,-0.9985285997390747,-0.006457727402448654,-0.021061962470412254,0.03128927946090698,0.9996114403888144,-0.009538408871560627,-0.025391522362508696,-0.006422400360117636
1681504110281436700,1.227436767578125,-0.2307194471359253,-0.014378500171005726,0.039975665509700775,-0.05087536573410034,0.020562881603837013,-0.9984933137893677,0.005235295742750168,-0.04529675096273422,0.03221529722213745,0.999603681407035,-0.010444632010630384,-0.025382293133466956,-0.0062662624119261285
1681504110291411700,1.23741162109375,-0.24449652433395386,-0.02310115098953247,0.049057312309741974,-0.05105799064040184,0.02291484735906124,-0.9984327554702759,-0.004454508423805237,-0.05349283292889595,-0.02935338020324707,0.9995897220487792,-0.011616810362716407,-0.02546891990934505,-0.006070959486131463
1681504110301385700,1.2473857421875,-0.2365775853395462,-0.057150520384311676,0.0434718132019043,-0.051570337265729904,0.02520439587533474,-0.9983512759208679,0.00545724481344223,-0.03228384256362915,0.009169816970825195,0.9995705857301248,-0.012758536586479475,-0.025721382080777823,-0.0058651558038668025
1681504110311360800,1.25736083984375,-0.285885751247406,-0.05041351914405823,0.04251041263341904,-0.05212409794330597,0.02772335149347782,-0.998255729675293,0.016768455505371094,-0.02839410863816738,0.023356497287750244,0.9995476361009338,-0.014015913954578435,-0.025994061937159193,-0.005689685219341996
1681504110321335800,1.267335693359375,-0.3042457401752472,-0.019331926479935646,0.059512946754693985,-0.05237333104014397,0.03064294159412384,-0.9981573224067688,0.002674426883459091,-0.0269649438560009,-0.009609341621398926,0.9995243223515684,-0.015471596748934913,-0.026114505137213063,-0.0054669244458979945
1681504110331310800,1.277310791015625,-0.30740585923194885,0.000987194012850523,0.052359163761138916,-0.052471715956926346,0.033623434603214264,-0.998056173324585,-0.00537538155913353,-0.018150392919778824,0.01688563823699951,0.999500323331396,-0.01695698010400493,-0.026160262705735713,-0.005228884353037426
1681504110341284900,1.287284912109375,-0.30531343817710876,0.037860576063394547,0.04330074042081833,-0.05233361944556236,0.036571621894836426,-0.9979597926139832,-0.008702564984560013,-0.024775944650173187,0.01945948600769043,0.9994770670869362,-0.018426939911767682,-0.026087570965630098,-0.0050404761300261265
1681504110351259600,1.297259765625,-0.29248926043510437,0.031356602907180786,0.04918765649199486,-0.051958441734313965,0.039432819932699203,-0.9978704452514648,-0.01185484230518341,-0.022510193288326263,0.01018434762954712,0.999455648118364,-0.019853009184813745,-0.025896883077196273,-0.004857425028986204
1681504110361234700,1.307234619140625,-0.26363739371299744,0.02214355766773224,0.0462929829955101,-0.05164360627532005,0.041990991681814194,-0.9977824091911316,-0.009209472686052322,-0.007307134568691254,0.008036375045776367,0.9994345894617279,-0.021127324690337897,-0.02573794818539014,-0.004657830997840051
1681504110371209700,1.317209716796875,-0.22266440093517303,0.008989407680928707,0.041148021817207336,-0.05146009474992752,0.04415905848145485,-0.9976982474327087,0.0028598234057426453,-0.0016016624867916107,-0.004361569881439209,0.9994144820857828,-0.02220721644234299,-0.02564575418173188,-0.004471897698494065
1681504110381183700,1.327183837890625,-0.18426825106143951,-0.023716021329164505,0.034093573689460754,-0.051535189151763916,0.04602614790201187,-0.9976100325584412,0.009175766259431839,0.0034892521798610687,-0.012964248657226562,0.9993929972432881,-0.023137914264550582,-0.025683370619230945,-0.004313870345281301
1681504110391158800,1.33715869140625,-0.14979922771453857,-0.03303069248795509,0.024826573207974434,-0.051770612597465515,0.04757966101169586,-0.9975249171257019,0.012768123298883438,0.009824533015489578,-0.011279284954071045,0.9993722670400869,-0.023912765122483817,-0.025801480645739346,-0.004182826434798799
1681504110401133800,1.3471337890625,-0.12504301965236664,-0.036636240780353546,0.021896429359912872,-0.052073996514081955,0.04885890707373619,-0.9974473118782043,0.012873146682977676,0.01248205453157425,-0.009617388248443604,0.9993532865774719,-0.02455121001854892,-0.025953624651723253,-0.004079559759986473
1681504110411108600,1.357108642578125,-0.1135895699262619,-0.022371817380189896,0.00865226425230503,-0.05240480601787567,0.04999561235308647,-0.997373640537262,0.007161471992731094,0.00927015021443367,-0.0016649365425109863,0.9993351407833866,-0.025119388614403146,-0.026118900104025806,-0.004015530206634315
1681504110421082600,1.36708251953125,-0.11298622936010361,0.008251978084445,0.002418136689811945,-0.0524878092110157,0.051045432686805725,-0.9973161220550537,-0.0000034496188163757324,0.0007893070578575134,0.007875263690948486,0.9993207460803838,-0.025644993420932616,-0.026158875144276308,-0.004008519865340208
1681504110431057700,1.3770576171875,-0.1117933988571167,0.009981434792280197,0.0004684364830609411,-0.05242343246936798,0.05209501460194588,-0.9972652196884155,-0.005484692752361298,-0.005631372332572937,0.016079425811767578,0.9993080524408445,-0.02617057155874367,-0.02612465363472738,-0.004017480429328057
1681504110441032700,1.38703271484375,-0.11736706644296646,0.01334223710000515,-0.007610096596181393,-0.052321504801511765,0.05319376662373543,-0.9972125291824341,-0.007524494081735611,-0.007996603846549988,0.013234376907348633,0.9992947184039876,-0.02672142133471246,-0.026070810410476052,-0.0040540094214956465
1681504110451007700,1.3970078125,-0.12269657850265503,-0.009406217373907566,-0.011756638064980507,-0.052268534898757935,0.054340895265340805,-0.9971534609794617,-0.002038523554801941,-0.010486502200365067,0.007727921009063721,0.999279662793816,-0.02729734701371267,-0.026040613236890553,-0.004118040571790789
1681504110460981800,1.406981689453125,-0.12480247765779495,-0.03977072983980179,-0.014223191887140274,-0.05248516798019409,0.05552634969353676,-0.9970768094062805,0.006768815219402313,-0.009673058986663818,0.00032705068588256836,0.9992601516751148,-0.027893554437928614,-0.026144844082531767,-0.0041975141284163395
1681504110470956800,1.416956787109375,-0.13246731460094452,-0.04890084266662598,-0.014401089400053024,-0.05287516117095947,0.05679614841938019,-0.9969846606254578,0.011370230466127396,-0.013246934860944748,-0.0017182230949401855,0.9992367079232873,-0.02853264632796241,-0.026335479605851406,-0.004282912931980891
1681504110480931800,1.426931884765625,-0.14872752130031586,-0.06245394051074982,-0.00907876342535019,-0.05339394509792328,0.058217283338308334,-0.9968750476837158,0.011324439197778702,-0.015431009232997894,-0.006207168102264404,0.999209005251831,-0.02924747689245848,-0.026590745862166292,-0.0043511555907310975
1681504110490906600,1.43690673828125,-0.16879203915596008,-0.053108103573322296,0.0013501758221536875,-0.05394831299781799,0.05979396402835846,-0.9967518448829651,0.008567646145820618,-0.01763330027461052,-0.006055653095245361,0.9991780676407851,-0.030039315355885134,-0.02686469186046839,-0.0043790988654541976
1681504110500880600,1.446880615234375,-0.19328932464122772,-0.05002070218324661,0.01259647123515606,-0.05444448068737984,0.061565905809402466,-0.9966170191764832,0.0054474808275699615,-0.022426478564739227,-0.0019028186798095703,0.9991443949395918,-0.03092766642588211,-0.027110533491131458,-0.004361857498265894
1681504110510855700,1.456855712890625,-0.19518283009529114,-0.057926833629608154,0.01729109138250351,-0.055004462599754333,0.06348638981580734,-0.9964657425880432,0.003611832857131958,-0.024865761399269104,0.0008756518363952637,0.9991068342936702,-0.03188963257562007,-0.027389356862121284,-0.0043066476001134
1681504110520830700,1.466830810546875,-0.1633332520723343,-0.05665159970521927,0.009914485737681389,-0.05558716505765915,0.06520825624465942,-0.9963222146034241,0.005399983376264572,-0.023062855005264282,0.006942451000213623,0.999071047831234,-0.03275227447679893,-0.027680004826303735,-0.004252890362425375
1681504110530804700,1.4768046875,-0.11650928854942322,-0.05316605418920517,-0.006915627047419548,-0.05612614378333092,0.06654531508684158,-0.996203601360321,0.00632043182849884,-0.01631275564432144,0.00784611701965332,0.9990413633171591,-0.03342371855027176,-0.02794752298227338,-0.004258663886097234
1681504110540779800,1.48677978515625,-0.06660401821136475,-0.039007414132356644,-0.006140697281807661,-0.05655617639422417,0.06736736744642258,-0.9961240291595459,0.0022338666021823883,0.0002907291054725647,0.007202029228210449,0.9990212647041001,-0.03383783406510994,-0.028160215693569253,-0.0042979771354726545
1681504110550754800,1.4967548828125,-0.03117997944355011,-0.02164600044488907,-0.013123772107064724,-0.056785762310028076,0.06775835156440735,-0.996084451675415,-0.004143606871366501,0.018881678581237793,0.00546872615814209,0.9990111815613764,-0.03403572453292283,-0.028272893573290617,-0.004346715587144936
1681504110560729900,1.506729736328125,-0.02224430814385414,-0.01668304018676281,-0.01418166235089302,-0.05692204087972641,0.06791434437036514,-0.9960660338401794,-0.010843265801668167,0.021609604358673096,-0.009762704372406006,0.999006229514231,-0.034116375665374864,-0.028338335864622456,-0.004421542482508579
1681504110570704000,1.516703857421875,-0.02987612783908844,-0.014731476083397865,-0.005084038246423006,-0.05703847482800484,0.06806237250566483,-0.9960492849349976,-0.009704496711492538,0.010856717824935913,-0.016859591007232666,0.9990017721095019,-0.034192475465512545,-0.02839445860121554,-0.004478257471379119
1681504110580678700,1.5266787109375,-0.0474228635430336,-0.0181007981300354,0.0046853190287947655,-0.05716848373413086,0.06833308935165405,-0.9960232973098755,-0.004981584846973419,-0.0007360279560089111,-0.013543844223022461,0.9989952519308393,-0.03432844159289625,-0.028459154172300164,-0.004476819562295917
1681504110590653700,1.53665380859375,-0.0684671625494957,-0.011918271891772747,0.013037525117397308,-0.057289931923151016,0.06880586594343185,-0.9959837198257446,0.0011365637183189392,-0.012866519391536713,-0.0028412342071533203,0.9989855681420479,-0.03456447053040641,-0.028520624674667264,-0.004434427808275067
1681504110600628700,1.546628662109375,-0.09445511549711227,0.007151613011956215,0.016742032021284103,-0.05726436525583267,0.0695442259311676,-0.9959339499473572,0.0012483298778533936,-0.022500760853290558,0.0037923455238342285,0.9989734762895216,-0.034932452609390055,-0.02850892240849422,-0.0043663149764391635
1681504110610602500,1.5566025390625,-0.10562095046043396,0.0061167082749307156,0.01870052143931389,-0.05716275796294212,0.07049333304166794,-0.9958730340003967,-0.0018745213747024536,-0.0254792720079422,0.007500350475311279,0.9989585051561756,-0.035405875387684256,-0.02845882308065656,-0.004298609033431301
1681504110620577800,1.566577880859375,-0.09496801346540451,0.0009876731783151627,0.013637002557516098,-0.057091519236564636,0.07149168103933334,-0.9958059787750244,-0.0024950727820396423,-0.022830776870250702,0.010362982749938965,0.9989419821465716,-0.03590426954798249,-0.028423691664558833,-0.004237385002656681
1681504110630552800,1.576552734375,-0.06887329369783401,-0.012520679272711277,0.006619040388613939,-0.05714446306228638,0.0723612904548645,-0.9957401156425476,0.0022575706243515015,-0.01774945855140686,0.013440430164337158,0.9989257245775425,-0.03633900895495416,-0.02845038414354749,-0.004194122244570605
1681504110640527600,1.586527587890625,-0.02938936837017536,-0.02467651665210724,0.001344533171504736,-0.05739603936672211,0.07290761917829514,-0.9956857562065125,0.00583556666970253,-0.008224986493587494,0.012272238731384277,0.9989121675995649,-0.036613349177496465,-0.028575720515324,-0.0041892875072258445
1681504110650501600,1.596501708984375,0.007746016141027212,-0.03490092232823372,-0.0035466281697154045,-0.057722046971321106,0.07303224503993988,-0.9956578016281128,0.007382277399301529,0.007717899978160858,0.007452964782714844,0.9989050935532818,-0.036676702360202006,-0.02873880368662088,-0.004190291618734559
1681504110660476700,1.6064765625,0.035242289304733276,-0.03014931082725525,-0.009782719425857067,-0.05806261673569679,0.07278338074684143,-0.9956561923027039,0.007020942866802216,0.02052474021911621,-0.0011851191520690918,0.9989045830464461,-0.03655369067678509,-0.028908766407113432,-0.004218722243337763
1681504110670451700,1.61645166015625,0.05296162888407707,-0.014887536875903606,-0.014366019517183304,-0.05830894410610199,0.07225853204727173,-0.995680034160614,0.004581723362207413,0.022880643606185913,-0.0063492655754089355,0.9989102827630174,-0.036292813625150876,-0.02903109338536575,-0.004271209296958463
1681504110680426800,1.6264267578125,0.05407925695180893,-0.011931001208722591,-0.0155994463711977,-0.05843453109264374,0.07162991911172867,-0.9957181215286255,-0.0017319023609161377,0.01542210578918457,-0.007333517074584961,0.9989194949163883,-0.03597986178736819,-0.02909283867733566,-0.004331899952316988
1681504110690400800,1.63640087890625,0.0710822120308876,-0.021358590573072433,-0.01595471240580082,-0.0586191825568676,0.07090309262275696,-0.9957593083381653,-0.003942880779504776,0.0071309879422187805,-0.008741974830627441,0.9989296623503465,-0.03561796202579505,-0.029184251223288545,-0.004395991016664561
1681504110700375800,1.646375732421875,0.07332438975572586,-0.02897576615214348,-0.009685597382485867,-0.05887673422694206,0.0700995922088623,-0.9958009719848633,0.00022092461585998535,0.00024405866861343384,0.000683903694152832,0.9989398288235295,-0.035217507065259945,-0.029312806172400074,-0.004447737986418146
1681504110710350800,1.656350830078125,0.06908224523067474,-0.035684533417224884,-0.004802691750228405,-0.059176091104745865,0.06934937089681625,-0.9958357810974121,0.007096819579601288,-0.006329946219921112,0.00489962100982666,0.9989484634048253,-0.03484295500028061,-0.029463361821736096,-0.004467616733576833
1681504110720325600,1.66632568359375,0.06984443962574005,-0.034616339951753616,-0.009891726076602936,-0.05951261892914772,0.0686282366514206,-0.9958656430244446,0.007784299552440643,-0.005059495568275452,0.002655923366546631,0.9989558380394448,-0.03448310768730541,-0.029632501095269524,-0.004487712370662677
1681504110730299600,1.676299560546875,0.07879558950662613,-0.029137685894966125,-0.008869338780641556,-0.05980243533849716,0.06791315227746964,-0.9958972930908203,0.0025656968355178833,-0.00507684051990509,0.0021383166313171387,0.9989635470530763,-0.034126544221433526,-0.029777828838491914,-0.004520006567571373
1681504110740274700,1.686274658203125,0.08940389007329941,-0.0307813361287117,-0.00710306316614151,-0.060069162398576736,0.06716160476207733,-0.9959322214126587,-0.0022945329546928406,-0.007392294704914093,0.0015628337860107422,0.998972227545523,-0.03375139795850321,-0.02991197248210806,-0.004543573425164226
1681504110750249700,1.696249755859375,0.08843290060758591,-0.030620213598012924,0.002338108606636524,-0.060331154614686966,0.0663580372929573,-0.9959702491760254,-0.002688668668270111,-0.004772931337356567,0.0031419992446899414,0.9989818282151962,-0.033349233031291184,-0.030044923925504653,-0.004535174212327459
1681504110760224800,1.706224853515625,0.10549045354127884,-0.04082624614238739,0.0002222272305516526,-0.0607045516371727,0.06550725549459457,-0.9960038661956787,0.000812780112028122,-0.006958656013011932,0.0019701719284057617,0.9989902479483646,-0.032923158472553844,-0.030234400037249975,-0.0045076255015807564
1681504110770198800,1.71619873046875,0.15145449340343475,-0.08700838685035706,-0.006013298407196999,-0.06134014576673508,0.06424838304519653,-0.9960469603538513,0.009306650608778,-0.006493233144283295,-0.003113687038421631,0.9990012163184667,-0.03229357616803398,-0.030555660132961605,-0.00448793366373957
1681504110780173800,1.726173828125,0.20376962423324585,-0.0945320874452591,-0.024591775611042976,-0.06226294860243797,0.06251046061515808,-0.9961003065109253,0.019644126296043396,0.0041100382804870605,-0.004677772521972656,0.9990144085016797,-0.03142630786077117,-0.03102010800578284,-0.00451656112535844
1681504110790148600,1.736148681640625,0.25592949986457825,-0.09614036977291107,-0.030734356492757797,-0.06319426745176315,0.06022011861205101,-0.9961827397346497,0.020773813128471375,0.02300194278359413,-0.004152834415435791,0.9990346096271482,-0.03028427151454297,-0.031488099427679106,-0.004604142316830926
1681504110800122600,1.74612255859375,0.31463196873664856,-0.0859748125076294,-0.0344151109457016,-0.0640944242477417,0.057365331798791885,-0.9962937235832214,0.01174049824476242,0.034996744245290756,-0.0013868212699890137,0.9990619594826939,-0.028860102755656963,-0.03194131322329756,-0.004707517115381288
1681504110810097700,1.75609765625,0.33302003145217896,-0.07291947305202484,-0.02720380388200283,-0.06485636532306671,0.054112691432237625,-0.9964263439178467,0.005132436752319336,0.03742541745305061,-0.0049010515213012695,0.9990947179163957,-0.02723586102537147,-0.03232697549094599,-0.0047904275835809525
1681504110820072700,1.76607275390625,0.32458552718162537,-0.07238417863845825,-0.017768757417798042,-0.06558341532945633,0.05085435137152672,-0.9965503811836243,0.0011902973055839539,0.024723060429096222,-0.008606970310211182,0.9991255340129346,-0.025607629480893856,-0.03269650843534353,-0.0048341660953835
1681504110830047700,1.7760478515625,0.31312206387519836,-0.07510251551866531,-0.01443134993314743,-0.06630481779575348,0.04769260808825493,-0.996658980846405,0.0006910040974617004,0.011771522462368011,-0.00782698392868042,0.9991525846021508,-0.02402706978453246,-0.033063861989481,-0.004851377347686293
1681504110840021800,1.786021728515625,0.27539682388305664,-0.07827092707157135,0.0006942892214283347,-0.06704649329185486,0.044782523065805435,-0.9967443346977234,0.001631036400794983,-0.005780424922704697,-0.00024956464767456055,0.9991740363033397,-0.022571420268569904,-0.03344185468746268,-0.004829757819550917
1681504110849996800,1.795996826171875,-0.06844602525234222,1.3887531757354736,0.1579108089208603,-0.06374523788690567,0.04335644096136093,-0.9970239400863647,-0.0007546916604042053,-0.019964084029197693,0.005416393280029297,0.9992451603161093,-0.021840884124669915,-0.03179620922992275,-0.004597345990262588
1681504110859971800,1.805971923828125,-0.07256913185119629,0.46293869614601135,0.018136531114578247,-0.05128197744488716,0.044652439653873444,-0.9976854920387268,-0.014286067336797714,-0.029194656759500504,0.005955815315246582,0.9994121729930837,-0.022447969920602592,-0.025560679269210913,-0.00424690092852437
1681504110869946600,1.815946533203125,0.11821386963129044,-0.596924364566803,-0.09293193370103836,-0.05322955176234245,0.044170673936605453,-0.9976049065589905,0.032873302698135376,-0.03803601115942001,0.0029150843620300293,0.9993907325231152,-0.022219038069346272,-0.02653030385792064,-0.004529293321139459
1681504110879920600,1.825920654296875,0.08492535352706909,-0.32001766562461853,0.052101388573646545,-0.058085888624191284,0.043172404170036316,-0.9973776340484619,0.1451820284128189,-0.06865394860506058,0.07524335384368896,0.9993337846229218,-0.02173291374965378,-0.02896301614609475,-0.004565589792523233
1681504110889895700,1.835895751953125,0.1343749314546585,0.134563148021698,0.06138010695576668,-0.058965761214494705,0.04214297980070114,-0.9973700642585754,0.07216358929872513,-0.016812756657600403,-0.002599358558654785,0.9993335084294304,-0.021209244580017328,-0.02941334567922598,-0.004202818427898653
1681504110899870700,1.84587060546875,0.2297855019569397,0.2542983889579773,-0.02226337417960167,-0.056663043797016144,0.04036452993750572,-0.9975770711898804,-0.11741024255752563,0.04261339455842972,-0.03281831741333008,0.9993857118649567,-0.02031089283672118,-0.02826542198086116,-0.004109301117364892
1681504110909845800,1.855845703125,0.3801558315753937,0.058449793606996536,-0.030309049412608147,-0.05505719780921936,0.0373300164937973,-0.9977851510047913,-0.14544431865215302,0.011956505477428436,-0.023073554039001465,0.9994371735265348,-0.018792097322134535,-0.027464333712829414,-0.00424233822047938
1681504110919819800,1.86581982421875,0.5147619247436523,-0.11348564177751541,0.05280757322907448,-0.05540543422102928,0.03285251930356026,-0.9979233145713806,-0.033951058983802795,0.012726113200187683,-0.014054715633392334,0.9994721460360488,-0.016549267431698045,-0.027648914072505543,-0.004132966819419295
1681504110929794800,1.875794921875,0.5925443172454834,-0.16887833178043365,0.11183440685272217,-0.056872010231018066,0.0273460503667593,-0.9980068802833557,0.06381373107433319,0.05097794905304909,-0.035043537616729736,0.9994951728475807,-0.013782497782601183,-0.028400592378758714,-0.0036095942504353958
1681504110939769900,1.885769775390625,0.6632807850837708,-0.09117612987756729,0.07434500753879547,-0.05818568542599678,0.021161360666155815,-0.9980814456939697,0.0816221535205841,0.09105241298675537,-0.05962717533111572,0.9995156720357069,-0.010673755622348046,-0.02907465202894777,-0.0030234445827202923
1681504110949744600,1.89574462890625,0.7774435877799988,-0.0312773734331131,-0.02200150303542614,-0.05874473229050636,0.014025953598320484,-0.9981744885444641,0.049313779920339584,0.10142268240451813,-0.05404096841812134,0.9995396520484189,-0.007098022884151416,-0.029366117379735757,-0.0027847963812341597
1681504110959718700,1.90571875,0.8854761123657227,-0.07774079591035843,-0.10415394604206085,-0.05922812223434448,0.005697770044207573,-0.9982281923294067,0.017143361270427704,0.08338367938995361,-0.02626204490661621,0.9995525124549614,-0.002938814803878985,-0.029618522670580995,-0.002991869873531295
1681504110969693700,1.915693603515625,0.9986758828163147,-0.09893397241830826,-0.11716881394386292,-0.06017637625336647,-0.0037388582713901997,-0.9981807470321655,0.009256772696971893,0.06684984266757965,0.004528462886810303,0.9995392433521652,0.0017671850598766576,-0.030108110487311025,-0.003422941422088066
1681504110979668700,1.925668701171875,1.0449696779251099,-0.04878121614456177,-0.08629552274942398,-0.06087486445903778,-0.01400767546147108,-0.9980471134185791,0.005637019872665405,0.06456068158149719,0.023208916187286377,0.9995044520023072,0.006891909262104415,-0.030478617677119516,-0.0037844214573796034
1681504110989643800,1.935643798828125,1.0809036493301392,-0.03598365932703018,-0.07964108139276505,-0.06123485416173935,-0.024646978825330734,-0.9978190064430237,-0.007079768925905228,0.05838479846715927,0.012986302375793457,0.9994464975115026,0.012206676800493536,-0.030683569885809853,-0.004027211432402078
1681504110999617800,1.94561767578125,1.053523302078247,-0.06065034121274948,-0.10341370105743408,-0.061681248247623444,-0.035367004573345184,-0.9974690675735474,-0.008479688316583633,0.04331747069954872,-0.001142263412475586,0.9993577158812142,0.017561154962761935,-0.030936347106735512,-0.004319385906783088
1681504111009592800,1.9555927734375,0.9853991270065308,-0.06486798822879791,-0.12807297706604004,-0.06225812807679176,-0.04557901993393898,-0.9970188140869141,0.0036786124110221863,0.019532904028892517,-0.003377854824066162,0.999243100157307,0.02265817221390396,-0.03126035243678002,-0.0047500627876293465
1681504111019567600,1.965567626953125,0.9009221792221069,-0.06797637045383453,-0.14545030891895294,-0.06277990341186523,-0.05505989491939545,-0.996507465839386,0.011326238512992859,0.0020820125937461853,0.010469257831573486,0.9991124130986021,0.027387264346283507,-0.03156286756964452,-0.00529076393521366
1681504111029542700,1.975542724609375,0.7857494950294495,-0.08018296957015991,-0.146101713180542,-0.06348323076963425,-0.06355011463165283,-0.9959574341773987,0.004033960402011871,-0.01910611242055893,0.026032567024230957,0.9989714027200112,0.03161886461030421,-0.03196118615731136,-0.005904584531237218
1681504111039516700,1.9855166015625,0.6667792201042175,-0.05474717170000076,-0.11342402547597885,-0.06408888846635818,-0.07083597779273987,-0.9954270124435425,-0.01173306256532669,-0.03809588402509689,0.04791724681854248,0.9988352852095573,0.035250536359490235,-0.03230956574811679,-0.006453508657187106
1681504111049491700,1.99549169921875,0.5452945828437805,-0.018907949328422546,-0.05962976813316345,-0.06435572355985641,-0.07694276422262192,-0.994956374168396,-0.03714676946401596,-0.05075741559267044,0.062262892723083496,0.9987152732097734,0.0383000545569816,-0.0324796412861424,-0.006789834188264451
1681504111059466500,2.005466552734375,0.34931808710098267,-0.01393700111657381,-0.005252932198345661,-0.06448877602815628,-0.08143001049757004,-0.9945905208587646,-0.05642290413379669,-0.06854800134897232,0.06667309999465942,0.9986230984454483,0.04054727458455865,-0.03256756551887779,-0.006864486820668231
1681504111069441500,2.015441650390625,0.14212442934513092,0.0005556559190154076,0.016759958118200302,-0.06457033008337021,-0.08386729657649994,-0.9943826794624329,-0.058645427227020264,-0.08924303203821182,0.05372416973114014,0.9985716761496591,0.04177214246062701,-0.032615016735648976,-0.006781257380647481
1681504111079415600,2.02541552734375,-0.022871781140565872,0.01452217809855938,0.014218869619071484,-0.06448984891176224,-0.08443286269903183,-0.9943400621414185,-0.04497773200273514,-0.10721689462661743,0.04213064908981323,0.9985616295641395,0.042058822574503815,-0.032573393005686,-0.0066957861803626775
1681504111089390600,2.035390625,-0.12254830449819565,-0.0012501273304224014,0.01927914284169674,-0.06443152576684952,-0.0836610272526741,-0.9944090843200684,-0.03049442172050476,-0.11592330038547516,0.029870569705963135,0.9985793619590064,0.04167419751769793,-0.03253802298621263,-0.0066236157798763955
1681504111099365600,2.04536572265625,-0.18687567114830017,-0.015390980057418346,0.04232938215136528,-0.06453509628772736,-0.08207648247480392,-0.9945343732833862,-0.01081383228302002,-0.10250846296548843,0.020092904567718506,0.9986114072813863,0.04088302911154136,-0.032578803978020196,-0.006506753566265947
1681504111109340700,2.055340576171875,-0.2092992216348648,-0.011771210469305515,0.03475109115242958,-0.06471742689609528,-0.08005829155445099,-0.994687020778656,0.0102577805519104,-0.06755460798740387,0.015377998352050781,0.9986508409472329,0.03987586544036618,-0.0326556351690293,-0.00634124753006038
1681504111119314700,2.065314697265625,-0.17042003571987152,0.01963912323117256,-0.021396948024630547,-0.06471549719572067,-0.07815544307231903,-0.9948384761810303,0.010484732687473297,-0.02983037382364273,0.02468472719192505,0.998688688197879,0.03892194892057634,-0.032647122014762664,-0.006334796984138076
1681504111129289700,2.075289794921875,-0.09985717386007309,0.08905921131372452,-0.0693061500787735,-0.0641627386212349,-0.07684072107076645,-0.9949766993522644,-0.005921900272369385,-0.0055103302001953125,0.03959345817565918,0.9987217000952235,0.038256121575815476,-0.03237461826249895,-0.006583611842031418
1681504111139264500,2.085264404296875,-0.024689987301826477,0.17130853235721588,-0.0920516774058342,-0.0628008022904396,-0.07628313452005386,-0.9951065182685852,-0.03584829717874527,0.023228950798511505,0.043843090534210205,0.998751538530014,0.03796785702771717,-0.03170477388198648,-0.006974044423505264
1681504111149239600,2.095239501953125,0.00016023439820855856,0.22895771265029907,-0.11228451132774353,-0.06071191653609276,-0.07626647502183914,-0.995237410068512,-0.051654838025569916,0.04323183000087738,0.03396421670913696,0.9987809244134302,0.03795117714048197,-0.030675833439876263,-0.007443222151647912
1681504111159213600,2.105213623046875,-0.025278812274336815,0.25928062200546265,-0.1253088265657425,-0.05817895010113716,-0.07624068856239319,-0.9953906536102295,-0.04834368824958801,0.03852159529924393,0.012755215167999268,0.9988149467187584,0.03793005925560572,-0.029427547010616027,-0.007993647143446423
1681504111169188600,2.115188720703125,-0.09376706182956696,0.34050703048706055,-0.11518456041812897,-0.05520262569189072,-0.0757460743188858,-0.9955978989601135,-0.02997296303510666,0.015245608985424042,0.005973935127258301,0.9988621646939748,0.03767639387062683,-0.027955917369929854,-0.00856756287231853
1681504111179163600,2.12516357421875,-0.13657471537590027,0.26790618896484375,-0.043705448508262634,-0.052126556634902954,-0.07458627969026566,-0.9958512783050537,-0.008985929191112518,-0.013685189187526703,0.003206014633178711,0.9989224126395998,0.037097255425322315,-0.02642289334978998,-0.008926343483997626
1681504111189138700,2.135138671875,-0.16459409892559052,0.2070723921060562,-0.016345996409654617,-0.049735840409994125,-0.07311955839395523,-0.9960822463035583,0.014563295990228653,-0.035613954067230225,-0.0032921433448791504,0.9989792381925181,0.03636912080014712,-0.02522211599236208,-0.00903100377554355
1681504111199112700,2.14511279296875,-0.1844046413898468,0.16894717514514923,-0.014225837774574757,-0.04785764962434769,-0.07136522978544235,-0.9963014721870422,0.03630571439862251,-0.04899546504020691,-0.013280987739562988,0.999033572539142,0.03549607218209804,-0.024275217565226877,-0.009097703883972174
1681504111209087500,2.15508740234375,-0.15781591832637787,0.13154387474060059,-0.009356514550745487,-0.04637230560183525,-0.06968394666910172,-0.9964907169342041,0.025588802993297577,-0.04379504173994064,-0.0251462459564209,0.9990804050248085,0.03465866940161217,-0.02352480101416698,-0.009146745055377183
1681504111219062500,2.1650625,-0.11621896922588348,0.10641960799694061,-0.007216614205390215,-0.04522109776735306,-0.06829336285591125,-0.9966399073600769,0.011421848088502884,-0.026493608951568604,-0.034869492053985596,0.9991174366502419,0.033965950885194676,-0.02294274453460134,-0.009184093454058826
1681504111229037600,2.17503759765625,-0.033622898161411285,0.10781271010637283,-0.00705309584736824,-0.0442257896065712,-0.06750258058309555,-0.9967384338378906,0.011586204171180725,0.0011732503771781921,-0.031429290771484375,0.9991418326527332,0.03357349560850224,-0.022441252013658642,-0.009206622795093223
1681504111239011600,2.185011474609375,0.03693126514554024,0.13736164569854736,-0.012486360967159271,-0.043065059930086136,-0.06752835214138031,-0.9967874884605408,0.007572084665298462,0.02956511080265045,-0.011299610137939453,0.9991539324860251,0.03359095447765683,-0.02186086099345091,-0.009223796301413031
1681504111248986600,2.194986572265625,0.051901690661907196,0.189935103058815,-0.01723850518465042,-0.041448190808296204,-0.06801244616508484,-0.9968231320381165,-0.004329212009906769,0.04192054271697998,0.0008667111396789551,0.9991626081109019,0.03383955879744298,-0.021055132780235013,-0.009261545743480796
1681504111258961700,2.204961669921875,-0.003949322737753391,0.23244892060756683,-0.022518888115882874,-0.039332181215286255,-0.06831881403923035,-0.9968879222869873,-0.018957428634166718,0.03943454474210739,0.0010688304901123047,0.9991781187927721,0.0340009135555649,-0.01999948614211025,-0.00932206416760491
1681504111268936700,2.214936767578125,-0.12080323696136475,0.24864307045936584,-0.017907358705997467,-0.03688789904117584,-0.06779276579618454,-0.9970172643661499,-0.02626926451921463,0.013655208051204681,0.009270071983337402,0.999209971154853,0.03374678893940609,-0.018775580735759224,-0.009387478279615738
1681504111278910700,2.22491064453125,-0.27979257702827454,0.24149401485919952,-0.01071181334555149,-0.034377068281173706,-0.06591632962226868,-0.9972327947616577,-0.018388859927654266,-0.02900797873735428,0.025110602378845215,0.9992633059435737,0.03281686499429203,-0.017511536939221892,-0.009449492155037953
1681504111288885500,2.234885498046875,-0.44267791509628296,0.2240029126405716,0.011272581294178963,-0.032041482627391815,-0.06235705316066742,-0.9975394606590271,-0.0034057199954986572,-0.07016490399837494,0.0338858962059021,0.9993401189199699,0.031044952177849146,-0.016324496382132053,-0.009437379515852334
1681504111298860500,2.244860595703125,-0.5918939709663391,0.20974521338939667,0.020523104816675186,-0.029892563819885254,-0.05721508339047432,-0.9979142546653748,0.00810197927057743,-0.09352587163448334,0.041356027126312256,0.9994345535600985,0.028481009625651577,-0.015221770984443973,-0.00937051080620988
1681504111308835600,2.254835693359375,-0.7302592992782593,0.18349362909793854,0.021666400134563446,-0.027931157499551773,-0.05065401643514633,-0.9983255863189697,0.00641523115336895,-0.10637355595827103,0.040424644947052,0.9995381574192828,0.025206701361958243,-0.01420626033070872,-0.00928804198167442
1681504111318809600,2.2648095703125,-0.8327237367630005,0.13398417830467224,0.02842157520353794,-0.02633589133620262,-0.04280496761202812,-0.9987362623214722,0.0036297794431447983,-0.11419208347797394,0.028857111930847168,0.9996416629135162,0.021287120973577746,-0.013368578389550627,-0.009200035373940036
1681504111328784600,2.27478466796875,-0.8963671326637268,0.07307502627372742,0.034742321819067,-0.02530176006257534,-0.03416839614510536,-0.9990957379341125,0.009645208716392517,-0.1184951588511467,0.025218844413757324,0.9997325838589689,0.016972330140944344,-0.01280855327828138,-0.009088220905686614
1681504111338759700,2.284759765625,-0.9378141164779663,0.021033819764852524,0.03719392791390419,-0.024856634438037872,-0.02499409206211567,-0.999378502368927,0.01759241707623005,-0.11572183668613434,0.021396994590759277,0.9998044912632842,0.012387066618729506,-0.012541784508227292,-0.008962154645285292
1681504111348734700,2.294734619140625,-0.966080904006958,-0.000159350223839283,0.03581813722848892,-0.024780837818980217,-0.015467274934053421,-0.9995732307434082,0.021895892918109894,-0.09425805509090424,0.014664232730865479,0.9998542356136958,0.007624596253374205,-0.012459641940763143,-0.008840750236170713
1681504111358708700,2.304708740234375,-0.9545729756355286,-0.005859792232513428,0.03372997045516968,-0.024818643927574158,-0.005883049685508013,-0.9996746778488159,0.018912458792328835,-0.05574657395482063,0.005061030387878418,0.999880448194646,0.002833227574863397,-0.012435559243710825,-0.008735907940907908
1681504111368683500,2.31468359375,-0.9224744439125061,-0.010828984901309013,0.03553692623972893,-0.024919729679822922,0.0034677113872021437,-0.9996834397315979,0.009781980887055397,-0.02194548025727272,-0.0016287565231323242,0.9998836647849747,-0.0018413867753499283,-0.012445434699431842,-0.008622987301351361
1681504111378658600,2.324658447265625,-0.8774003386497498,-0.015249298885464668,0.03774227201938629,-0.02504061535000801,0.012459940277040005,-0.9996087551116943,0.008209137246012688,-0.0038838759064674377,-0.0011999011039733887,0.9998660960100391,-0.006336813450028838,-0.012468105955035426,-0.00850127925166821
1681504111388633600,2.334633544921875,-0.8135004639625549,-0.011061744764447212,0.03352302685379982,-0.02515505440533161,0.02090766653418541,-0.9994649291038513,0.008872894570231438,0.010083559900522232,0.007079064846038818,0.9998312012021866,-0.010560222195871305,-0.012491200206445481,-0.008374431296941072
1681504111398607600,2.344607666015625,-0.7537519931793213,0.013922647573053837,0.03116023540496826,-0.02513859048485756,0.028730690479278564,-0.999271035194397,0.005499497056007385,0.022142738103866577,0.008792579174041748,0.9997837099878214,-0.014471305900948434,-0.01245248683055737,-0.008257870415574249
1681504111408582700,2.354582763671875,-0.6675915122032166,0.04038168489933014,0.02109801396727562,-0.02483212947845459,0.03586141765117645,-0.9990482330322266,-0.003840165212750435,0.026517130434513092,0.00002485513687133789,0.9997287372017599,-0.018035812698740723,-0.012272118507985381,-0.008165717998248138
1681504111418557700,2.3645576171875,-0.4475618600845337,0.05778970569372177,-0.003452302422374487,-0.024355938658118248,0.04125291481614113,-0.9988518357276917,-0.016309766098856926,0.019584503024816513,-0.016086459159851074,0.9996795404890332,-0.020731274206825818,-0.0120123890068895,-0.00817266129368351
1681504111428532500,2.374532470703125,-0.41164833307266235,0.061472587287425995,0.0011006377171725035,-0.023751914501190186,0.04553315415978432,-0.9986804127693176,-0.020148655399680138,0.006118472665548325,-0.0393444299697876,0.9996363912105691,-0.022870809768607565,-0.011692593326812382,-0.008203263071033081
1681504111438506500,2.384506591796875,-0.35146424174308777,0.0418732687830925,-0.004615637473762035,-0.023227743804454803,0.04933596029877663,-0.9985120892524719,-0.01664450392127037,0.019832748919725418,-0.055091917514801025,0.9995939825627579,-0.024772125057953537,-0.011414313354818562,-0.008242846480040965
1681504111448481500,2.3944814453125,-0.30145302414894104,0.034758634865283966,0.003073973348364234,-0.0228528194129467,0.05257585644721985,-0.9983553886413574,0.004037702456116676,0.046194907277822495,0.0020633935928344727,0.9995545324505525,-0.026392406420228703,-0.011213166448676624,-0.0082689805359428
1681504111458456600,2.40445654296875,-0.24327239394187927,0.03054189123213291,0.006981962360441685,-0.022522252053022385,0.055302057415246964,-0.9982156157493591,0.01460191048681736,0.02947639673948288,-0.004103600978851318,0.9995196041470181,-0.027755555920937525,-0.011037098791760337,-0.008262476949876188
1681504111468431600,2.414431640625,-0.21238291263580322,0.015610345639288425,-0.0014280338073149323,-0.022297896444797516,0.057552140206098557,-0.9980934858322144,0.011814074590802193,0.022404540330171585,-0.002608358860015869,0.9994890604397191,-0.028881080781685824,-0.010915728177907388,-0.008268290182761248
1681504111478405600,2.424405517578125,-0.20843012630939484,-0.0032952753826975822,0.0009764677379280329,-0.022254174575209618,0.0596315823495388,-0.9979723691940308,0.009237395599484444,0.02151528000831604,0.004487931728363037,0.9994586621633215,-0.029922180409531787,-0.010885053049177905,-0.008285731689869152
1681504111488380700,2.434380615234375,-0.1848989725112915,-0.027828048914670944,0.006142467726022005,-0.022410405799746513,0.061609379947185516,-0.9978486895561218,0.008371289819478989,0.006781134754419327,0.001922905445098877,0.9994277742578606,-0.030913055026793812,-0.010955614692271076,-0.008276683951334775
1681504111498355700,2.444355712890625,-0.15974944829940796,-0.03268693387508392,-0.0013449597172439098,-0.022735683247447014,0.06329543888568878,-0.9977357983589172,0.00839139148592949,-0.008546285331249237,0.0001925826072692871,0.9993994904839864,-0.03175879907468121,-0.011111541027343852,-0.00828033850908483
1681504111508330500,2.45433056640625,-0.1489657759666443,-0.02778671495616436,-0.007296059280633926,-0.02303123101592064,0.06481771916151047,-0.997631311416626,0.004719652235507965,-0.007840774953365326,-0.011203467845916748,0.9993731061116273,-0.0325227524265201,-0.0112524116320378,-0.008309824324319698
1681504111518305500,2.464305419921875,-0.12533150613307953,-0.020309358835220337,-0.010591238737106323,-0.02327737770974636,0.06617338210344315,-0.9975365996360779,-0.0006189197301864624,0.003758274018764496,-0.011511802673339844,0.9993490218069663,-0.03320329443609928,-0.01136866491881648,-0.008355325909896662
1681504111528279600,2.474279541015625,-0.10690750181674957,-0.013354512862861156,-0.014734850265085697,-0.023465732112526894,0.06729824095964432,-0.9974569082260132,0.0007596239447593689,0.002877548336982727,-0.0031075477600097656,0.999328562767182,-0.03376824655099244,-0.011456253060758837,-0.00841931505476527
1681504111538254600,2.484254638671875,-0.10842243582010269,-0.005935853347182274,-0.015007625333964825,-0.023575086146593094,0.06834607571363449,-0.9973831176757812,0.00141829252243042,-0.006715208292007446,0.0017929673194885254,0.999309437829884,-0.03429450757865875,-0.011503977771824275,-0.008500189107104572
1681504111548229600,2.494229736328125,-0.11291545629501343,-0.008465857245028019,-0.012914913706481457,-0.02365005761384964,0.06945709139108658,-0.9973045587539673,0.00036411359906196594,-0.010557539761066437,0.0035149455070495605,0.9992890210860302,-0.03485235419985918,-0.011533988917580215,-0.008585955792523095
1681504111558204700,2.50420458984375,-0.09953290224075317,0.0005499040707945824,-0.009966378100216389,-0.023708701133728027,0.07051461935043335,-0.9972289800643921,0.002757349982857704,-0.012088097631931305,0.0014862418174743652,0.9992694585808214,-0.03538318355927301,-0.011556546337487561,-0.00865514253080918
1681504111568178700,2.5141787109375,-0.0722711831331253,0.0005845250561833382,-0.010412723757326603,-0.023659419268369675,0.07138510048389435,-0.9971681833267212,0.0027843620628118515,-0.008945509791374207,0.004461944103240967,0.9992539258207027,-0.03581968533773699,-0.011526261989163922,-0.008711597978117616
1681504111578153700,2.52415380859375,-0.031155910342931747,-0.002132751978933811,-0.015441670082509518,-0.023628385737538338,0.07183204591274261,-0.9971368312835693,0.0005102865397930145,0.00226525217294693,0.0015924572944641113,0.999245379377615,-0.036044285219538744,-0.011506293153685728,-0.008783145398254848
1681504111588128500,2.53412841796875,-0.006319802720099688,-0.024205297231674194,-0.014859236776828766,-0.023749299347400665,0.07195616513490677,-0.9971250295639038,-0.0006810557097196579,0.012150906026363373,-0.004828035831451416,0.9992416154204071,-0.036108011318471175,-0.011563200019186752,-0.008868351756956053
1681504111598103600,2.544103515625,0.01149767730385065,-0.0507839098572731,-0.01676572859287262,-0.02414536289870739,0.07191169261932373,-0.9971187114715576,0.005925334990024567,0.01684930920600891,-0.009930789470672607,0.9992393376634681,-0.03608849303044159,-0.011758770807521692,-0.00894619637382629
1681504111608077600,2.55407763671875,0.0270990077406168,-0.06866863369941711,-0.014172874391078949,-0.024754060432314873,0.07170753926038742,-0.9971184730529785,0.010165628045797348,0.014261089265346527,-0.005505919456481934,0.9992387427688503,-0.035989881205824026,-0.01206183608998236,-0.009012994518522369
1681504111618052600,2.564052490234375,0.04273708909749985,-0.07895200699567795,-0.012978313490748405,-0.025497863069176674,0.07131093740463257,-0.9971281886100769,0.01174866035580635,0.006478995084762573,-0.00407719612121582,0.999240745472029,-0.035795345114117395,-0.012433926135135075,-0.009063914268131128
1681504111628027600,2.574027587890625,0.06553801149129868,-0.08414942771196365,-0.010795853100717068,-0.026319945231080055,0.0707341879606247,-0.9971479177474976,0.011212710291147232,0.003973469138145447,0.002824246883392334,0.9992453039489907,-0.03551079021351163,-0.01284653863717038,-0.009099464049982684
1681504111638002700,2.584002685546875,0.06627177447080612,-0.08845411241054535,-0.012045375071465969,-0.027165643870830536,0.07002989947795868,-0.9971749186515808,0.008335266262292862,0.0028924718499183655,0.005307972431182861,0.9992517329826222,-0.035162473346705095,-0.013271604092835962,-0.009133278387367287
1681504111647976700,2.593976806640625,0.05840400233864784,-0.08395177125930786,-0.007972070015966892,-0.028014928102493286,0.06938225775957108,-0.9971966743469238,0.005858132615685463,0.003692708909511566,0.005253434181213379,0.9992569145970822,-0.034842544826582826,-0.013698358607759992,-0.009163633317226022
1681504111657951500,2.603951416015625,0.04361213743686676,-0.08005774766206741,-0.008115946315228939,-0.02882983908057213,0.06888139992952347,-0.9972081780433655,0.004079049453139305,-0.0025966018438339233,0.0032050013542175293,0.9992595822043733,-0.03459589162320216,-0.014107609843227254,-0.009184754900864501
1681504111667926500,2.613926513671875,0.022052517160773277,-0.07701482623815536,-0.006392881739884615,-0.029610158875584602,0.06860695034265518,-0.9972042441368103,0.0011820029467344284,-0.011248543858528137,0.0006681084632873535,0.9992584051115417,-0.03446251756848404,-0.014498540291946973,-0.009206848555510473
1681504111677901600,2.623901611328125,0.0010451695416122675,-0.06647967547178268,-0.00397662864997983,-0.030310172587633133,0.06856146454811096,-0.9971863627433777,0.0007223468273878098,-0.017291314899921417,-0.00014328956604003906,0.9992538337452443,-0.03444329221552484,-0.014848707544990354,-0.009216840455097965
1681504111687875600,2.63387548828125,-0.005069714970886707,-0.05297904834151268,-0.0018564865458756685,-0.03086272068321705,0.06865863502025604,-0.9971626996994019,-0.0002357233315706253,-0.0236140638589859,0.0005350112915039062,0.9992479602229302,-0.03449463242499913,-0.015124869995745346,-0.009214909730370395
1681504111697850600,2.6438505859375,0.007255162112414837,-0.021328337490558624,0.0007644136203452945,-0.031172916293144226,0.06868422031402588,-0.9971513152122498,-0.005174551159143448,-0.023120850324630737,0.0035448074340820312,0.9992450830809085,-0.034508951490285766,-0.015280024743184364,-0.009214100811454153
1681504111707825700,2.65382568359375,0.051451120525598526,0.015145251527428627,0.005952783860266209,-0.031157111749053,0.06846073269844055,-0.99716717004776,-0.011217579245567322,-0.015924103558063507,0.007131218910217285,0.9992491642190515,-0.03439666898273247,-0.015273671299676808,-0.009197199377790639
1681504111717800700,2.66380078125,0.11002741008996964,0.03640500083565712,0.004902200307697058,-0.030838245525956154,0.06768763065338135,-0.9972298741340637,-0.01458820328116417,-0.002821892499923706,0.009528517723083496,0.9992651516293087,-0.034007374271017486,-0.01511853436842774,-0.009165599537092901
1681504111727774700,2.673774658203125,0.1622226983308792,0.0368335023522377,-0.002657448872923851,-0.030413521453738213,0.06633847206830978,-0.9973335862159729,-0.01542491465806961,0.017646528780460358,0.000003933906555175781,0.999291223098737,-0.03332936344765729,-0.0149122352042409,-0.00915392794308371
1681504111737749500,2.68374951171875,0.19370560348033905,0.011455919593572617,-0.006419530138373375,-0.03013770468533039,0.06454827636480331,-0.9974594116210938,-0.005401048809289932,0.03918159008026123,-0.009101808071136475,0.9993225821137371,-0.03243164087839294,-0.014781497268688444,-0.009169075575943587
1681504111747724500,2.693724609375,0.24339352548122406,-0.03112935647368431,-0.009950348176062107,-0.030233874917030334,0.062360335141420364,-0.9975956678390503,0.0060629211366176605,0.03987417370080948,-0.008278906345367432,0.9993564812521872,-0.031336702864662204,-0.014838492579634193,-0.009190314944306287
1681504111757699600,2.703699462890625,0.33660054206848145,-0.05304323136806488,-0.02417164482176304,-0.030703341588377953,0.05940724536776543,-0.9977615475654602,0.01602335274219513,0.031703606247901917,-0.01087486743927002,0.9993973625055148,-0.029861218924600388,-0.015084404969863163,-0.00925467744002275
1681504111767673600,2.713673583984375,0.3531361222267151,-0.05512768402695656,-0.02003335952758789,-0.03124595433473587,0.055925238877534866,-0.9979459047317505,0.017115283757448196,0.02743414416909218,-0.013391256332397461,0.9994428360870496,-0.028121699857371063,-0.01536913038924021,-0.009331231462025951
1681504111777648600,2.723648681640625,0.38057971000671387,-0.04913930222392082,-0.01599014922976494,-0.03180752322077751,0.052203841507434845,-0.9981297850608826,0.007102511823177338,0.0360688753426075,-0.018258094787597656,0.9994882320502381,-0.026262398544559543,-0.015665274820329825,-0.009386183170923653
1681504111787623700,2.733623779296875,0.36946260929107666,-0.037600625306367874,-0.01714729145169258,-0.03230394795536995,0.048460543155670166,-0.9983025789260864,0.0032196640968322754,0.03840836510062218,0.0011560320854187012,0.999530997214686,-0.024392106774486666,-0.015929147105009613,-0.00944151585722694
1681504111797598700,2.7435986328125,0.3804794251918793,-0.0062142591923475266,-0.012671384029090405,-0.03260050714015961,0.04476315155625343,-0.9984655380249023,-0.0025567784905433655,0.00934513658285141,0.003928244113922119,0.9995713807414838,-0.022543790766291483,-0.01609345546714805,-0.00947912889571388
1681504111807573500,2.753573486328125,0.35287392139434814,0.030794357880949974,-0.012436493299901485,-0.03251872584223747,0.04120441526174545,-0.99862140417099,-0.0075824074447155,-0.01616412028670311,0.012873172760009766,0.9996100845378519,-0.020763112536891157,-0.016068170279613107,-0.009510002931412158
1681504111817547500,2.763547607421875,0.29294800758361816,0.06041973456740379,-0.01812545396387577,-0.0320596843957901,0.038081418722867966,-0.9987602233886719,-0.014953680336475372,-0.022516831755638123,0.00776296854019165,0.9996443342342544,-0.0191991140674487,-0.015851896780237233,-0.009562035722734764
1681504111827522600,2.7735224609375,0.21038365364074707,0.06471727788448334,-0.016421830281615257,-0.03140899911522865,0.03566717356443405,-0.9988700151443481,-0.019510608166456223,-0.018347829580307007,0.007643938064575195,0.9996710425822155,-0.017989259624962135,-0.015536210821652179,-0.009639073376697003
1681504111837497600,2.78349755859375,0.15044371783733368,0.0453004352748394,-0.003566502360627055,-0.03083384409546852,0.0339764729142189,-0.9989469051361084,-0.013051467016339302,-0.03504396602511406,0.006027042865753174,0.9996898234158534,-0.0171412802251876,-0.015255668589623385,-0.009683392639100293
1681504111847472600,2.79347265625,0.11513738334178925,0.0252004936337471,-0.0008500778931193054,-0.03047628328204155,0.03270864114165306,-0.9990001916885376,-0.0021022651344537735,-0.05318531394004822,0.004722297191619873,0.9997031399917427,-0.016505232676573976,-0.01508283735035175,-0.009680684150941594
1681504111857446700,2.80344677734375,0.10160496830940247,0.0173668060451746,0.003943628631532192,-0.030267614871263504,0.03169623017311096,-0.9990391731262207,0.00811082124710083,-0.04724431782960892,0.0077977776527404785,0.9997130769756873,-0.015997533079344806,-0.014983477677272608,-0.009665800846002966
1681504111867421700,2.813421630859375,0.14133161306381226,0.017957229167222977,0.004822738002985716,-0.030091524124145508,0.030560657382011414,-0.9990798234939575,0.005783239379525185,-0.01865818165242672,0.00440526008605957,0.9997235082557939,-0.015428233643058465,-0.014901162441970076,-0.009639433515531091
1681504111877396500,2.823396484375,0.2200496941804886,0.017257723957300186,0.002455304376780987,-0.029919369146227837,0.028772760182619095,-0.9991381168365479,0.0018726810812950134,0.005666948854923248,0.006355583667755127,0.9997384197922962,-0.014532588603911784,-0.014823954379987622,-0.009606536829416843
1681504111887371500,2.83337158203125,0.28334423899650574,0.002062525600194931,-0.006769885309040546,-0.02981973998248577,0.026228342205286026,-0.9992111325263977,0.000872783362865448,0.020220033824443817,0.0015457868576049805,0.9997567601583537,-0.013259163089286654,-0.014786342052451603,-0.009587679353221759
1681504111897345500,2.843345458984375,0.3197033405303955,-0.03593337908387184,-0.01927507296204567,-0.030003231018781662,0.023194296285510063,-0.9992806315422058,0.0032687969505786896,0.03570525348186493,-0.011278390884399414,0.9997738223284469,-0.011743221212136435,-0.0148918893847327,-0.009630571837100496
1681504111907320600,2.853320556640625,0.337265282869339,-0.09246696531772614,-0.021647417917847633,-0.03064166009426117,0.01991499774158001,-0.9993320107460022,0.013718627393245697,0.04328753054141998,-0.015362143516540527,0.9997859966286525,-0.01010735582287627,-0.015226045923520925,-0.009700083878324509
1681504111917295600,2.863295654296875,0.3248733580112457,-0.1483401358127594,-0.02523927390575409,-0.031843401491642,0.016585372388362885,-0.9993552565574646,0.026059284806251526,0.03073275461792946,-0.009586334228515625,0.9997907964890799,-0.008449618604953251,-0.015842256437112057,-0.00979437574881034
1681504111927270700,2.873270751953125,0.29276442527770996,-0.19784963130950928,-0.029788751155138016,-0.03358038142323494,0.013489384204149246,-0.9993450045585632,0.035288333892822266,0.007171637378633022,0.0014965534210205078,0.9997872429752854,-0.006911752030562112,-0.016725318233056483,-0.009900525980882419
1681504111937244700,2.88324462890625,0.26482048630714417,-0.2231627106666565,-0.03407055139541626,-0.035710409283638,0.010728581808507442,-0.9993045926094055,0.03529738634824753,-0.012879449874162674,0.018912196159362793,0.9997758783792684,-0.005544141109947667,-0.017803575361722574,-0.010032112906825038
1681504111947219700,2.8932197265625,0.2904970943927765,-0.22585225105285645,-0.03400024399161339,-0.037958964705467224,0.008008667267858982,-0.9992471933364868,0.02675797790288925,-0.027432484552264214,0.030192077159881592,0.9997600981036645,-0.004198006556045004,-0.018941325228862826,-0.010171716611737623
1681504111957194500,2.903194580078125,0.30520501732826233,-0.21100729703903198,-0.06237073242664337,-0.04020807147026062,0.005024140700697899,-0.9991787075996399,0.015121586620807648,-0.023730795830488205,0.030962824821472168,0.9997408075156742,-0.0027211360562483734,-0.02008100587344649,-0.010375994531920743
1681504111967169500,2.91316943359375,0.2814781069755554,-0.15118445456027985,-0.14882785081863403,-0.04199569672346115,0.0020277732983231544,-0.9991157054901123,0.003405187278985977,0.004717230796813965,0.014923930168151855,0.9997203617026292,-0.00124139334512808,-0.020990284427872107,-0.010822128108196417
1681504111977144800,2.923144775390625,0.242979034781456,-0.08771423250436783,-0.1983398199081421,-0.04317999258637428,-0.0006639172206632793,-0.9990670680999756,-0.01666601374745369,0.01708299107849598,0.010236561298370361,0.999697724189635,0.00007812381356712277,-0.021597443817925794,-0.011754094882037054
1681504111987118800,2.933118896484375,0.16761425137519836,-0.04378671944141388,-0.07895722985267639,-0.04381003975868225,-0.0028118472546339035,-0.9990358948707581,-0.04153340309858322,-0.009058873169124126,0.007947087287902832,0.999681587012327,0.0011335366751291604,-0.021926102521169104,-0.012439417486626905
1681504111997093600,2.94309375,0.008848664350807667,-0.02952069789171219,-0.013528172858059406,-0.04415736347436905,-0.0037510974798351526,-0.9990175366401672,-0.03610490262508392,-0.039598505944013596,0.006585955619812012,0.9996746995794867,0.0015969988592032752,-0.02210603432186413,-0.012624127243598508
1681504112007068700,2.953068603515625,-0.18967613577842712,-0.0172688290476799,-0.014551359228789806,-0.044392116367816925,-0.0028737238608300686,-0.9990100264549255,-0.005825590342283249,-0.06469158083200455,0.019105970859527588,0.9996718463054346,0.0011550318952625596,-0.02221802059690182,-0.012701810347983997
1681504112017043700,2.963043701171875,-0.41147446632385254,-0.01527987327426672,0.01660747639834881,-0.04455459490418434,0.00009684195538284257,-0.9990069270133972,-0.0030233487486839294,-0.10039224475622177,0.025969266891479492,0.9996705290201907,-0.00033244900363640494,-0.02228040169675054,-0.012742970178898918
1681504112027017500,2.973017578125,-0.6620872616767883,0.002152646891772747,0.04259513318538666,-0.044646672904491425,0.005436641164124012,-0.9989880323410034,-0.005159053951501846,-0.1257210522890091,0.04746526479721069,0.9996669810674542,-0.0030012369054232993,-0.022292806356779257,-0.012646088762911343
1681504112036992500,2.982992431640625,-0.9210615754127502,0.046428605914115906,0.062465064227581024,-0.044421713799238205,0.013358294032514095,-0.9989235401153564,-0.000821627676486969,-0.14397291839122772,0.0694955587387085,0.9996531059584162,-0.006957542533837261,-0.022131774251198062,-0.012469943583897544
1681504112046967600,2.992967529296875,-1.0937256813049316,0.1050431877374649,0.08104220777750015,-0.04366643726825714,0.023513438180088997,-0.9987694025039673,-0.014714721590280533,-0.1737050861120224,0.07964110374450684,0.9996175631426762,-0.012026538756183223,-0.02169448897356554,-0.012225227366263039
1681504112056943000,3.002943115234375,-1.1414766311645508,0.1711515188217163,0.08717771619558334,-0.04226094111800194,0.03465601056814194,-0.9985053539276123,-0.031333230435848236,-0.1938198208808899,0.07676780223846436,0.9995550774184293,-0.017585423869644574,-0.02093007521869601,-0.011925118848481277
1681504112066917000,3.012917236328125,-1.1621078252792358,0.18750359117984772,0.04237242788076401,-0.040356166660785675,0.04644795134663582,-0.9981051683425903,-0.037830907851457596,-0.17306476831436157,0.029263734817504883,0.9994577360450887,-0.02346971953940912,-0.019914262805706556,-0.011700975452797614
1681504112076892200,3.02289208984375,-1.164355754852295,0.25005045533180237,0.022176461294293404,-0.038137905299663544,0.057708241045475006,-0.9976047873497009,-0.03350314497947693,-0.10989268124103546,-0.025847911834716797,0.9993322655816201,-0.029093226381670015,-0.018740430591150742,-0.01172218046009745
1681504112086867500,3.032867431640625,-1.2345012426376343,0.2871914207935333,0.07585593312978745,-0.03544614091515541,0.06977493315935135,-0.9969328045845032,-0.03132735192775726,-0.0579029843211174,-0.06307989358901978,0.9991650356960474,-0.03511854673264332,-0.017328654324419903,-0.011643014389989657
1681504112096842200,3.04284228515625,-1.1434087753295898,0.27236229181289673,0.21489626169204712,-0.032483842223882675,0.08167363703250885,-0.9961296319961548,-0.0241425558924675,-0.017326712608337402,-0.041055917739868164,0.9989710497190276,-0.041053455501030005,-0.015805197443850318,-0.011034060043811729
1681504112106817300,3.0528173828125,-0.9866620302200317,0.25487571954727173,0.07671548426151276,-0.02971000038087368,0.09239121526479721,-0.9952794313430786,-0.006103411316871643,-0.003340303897857666,0.013010263442993164,0.9987648884386877,-0.04640284578610175,-0.01438929440853251,-0.010419150848477856
1681504112116791300,3.062791259765625,-0.7291584014892578,0.20861953496932983,0.040226735174655914,-0.027346564456820488,0.10098013281822205,-0.9945125579833984,0.010301463305950165,-0.003948874771595001,-0.007623612880706787,0.9985742645825504,-0.05069779726161213,-0.013170675073554777,-0.010284182646725759
1681504112126766000,3.07276611328125,-0.43597179651260376,0.13938267529010773,-0.00024106295313686132,-0.025577805936336517,0.10666270554065704,-0.9939662218093872,0.006625356152653694,0.0692412331700325,-0.03185153007507324,0.9984384235471934,-0.053539982618172104,-0.012262162224862337,-0.01019592188990555
1681504112136741000,3.0827412109375,-0.18343766033649445,0.081768698990345,-0.022305868566036224,-0.02449660748243332,0.10983102023601532,-0.9936483502388,0.029942959547042847,0.18814322352409363,-0.0285072922706604,0.9983581156542976,-0.055126037706692166,-0.011702141175184906,-0.010256068261065027
1681504112146716200,3.092716064453125,0.06689762324094772,0.04858890548348427,-0.04316374659538269,-0.023869600147008896,0.11035473644733429,-0.9936056137084961,0.03808975964784622,0.23072558641433716,-0.0017403960227966309,0.9983449478881988,-0.055388363314410265,-0.011372467443754643,-0.01049236730673823
1681504112156690200,3.102690185546875,0.269694447517395,-0.016009578481316566,-0.011613593436777592,-0.02373339794576168,0.10864830017089844,-0.9937968850135803,0.03293341398239136,0.1837107241153717,-0.04982787370681763,0.9983916771455018,-0.05453172452862357,-0.011306762967061184,-0.010601555279010334
1681504112166665200,3.112665283203125,0.4299008846282959,-0.055529557168483734,-0.011099070310592651,-0.02411922626197338,0.10513908416032791,-0.9941650032997131,0.02895522676408291,0.15101081132888794,-0.028524696826934814,0.9984834996457993,-0.052772053070462004,-0.0115157835680368,-0.010636175779411536
1681504112176640300,3.12264013671875,0.5086079239845276,-0.09322617948055267,-0.01048795785754919,-0.02487422339618206,0.10043161362409592,-0.9946329593658447,0.03263991326093674,0.13225027918815613,-0.005122780799865723,0.9986006301230268,-0.0504131941818505,-0.011917224534809005,-0.010643327839565052
1681504112186615300,3.132615234375,0.5939576625823975,-0.16450141370296478,-0.08176133781671524,-0.026162488386034966,0.09500501304864883,-0.9951329231262207,0.024650832638144493,0.08665148913860321,-0.003951430320739746,0.9987247175474868,-0.04769853240039399,-0.01258487652242218,-0.01074282140653287
1681504112196590000,3.142590087890625,0.4668700695037842,-0.13040363788604736,-0.05891088396310806,-0.027612553909420967,0.08968398720026016,-0.9955874085426331,0.021477485075592995,0.026588596403598785,-0.0034969449043273926,0.9988344636582165,-0.04504249468792253,-0.013321380358123922,-0.011110027057365668
1681504112206564000,3.152564208984375,0.4466385543346405,-0.15054672956466675,-0.03170190006494522,-0.029040027409791946,0.08521315455436707,-0.9959394335746765,0.006394948810338974,-0.03047925978899002,-0.0039536356925964355,0.9989212375067715,-0.04281060175586985,-0.014054377521866583,-0.011230795081959516
1681504112216539100,3.1625390625,0.454138845205307,-0.1528913676738739,-0.04519219323992729,-0.030597640201449394,0.08068709075450897,-0.996269702911377,0.011233201250433922,-0.04821576923131943,0.026680588722229004,0.9990023547541573,-0.04055280975903566,-0.014852738010198877,-0.011365425253402487
1681504112226514400,3.172514404296875,0.4460330009460449,-0.13113626837730408,-0.04273143410682678,-0.03205296769738197,0.07620511204004288,-0.9965768456459045,0.015038378536701202,-0.05192776769399643,0.021479249000549316,0.9990773261286672,-0.038317657905976986,-0.015599354562508574,-0.011522666299970319
1681504112236489200,3.1824892578125,0.4395463764667511,-0.09038788825273514,-0.047926027327775955,-0.03319239616394043,0.07178612798452377,-0.9968675971031189,0.0019718781113624573,-0.0074239447712898254,-0.006382465362548828,0.9991482099999651,-0.03611302244974219,-0.016187915566352185,-0.011687503975719899
1681504112246463200,3.192463134765625,0.42121079564094543,-0.05633457750082016,-0.05174713209271431,-0.03393895551562309,0.06746940314769745,-0.9971439242362976,-0.01060248538851738,0.029073566198349,-0.007357299327850342,0.9992149952277909,-0.03395853471427194,-0.01657860799099856,-0.011893425640574952
1681504112256438300,3.202438232421875,0.38591647148132324,-0.04006926715373993,-0.05149377882480621,-0.03444159775972366,0.06343023478984833,-0.9973917603492737,-0.02084203064441681,0.01527521014213562,-0.009520351886749268,0.9992743869718987,-0.031942339568641814,-0.0168461316787284,-0.012112174847280523
1681504112266413300,3.212413330078125,0.3677305579185486,-0.027577713131904602,-0.05110682174563408,-0.03481170907616615,0.05966204032301903,-0.9976114630699158,-0.01485668495297432,-0.008254565298557281,-0.0007405281066894531,0.9993268225062898,-0.03006127900848106,-0.01704696994609206,-0.012320201047262566
1681504112276388000,3.22238818359375,0.34021297097206116,0.0024671657010912895,-0.048084769397974014,-0.034955188632011414,0.05611370503902435,-0.9978122711181641,-0.006519235670566559,-0.021765556186437607,0.019312024116516113,0.9993743657917709,-0.028289291195784095,-0.017133759553705507,-0.012533183546839159
1681504112286362000,3.232362060546875,0.300880491733551,0.024842780083417892,-0.05039213225245476,-0.034826312214136124,0.05292943865060806,-0.9979907870292664,-0.005244307219982147,-0.022457022219896317,0.019597291946411133,0.9994162688761731,-0.026698017677096307,-0.01708287199669004,-0.012744586627869479
1681504112296337200,3.242337158203125,0.2758771777153015,0.01071241870522499,-0.049135301262140274,-0.034646790474653244,0.05002281814813614,-0.9981469511985779,-0.007666870951652527,-0.012546617537736893,0.016274452209472656,0.9994524129080529,-0.025245978201110627,-0.017004984214036723,-0.01298120224154415
1681504112306312400,3.2523125,0.24023447930812836,-0.04271991178393364,-0.02829260379076004,-0.03480499982833862,0.047422003000974655,-0.9982683658599854,-0.0032514557242393494,-0.013684213161468506,0.017952322959899902,0.9994804778492551,-0.02394838905688437,-0.017096280003212574,-0.013157538233954557
1681504112316287200,3.262287353515625,0.18445897102355957,-0.09095023572444916,-0.01898665353655815,-0.035499587655067444,0.0452943854033947,-0.998342752456665,0.013693738728761673,-0.023672066628932953,0.0038817524909973145,0.9994979810878053,-0.022889832857881053,-0.017455444761374166,-0.01324221854020779
1681504112326262300,3.27226220703125,0.07391568273305893,-0.07275738567113876,-0.01681697741150856,-0.036364004015922546,0.043955493718385696,-0.9983714818954468,0.027528129518032074,-0.03200724720954895,-0.0030627846717834473,0.999504139018393,-0.02222705531188642,-0.017894902442350844,-0.013315928318897193
1681504112336236300,3.282236328125,-0.02551177330315113,0.007693832740187645,-0.012105278670787811,-0.03673044964671135,0.04377609118819237,-0.9983659386634827,0.013032510876655579,-0.04578963667154312,-0.0031293630599975586,0.9995016976191028,-0.02214117803225226,-0.018077713831047296,-0.013392174076058893
1681504112346211000,3.292211181640625,-0.04512222856283188,0.06812095642089844,-0.024478591978549957,-0.03630363568663597,0.04415733367204666,-0.9983647465705872,-0.0198192298412323,-0.06269614398479462,0.011807799339294434,0.9995000124348574,-0.0223308095646684,-0.01785943780388257,-0.01349298685966283
1681504112356186000,3.30218603515625,-0.06417910009622574,0.0749698057770729,-0.028578246012330055,-0.03556124120950699,0.044639285653829575,-0.9983700513839722,-0.03784983232617378,-0.07266906648874283,0.027544915676116943,0.9994994566833699,-0.022569299220903612,-0.017481641694041705,-0.0136348901946065
1681504112366161400,3.312161376953125,-0.07067988067865372,0.06087236851453781,-0.033334650099277496,-0.03491271659731865,0.045353151857852936,-0.9983607530593872,-0.02291913330554962,-0.04239233583211899,0.006325900554656982,0.9994947820145004,-0.022924864382618527,-0.017148585058973532,-0.013803218865686228
1681504112376135400,3.322135498046875,-0.05810629948973656,0.06609008461236954,-0.03827614709734917,-0.03428153693675995,0.04595771059393883,-0.998354971408844,0.0014741048216819763,0.00792168453335762,0.008029162883758545,0.9994906013817755,-0.023226231726999648,-0.01682416165247778,-0.014000424272328657
1681504112386110200,3.332110107421875,-0.06363315880298615,0.07718747854232788,-0.021758422255516052,-0.03360573202371597,0.04653533548116684,-0.9983512163162231,0.005391191691160202,0.021046455949544907,0.00305098295211792,0.9994873597174816,-0.02351305694037023,-0.016478364553504196,-0.01416014915658921
1681504112396085200,3.342085205078125,-0.08434683084487915,0.09857799112796783,0.001052151434123516,-0.032706551253795624,0.04722006618976593,-0.9983488917350769,-0.003137383610010147,0.013983547687530518,-0.0002624988555908203,0.999486023203103,-0.02385008376082642,-0.016022432819862438,-0.014217068833236186
1681504112406060300,3.352060302734375,-0.11974024027585983,0.08686194568872452,0.017993317916989326,-0.031699392944574356,0.04818569868803024,-0.9983352422714233,-0.007791388779878616,-0.010205965489149094,0.01916360855102539,0.9994831238651317,-0.024325447403227878,-0.015512693062954119,-0.014183541547037829
1681504112416035000,3.36203515625,-0.16630929708480835,0.06623479723930359,0.023316262289881706,-0.030902260914444923,0.04948188364505768,-0.998296856880188,-0.0069100577384233475,-0.04160773754119873,0.020559489727020264,0.9994746858103316,-0.02496702737576285,-0.015107097679594563,-0.014097331580392322
1681504112426009000,3.372009033203125,-0.21961034834384918,0.034799378365278244,0.014742214232683182,-0.030447427183389664,0.051259845495224,-0.9982210993766785,0.004247048869729042,-0.05339546874165535,0.006445705890655518,0.999456828898634,-0.02585244403577464,-0.014869319858561814,-0.014020727915411724
1681504112435984100,3.381984130859375,-0.2885598838329315,0.0029039238579571247,0.009521270170807838,-0.030373800545930862,0.05362064763903618,-0.9980993270874023,0.011833332479000092,-0.04249637573957443,-0.003014504909515381,0.9994268576873262,-0.027033104930744997,-0.014817208799004273,-0.013989670740666718
1681504112445959400,3.39195947265625,-0.27859196066856384,-0.013786639086902142,0.01112449262291193,-0.030495399609208107,0.056440405547618866,-0.9979401230812073,0.012977272272109985,-0.03817502781748772,-0.005981266498565674,0.9993874703828988,-0.02844495601096667,-0.014859930703020567,-0.013952243331109724
1681504112455934200,3.401934326171875,-0.3089219331741333,-0.02612762153148651,0.003210959956049919,-0.030698323622345924,0.05930410698056221,-0.9977678060531616,0.012630879878997803,-0.05400869995355606,0.005137920379638672,0.9993446295404174,-0.029879913115246088,-0.014942472033823491,-0.013938548001255095
1681504112465908200,3.411908203125,-0.3189287483692169,-0.018642541021108627,0.0028445087373256683,-0.030908718705177307,0.06248707324266434,-0.9975670576095581,0.013070154935121536,-0.06054859608411789,0.001976907253265381,0.9992942879045653,-0.03147533772791455,-0.015025931349415668,-0.013948451819852882
1681504112475883300,3.42188330078125,-0.27726709842681885,-0.0052883317694067955,0.004225141368806362,-0.0310332253575325,0.06547434628009796,-0.9973715543746948,0.00677071325480938,-0.02638072520494461,0.002513885498046875,0.9992452139965101,-0.0329723878718997,-0.015067733559094335,-0.013958702743276036
1681504112485858300,3.4318583984375,-0.21590226888656616,0.0027131359092891216,0.0012072472600266337,-0.031037740409374237,0.0679209977388382,-0.9972078204154968,-0.0020138341933488846,0.003460228443145752,0.0020906925201416016,0.9992040997577909,-0.0341980239866629,-0.01505306759749304,-0.013971092563606463
1681504112495833000,3.4418330078125,-0.1081518903374672,0.005073707550764084,-0.006406763568520546,-0.0309864804148674,0.06946270167827606,-0.997103214263916,-0.00453701987862587,0.014491766691207886,-0.001096189022064209,0.9991776844783038,-0.034970168397936506,-0.015016401456698799,-0.01398868436642747
1681504112505808100,3.45180810546875,-0.008311314508318901,-0.03284065052866936,-0.009900031611323357,-0.031122390180826187,0.0699404701590538,-0.997065544128418,-0.0027531608939170837,0.032156698405742645,-0.0027970075607299805,0.9991675736899636,-0.035211163363998724,-0.015079617113611879,-0.014033343187065625
1681504112515782100,3.4617822265625,0.06696566194295883,-0.0438273623585701,-0.008806638419628143,-0.031534913927316666,0.06959805637598038,-0.9970765709877014,0.008020080626010895,0.05274752527475357,-0.0017942190170288086,0.9991698206369283,-0.03504319321920421,-0.015287129492229259,-0.014068897662148439
1681504112525757400,3.47175732421875,0.11443758010864258,-0.0117581095546484,-0.011234375648200512,-0.031812380999326706,0.06862812489271164,-0.9971349835395813,0.014828309416770935,0.06304057687520981,-0.005611538887023926,0.9991839574619704,-0.034559928254162764,-0.015431308421173132,-0.014105195419426647
1681504112535732200,3.481732177734375,0.13474707305431366,0.006887161172926426,-0.00832708552479744,-0.031810786575078964,0.0673336610198021,-0.9972232580184937,0.004603330045938492,0.05127350986003876,-0.0010371208190917969,0.9992053963720905,-0.033912248950772474,-0.015437744205504835,-0.014151708371087202
1681504112545707300,3.491707275390625,0.14884957671165466,0.008932468481361866,-0.01088984590023756,-0.031723350286483765,0.06586512923240662,-0.9973241090774536,-0.009491678327322006,0.02944188565015793,-0.012761831283569336,0.999230106964382,-0.03317663661867192,-0.015402831948373295,-0.014187738873726577
1681504112555681300,3.501681396484375,0.13053178787231445,-0.014112182892858982,-0.017057543620467186,-0.03174811601638794,0.0644272193312645,-0.9974172711372375,-0.0027072690427303314,0.012492947280406952,-0.006549954414367676,0.9992526248484249,-0.03245750340877348,-0.015423378125816085,-0.014240352715936487
1681504112565656000,3.511656005859375,0.1040051057934761,-0.0306171253323555,-0.016874050721526146,-0.031985461711883545,0.06324479728937149,-0.997485339641571,0.009187791496515274,-0.00503191351890564,0.0029481053352355957,0.999268687826126,-0.031868176847113794,-0.015548109270898844,-0.014308674255429858
1681504112575631000,3.521631103515625,0.04969043657183647,-0.021229855716228485,-0.021709103137254715,-0.03226766735315323,0.06246533244848251,-0.9975253939628601,0.011224757879972458,-0.018244750797748566,0.002164125442504883,0.9992774553062975,-0.031481378228660595,-0.01569183388436005,-0.014400180356521837
1681504112585606400,3.5316064453125,-0.035549093037843704,-0.022714566439390182,-0.030729763209819794,-0.03250810503959656,0.06239711120724678,-0.9975218176841736,0.0012723244726657867,-0.03519007936120033,0.007516443729400635,0.999274690048151,-0.03145105334252092,-0.015808558876173544,-0.0145292326739568
1681504112595581200,3.541581298828125,-0.1287454217672348,-0.00414839293807745,-0.03387046232819557,-0.03265422210097313,0.06326267123222351,-0.9974625706672668,-0.004730850458145142,-0.05526645481586456,0.013285994529724121,0.9992574756950526,-0.03188811572710263,-0.015870533271034434,-0.014687687194528197
1681504112605555200,3.55155517578125,-0.2219075858592987,0.00912187248468399,-0.048159919679164886,-0.032629840075969696,0.0650392398238182,-0.9973490834236145,-0.010751936584711075,-0.07478899508714676,0.019657492637634277,0.9992259137138934,-0.03278104484153272,-0.015838633319800344,-0.014903353315294429
1681504112615530200,3.5615302734375,-0.21440482139587402,0.011302042752504349,-0.052077312022447586,-0.03252897411584854,0.06731760501861572,-0.9972012042999268,-0.01607130840420723,-0.09905527532100677,0.023370087146759033,0.9991849515045375,-0.033925473967143065,-0.015762907164907025,-0.015163472099419976
1681504112625505300,3.57150537109375,-0.0879392996430397,-0.056229326874017715,-0.04986129701137543,-0.032771192491054535,0.0688444972038269,-0.9970890283584595,-0.007467277348041534,-0.08512501418590546,0.006900489330291748,0.9991528149508699,-0.034696394775114194,-0.01586372625482015,-0.015428367198159364
1681504112635480000,3.58147998046875,0.056538987904787064,-0.12550267577171326,-0.041759192943573,-0.03378017619252205,0.06900275498628616,-0.9970443844795227,0.016109459102153778,-0.0035877227783203125,-0.0011702775955200195,0.9991383719013871,-0.0347872903178922,-0.016359966187387318,-0.015644174887997544
1681504112645454000,3.5914541015625,0.17754584550857544,-0.11480555683374405,-0.05428484082221985,-0.03500506281852722,0.06777866184711456,-0.9970861077308655,0.04046666994690895,0.09396509826183319,-0.004515945911407471,0.9991454886713145,-0.03418767490546985,-0.016975011129534145,-0.01585439288170225
1681504112655429000,3.60142919921875,0.2045954167842865,-0.08257459849119186,-0.0956077128648758,-0.0360250249505043,0.06581908464431763,-0.9971810579299927,0.03085125982761383,0.12706786394119263,-0.008678197860717773,0.9991644377103713,-0.033219803084189224,-0.01749056877560615,-0.016151780000121276
1681504112665404400,3.611404296875,0.24607202410697937,-0.07488472014665604,-0.23972387611865997,-0.03679215535521507,0.063472680747509,-0.997305154800415,0.0003836415708065033,0.08939047157764435,-0.025354087352752686,0.9991824237016604,-0.032065300128128686,-0.017867371372019485,-0.01694397397260311
1681504112675379200,3.621379150390625,0.2330501675605774,-0.06093108654022217,-0.26563167572021484,-0.03757268562912941,0.06096285954117775,-0.9974325895309448,-0.018245011568069458,0.0250667966902256,-0.008594512939453125,0.9991901658969652,-0.030840331510149022,-0.018236393878605043,-0.018310978099926885
1681504112685354200,3.631354248046875,0.24337472021579742,-0.09682250767946243,-0.10866522043943405,-0.038506004959344864,0.05850057303905487,-0.9975444674491882,-0.019737835973501205,-0.013471290469169617,0.0005047917366027832,0.9992015503609897,-0.029632902370132982,-0.018699087016398788,-0.019196409705459015
1681504112695328300,3.641328369140625,0.20461569726467133,-0.11810462921857834,-0.051634445786476135,-0.03965067118406296,0.056189458817243576,-0.9976325035095215,0.01285519078373909,-0.0021574869751930237,0.0015388131141662598,0.9992173179610517,-0.02849350089197616,-0.019284172444931524,-0.019522205069509517
1681504112705303300,3.65130322265625,0.12268701940774918,-0.11119372397661209,-0.03757002577185631,-0.040827568620443344,0.05449315905570984,-0.9976791143417358,0.03313609957695007,-0.004550546407699585,0.004530429840087891,0.9992252991537844,-0.027659865512106623,-0.019884094442813062,-0.01970705840797078
1681504112715278000,3.661278076171875,0.02294624038040638,-0.07076998054981232,-0.021942630410194397,-0.04176366329193115,0.05377664044499397,-0.9976792335510254,0.008834153413772583,-0.03104044869542122,0.012617707252502441,0.9992227732285006,-0.02731330108367521,-0.02035590322385599,-0.01983462340183731
1681504112725253400,3.67125341796875,-0.05930814892053604,-0.03015490621328354,-0.016579821705818176,-0.04226263612508774,0.053999509662389755,-0.9976462125778198,-0.00916052982211113,-0.0570201501250267,0.0156363844871521,0.9992128182405945,-0.027431766709013615,-0.020601033559867622,-0.019922182673041824
1681504112735228400,3.681228515625,-0.11409067362546921,-0.0025413883849978447,-0.01236275676637888,-0.04242885112762451,0.05492791533470154,-0.9975884556770325,-0.016364309936761856,-0.06832453608512878,0.021071791648864746,0.9991968018497756,-0.027899833510415216,-0.020673023895008347,-0.020000309469010994
1681504112745202200,3.6912021484375,-0.11776477098464966,0.006521082483232021,-0.011029578745365143,-0.042423103004693985,0.056132785975933075,-0.9975216388702393,-0.014447450637817383,-0.06498228013515472,0.017861664295196533,0.9991786758433824,-0.028504382504136595,-0.020656428368562674,-0.020070211923740724
1681504112755177200,3.70117724609375,-0.10489551723003387,-0.003083820454776287,-0.01622883416712284,-0.042411841452121735,0.05725177749991417,-0.9974585175514221,-0.008034754544496536,-0.041870322078466415,0.00447767972946167,0.999161226291937,-0.02906612784421423,-0.020637531070658847,-0.02015061855871605
1681504112765152300,3.71115234375,-0.07865405827760696,-0.013279466889798641,-0.008723514154553413,-0.04253285750746727,0.05813957750797272,-0.997402012348175,0.0009668692946434021,-0.009127750992774963,-0.0004616975784301758,0.9991455949322835,-0.029513423159387164,-0.020687166898415158,-0.020225934737491513
1681504112775127300,3.721127197265625,-0.07513076066970825,-0.00006757769733667374,-0.010691090486943722,-0.04261001572012901,0.058893121778964996,-0.9973545074462891,0.006018396466970444,0.010946951806545258,0.0033055543899536133,0.9991326503888623,-0.029892553942064054,-0.02071686014473883,-0.020276497509597022
1681504112785101000,3.73110107421875,-0.06424162536859512,0.0398193821310997,-0.008924615569412708,-0.04242616519331932,0.059588659554719925,-0.9973210096359253,0.0020045898854732513,0.01185358315706253,0.004324913024902344,0.9991231491941452,-0.030240071668878522,-0.02061623727180713,-0.02033470269704794
1681504112795076000,3.741076171875,-0.023471059277653694,0.08110616356134415,-0.010063333436846733,-0.04182688891887665,0.06002718582749367,-0.9973200559616089,-0.01043551042675972,0.0006270967423915863,0.007329881191253662,0.9991216828909811,-0.03045451400815519,-0.020310246730414688,-0.02039226494700192
1681504112805051400,3.751051513671875,0.038931332528591156,0.10372278839349747,-0.012978961691260338,-0.040900859981775284,0.059934403747320175,-0.9973640441894531,-0.020272672176361084,-0.003247402608394623,0.0169106125831604,0.9991313702168428,-0.030399684041849978,-0.019845638413309667,-0.020461747234114796
1681504112815026200,3.761026123046875,0.11933402717113495,0.10853858292102814,-0.015437059104442596,-0.03986847773194313,0.05907898396253586,-0.9974568486213684,-0.020099610090255737,0.017017196863889694,0.012364745140075684,0.9991527935770068,-0.029962161124770556,-0.019334972995036184,-0.0205474931536871
1681504112825001200,3.771001220703125,0.19424287974834442,0.0879582092165947,-0.008559180423617363,-0.03891957551240921,0.057410381734371185,-0.9975917339324951,-0.010016407817602158,0.04197070747613907,-0.005566716194152832,0.999185407067906,-0.029117788098631654,-0.01887526382818852,-0.020602510073889965
1681504112834975200,3.780975341796875,0.24197998642921448,0.07576262950897217,-0.0059763467870652676,-0.038143184036016464,0.055164583027362823,-0.9977484345436096,0.0027264878153800964,0.06095539405941963,-0.01245957612991333,0.9992240240199008,-0.027985892684410013,-0.01850852301201972,-0.02063291097046758
1681504112844950300,3.7909501953125,0.24471904337406158,0.06475525349378586,-0.0026766902301460505,-0.037454210221767426,0.052704863250255585,-0.9979075193405151,0.008736122399568558,0.05799825116991997,-0.010912001132965088,0.9992635663458139,-0.026747618652416396,-0.0181883058541743,-0.02064457236498986
1681504112854925000,3.800925048828125,0.1905113011598587,0.06503301858901978,-0.006630701944231987,-0.03681498393416405,0.05050908029079437,-0.9980448484420776,0.00783749669790268,0.02993585541844368,-0.012163221836090088,0.9992977203530794,-0.025642063056284716,-0.0178904378222729,-0.020654309883895345
1681504112864900000,3.810900146484375,0.0861143171787262,0.06494087725877762,-0.012093910947442055,-0.03617330268025398,0.04909486323595047,-0.9981388449668884,0.002602923661470413,-0.016150545328855515,-0.0054315924644470215,0.9993201571139718,-0.02492839738186407,-0.017582501563186023,-0.02070341100643661
1681504112874875400,3.82087548828125,-0.06487768888473511,0.05553927645087242,0.012288810685276985,-0.035569749772548676,0.04901736602187157,-0.9981643557548523,-0.0007319562137126923,-0.058919720351696014,0.0002701282501220703,0.999326383072288,-0.02488343236780992,-0.017281038866439512,-0.020715643712276695
1681504112884849400,3.830849365234375,-0.17400842905044556,0.04682435095310211,0.010383051820099354,-0.03507115691900253,0.050232257694005966,-0.9981216192245483,0.0010887868702411652,-0.09184237569570541,0.010969579219818115,0.999316559439946,-0.025485409050858353,-0.0170203503075539,-0.020673041584569594
1681504112894824200,3.84082421875,-0.23451991379261017,0.025863833725452423,0.010141669772565365,-0.03472668305039406,0.05230480805039406,-0.9980272054672241,0.00655791163444519,-0.1157349944114685,0.029643476009368896,0.9992934346859143,-0.026518585615963243,-0.01682769567629347,-0.020647227846632275
1681504112904799200,3.85079931640625,-0.2765137255191803,0.007590022869408131,0.020271003246307373,-0.034560274332761765,0.05488254874944687,-0.9978945255279541,0.005964256823062897,-0.10848608613014221,0.019745230674743652,0.9992614054128424,-0.027806089667023325,-0.01671993538671117,-0.020590824273896215
1681504112914774300,3.860774169921875,-0.245010107755661,0.004285732284188271,0.011985509656369686,-0.034492675215005875,0.05753018707036972,-0.9977477192878723,0.007788751274347305,-0.05382170528173447,0.012945592403411865,0.9992257691865154,-0.02912977809541937,-0.016661063324796173,-0.02053481743757469
1681504112924749000,3.8707490234375,-0.22010928392410278,-0.006678235717117786,0.015674786642193794,-0.03448786959052086,0.059892330318689346,-0.9976089000701904,0.006654791533946991,-0.005372077226638794,0.018132030963897705,0.999192147851228,-0.030311364854111515,-0.016636607451619604,-0.020479673352543772
1681504112934723000,3.88072314453125,-0.16705238819122314,0.007440513465553522,0.017637303099036217,-0.03448338061571121,0.06185523048043251,-0.9974892735481262,0.004575107246637344,0.011738505214452744,-0.003471970558166504,0.9991636700328772,-0.03129291253919713,-0.016616950026268357,-0.02040838952969374
1681504112944698400,3.890698486328125,-0.10383773595094681,0.02245141938328743,0.01602369360625744,-0.03432535380125046,0.06318635493516922,-0.9974112510681152,-0.00115237757563591,0.024414949119091034,-0.003702521324157715,0.9991455352056092,-0.03195666464208085,-0.016526749111037943,-0.02034159557162982
1681504112954673400,3.90067333984375,-0.06180529668927193,0.036148589104413986,0.017490779981017113,-0.034027375280857086,0.06396668404340744,-0.9973717331886292,-0.005249790847301483,0.029295623302459717,0.0013543963432312012,0.9991372742519641,-0.032343043149662354,-0.01637235973702837,-0.020265651976771923
1681504112964648200,3.910648193359375,-0.04744313657283783,0.042341768741607666,0.008946826681494713,-0.03360561653971672,0.06444832682609558,-0.997355043888092,-0.006938029080629349,0.031316421926021576,-0.008855164051055908,0.9991340972286019,-0.032579029416867585,-0.016158180621823812,-0.020216030516012132
1681504112974622200,3.920622314453125,-0.05903058499097824,0.048731863498687744,0.001999354688450694,-0.033169038593769073,0.06492007523775101,-0.9973390698432922,-0.005787696689367294,0.028754226863384247,-0.01689732074737549,0.999130233771947,-0.03281059738983089,-0.015935341086880765,-0.020208060248283158
1681504112984597200,3.93059716796875,-0.07809588313102722,0.050433360040187836,0.009449814446270466,-0.03266085684299469,0.06556282937526703,-0.9973137974739075,-0.0011078901588916779,0.006321929395198822,-0.013199448585510254,0.9991241840315355,-0.033127017976459804,-0.015675087640414316,-0.02019706434095734
1681504112994572300,3.940572265625,-0.05026565492153168,0.025578875094652176,-0.0017658558208495378,-0.03226152062416077,0.06620493531227112,-0.9972843527793884,-0.0030636191368103027,-0.02349499613046646,-0.0017694830894470215,0.9991170394560196,-0.03344418224413657,-0.015469494178967045,-0.020180648366622696
1681504113004547000,3.950547119140625,-0.026706533506512642,0.01616779714822769,0.0009915812406688929,-0.03206510469317436,0.06656106561422348,-0.9972670078277588,0.004232026636600494,-0.03195352852344513,0.014768898487091064,0.9991125718333405,-0.03362061059271157,-0.015367446947444087,-0.020188320343450285
