seconds_elapsed,rotationRateX,rotationRateY,rotationRateZ,gravityX,gravityY,gravityZ,accelerationX,accelerationY,accelerationZ,quaternionW,quaternionX,quaternionY,quaternionZ
1.0,-2.73060564755522,0.3859788415202564,2.3605377025697156,0.03542849984405674,-0.05462387332563443,-0.9977789491219005,0.3637999740311926,0.29620224616704677,-0.02716732209841012,0.9992351278002403,0.027661283215445535,0.01714426306077546,-0.019401927667481285
1.01,-3.1173860493085725,0.3443349255094481,2.5202425777529767,0.038077485032055866,-0.025904591587095134,-0.9986831295708066,0.4109220761663291,0.29225652818025444,0.022657732998409542,0.9996003898310653,0.013076174281133215,0.01884594474958691,-0.006802453270545766
1.02,-3.5704325106956265,0.2988250406742733,2.648375324767834,0.04092684178838088,0.005839129398593789,-0.9989278762639717,0.4610735049921077,0.2719610268697326,0.09032374189221284,0.9996816709184153,-0.003058308739741924,0.02036884133757016,0.0063657313661816175
1.03,-4.11467243014869,0.23948150154732323,2.721740972198371,0.04428700163513264,0.04303392548674702,-0.9978683965839061,0.4933383146966642,0.22748898768150463,0.15604839316588195,0.9992306800079194,-0.021980517426407966,0.021630995147637434,0.020263667979255044
1.04,-4.655166506411057,0.16973292492707553,2.7064553549982935,0.048048103896484,0.08613717012216042,-0.994536478707887,0.5427056428907028,0.1465681748218105,0.29936950591453254,0.997990502746846,-0.04394723335550007,0.022383502923051267,0.034227167403592954
1.05,-5.1719977832566535,0.10565852666053617,2.6762547157162144,0.052213632022456005,0.13290702469819377,-0.9893224768487602,0.5839798074750169,0.06600789261212715,0.4371068211304577,0.9961314038168779,-0.0678391351041414,0.022813247575195327,0.048190086809452456
1.06,-5.618319596086538,0.07073405165704691,2.6950692647925445,0.0572193425142978,0.18483187478415364,-0.980638841863478,0.5812274713376843,0.026060310982128014,0.4732059713664505,0.993176696523135,-0.09450028773815644,0.022777880085808465,0.06208016930630483
1.07,-5.926565515949533,0.08132772045204742,2.788034295873144,0.06398556698054697,0.23963255169016118,-0.9677679321962402,0.5582222522471522,0.05052062093945435,0.49518288863949134,0.9889031199233466,-0.12298387800038132,0.022620174808258252,0.07632424886096192
1.08,-6.16292926393386,0.11614836084857283,2.923193727718639,0.07225788824305619,0.2956373835190793,-0.9519787591848243,0.5313987427768403,0.08615975831661377,0.5031468178119494,0.9836865839389458,-0.1524125985058683,0.022500118706931128,0.0909211981046247
1.09,-6.324909064989481,0.1772233646549059,3.1100371351486005,0.08340536107534904,0.3522339581359078,-0.9315208255165338,0.5156430586517897,0.08345069940091145,0.4817348028023069,0.9769217736290681,-0.18281123921779746,0.02264533003069659,0.1062597686915029
1.1,-6.397443685126456,0.22801451896601282,3.3312878890580846,0.09790900909160735,0.40756225706064436,-0.9066822927377898,0.5228342756356018,0.12278082933409018,0.46351031827991684,0.968564197992671,-0.21350256924164182,0.023230286914449883,0.12256755729591345
1.11,-6.442090644412667,0.2723544319655937,3.557576492382799,0.11473706633159415,0.4616035538948411,-0.8789620313863722,0.5369249942044282,0.16198354886886673,0.44160918279595096,0.9591084940038215,-0.24426226614509536,0.024123558349205702,0.13950938092381293
1.12,-6.503786606791269,0.30764778754054245,3.758006691208603,0.13526042756094336,0.5128623598323618,-0.8469347019737953,0.5457768860210839,0.14828119891444191,0.40325812191544513,0.9479159877320361,-0.27488853318844686,0.025513753654481174,0.15739209736009016
1.1300000000000001,-6.493050078780709,0.26773094686808807,3.9230833713367463,0.15854591483944092,0.5606311926737044,-0.8113155432594303,0.5668436845153965,0.15935441055157865,0.37526378509857977,0.9350870509085396,-0.30512262611117136,0.027024803762757125,0.17597592081617539
1.1400000000000001,-6.476367421214096,0.19507879054841482,4.06590739441073,0.18348243758052174,0.6058185701625797,-0.7734075243193296,0.5876731978322354,0.17138076761027324,0.3454575963800527,0.9211451640016668,-0.3350230570712969,0.028509682353426356,0.19498071464408578
1.1500000000000001,-6.535812838388274,0.10790001934396364,4.177717813614953,0.21053362523594715,0.6465889245322509,-0.7322497961930606,0.5912959949165837,0.1535601077823194,0.2953879325427605,0.9054755804827659,-0.36427361054740215,0.02974038644830846,0.2145289299773576
1.1600000000000001,-6.5189835819363635,-0.03184737555704159,4.237960874160229,0.23889790910896283,0.6829867407862275,-0.6886119617836959,0.5845494073810877,0.1808614275245427,0.24337008336187504,0.8882465584927364,-0.39282778841605576,0.030483557998975914,0.2343515268925918
1.1700000000000002,-6.4733532028105305,-0.19853015226631893,4.27659578750059,0.26792956575551713,0.7161973181450416,-0.6436008850772149,0.5700456641807427,0.2165062175327522,0.18468186119151433,0.8700042216306111,-0.42077622716898266,0.030810721470978287,0.25431170647909246
1.1800000000000002,-6.43206685232332,-0.38816622909399146,4.3103440112115115,0.29751465158834267,0.7440314904577697,-0.5971316561135532,0.5420643136300933,0.2177423640639134,0.10437178772927402,0.8502962876446648,-0.44750904416736315,0.03031637970780558,0.2743806814311856
1.1900000000000002,-6.212407331350824,-0.6018892016532384,4.311545961814158,0.32730658324448686,0.766246844014828,-0.5512106044396292,0.5065923607494978,0.2809250730161117,0.022141458622251996,0.8296577678791328,-0.47245552997691903,0.029133553986500395,0.2946060538892113
1.2000000000000002,-5.903253972226405,-0.8166018979649401,4.272732887897818,0.35696687074419603,0.7845223269107673,-0.5063269302318164,0.4680284556319293,0.3579078556330692,-0.05962361776418784,0.8086005505464843,-0.4959471172913308,0.027496310830351627,0.3148037925431218
1.2100000000000002,-5.529084020217437,-0.9978177292208287,4.131805850410403,0.3858055112291208,0.7964792066027843,-0.4645478533030393,0.4292728859236309,0.3916277622697993,-0.13664484235269164,0.7873877885207397,-0.5166589252311983,0.02519283036306085,0.3346542537467784
1.2200000000000002,-5.129851283462718,-1.1515961581505005,3.980354476837702,0.4133837139143203,0.8036926103214003,-0.4266433393839453,0.3598520488100592,0.4864755171449529,-0.2010868923322134,0.7666018961452017,-0.5347933933226015,0.02249601713394803,0.3538407710610663
1.2300000000000002,-4.731725885090012,-1.2907412606402064,3.812476569614901,0.43998926699424884,0.8079041688070977,-0.39152950994682667,0.2828416816277231,0.5921221237890906,-0.2502278559267819,0.7461925356052568,-0.5511814013201294,0.019542554439312763,0.3725286933085111
1.2400000000000002,-4.379683462050252,-1.4174625127108866,3.5969265746393413,0.46483208426873784,0.8080950833342316,-0.3610438103846127,0.22672545898555638,0.6389375378386491,-0.2595803482340565,0.7265671492484296,-0.5649268254745604,0.016225008978813987,0.3903426588176819
1.2500000000000002,-4.063193866079675,-1.5232419307330747,3.4271808081870687,0.4878821733139188,0.8059308779511464,-0.33438063065252843,0.1371691791691329,0.7385874917166633,-0.2577708690416714,0.707728384864066,-0.5766953523382881,0.012521584170471452,0.407384010404232
1.2600000000000002,-3.7799323732252628,-1.59113936784822,3.2989962241073996,0.5100098827995196,0.802159200634431,-0.31014547280367727,0.04177270357914587,0.8515989321983137,-0.2556860875988706,0.6893536653756812,-0.587220406022048,0.008719734885821666,0.4239325077943821
1.2700000000000002,-3.570488153922068,-1.5398269353483014,3.2607517819524316,0.5315303709773623,0.7959530312792649,-0.2891129764311724,-0.01794373486027207,0.9253355942710835,-0.2724351201717199,0.671490730622283,-0.5961397187589607,0.005201263473590027,0.4398249986797267
1.2800000000000002,-3.481700741948129,-1.5032432221008825,3.1678418846072733,0.5526321706544417,0.7883943795724178,-0.2693359655036122,-0.1402838201035457,0.9402714704135663,-0.28479170364000933,0.6537269040972092,-0.6043898761647971,0.0018825160358970396,0.4549829748367553
1.2900000000000003,-3.462647634882585,-1.4767841522644263,3.041313227298437,0.5732499046147576,0.7800965793530629,-0.2502769544339495,-0.27948857593284887,0.9210038341161336,-0.2949711090996651,0.6359935740047822,-0.6122435087124088,-0.0014589035527774897,0.4696019870081308
1.3000000000000003,-3.512167561039711,-1.4656537187230134,2.8749785046532885,0.592584850882013,0.7712136669368022,-0.23189860723921737,-0.37085965699507006,0.8673715608467464,-0.30421423549532084,0.618200970804765,-0.6196746172464109,-0.005282873650197216,0.48330959534490464
1.3100000000000003,-3.536839221194659,-1.4723993526742176,2.724834770290914,0.610661961274374,0.7622563568886535,-0.21367191988861314,-0.47500008693130846,0.8112139224134887,-0.29569183190179604,0.6002859164179065,-0.6269191671335872,-0.009746150655669696,0.4962095442869814
1.3200000000000003,-3.511814368937583,-1.4973987991617235,2.578459923372871,0.6278392856071701,0.753174892175599,-0.19597429252837226,-0.5723909725854432,0.7643900999924153,-0.27810061397564034,0.5824215586040579,-0.6338649407954049,-0.01459135251677427,0.5085929865902022
1.3300000000000003,-3.314271674560806,-1.567607893761805,2.4154781049603655,0.6435697924205075,0.7436880018233862,-0.18034749839710446,-0.6128473837202384,0.7648940823690901,-0.2564862288888558,0.565039918752903,-0.6398506743798028,-0.019831929046695312,0.5203235965352092
1.3400000000000003,-3.0920284612001843,-1.6000960921101317,2.2674447507289512,0.6580230902623435,0.7340208605518427,-0.16727229907800847,-0.6627515849392512,0.7804134337719631,-0.22155409723005148,0.5485180425224407,-0.6447523501598497,-0.02513173394884211,0.5315555908871941
1.3500000000000003,-2.8733013068169457,-1.5937366706032368,2.115045982395774,0.6715685678379466,0.7243224175516034,-0.15581043333073594,-0.7162223444524924,0.8046003440427982,-0.18312617336630657,0.5326321157942773,-0.6489687508805843,-0.030422997332788228,0.5423422493172647
1.3600000000000003,-2.7264450152511075,-1.48854026820531,1.9085962861968928,0.6836900344878312,0.7148797414246059,-0.14624852979291972,-0.7653725063765591,0.836069322807171,-0.15801430141840161,0.5178219693941661,-0.6523786874368369,-0.03554140319551145,0.5521440321101065
1.3700000000000003,-2.683744851081143,-1.4019617761739473,1.65217850366102,0.694115325179335,0.7066186787409332,-0.13697868495999505,-0.8624540380054286,0.807074797975097,-0.10881271054252967,0.5038483564632916,-0.6555970966791471,-0.04098880327062073,0.560791383711614
1.3800000000000003,-2.6856137049996742,-1.3404912352707157,1.3669924191696694,0.7032108146003047,0.699371194319661,-0.1278270417379255,-0.9707056721845309,0.7494956580265416,-0.05417023192079217,0.4904352507366144,-0.6586949441950891,-0.046842814600799046,0.5686308105764365
1.3900000000000003,-2.6560835334609005,-1.3581098025666962,1.060369319164593,0.7098330423205645,0.6942775267902254,-0.11855389090243527,-1.0183551421525578,0.6967432029412794,-0.030840860544739012,0.4777708410435757,-0.6616597618104516,-0.05391123222077629,0.5752669665391482
1.4000000000000004,-2.4499907957224827,-1.3253601506024493,0.7968156334950107,0.7145815254980794,0.6907392177889611,-0.1104968988364223,-1.068633096313943,0.6764083767982695,-0.01479365628180876,0.4663496278728619,-0.6640367761486168,-0.06140942623211493,0.5811068187161385
1.4100000000000004,-2.1239960902558845,-1.2480102615263446,0.5591964936691923,0.7180634621522605,0.6882293235515125,-0.10353775118757812,-1.1166885381668419,0.6809762605302391,-0.002605721575914195,0.4560281795171094,-0.6659338051646138,-0.06894636689151191,0.5863361893398638
1.4200000000000004,-1.6375035792175154,-1.0709883053245575,0.3435523430525653,0.7198726998070514,0.6869890931414434,-0.09909384663456854,-1.146360178442928,0.7299834418132275,0.008591887808601609,0.44816133042904516,-0.6668776091428968,-0.07556196333599068,0.5904803142155214
1.4300000000000004,-1.1593679436643807,-0.8424388663304716,0.08467647331399242,0.7202436046589423,0.6869814513137206,-0.09645639184237528,-1.2187345518169315,0.7644984174664503,0.007942335464750129,0.4427074586445262,-0.6672258816282246,-0.08104384131635108,0.59348571094524
1.4400000000000004,-0.7048184733600401,-0.5854004151901478,-0.20651825504760726,0.7194184942536583,0.688048201193221,-0.09498524720924752,-1.3057661315559779,0.7812473636410824,0.0009428839135321465,0.4390740445324858,-0.6671955068270566,-0.08575879806950175,0.5955725380248796
1.4500000000000004,-0.3551346872919072,-0.3187880203227952,-0.5515930908460442,0.7161429719273722,0.6914842661820961,-0.09476240951312934,-1.3519635614269456,0.7421732462046444,-0.007166840069500288,0.43853827189943995,-0.6667854684025198,-0.08949993339865686,0.5958736192497712
1.4600000000000004,-0.16425514307946687,-0.0726798227267558,-0.8612253751068134,0.710805717832944,0.6970215495261991,-0.09417192618633273,-1.3836401552852453,0.669055995723401,-0.02285559450375356,0.439794629129378,-0.6665074994156969,-0.09313775638767934,0.5946947591260842
1.4700000000000004,-0.06972939349952832,0.1546366355189808,-1.1483758182115298,0.7039517603431633,0.7040864825345522,-0.09315662020415819,-1.3982363438693368,0.5829374608401093,-0.03959070513996705,0.4422526817054809,-0.6663709102077088,-0.0967894027816584,0.5924397462590877
1.4800000000000004,-0.04131181256933957,0.33700441894810756,-1.4151690454750305,0.6947158104725787,0.7134752408450475,-0.09083150042359328,-1.3593717732237824,0.5265329474798777,-0.03911432859522989,0.44611227802370884,-0.6666404619072153,-0.10083670012107843,0.5885469128815762
1.4900000000000004,0.015993326690524834,0.548815713236833,-1.790801796848736,0.6826375260265731,0.7253678579082335,-0.0873970775538926,-1.282169846554797,0.4224502585050958,-0.034704607617019156,0.45133133463198877,-0.6671819578013,-0.10561520913344685,0.5830579838130278
1.5000000000000004,0.09478289434142814,0.7680833255667405,-2.207929754759035,0.6684643677730902,0.7389944143687458,-0.08325995147512812,-1.191368704002929,0.30467348748951983,-0.0287878854912884,0.4575692092934659,-0.6678872664748011,-0.11086182298324279,0.5763982190508163
1.5100000000000005,0.2074383203757408,0.9345332365097738,-2.5140710123819785,0.6510742152736585,0.7547807658903906,-0.07856204653427444,-1.1458112243849083,0.2626280818216444,-0.026837301062072653,0.4654477056936255,-0.6686789239535545,-0.11650776751335631,0.5679654009490921
1.5200000000000005,0.35511195150575015,1.1158963864064557,-2.8437771253637414,0.631031209470095,0.7719087538873135,-0.07426065759924715,-1.0391008981531422,0.24317981128113658,-0.02565060217938735,0.4747084971529546,-0.6692435535637299,-0.12232465251585477,0.5582712813636116
1.5300000000000005,0.5244000710753247,1.3078198043327867,-3.1847534204468086,0.6088466350968279,0.7900444246897294,-0.07023921234750237,-0.9057125102332171,0.23631263874220432,-0.026271612750171047,0.4850379601295357,-0.6696410175532175,-0.12827405410521694,0.5475401709460549
1.5400000000000005,0.7051838527219384,1.5133002839940997,-3.5125362366008304,0.5825693628413021,0.8097681689625589,-0.06657289030175298,-0.8229806524477162,0.22812947129465982,-0.035682897623234386,0.49719822862828345,-0.6697911716253063,-0.13445216242047037,0.5347431629357448
1.5500000000000005,0.8645503132345765,1.6714353958133292,-3.835124627315728,0.5530943414279546,0.8301791849762709,-0.06409634117368708,-0.6978100957675877,0.21347310919076518,-0.02385803716572965,0.5107169551205253,-0.6694185413077043,-0.14074147261685516,0.5205572938850707
1.5600000000000005,1.0158780824678182,1.7968160660217045,-4.142080211168586,0.5211581636151958,0.8509833823012992,-0.06257988331406021,-0.5552318556534518,0.1997103813609264,-0.002573045205609819,0.5252105324599643,-0.6686207697085362,-0.14713278271829175,0.5053214948956213
1.5700000000000005,1.1972150224764053,1.8871032942792643,-4.363688023567086,0.48516690874697405,0.8717399743202068,-0.06287259950205858,-0.4621059018651454,0.21751394074536598,-0.0009608164611644458,0.5409482495608299,-0.6670058554596101,-0.15377621411178588,0.4884531667709384
1.5800000000000005,1.5554965040948225,1.899664986384286,-4.535167096076442,0.44691176987884795,0.8914917580509311,-0.06657259155483805,-0.3354649960980133,0.32352315247954994,-0.020901071629267236,0.557803960416473,-0.66412402455346,-0.16007899633185532,0.4709534998008582
1.5900000000000005,2.0236752325667275,1.86324413415798,-4.673686088444998,0.40697500419315646,0.9102764993581285,-0.07339651985661325,-0.19413170896507662,0.47523536019905044,-0.056438908060292496,0.5755939208106764,-0.6600870343540253,-0.1660556102409893,0.4530678251728023
1.6000000000000005,2.519949264196831,1.8093873759693115,-4.79111622645877,0.36469735227702005,0.9264355963742584,-0.08800743667846256,-0.09150482894865404,0.5756641459737266,-0.11130177646884876,0.5952862394386683,-0.6532006804310051,-0.171154142592604,0.43512581193614375
1.6100000000000005,3.022308108523016,1.862602373718303,-4.942882420977015,0.32070467731839136,0.9401953206544389,-0.10810403685162367,0.04146987606586541,0.8692319569547298,-0.18135534130167377,0.6163906739502385,-0.644264799631957,-0.17551514790444492,0.4167245045133163
1.6200000000000006,3.4857531834345727,1.9825515239102331,-5.112769909656207,0.275422453679447,0.9519105519108113,-0.13230266660076967,0.1844905396926949,1.2587329644611038,-0.25263695619283494,0.6385229885111292,-0.633783678275891,-0.17927683568712507,0.3978524575145647
1.6300000000000006,3.62217551519462,2.108226434461389,-5.259358165847842,0.22835733523902926,0.9592889712672871,-0.162029855559864,0.26115370929023773,1.4711982316657302,-0.2615719678021527,0.6618633891054316,-0.6211399262611578,-0.18192870977483155,0.3775418098285458
1.6400000000000006,3.6174900394157774,2.0912528960142343,-5.46927445525133,0.1800415438174015,0.9636936953481118,-0.19246001679167585,0.38202455167600746,1.8247097584139584,-0.2873496635590361,0.68470875204822,-0.6078426736188507,-0.1849032382010257,0.3561775569398229
1.6500000000000006,3.5177059462895266,1.9831450067143945,-5.7130178560045435,0.1306356533295697,0.9656604561464452,-0.22334000374964694,0.5286766251364549,2.2411734017053435,-0.32345583074630385,0.7070827064540913,-0.5940120532893449,-0.18826273490928996,0.33399666819445323
1.6600000000000006,3.3714080786138085,1.8689867440846768,-5.90513499072424,0.0787927850247068,0.9630936411662784,-0.25425566439221164,0.6570407668576612,2.4411891850462557,-0.3567392799785027,0.7281650453838665,-0.5792047902880569,-0.19310056507012624,0.3105956967608165
1.6700000000000006,3.280093399226211,1.6856747186535768,-5.965299948350556,0.026600061132111767,0.9569643098495185,-0.28539030178624075,0.8481503630786572,2.5434732463231535,-0.38114533227105474,0.7482449774257482,-0.563672199536416,-0.1985464491424341,0.28689585187299066
1.6800000000000006,3.175104360785932,1.4537895170317467,-5.919921720865798,-0.025605579914993654,0.9480502975905446,-0.31630435408689367,1.06649059828914,2.5537144655342985,-0.38912508145847285,0.7673480205864077,-0.5477043950282349,-0.20451294738759077,0.26308834037061646
1.6900000000000006,2.6353872137339147,1.1910218695057218,-5.7026647944659015,-0.07592268578156255,0.9350652009213877,-0.3440280294979203,1.1649393458226758,2.3148258614109385,-0.30363740350257273,0.7836074633067843,-0.5320648061156431,-0.2115723501832772,0.24004547611978588
1.7000000000000006,1.872534430546763,0.9596340815071216,-5.317981265296856,-0.12311320252744065,0.9218640790874272,-0.3655783996512347,1.1900314031245487,1.8286815293784406,-0.11153912826808135,0.7968541492889312,-0.5186933345897906,-0.21921889757681756,0.21793188365726787
1.7100000000000006,0.9486387170526837,0.7600037744284286,-4.807579295157955,-0.16743912898376387,0.9088853743034695,-0.38169744612383666,1.165282315479947,1.2084357839553925,0.1378747330503819,0.8075397991662387,-0.5074368502696782,-0.22725797733755038,0.19665848904247588
1.7200000000000006,-0.08502334870806427,0.6619856055287139,-4.168631778156337,-0.20447508337436937,0.8993792540360112,-0.38554814744082805,1.1337941024267602,0.8860904638427285,0.254057975507496,0.8130858254001595,-0.5018180777948276,-0.23529050652746644,0.17744580605560173
1.7300000000000006,-1.1520784953916006,0.6606698216183939,-3.521347486667852,-0.23616579869923296,0.8936117281460731,-0.3810491929318518,1.0160862136787288,0.4638855977151062,0.38253699041604317,0.8154459041577955,-0.5005712476334235,-0.24264492023005746,0.159413680545231
1.7400000000000007,-2.218272918948344,0.7317324723669488,-2.871722654783954,-0.2633775262239781,0.8909913296202059,-0.36966679797952834,0.8459219898986372,0.0011264331444143239,0.5070445478674929,0.8151943605748776,-0.5029730514797931,-0.2493427213827164,0.14233160046172938
1.7500000000000007,-3.040428130343612,0.8623334728708993,-2.256870810112328,-0.2824036522207139,0.8942436303847083,-0.3466550493185748,0.746263561569215,-0.17323563250920884,0.5042923753743543,0.8106575967009804,-0.5119186053245937,-0.25409743780283517,0.12665631995859394
1.7600000000000007,-3.3255881704066312,0.9343383735580478,-1.6590899880029801,-0.29673656223752537,0.8992184789646368,-0.3206947738108848,0.602888286007248,-0.35208029246070044,0.4671907749932963,0.8047202437042101,-0.522813870506202,-0.2573609838582694,0.11249405462365866
1.7700000000000007,-3.1757716752143565,0.9642199208181769,-1.0778435611332458,-0.30714782212160996,0.9053387503240637,-0.2931951991896086,0.43976107312323,-0.5182943207628102,0.4073127537566445,0.7978955718930995,-0.5349221404249401,-0.259322808103341,0.09973417219199528
1.7800000000000007,-2.412145634816465,0.9865983084552051,-0.5462508523241186,-0.3108575701423164,0.9106452949977342,-0.271780765572069,0.4010530379527061,-0.50853793405199,0.3643798467326898,0.7922226962728325,-0.5451797994060572,-0.2585350742281039,0.09067275562802912
1.7900000000000007,-1.533333004890615,1.003752890080396,-0.056421979837058045,-0.31080664302389915,0.9149680306792408,-0.2572412962817674,0.38792734295916315,-0.4310176188220643,0.3209508448343054,0.7883505790189276,-0.552897683788445,-0.25623991521936823,0.08432298075811803
1.8000000000000007,-0.591133681037193,1.026092160661091,0.389780978777376,-0.30759988762065554,0.9184528272359408,-0.24863276381867905,0.39457618825043883,-0.3142640029943054,0.28032987794069403,0.786054740686911,-0.5584339043410065,-0.25264800443560054,0.0802148862172711
1.8100000000000007,0.10318067172910428,1.1579295255130628,0.6741837138121299,-0.29924190920526234,0.9204393443423416,-0.2514127300265969,0.4156229490305622,-0.31965086898359096,0.27833933649470655,0.7870197315959675,-0.5598771142663835,-0.24660392028489345,0.07940858149726965
1.8200000000000007,0.5381164314595096,1.2768615000771617,0.8804698900778979,-0.28892044653675436,0.9218571064027841,-0.25803480636157067,0.4283612278955397,-0.4130743409291681,0.3222795393628124,0.7891139022329857,-0.560005383177634,-0.23946275770001027,0.07944746579241731
1.8300000000000007,0.7621336262588436,1.3750557756097124,1.0250471339890106,-0.27698832454891315,0.9228373161835672,-0.2676156344432117,0.4358977724892295,-0.5682563182478192,0.3975802586736161,0.7920728323554408,-0.5591218836573081,-0.23144563940285995,0.08017032929945465
1.8400000000000007,0.7545428495281571,1.3239729102786582,1.1242527745541253,-0.26311446338547284,0.9236450784534654,-0.2784011420755482,0.4569197726775131,-0.6698541214199155,0.4333551507721509,0.795321195220506,-0.5578374936958261,-0.22266614341228613,0.08160348457608796
1.8500000000000008,0.6520496418284317,1.1950442095399012,1.2165279547025034,-0.24875623875815156,0.9246622553638362,-0.2880345379541529,0.5375911394890655,-0.8296187025659654,0.4832456139786423,0.7981438925635388,-0.5568617178956059,-0.21412714868068475,0.08353240197183805
1.8600000000000008,0.4763259947073305,1.0016395017186501,1.3046493813321525,-0.23398918914607783,0.9258931142091946,-0.2965589334790358,0.6588348462303111,-1.0272896992218246,0.5407986344872033,0.8005594540577222,-0.5561893892635089,-0.20583743203971458,0.08592325875489641
1.8700000000000008,0.29417518780539514,0.736966187837688,1.4101825704369297,-0.21866414501092124,0.9279181959451952,-0.30171100881470914,0.7024226350976701,-1.1244138468429803,0.5509446611431377,0.8017680172050029,-0.5565159565972377,-0.19851788135163617,0.08953655707565172
1.8800000000000008,0.10374298954560222,0.4943443471853797,1.490671096823833,-0.20337043743258293,0.9303641324308508,-0.3048519365655859,0.7355609618063841,-1.2584060698566264,0.5568086138983546,0.8022503584318832,-0.5574091828103817,-0.19196190321278594,0.09385049646126756
1.8900000000000008,-0.0924218563920641,0.27417816312606874,1.5578850046898025,-0.1880553333090922,0.9331902103449938,-0.3062174832769007,0.7565008424918419,-1.4136626630018685,0.5592752021414454,0.8020903297415467,-0.5588156123288258,-0.1860473779014674,0.09877763245452882
1.9000000000000008,-0.27524390161013335,0.13963196177275944,1.7338867012720776,-0.1719638033171917,0.9368344778203496,-0.30436739722978,0.7106290409655769,-1.437799977814052,0.5613430783102247,0.8007475281450842,-0.5613466506799717,-0.1808043989921613,0.10473559321975326
1.9100000000000008,-0.41197992688480833,0.023245354957694774,1.9544242179227105,-0.15442313948019773,0.9408482086853246,-0.3012565452420712,0.646381540770576,-1.4274339047738054,0.5613423542321302,0.7988407878724026,-0.5644042002821587,-0.17549395252858882,0.1115742888069412
1.9200000000000008,-0.506043122548692,-0.07829671804982113,2.2122205501719923,-0.1355322694810755,0.9451638125952802,-0.2970818640852731,0.5693700274868045,-1.3894172892801082,0.5584051627130925,0.7964416429909578,-0.56790914109016,-0.17010191491745558,0.1192246057756
1.9300000000000008,-0.49672330714780527,-0.17698221767947092,2.4934247480331724,-0.11322916142532932,0.9495347608188169,-0.2920701735968421,0.5328670074637842,-1.3566288734657084,0.5311952745388241,0.7933497908389027,-0.5718236766213355,-0.164190900304256,0.12877594255110086
1.9400000000000008,-0.39113399805227356,-0.25046357026642807,2.759017929165697,-0.08889786006304928,0.9533879242820976,-0.28771718465952356,0.4981217446879863,-1.2984451212979111,0.47111926233082807,0.7901555202299607,-0.575505865304858,-0.15781024412170544,0.1394186432099984
1.9500000000000008,-0.19920831201389308,-0.3014311412954427,3.011845720508583,-0.06272444913204256,0.9567177905544859,-0.2840804518238119,0.4648355373600678,-1.2208197281143525,0.3860531540437293,0.7869006671108324,-0.5789294189808097,-0.15098409426722217,0.15104946076837006
1.9600000000000009,0.13420849570616467,-0.3173634641216864,3.2693482213104654,-0.03305155379599341,0.9579684690444937,-0.28421916718688117,0.43150848246473833,-1.1804234036714054,0.3529899299404144,0.7841946233685666,-0.5808873453621849,-0.1429239872177382,0.1644936484016842
1.9700000000000009,0.36139279260953905,-0.44553905410498873,3.561603804466831,-0.00139468424931187,0.9577076449637925,-0.2867124319014591,0.4027251919797539,-1.1263481363706347,0.29380548202837403,0.7817376034227499,-0.5818713500853652,-0.13425975377802687,0.17919427881801173
1.9800000000000009,0.48941348830664344,-0.6600793321220714,3.876272415892178,0.032037605818362826,0.9560873520417856,-0.2912071218724861,0.3777616512146196,-1.0624209749509865,0.21351886290725175,0.779455596060376,-0.582020836096221,-0.12507421208133346,0.195027669546756
1.9900000000000009,0.39125892578126753,-0.6235315499458634,3.998002933807323,0.06765651989711916,0.9526187114738806,-0.295485401346197,0.35124748372324716,-1.0470155528285745,0.16495509968024186,0.7761747212536129,-0.5820825181720848,-0.11573693932716053,0.21246927887251263
2.000000000000001,0.5055451711652885,-0.3715542758252759,4.031239518302124,0.10434537331663692,0.9477323120377872,-0.300250111393872,0.3038282431637817,-1.0504008634796376,0.056053230156352135,0.7728399606562877,-0.5819918927619064,-0.10532674880888974,0.2295482196251374
2.0100000000000007,0.7869520036580061,0.04200200633546215,3.9946647766261028,0.14198110350509743,0.9415170755623935,-0.30548113081246725,0.2414749660906911,-1.0674901678318403,-0.10064867077103083,0.7694546462168681,-0.581743406107304,-0.09395568447658034,0.24630754684827655
2.020000000000001,0.442576236193497,-0.43787158497305934,4.212340326320375,0.17991483871027283,0.9324753001174003,-0.3120226000012179,0.290266157158807,-0.9938715436712761,-0.09056475576758967,0.7659603348878944,-0.5806958462072602,-0.08191319086437848,0.2630098577979642
2.030000000000001,0.09560379423501861,-0.9047999491324449,4.184560673343993,0.2165963674564093,0.923334431885216,-0.3159818358247942,0.4397844625052798,-0.748025187642415,0.03547412142832067,0.7608345664264217,-0.5803486740393355,-0.0719030012004766,0.2809163766310704
2.040000000000001,-0.24309412597084074,-1.3540751227333758,3.9384325604897468,0.25199950438614765,0.9140971630063901,-0.31763317042669076,0.6736665760555997,-0.34903652264629814,0.2592152780925973,0.7542319767845054,-0.5806133422197097,-0.06380297961165028,0.29989566993506067
2.0500000000000007,-0.13099459886816225,-1.5483478592335724,3.8010134450817117,0.28097012504058233,0.9045532569467071,-0.319967820910095,0.6403516400020076,-0.02910897779500954,0.20019184852246125,0.7472672328787537,-0.5800920045040043,-0.059148812668893026,0.31840760005225743
2.060000000000001,0.48609802113874506,-1.430903572178509,3.7939525892441326,0.3104418692136776,0.8924058040796221,-0.32652054691479343,0.6843063053540864,0.7985808931073852,-0.06200908726716728,0.7413438924512924,-0.5778263741377666,-0.053117339310572734,0.3368731555222427
2.070000000000001,1.5572315725600991,-1.030986735893364,3.8980521366918106,0.3403546978829142,0.8777650490051045,-0.3371182823921692,0.7984456751436653,2.0818306288446666,-0.5118683081335778,0.7364390328886397,-0.5738839844554621,-0.04575765838056262,0.35526098558030017
2.080000000000001,1.869181002244426,-0.9673908686202217,3.4437568476642038,0.36894597376598354,0.857898920934662,-0.3565141696485638,0.8390687719767955,2.5435257478560334,-0.9548860646804702,0.7348937584737055,-0.5660614439876082,-0.035080824167460736,0.37155845997069664
2.0900000000000007,1.6697049875468577,-1.3755771007893083,2.7356179521559194,0.39030419506762976,0.8402714862845774,-0.37575566708150293,0.9403967928446333,3.0145236989042488,-1.3692070043811941,0.7338190290538916,-0.5579488385799075,-0.027764275411470196,0.38638780863912253
2.100000000000001,0.9816708630319825,-2.228247554301308,1.793902455894023,0.40467950936211755,0.8248465784110038,-0.39479036316947297,1.0983863681959005,3.4881152098303554,-1.7505377221620289,0.7331678555643593,-0.5495826010775733,-0.023724959576143897,0.39982177245921874
2.110000000000001,-0.03934541221670951,-2.7559012033065917,1.5956761281179348,0.4068788565758813,0.8173948474807358,-0.40767950132035613,1.1604480847255398,3.326383137662266,-1.5448552623822862,0.7301784035620955,-0.5434187471565122,-0.02872170109817199,0.41302311247662454
2.120000000000001,-0.9117282727583744,-3.0358051581012324,1.328693803326683,0.406731372390112,0.8134941938358018,-0.4156785451143894,0.9930689977281899,2.8427326450474677,-1.1690817454129143,0.7254516882973391,-0.5392455900901145,-0.03633524369985379,0.4259776012606444
2.130000000000001,-1.6381227153504976,-3.073501230517491,0.9947342533339226,0.40428437267697753,0.8130720954382457,-0.4188886870463613,0.6022951843289122,2.046932996988199,-0.6287066052858306,0.7190279897849905,-0.5370213478928819,-0.04650765909147325,0.4386827751950264
2.140000000000001,-2.0031154476725868,-2.8730756310863157,0.6721116598006287,0.397916451335634,0.818284954152963,-0.4147648737853359,0.28480478167950396,1.7675174734667007,-0.4665264392584668,0.7113910612856957,-0.5375936871149258,-0.05938997957009394,0.44858324996495313
2.1500000000000012,-2.2483880388376014,-2.688801185843427,0.4796179688472755,0.39123944975837355,0.8247009908502896,-0.40829835533156705,-0.03406573371326593,1.4279008271017024,-0.3262390823984085,0.703445607495065,-0.5389841752825901,-0.07249393074511372,0.4574372487381419
2.160000000000001,-2.37385862092315,-2.520688939391894,0.41734216619334197,0.38425315658763765,0.8323210282963924,-0.39948752967886786,-0.35431730560840213,1.0280418907111182,-0.20785950561017547,0.6951914174350264,-0.5411933718686059,-0.08581966417369252,0.46524405590554896
2.170000000000001,-2.3927763805552043,-2.495898129640919,0.3738023856956168,0.37781211910816925,0.840211008900896,-0.38883657899950175,-0.4097074449483474,0.8315983570894795,-0.1484564652154417,0.6865920863229182,-0.5437877097616732,-0.09892667908370548,0.47217382812108816
2.180000000000001,-2.4566141534868144,-2.524227636722941,0.3124390675524903,0.3710162986559052,0.8482477609771477,-0.3777535940988042,-0.48255124944137306,0.547657159963234,-0.04770844093337426,0.677836342618865,-0.5462586658173108,-0.11237075777969949,0.4789090979710289
2.1900000000000013,-2.566991805232654,-2.606623501775723,0.2326942247382131,0.36385396803775655,0.8564343522149676,-0.366233308718932,-0.57428254448299,0.17307791843866638,0.09573477253216726,0.668921123992064,-0.548601457860857,-0.12616196429739496,0.48544766956248414
2.200000000000001,-2.856238179506963,-2.5871239877143988,0.15281595806824327,0.35624519369198454,0.8656152909314115,-0.3515932944306872,-0.6055514369977026,0.017954823502264322,0.1639948330654521,0.6590651400443999,-0.5515482109696885,-0.141001500741496,0.49128717364621544
2.210000000000001,-2.9834884141069753,-2.5400251871551016,0.02261246893225459,0.3481778990018974,0.8752610418329438,-0.33532679719639463,-0.6472931977013503,-0.18307481270358048,0.23359321967896687,0.648901722372658,-0.5547648842631558,-0.15633983094905177,0.49651308971313485
2.220000000000001,-2.937912748466141,-2.4649044458658813,-0.16068203970056189,0.33963166872092343,0.8853864784757715,-0.3173779056271853,-0.7007334141107472,-0.43489348114786275,0.30541142534401955,0.6384240754003851,-0.5582598297907281,-0.17219311693567732,0.5010991904599396
2.2300000000000013,-2.4877634330580074,-2.190420309209479,-0.2602667339107777,0.33037324769907944,0.8942749987012699,-0.3015189097790862,-0.7411169873296297,-0.5366678852315199,0.30517442159636116,0.6296582236591493,-0.5606030902898277,-0.18669435294787934,0.5042282179431999
2.240000000000001,-1.981661535291254,-1.9073530122709084,-0.3086524068896867,0.3217301881106554,0.9018445847865999,-0.2882033589231782,-0.7853356437980056,-0.643813217872623,0.33054897641480263,0.6221359571640462,-0.5621438463078714,-0.19957767160129378,0.506978287084387
2.250000000000001,-1.4223939482849568,-1.618655850937761,-0.30311890030965755,0.31376679321806333,0.9080082474377342,-0.27760443791245576,-0.8339486747856262,-0.7595365719391416,0.3849916498678826,0.6159292598947624,-0.5628365107847364,-0.21073332433375971,0.509344670371197
2.260000000000001,-1.0289490373551404,-1.3756908728986101,-0.3764543651392324,0.3067012854455877,0.9121040094310178,-0.2719393495955792,-0.8178409922195536,-0.84079549552947,0.39564273236100966,0.612142100889843,-0.562198237890919,-0.21892759706149317,0.5111194721186921
2.2700000000000014,-0.7657921653643924,-1.163186867354852,-0.5112904666154791,0.2991583970785169,0.915915162627676,-0.26750855968544635,-0.7978412041292233,-0.9825508969917159,0.3901005863133734,0.609320544845627,-0.5612157360787055,-0.22640555882529606,0.512329135362936
2.280000000000001,-0.6431588814576155,-0.9833521756476538,-0.7124429772070637,0.2910606923302689,0.9194645904942556,-0.2643198355566766,-0.775228856303975,-1.1925119137890463,0.3677079515700787,0.6075088705240566,-0.5598856444280412,-0.23316530365190766,0.5129258752789317
2.290000000000001,-0.6326904165960449,-0.8360631674073984,-0.8841811872755845,0.2809055359372762,0.9235535896759153,-0.26090670735690324,-0.7769382831147128,-1.2771077031986622,0.31623913033938067,0.606876298518741,-0.5585746227916502,-0.23982746436689414,0.5120097728340719
2.300000000000001,-0.6222672248528995,-0.6951032674707754,-0.9956736396623125,0.2702291683074012,0.92775331565749,-0.25724106346366726,-0.7887477725018286,-1.3496916863524837,0.2604212711141752,0.6065931860080237,-0.5573662860358526,-0.24637722879584067,0.510552040588668
2.3100000000000014,-0.6079462456843715,-0.5602261583520594,-1.0393922807394993,0.2590299466709779,0.9320605088262978,-0.25329491104632923,-0.8112366147328731,-1.4129707191990901,0.2006599868501131,0.6066676897342786,-0.556274559062538,-0.25280205618831414,0.508528956796264
2.320000000000001,-0.6170411988941833,-0.3855339456893887,-1.0616616423163052,0.24803256280928215,0.9362759037226216,-0.24856320150197458,-0.8155318645106305,-1.4076519553206306,0.18613584454421545,0.6070583451844839,-0.5556994432859395,-0.25864787665570976,0.5057248827458859
2.330000000000001,-0.5822217769720611,-0.19114721176428978,-1.0950068450297035,0.23684625915995822,0.9404779034641765,-0.2435589615148744,-0.8245234228696021,-1.3404446574430096,0.18837071888265847,0.6077819560427873,-0.555351871208108,-0.26418150413528513,0.502366953194735
2.340000000000001,-0.4948476322691414,0.02457308719684015,-1.1422978206241106,0.2254293721875752,0.9446682691725111,-0.23826993523907203,-0.8398325078983888,-1.203686733288738,0.20825469487090056,0.6088820944545849,-0.5552482645600904,-0.26937464023291524,0.4983940233607917
2.3500000000000014,-0.34019401214353506,0.2756853602014204,-1.2553730052919603,0.21428802961378654,0.9482529415511015,-0.23413054675068967,-0.8230342083293917,-1.1084902203805411,0.22577145872343846,0.6111132179292013,-0.5552769017135172,-0.27312122390524196,0.493549230263749
2.360000000000001,-0.18112623329559407,0.5274694430204038,-1.408160815924321,0.2025469426776241,0.9516288475926411,-0.23085950133135463,-0.7883031830340376,-0.9719032083068554,0.24618989129595284,0.6141930098624651,-0.5552016394887707,-0.27625792280943384,0.4880268513981629
2.370000000000001,-0.0203906554594446,0.7781429261964004,-1.6052194715272377,0.19006843260352785,0.9547861221308058,-0.2285721326498687,-0.73371139646786,-0.7832010015848763,0.27023220186740965,0.6182337895616452,-0.5549940421991528,-0.27873840065240796,0.48173552132447894
2.3800000000000012,0.10574954565253043,1.0525337190663249,-1.9039028877676092,0.17482214761201217,0.9579069239193964,-0.22742341645839378,-0.6893928304959488,-0.6958095055336873,0.2824976198507735,0.6241308650587236,-0.5545758554320526,-0.2805923580299463,0.4734091076322971
2.3900000000000015,0.17606910912839613,1.2839804571119482,-2.1980209641799715,0.1578432382089618,0.9609753601879214,-0.22680021851855564,-0.6222728048578827,-0.5940891262877823,0.2718502150063914,0.630912392850511,-0.5539876106266092,-0.282305065577967,0.4639692286135504
2.4000000000000012,0.17956883475517227,1.460764120961922,-2.4799147103736283,0.13889991808677904,0.963981372609257,-0.22675348189464678,-0.5262791297157827,-0.4680857608543719,0.23361828874776502,0.6386679976686063,-0.5532026059383551,-0.28388356896840383,0.45328351850847487
2.410000000000001,-0.09583048276946299,1.5592346765847378,-2.7513459273495116,0.11644315692766843,0.9672805720123983,-0.22478929106075887,-0.45469488239824185,-0.42774227685520305,0.2201172668596686,0.6468056238421528,-0.5528206471706293,-0.286341213721783,0.4403544547135556
2.4200000000000013,-0.41699194184651645,1.5856713338876565,-2.954513740829198,0.09230918772684035,0.9707468114254847,-0.22088252669794026,-0.4017341475176636,-0.34452917557480556,0.22233755473599182,0.6545750690228217,-0.5528678982430812,-0.2896326697994346,0.4264299960716158
2.4300000000000015,-0.7751627212072807,1.5265070210537077,-3.071728202797725,0.06631024223321902,0.9744030922572887,-0.21465257728303397,-0.37058897010029745,-0.20034509263953448,0.24266102072369083,0.6618476826848012,-0.5534300176661378,-0.29391705330526263,0.41141069737472874
2.4400000000000013,-1.393295658359638,1.5517729431123635,-2.824621242657223,0.040967178421484715,0.9783440930774903,-0.20179924561874385,-0.40290567664894855,-0.031538973834039835,0.1883991115473694,0.666519489608813,-0.5562790714182212,-0.2993874480357999,0.3956101706004226
2.450000000000001,-1.6036017041703576,1.7538672220576674,-2.6078814326095285,0.017316406205100807,0.9820027751928418,-0.18715433400140782,-0.5531482397261549,0.3958323293414452,0.08048224350516771,0.6702976763935955,-0.5601726396634497,-0.30431841429659373,0.3796779154844346
2.4600000000000013,-1.2588121785664055,2.1793739402367347,-2.46269279705329,-0.0041829261872560995,0.9852680148015509,-0.17075112708593315,-0.8517564894787553,1.1585436205133195,-0.0909351737229401,0.6731372755408668,-0.5652292477667978,-0.3084413894198979,0.36364215378242526
2.4700000000000015,-0.37493026416001207,2.726459059806347,-2.9326243256729607,-0.026758371953558263,0.9857702699135438,-0.16509144768209527,-1.0038967325820238,1.6538045720516588,-0.23135015319870056,0.680226372075467,-0.5677790243082528,-0.30834751496754725,0.3458877849826601
2.4800000000000013,0.6371458865585656,3.08157850464525,-3.5625684537319415,-0.0537415403496158,0.9841445082588206,-0.16734855296212148,-0.9328113120249331,2.3913121077399184,-0.3444354244823536,0.6903569023238014,-0.5672321749849164,-0.30751158543822454,0.3267986550785398
2.490000000000001,1.7671147876224322,3.167125696839728,-4.345453749864704,-0.08652697226144199,0.9799421572133477,-0.17914472815180374,-0.5770863481851048,3.480420918133743,-0.42398113855056285,0.7041398790084071,-0.5627843313827358,-0.3061030359370715,0.3060919598457634
2.5000000000000013,2.2612158133641325,3.1692279312956617,-4.573173911320317,-0.12477008399780515,0.9702796209301039,-0.20436028500553877,-0.17039886689296985,3.8062877576700314,-0.47769004222002925,0.7217729590457808,-0.5524642419970871,-0.3042016038022783,0.2842426112543052
2.5100000000000016,2.2870592025060663,2.97264851301618,-4.5800824864019445,-0.16241504415237648,0.9589026169251536,-0.23053247278446676,0.2968241148926919,3.781054871654612,-0.4573716599938482,0.7389079447648456,-0.5414549252806036,-0.30249195403337387,0.2626015760590376
2.5200000000000014,1.7399555015730588,2.5118215253671856,-4.345783614313082,-0.1986166513045673,0.9457832402401894,-0.2564998321337094,0.8416617218460467,3.358732588456765,-0.3380004189680637,0.7549198399045581,-0.5301624295354915,-0.3011024448175624,0.24137718732611568
2.530000000000001,0.6277723343898352,2.000724959640584,-4.062288434663214,-0.23202142219208902,0.9339882067592451,-0.2703347331510551,0.9695461357293365,2.801406699314897,-0.20405005522872413,0.7654169538829658,-0.5225783237122924,-0.3028433318520819,0.22144886962545568
2.5400000000000014,-0.5081871926648198,1.6386402740266135,-3.6726731700608384,-0.2630561738673998,0.92423873976594,-0.27604249970368505,0.9960941128681897,2.1566796346234653,-0.04284163067848236,0.7727050183829266,-0.5182216847200931,-0.3056438243145812,0.20193721863355457
2.5500000000000016,-1.6057015443513594,1.4938777287349163,-3.1391346391356056,-0.29109329434330583,0.9172155537807376,-0.27179525367971213,0.9324111131752075,1.4054716975395725,0.15508715447650373,0.7761546847058327,-0.5179599865054811,-0.3095446571231495,0.18284994503824942
2.5600000000000014,-2.3424480808087114,1.454548945494697,-2.603047106336611,-0.31248908105102047,0.9143908369091045,-0.2566371510680281,0.8947439113855797,1.111434984745327,0.2440544396854359,0.7751962460490939,-0.5232452451143633,-0.31284473264887674,0.164979882396166
2.570000000000001,-2.8148293092825973,1.4020585499857567,-2.0550400829494198,-0.33043836107543245,0.9131568392474666,-0.23801464844352582,0.8507487402981416,0.760976686457317,0.30563705850239153,0.7726236385003376,-0.5304976498225938,-0.3154754611818435,0.14813616772553145
2.5800000000000014,-2.954052147019492,1.3153516971777761,-1.4900520759279359,-0.34432118048982335,0.9136377937809723,-0.2159096513945109,0.7938281617780683,0.263096089860858,0.34293745939748266,0.768331906468433,-0.5398201168056967,-0.3172179927342633,0.13261208039046038
2.5900000000000016,-2.6832764194479486,1.1746445411046016,-0.9074934400888451,-0.3516255588169001,0.91550940528619,-0.19477310881449558,0.7935305690666264,0.036771973502002286,0.3095814556645173,0.763360020428347,-0.5495161366227791,-0.31716569561705504,0.1207606870653748
2.6000000000000014,-2.337931631133149,1.0565567195988441,-0.36928045568063966,-0.3556529093217707,0.9179220545639605,-0.17551158769962247,0.7849227557019495,-0.17672148414856698,0.273450784151916,0.7585469271393145,-0.5587782237617795,-0.31619122336454314,0.11104646154597939
2.610000000000001,-1.9462360378571593,0.9808966771563752,0.09979521846086514,-0.35582395366636116,0.9209229431381413,-0.1589011458808996,0.7548770363495437,-0.41420894406852204,0.2444065108022142,0.7540795677598798,-0.5673317197124812,-0.31412259615180377,0.10394540599505492
2.6200000000000014,-1.4318099845079324,1.0438374907032548,0.5809991539788556,-0.3501801309467466,0.9248825575024731,-0.1479106404035482,0.7080592086447701,-0.5103652390173493,0.20402303114103276,0.7509328587087054,-0.5744785601589378,-0.3098082667856508,0.10022178180871623
2.6300000000000017,-0.9276045420345234,1.1304467118933652,1.0246438448186774,-0.34143618441915285,0.929309657445731,-0.14043537160752942,0.648144704088453,-0.6517523391509513,0.17022524963487734,0.7487246203957493,-0.5807400673606472,-0.3041179014356459,0.09812670911792122
2.6400000000000015,-0.46071819836699557,1.2290633474749726,1.4083896895710106,-0.3289478016669198,0.934286993900258,-0.13737726990546387,0.571039999777146,-0.8875762042291071,0.14855162847927447,0.7477272730149908,-0.585887543244635,-0.29670649812028804,0.0979418491300272
2.6500000000000012,-0.22531707749826727,1.2751516469416513,1.7829963911156137,-0.3114944256871757,0.9399382052264762,-0.13888614404167654,0.5564616376889987,-1.0120826223929578,0.1764331853259104,0.7479563475539699,-0.5899629774129911,-0.2871222341324345,0.10000730621729247
2.6600000000000015,-0.06454582707208525,1.2307032465709908,2.0733428690725537,-0.2918184471201774,0.9458435744974505,-0.14137803693649892,0.5956761439105871,-1.163583203182248,0.23154458801914526,0.7483490617874727,-0.5937915394213344,-0.2768862482876829,0.10321666889837754
2.6700000000000017,0.023129079449051404,1.0532937051607756,2.232235531950548,-0.2695913455569153,0.9520200833163289,-0.14453831314750248,0.707815496473887,-1.3793584589383543,0.3200973060906172,0.7487626113230912,-0.5974377179185124,-0.26604129411709065,0.10779818290556219
2.6800000000000015,-0.004999132010409496,0.8281423465652752,2.282960858950474,-0.2466891692679573,0.9577365703581922,-0.14688639075805976,0.7579641823112446,-1.5118405002107769,0.3420068407345657,0.7486849766517338,-0.600843918031215,-0.2558941273493681,0.11355589044532473
2.6900000000000013,-0.07644992848238905,0.5995038922627469,2.34483701705934,-0.2234496764341958,0.9632424918810534,-0.1482678055763244,0.8007116540273089,-1.6102451992034992,0.3417609556515982,0.7481479173368941,-0.6043159139919759,-0.2462272240095801,0.11994222035017536
2.7000000000000015,-0.19365502038552557,0.3753708244211894,2.447894930427185,-0.19980564317952645,0.9685041138867376,-0.14825070681147975,0.8446376176641344,-1.670998092017142,0.31969758178081026,0.7469686023534183,-0.6079460256667516,-0.23719242494211187,0.12709989992785622
2.7100000000000017,-0.27026832405916157,0.11419761040028756,2.615786252759438,-0.17461090164120216,0.9735383930847125,-0.14615942676910434,0.8130562987774715,-1.6846183045550291,0.32495379200419383,0.7447124867794565,-0.6119744175019224,-0.22882492591011572,0.13578070329940037
2.7200000000000015,-0.33613833721606595,-0.13888177436431673,2.8035889456523986,-0.14836689179569867,0.9783374096046836,-0.14319770584410169,0.7505765785907663,-1.6720884686048598,0.32643304608313894,0.7418856226911061,-0.6161363573344537,-0.22078175262607394,0.14542722651990064
2.7300000000000013,-0.393516478944629,-0.3697849736294314,3.0095566281199924,-0.12073027989885424,0.9827961003258047,-0.13926453836483843,0.6540515050282211,-1.6268319747243318,0.3152223461579453,0.7383556901089552,-0.6204286640291266,-0.21312516577293736,0.15633309026968276
2.7400000000000015,-0.27943002204300293,-0.5298279310005187,3.2116839573236247,-0.09025135597209241,0.986404289171092,-0.1353536795555047,0.585552192407657,-1.5544772456929465,0.30953227883947637,0.734146958546904,-0.6245853720300929,-0.20536193262244637,0.16911837167844843
2.7500000000000018,-0.5860028618156394,-0.905993508259115,3.5668868555471684,-0.05768879740866199,0.9895488142936253,-0.13005372941504992,0.521346917868858,-1.4524129149769356,0.29806980576157205,0.7288968983196267,-0.6291310336223193,-0.19782466639230076,0.18332329504737008
2.7600000000000016,-1.659804646620944,-1.6719462203420439,4.186353804926792,-0.022266992787026624,0.9921126556238512,-0.12235889971685429,0.4573831525625702,-1.3061566784003888,0.2752717039366932,0.7220288199039199,-0.6343802487116372,-0.1907032414706426,0.19949087144930833
2.7700000000000014,-2.482863966457547,-2.3952042018482422,4.510326620002067,0.02043428032592632,0.9941651883369244,-0.098909961943864,0.4072477204703758,-1.2367486749874324,0.2724260027632208,0.7072021816337452,-0.6445276449619514,-0.18723971694766953,0.22112861235377404
2.7800000000000016,-2.7372592650841114,-2.509923756247318,4.390051486533657,0.06261016000802427,0.9948832732112338,-0.0735226439148259,0.3100863781175439,-1.243847546869808,0.12213730557579067,0.6912608494100732,-0.6551350221724299,-0.18436842127416428,0.24222921385822757
2.790000000000002,-2.054880925026227,-1.559504345848375,3.565627828900655,0.10183397570296726,0.9933816745510633,-0.049081201088336676,0.12585647972285768,-1.3650010880289685,-0.29464069635276874,0.6755575822576055,-0.665195779017121,-0.1815291057897905,0.26085958271193044
2.8000000000000016,-0.09389963467106033,-1.7017448702277225,3.1454037027091264,0.13300721208956778,0.9899055267309584,-0.04349607782808161,0.1560673898269827,-1.1100816765045922,-0.5157647166792587,0.6672150986977204,-0.6684405200528224,-0.17727263255026954,0.2764384296641085
2.8100000000000014,2.245220953851388,-1.783711824054496,2.9739989837191616,0.16234758700578114,0.9847760753413514,-0.054619972182088694,0.30111147303124186,-0.7553838923276702,-0.5032326393220925,0.6644217617658679,-0.6658295134075851,-0.171099684608604,0.292750349031128
2.8200000000000016,4.88681997883687,-1.4258338466617078,3.1336760558028525,0.19078161782681535,0.9772318857930693,-0.09048036662858708,0.5905265329330915,-0.3325601314721669,-0.12423932878154698,0.6695117041719629,-0.654612245506437,-0.16186430329835888,0.31131922549806124
2.830000000000002,5.349435157021926,-1.4120553198696244,3.351395209674258,0.2214184679647888,0.9630333575500125,-0.1449928487371859,0.43314691211579726,-0.2305578834831472,0.04140897278403009,0.680126358165545,-0.636815666061977,-0.14707931943545463,0.33110171344599776
2.8400000000000016,5.4209477697949655,-1.4866176326197331,3.1798254445540244,0.249744887865103,0.9464476453076219,-0.20097448838382115,0.2083239812223055,-0.07596831257746031,0.2163194361113837,0.6910926049469837,-0.6178822375197404,-0.13238480646917378,0.35030484623707375
2.8500000000000014,5.473790242917609,-1.6139582043826717,2.2593868998592908,0.2730173562406919,0.9275686555099539,-0.25359381881491255,0.0035786076506800213,0.28241998279379543,0.4785577739479501,0.7009062685056265,-0.5989750420768576,-0.11967981567083578,0.368023824551792
2.8600000000000017,8.176842334428777,-2.0339673647492185,2.6604563364478353,0.29006453892248857,0.8984951751860331,-0.32386466086420185,0.10208210302476206,0.7610141206640308,0.4016849234778628,0.7158289475432359,-0.571279100833798,-0.10541319785022477,0.3862569795771595
2.870000000000002,11.124781146357801,-1.8280440801647764,3.0885952024889654,0.3075163265732445,0.8551092859075233,-0.4093614663973424,0.4643807033181353,1.679900470366909,0.09500214965554965,0.7347707553830506,-0.5354059510819877,-0.08600791014688093,0.40543235568794384
2.8800000000000017,13.603626177823411,-0.3097291123917856,3.0993433373854327,0.32796161211171315,0.787715887041813,-0.5179792835283782,1.2281721011624565,3.406063781115938,-0.5348189883430592,0.7596559203087655,-0.4868698866099863,-0.05723725726587645,0.426243984062285
2.8900000000000015,13.508686425692568,0.7423528607532933,2.584554800218558,0.35095324668369654,0.6974917119371037,-0.6163272166029642,1.033024799056079,3.9141640169854215,-0.9184674874487055,0.784880066179869,-0.43477800120554705,-0.019319138576428307,0.43785457688128754
2.9000000000000017,11.780151978744218,1.148254313860221,2.4308374024947392,0.3739433191732199,0.6061928638242292,-0.698935018733059,0.6404047591241462,3.7678491228024926,-1.3391076180979955,0.806056820234937,-0.3862487907779154,0.01778654566052881,0.44682592016415046
2.910000000000002,7.7933279599503384,0.44866783834367907,3.197108770905327,0.3959511239655194,0.5215365390944231,-0.7541965759068162,0.22390480188126416,2.788779241172467,-1.9279586606612553,0.8190559803622469,-0.34617042352635813,0.049759377354496814,0.4540878903582956
2.9200000000000017,3.7822256350563594,-0.5680277158812876,3.1681559480138106,0.41032158504824096,0.469651347247353,-0.7807615533314806,0.4265854936124466,1.8077261044726098,-1.7870933442797277,0.8200443228085316,-0.32400654085539415,0.06597380718036629,0.4666929345736786
2.9300000000000015,0.4370553919286114,-1.5880632389886085,2.8791455428024335,0.41716750734819846,0.43758366375958246,-0.7965291026971223,0.8322679681335773,0.7979591743521306,-1.4752228255432505,0.8169584827136549,-0.31052850797399345,0.07272891697775086,0.48037025929370125
2.9400000000000017,-1.5339963807908663,-2.4831485034565985,2.387956965697436,0.41177502453239984,0.43248838786085303,-0.8021066732861936,1.396425491883185,-0.2697979567108926,-1.1163548197479347,0.8105192296958835,-0.30739638135764946,0.06665774717611048,0.49402333749510635
2.950000000000002,-2.118225077688711,-2.781730664338636,2.2704915724258097,0.40041415610519704,0.4384620097988904,-0.8045432119593618,1.3301370687103824,-0.20561291887862537,-0.9351083728687449,0.802440989532292,-0.3076490205927675,0.05459257661878881,0.5081410805574416
2.9600000000000017,-2.3105189262355053,-2.8702840085623738,2.228507456706831,0.3876788355280604,0.4473284723474157,-0.805915952264134,1.0121720993957697,0.06829922447481397,-0.7688369829482319,0.7938949300831611,-0.3086744652180805,0.041098267167141336,0.5221025704036004
2.9700000000000015,-2.2978978701688213,-2.783149270279984,2.1780860379667804,0.3747212703042041,0.4573332856931965,-0.806452614387656,0.44579626091028546,0.27675106491146734,-0.5544113813601086,0.7850969389589543,-0.3098118636459974,0.02727770826607821,0.5355252978150153
2.9800000000000018,-2.530093641479113,-2.698706297149918,2.0547096660880495,0.3625371527109199,0.46924076826000055,-0.8051162153846396,0.21133733914025515,0.25171889131191627,-0.4175728000530861,0.7758299148239978,-0.3116931608898842,0.013294587390811637,0.5481873783284548
2.990000000000002,-2.9351906611946923,-2.618028121430153,1.913870729807639,0.35061352877610824,0.48372680655060496,-0.8017932855139102,0.044669585946669234,0.1407861460576153,-0.2578603417021993,0.7661573899153417,-0.314637605397679,-0.001347627754370433,0.560191773574013
3.0000000000000018,-3.5981940488316986,-2.5442437692681574,1.7703424487479607,0.3388825073147303,0.5029059112057505,-0.7950520305656765,-0.1351442565789541,-0.04410552409818447,-0.010764812241184363,0.7558290872257439,-0.31953667004208863,-0.017346229096390737,0.5711325174261217
3.0100000000000016,-4.320305731855181,-2.429676433176789,1.6858780007182217,0.32841123117356924,0.5292763516160507,-0.7819162393942412,-0.22173269864219558,-0.15748380487643188,0.1618231967199472,0.7438458738332467,-0.3279164889739939,-0.03559933669439958,0.5809598049027864
3.020000000000002,-4.9570493675818055,-2.33857499216709,1.5952288058033302,0.31866234593211223,0.5592893690197591,-0.7648511594047464,-0.3060916564380562,-0.2841838182137187,0.3619729352781947,0.7309086368391722,-0.33810094048478284,-0.05513108302707509,0.5900009989643928
3.030000000000002,-5.371264755320353,-2.321445062964897,1.4598715338027157,0.3098781404725605,0.5937287594988511,-0.7423001386729143,-0.4340918404108588,-0.4781136674829105,0.6628891911780244,0.7166928224288678,-0.35052114429019365,-0.07635740911330585,0.5978581394713298
3.040000000000002,-5.36302161112966,-2.216211484789408,1.354084387152491,0.30213921750417966,0.6284641173403401,-0.715971389861633,-0.48682787578432074,-0.5711547463950447,0.8092870684634811,0.7018220756425815,-0.36338435880974645,-0.09800779743916917,0.6043864806978166
3.0500000000000016,-5.099707514025266,-2.092175126970174,1.24349833689438,0.29514493120163,0.6616710261331851,-0.6888332777575896,-0.5311848797775643,-0.6104889520735458,0.93235577881294,0.6870431749949075,-0.37578060801110624,-0.1191157083219877,0.6101696957126468
3.060000000000002,-4.482815453760355,-1.9740731404377039,1.1051839141570983,0.28928847443822314,0.6911708692462495,-0.6619423619489679,-0.5984112177002295,-0.5820808704360028,1.0881820001076492,0.6728449581359234,-0.3868462211945076,-0.1387286963050347,0.6149732147567895
3.070000000000002,-3.6670631732941352,-1.6656282307095136,0.756775467608191,0.28398079322780384,0.7141913168923193,-0.6393376716827703,-0.6510252268636298,-0.5556211561309133,1.116215762959465,0.6611040414923056,-0.39512530190664974,-0.15504797710409016,0.6184941598398639
3.080000000000002,-2.8928677626270773,-1.3132035265111517,0.35573851721965843,0.2786025900788476,0.7338018885289977,-0.6194579582460199,-0.7238078758671322,-0.521496282226895,1.0701283332152263,0.6512942680028662,-0.4019235783972185,-0.1693321216359775,0.620909630579613
3.0900000000000016,-2.338187399502841,-0.9706522440938772,-0.044166869614866155,0.2727241834101509,0.7491756308528914,-0.6035029173913711,-0.853637954785118,-0.4678687668746825,0.9240575005162824,0.6446164780640199,-0.4068654522888764,-0.18074107303015166,0.6214572242014484
3.100000000000002,-2.2713828534069487,-0.7259855925237808,-0.36594743687261533,0.2658837208213513,0.7635470785796549,-0.5882460269993773,-0.9005712114888625,-0.4548933950808292,0.8946164329991902,0.639955628732617,-0.4114809811141111,-0.19103025864203754,0.620135871993419
3.110000000000002,-2.2081627157902077,-0.5183951523891192,-0.5922754802018598,0.25862394349147994,0.7774944787726312,-0.5731047819263769,-0.9282602967259628,-0.4766672739690436,0.8890025356074297,0.6361952334777141,-0.4160321030846403,-0.200816713495528,0.6179009523622649
3.120000000000002,-1.8368173512703256,-0.33872242175701994,-0.6337607116269498,0.2509542404806702,0.7910464146105317,-0.5577953904322646,-0.9623079916736881,-0.5577992379738115,0.8664257428242392,0.6333469772117908,-0.42063627907848083,-0.21008981525353762,0.6146253747005586
3.1300000000000017,-1.429528257955799,-0.10460262714445706,-0.5938585543843041,0.2449905337025053,0.8014203827158822,-0.5454932342659592,-0.9518300486053102,-0.6377605936615118,0.7668559373516772,0.6316480120904595,-0.42447220903139815,-0.21690558543743144,0.6113595216888912
3.140000000000002,-1.0258312923019584,0.12835378731623462,-0.57254269140542,0.23998537610493967,0.8099381104394828,-0.5351361518682601,-0.9392502278977221,-0.7041229798193918,0.6422538676242903,0.6307276961474328,-0.4278380686085813,-0.2222172165415262,0.6080680520567948
3.150000000000002,-0.6563885267246599,0.32032984283606925,-0.6554397219347436,0.23623313247265876,0.8159417874810304,-0.5276388214203437,-0.9523983507991294,-0.7366293599727443,0.5075823240344615,0.6309902857254763,-0.43054176662657156,-0.2254094131300674,0.6047044781032549
3.160000000000002,-0.3826087654777224,0.44947811880059024,-0.7327926495347725,0.23254856088208203,0.8201013618451729,-0.5228103846195403,-0.9522132689889032,-0.765031121353706,0.45579617262288724,0.6325406118559641,-0.4324512455408143,-0.22710838075708675,0.6010722712416111
3.1700000000000017,-0.16894421786392766,0.5446636272067321,-0.8189690552549842,0.22875297629368502,0.8234396762737552,-0.5192395640610192,-0.9195799397163645,-0.7647242474846239,0.42572484083984274,0.6347504987872373,-0.433973415731355,-0.22813777209088568,0.5972461967061896
3.180000000000002,-0.04193116479074788,0.5974798780314383,-0.9325506091272957,0.22461415335481472,0.8259970567548759,-0.5169808618305076,-0.8114520691063349,-0.6918553185869373,0.3907114076536872,0.6377324982456264,-0.4350707040232798,-0.22852276002332564,0.5931107753823842
3.190000000000002,0.13824613487132312,0.622235801350624,-1.1676481654119,0.21881727843786852,0.8279215495188551,-0.5163730353211369,-0.7389021218273009,-0.6376334572506189,0.36002025391093617,0.6417881851764798,-0.43533746032738,-0.22868050377509874,0.5884477903464848
3.200000000000002,0.2745390420036438,0.6488324440372721,-1.4649259935121168,0.2114965149567834,0.8297353564303825,-0.5165007664951136,-0.6679592174405147,-0.5865530092504102,0.31363382524944494,0.6466318882618883,-0.4351455178040696,-0.22890540944556612,0.5831734791754385
3.2100000000000017,0.24847961244619438,0.7030397115971566,-1.8337263481355313,0.2013599211021096,0.8317573126321689,-0.5173027134348213,-0.5727435014057026,-0.5290134947482805,0.2210131961893587,0.6527575035191794,-0.4343729058607913,-0.22949625875172386,0.576658769920866
3.220000000000002,0.08412193332230886,0.7390433272495256,-2.2400232474805026,0.1877005772786839,0.8348731712287046,-0.5173258092072902,-0.5168886053201216,-0.49192438922300147,0.197783432657941,0.6599277611548603,-0.4334818725947096,-0.23114469651007996,0.5684040115411095
3.230000000000002,-0.2178898312017816,0.7465919168198154,-2.651382648511652,0.17147878415314174,0.8392799513726521,-0.5157943618383913,-0.4686842386118474,-0.44503374116108374,0.19220552485850062,0.6674751022601566,-0.4328586331953078,-0.23393954567222633,0.5588473774581393
3.240000000000002,-0.7882519620400944,0.6896908233438759,-3.0445909222960412,0.15108147012665024,0.8463788790856478,-0.5105554927540376,-0.40801017449032295,-0.35284157198253435,0.17637976128286398,0.6751819405351902,-0.4330924299848173,-0.2390507012143706,0.5471263501167951
3.2500000000000018,-1.089610173854988,0.6197675749382562,-3.2688505925946036,0.1270379433271606,0.8558546680551995,-0.5008861066329935,-0.4075723236710606,-0.20938098390168908,0.14572072658884178,0.6823112730989899,-0.4344104962178945,-0.246584566426038,0.533624771848497
3.260000000000002,-1.0407965192950377,0.6167947679954491,-3.4098550150891134,0.10146659676978761,0.8651402610721903,-0.4908995996598917,-0.4923942367299281,0.07589644163169997,0.011457007279702586,0.6895358122202523,-0.4355732994946412,-0.2545782194745491,0.5195242847891799
3.2700000000000022,-0.22027485307835715,0.8211741928584295,-3.464803724741978,0.0748225183149043,0.8716656255286461,-0.4840992672400782,-0.7699929516165107,0.7272273500132734,-0.4112182347397015,0.6975739025368565,-0.4352771617729068,-0.2616648560057042,0.5053291896773222
3.280000000000002,1.4183932056416906,1.1708274235412757,-3.8268118058031595,0.04801640137668916,0.8695040714952538,-0.49108076484759666,-0.9135792967867822,1.4080832298961197,-0.8235339093080615,0.7099207933997116,-0.42994763793583646,-0.2637743734263019,0.49125831707177975
3.290000000000002,3.1003942841186527,1.5426045581807832,-4.359424951305928,0.019948217467045302,0.8608966903020692,-0.5076529827069269,-0.9064958287800052,2.2871301514343987,-1.3314430600210836,0.7255152434609881,-0.4207160674718762,-0.26283677761316604,0.47669003989205805
3.300000000000002,4.098353681143594,1.8365089070097167,-5.10154679524778,-0.011771028085534777,0.8414705851488483,-0.5394690917601814,-0.5777549345140336,3.735465367542469,-2.138441018910647,0.7466280282292761,-0.4047108276813221,-0.2576520578690909,0.46049546153223486
3.3100000000000023,3.4462635149902874,1.8130805974399284,-5.181301828698831,-0.043656150082139834,0.8191074362534984,-0.5707251109522666,-0.1540337097282542,4.278523124811592,-2.405719556660737,0.7679084098965526,-0.388400128989267,-0.25221684559113694,0.44182216233946187
3.320000000000002,2.021641138411696,1.3982058497782894,-5.030343310286025,-0.07616697195580735,0.7989235758752373,-0.5962454928811678,0.3871683177095782,4.116295080513786,-2.2947823709865207,0.7871746053363562,-0.3739499181912677,-0.24902327769824578,0.42226914301922336
3.330000000000002,-0.05677948684205214,0.09692167802065588,-4.865606454825206,-0.11045994744618992,0.7887080898064188,-0.6044015145011434,1.194674824161311,2.7138939183132225,-1.5768516843239166,0.7999531274532442,-0.3656535328670611,-0.2531184775795342,0.40261338682329906
3.340000000000002,-1.6663018883860323,-0.7654841566718911,-4.843713210659986,-0.15177795615324913,0.7884339603756297,-0.5950713407891645,1.579995582670059,1.7910100430662417,-1.1376137948413003,0.8069024077634435,-0.3627821766911872,-0.26591463475165256,0.3823533663267097
3.3500000000000023,-2.915434821663963,-1.223208956926598,-4.72382016544036,-0.19511634081518822,0.7930154898423541,-0.5764217005089796,1.7023526595345129,1.140779378113001,-0.7707488816997595,0.8106830427372773,-0.3632298329380652,-0.2823904693932376,0.36176346292073003
3.360000000000002,-3.5327583641663134,-0.8707985305581696,-4.121579768410678,-0.23694678356517884,0.8019471844529775,-0.5475915299550098,1.455647400230971,0.8252245277045644,-0.3188012329734935,0.810868891551941,-0.3682249178371671,-0.30082210504448087,0.34079631450176123
3.370000000000002,-3.727892032815601,-0.53720115908153,-3.564490735393289,-0.27094871901099976,0.8115205792223473,-0.5165732902432802,1.1800617486025924,0.6752702854006052,-0.1346713234740019,0.809317286468458,-0.3760268099174635,-0.31646860815600764,0.32106015638347923
3.380000000000002,-3.715191689144058,-0.27360235530157473,-3.0152615774516054,-0.3003800196818329,0.8210378193005026,-0.4849812589359208,0.8952215598537164,0.5366439461451885,-0.038614909138081896,0.8068346104917692,-0.38506350746567986,-0.33040652360641193,0.3023633399589763
3.3900000000000023,-3.522721839892725,-0.22269899930527504,-2.43684098871776,-0.32406214798542343,0.8295744942530003,-0.4541538066627642,0.6148079563901082,0.23197931549566359,0.09089809232555751,0.8033567985372924,-0.39480023431032585,-0.3420210358080915,0.2856510865185049
3.400000000000002,-3.0178347013946945,-0.21105868988946125,-1.8389338297906586,-0.34201078567232224,0.8369967281126284,-0.42649988195249955,0.5550891139843238,0.060729342470094094,0.11607779740367334,0.7993695272226528,-0.40389100067497574,-0.35147666302575953,0.2723358945232678
3.410000000000002,-2.3622252590907435,-0.14735691090080277,-1.3805265022572986,-0.35694211747411336,0.8430080413934524,-0.4022556936494003,0.5816480040811662,-0.08896441829920904,0.07310156230801762,0.7956087308783896,-0.4119099977190218,-0.3594247258728225,0.26097910784966694
3.420000000000002,-1.5927792551067723,0.15055849690028156,-1.4361883443959513,-0.36890492880049397,0.8455567386757302,-0.38574352051830996,0.6179408411954581,-0.33987892962939864,-0.07026810168787309,0.7933152561915765,-0.417033075774493,-0.3649549784374297,0.25197851089048356
3.4300000000000024,-0.8703886390950368,0.5861074576106055,-1.0162212984191672,-0.3772192930739648,0.8455830820188547,-0.37769716294470895,0.562004470256957,-0.44051719786238025,-0.08214104326961999,0.7931646241441481,-0.41993486791137685,-0.3671557496094077,0.24435641105042005
3.440000000000002,-0.2364230534074085,1.0511345229109066,-0.4010673491323158,-0.3815905675876434,0.8448119022001157,-0.3750579221268966,0.4927360607355174,-0.4989895818207624,0.01272493834624256,0.7942144315653435,-0.4218392373700254,-0.36676276765783616,0.23822042423615072
3.450000000000002,0.14280439565114578,1.4276459545998912,0.24765715239654007,-0.3768070964333094,0.8447269733785566,-0.3800476489907312,0.5061417699189315,-0.6178044084422567,0.30885354008953353,0.7965834241918225,-0.42327449693821717,-0.36166985162281967,0.2355298926895687
3.460000000000002,0.20996029365197016,1.6139544176619984,0.6358863919110015,-0.3667596989693386,0.8458206680970034,-0.3872379005453829,0.5624952318733373,-0.7998554622745051,0.5064429043223434,0.7991418520943921,-0.4252461377145381,-0.35426673444156404,0.2344938476049743
3.4700000000000024,0.12354286591546496,1.6816392189053555,0.8848225126080891,-0.3540948265260926,0.8477257443055173,-0.394853034646736,0.6585205257854098,-1.0475408706015434,0.686005361022148,0.8015909330032207,-0.4276981656448102,-0.34586754125144026,0.2342599038342017
3.480000000000002,-0.06710150772852791,1.5911139765687745,1.0047520795741869,-0.33956953978228427,0.8508999490989603,-0.4007132224575865,0.8390317798454985,-1.4469493028995526,0.9479353228953706,0.8033367723118893,-0.43114828816636097,-0.3372295379306395,0.2345327961994411
3.490000000000002,-0.2064939576932136,1.4588026024779022,1.226781237987937,-0.3237523941910433,0.855265767235511,-0.40439677466622176,0.9265239642569653,-1.6191733564538833,1.0620497978871115,0.8041652072549845,-0.4354184910083922,-0.32888032204979734,0.2356173575643764
3.500000000000002,-0.2973169047921199,1.3322646681466586,1.496108120914556,-0.30674509800136707,0.8603949428835965,-0.4068375645275317,0.9635122790187287,-1.6738763985981322,1.0906378961513783,0.8043949141031428,-0.44019742399901773,-0.32059411540108546,0.23741268421718587
3.5100000000000025,-0.28098151568074675,1.2971139848193463,1.7840560017599854,-0.2871710869152187,0.8665740685144229,-0.40795777810886824,0.9543318683270628,-1.6387751175085017,1.0250925455632813,0.8037728215208524,-0.4456334645809281,-0.3120817582887918,0.24067489367003236
3.5200000000000022,-0.12194276661354356,1.3130609944947353,2.1237637172853687,-0.2645392408101654,0.8727105623191912,-0.4099377981995815,0.8869552986771961,-1.593220059651032,0.9530820400805233,0.8029470600000975,-0.45099894131106305,-0.3025884668719716,0.2454149084566957
3.530000000000002,0.11021749636148734,1.356507018462129,2.4863480107884435,-0.23950717695820536,0.8785779168036794,-0.4129175102238745,0.7964489162703734,-1.5180511373357786,0.8706357800311375,0.8020545905088867,-0.45617113797569453,-0.29224374204974984,0.25129858259967364
3.5400000000000023,0.3904447560515683,1.4225696255452482,2.8513993041089067,-0.21002332876209803,0.8834155298245806,-0.4184825771419415,0.7138092019843659,-1.339761474840441,0.7567651288236823,0.8012481182468801,-0.46067442599901764,-0.2801364470813283,0.2592666883569073
3.5500000000000025,0.5912884434761616,1.4245057433299044,3.2083326452746355,-0.1768624745736998,0.8870140037854133,-0.4256826018038409,0.6627369363512106,-1.252609919378816,0.6961162680743141,0.8002818089826855,-0.4646762987128842,-0.26667505249339435,0.26893993486948703
3.5600000000000023,0.7521711886824825,1.3937623012893419,3.5462417685516696,-0.14127252685480748,0.8896363782069572,-0.4338095758390117,0.627526456316548,-1.2083926432799599,0.6602026948994587,0.7991173122707742,-0.4683420686426636,-0.2523683836631093,0.27977895434525013
3.570000000000002,0.8928481292782959,1.3449874649616942,3.818084256117637,-0.10226969906603492,0.8904338051253493,-0.4427979752439546,0.6002268359983394,-1.1747605127480891,0.629026720160828,0.7974077326956971,-0.47152162172723056,-0.2370159673620078,0.29236912952511324
3.5800000000000023,1.0134230901616337,1.2887218626817565,4.02784757830296,-0.06132761781929674,0.8891326731019471,-0.45237592839825486,0.573356205262644,-1.1426204800108104,0.6114585519013144,0.7952447578647279,-0.47414140839088253,-0.22102053925497173,0.3060363401679051
3.5900000000000025,1.1197203092056434,1.22945013543622,4.205564267223986,-0.019188379380467482,0.8862346025816159,-0.46230856016453975,0.5494894360808663,-1.1084667743283156,0.5965843409365114,0.7927369501771463,-0.47634572774769873,-0.2046246006892321,0.3204111406637153
3.6000000000000023,1.2033331701729593,1.1720721918714616,4.367082550313713,0.024333472295825827,0.8804926688371986,-0.472620076861657,0.5381742367558562,-1.0622559795658308,0.5658991057050864,0.7896155593638774,-0.47783841236781993,-0.187754300202839,0.3357447511280013
3.610000000000002,1.2482789595963193,1.073623578509996,4.446280843951084,0.0683735792391023,0.8724129159403737,-0.4827212998816567,0.5186848982489025,-1.0397917251548479,0.5412594908101799,0.7859013937712422,-0.4789013777581412,-0.1706662837518666,0.3515220489655221
3.6200000000000023,1.334502468509322,0.9304837201017322,4.457819814004733,0.1121917462350099,0.8624929513805644,-0.4929917372425494,0.5065881862142025,-1.010185629426056,0.5137555319439765,0.7818780608763994,-0.4794232430095641,-0.15360275701011405,0.3675552997596315
3.6300000000000026,1.699041423931432,0.6689465045686294,4.334541624098267,0.1538289249822808,0.8491242708162685,-0.5045173204238088,0.5470914485378042,-0.8948036417049954,0.4595220504862134,0.7777164833266084,-0.47836262385177236,-0.13713397555126916,0.38380679825524333
3.6400000000000023,2.96245422714124,0.1874041425028512,4.049818266126245,0.1907304620014457,0.8293926782962268,-0.523897998825695,0.5944781747911813,-0.711075692636569,0.3928796717968431,0.7754740090101668,-0.47248402048187443,-0.12094683316142385,0.4005341954995702
3.650000000000002,4.849311879924797,-0.3137870445601791,3.742541742561785,0.22366594567477266,0.802586656110733,-0.5519087203171383,0.6786605378854649,-0.350419739648974,0.23696210548682617,0.7754908428132888,-0.46146333041618914,-0.10426047439489652,0.4177123195760526
3.6600000000000024,7.648884194523934,-0.3869066780339581,3.709533593841097,0.2484533697491644,0.7562789571518227,-0.6034876697556391,0.9267472360054803,0.7143447463241925,-0.3268569897674337,0.7820050400474138,-0.43672789850077703,-0.08445654276995508,0.43596489790846094
3.6700000000000026,9.687689255641654,1.0010643879224461,3.966094337666938,0.27993504727391416,0.6873848271938143,-0.6651272393351108,1.103110613798812,1.7382514346754783,-0.7422620386760252,0.7919001126044102,-0.40377549243485994,-0.0541015037632156,0.45302522790972666
3.6800000000000024,10.614975507001295,2.834876141796666,4.3894703938030855,0.3174530343837916,0.6061611414977677,-0.7274856046994168,1.1016115207430024,2.6288703989329756,-1.167725267047448,0.802439256996759,-0.3678983036749165,-0.017099884847058357,0.4688228960987874
3.690000000000002,7.789334987561922,3.1970346684547772,4.924374351412378,0.36875188582220675,0.5197434842594063,-0.7676279757632238,0.3707764250000434,2.9397363981148787,-2.0271013772100868,0.8075812950230248,-0.3381522522972217,0.0268859558720948,0.4812021292290526
3.7000000000000024,3.0816055743737256,1.851140428975764,4.953483126698729,0.41160924011888506,0.45968941301965344,-0.7856297859311169,0.15270715008894403,2.5665922281268867,-2.575026525508375,0.8032994754337048,-0.32179921777984993,0.05725159235560934,0.4972908248363327
3.7100000000000026,-2.1156662386360074,-0.3610344577111619,4.530226024959524,0.44437873166603575,0.4235063395827417,-0.7893431014991386,0.47258901445398416,1.5475107379500765,-2.8635806637607297,0.7931907481557412,-0.31566266151211186,0.07499369858738988,0.5151778406618821
3.7200000000000024,-4.711287844655004,-2.4905436882190943,3.0741106740156012,0.4462071992360722,0.4427371667625015,-0.7776104345914046,2.2679793658736873,-1.0529016148715997,-2.6196899880096214,0.7778833713652618,-0.32736345955183277,0.06253586405423726,0.5324370796780077
3.730000000000002,-4.956227286613891,-3.6555816547822664,2.448805287357621,0.43462115292813963,0.4671356673730528,-0.7695874374608791,2.893661671149456,-1.5395225621468733,-2.2108136227165645,0.7631150306195352,-0.33624533649967214,0.042207892532738225,0.5496975716981888
3.7400000000000024,-3.961974683319714,-4.121064958699083,2.232156484165199,0.41587473670952146,0.4927882592027937,-0.764248233108965,2.7008399008981137,-0.7855868645031099,-1.7139997757864534,0.74912238277451,-0.3427195091711231,0.018356970524770182,0.5664585111981564
3.7500000000000027,-3.0248924216633792,-3.5242822798245985,1.8287663582943205,0.39695046813542184,0.5099637440710867,-0.7629555280067336,1.389639647603394,0.6341103770155125,-1.2157269033909543,0.7379089280991963,-0.34402639150056175,-0.0017469723641962281,0.5803778086483107
3.7600000000000025,-2.641090660753911,-3.1068341810704743,1.559646288022062,0.38051702050938235,0.5249582935276769,-0.7611780633190539,0.6008590408222262,1.035481881841872,-0.9216288987718657,0.7279952649998435,-0.34482009067014874,-0.0191916004534817,0.5920346523794174
3.7700000000000022,-2.632533585899889,-2.8286630694232966,1.3895788788930947,0.36564880930737825,0.5391559943554889,-0.7586277342332826,0.14875139278046787,0.8778706006361723,-0.7102772858550964,0.7187185376447854,-0.34553380506886844,-0.03521918620366714,0.6022650669443846
3.7800000000000025,-3.0583507417317097,-2.7969782345748975,1.372763958992281,0.3519930356305905,0.5557274714478221,-0.7530373516420538,0.001143057400205011,0.7092613978065376,-0.3254862698494662,0.7089974218294453,-0.3474499519254474,-0.051473869090482516,0.6113660634902
3.7900000000000027,-3.651177072467134,-2.7312205383170447,1.352835131533683,0.3390685872822493,0.5765049049973406,-0.7431067098217928,-0.0598825003430008,0.532373012389924,-0.0887784876428058,0.6979845364242735,-0.35132812542547887,-0.06933261600588919,0.6198853178808058
3.8000000000000025,-4.272052462373045,-2.6533528698492486,1.3238811601239002,0.32676731841717793,0.6003274022927942,-0.7297882797657013,-0.09964086352647165,0.3480723854733095,0.0753939650236515,0.6860053765539645,-0.3566591051326376,-0.08836891509985298,0.6278918177896893
3.8100000000000023,-4.475402353258138,-2.620252040068494,1.2489156550234155,0.3158036498727203,0.6284326172872107,-0.7104970666871392,-0.31330159707041516,0.14636794094428654,0.3081835080732783,0.6725144177562044,-0.3641924306933406,-0.1091412364931562,0.6347264984505441
3.8200000000000025,-4.309421594889148,-2.4917747304732396,1.2243220244778217,0.30599029695798713,0.6552612882148399,-0.690174285096455,-0.45478168178565453,0.030916557358459648,0.42083809854924353,0.6589992207522015,-0.3714222959241308,-0.1292876439753135,0.640849898944227
3.8300000000000027,-3.8955816056674952,-2.302776606544083,1.2364545978786925,0.29731701834644303,0.6804546040963353,-0.6696694434053033,-0.5514711681257505,-0.02578614959782401,0.46753722735935016,0.6456067450837536,-0.37821652259075106,-0.14855449952600913,0.6465244449834159
3.8400000000000025,-3.25467852578451,-2.0784997252561235,1.2991270854347203,0.2918168959430818,0.6996466597597633,-0.651948551489216,-0.628237289400171,-0.023673232544609325,0.5386395367133391,0.6331304808768048,-0.38327005684329135,-0.16435824990508102,0.6519525496771641
3.8500000000000023,-2.701777694185467,-1.8731193142689224,1.2574561384788248,0.2882368526398098,0.7148661607617566,-0.6369407697764253,-0.6640597452362189,-0.06508270627701832,0.5854654999406183,0.6216009906283715,-0.38715471528044426,-0.17764820806309517,0.6572682579057877
3.8600000000000025,-2.274433465736252,-1.6895577000288997,1.1202123545644584,0.28568488282206,0.7275431313940032,-0.6237116757675257,-0.6777519482799405,-0.16013332935219818,0.6171330376536135,0.6108826329183544,-0.3902431730667216,-0.1892991608094089,0.6623160061283211
3.8700000000000028,-2.3669407813908934,-1.581060870399657,0.7455849172182176,0.2823058252727509,0.7389767757674203,-0.6116320356809858,-0.707604221791537,-0.4521653796208812,0.6438977506074237,0.6019195689146936,-0.39262381982722,-0.19994918329784261,0.6659346743610641
3.8800000000000026,-2.577577749570673,-1.547304398422074,0.4199554714485916,0.2770875894423168,0.7524408368584241,-0.5973104984983851,-0.7140960982501171,-0.6428958547188267,0.6597556416609909,0.5934999647246567,-0.395450144422325,-0.21182839451822652,0.6681140479609925
3.8900000000000023,-2.814727122403211,-1.5576344271379898,0.1403522668871094,0.27045731882955876,0.7672915129249228,-0.5813887962063645,-0.7003159335208297,-0.7771616832289833,0.6646860738270983,0.5854800333860484,-0.3985274733158287,-0.22460820557448838,0.6692522605328923
3.9000000000000026,-2.704385630827895,-1.5548835580251195,-0.018182152876963092,0.2616719635400236,0.7832173322382604,-0.5637566291971277,-0.6414696570668095,-0.9540598939349333,0.6375025466879385,0.5779638890249431,-0.4014368277881186,-0.23850193120329538,0.6691874453586426
3.910000000000003,-2.356631322121804,-1.4529836865318957,-0.11180248550403596,0.25282119947528864,0.7972746907295017,-0.5478888088747838,-0.6153312946198372,-1.0425429266872797,0.6151340733414635,0.5713416673064693,-0.4035253866821087,-0.25128056597592535,0.6689492903982935
3.9200000000000026,-1.8705974932600689,-1.2800199026346524,-0.1612002758583487,0.24410248982586902,0.8097027873822965,-0.5336285331428635,-0.6192698587732774,-1.066745440201328,0.599367647388356,0.5654935226293651,-0.404977191569595,-0.26299673215951636,0.6686021448032596
3.9300000000000024,-1.4764390834545178,-1.0377843167326866,-0.1838696979381253,0.236784604950243,0.8184805658719878,-0.5233735246599526,-0.6996890891755416,-1.0218193783022131,0.61243747325649,0.5613480851058619,-0.40546379795195575,-0.27180577864620864,0.6682571640984969
3.9400000000000026,-1.2911713752570817,-0.8383803167167136,-0.2573787617447296,0.23009135301073194,0.8262404501989928,-0.5140965169329951,-0.7505069019514828,-1.0211050834033826,0.6320041132539811,0.5580186939708083,-0.4059554762737877,-0.279508887303359,0.6675768017064522
3.950000000000003,-1.2500776240910163,-0.674328333263284,-0.3606773383400234,0.22378082085121132,0.8333676181324683,-0.5053648125596821,-0.7778879751513292,-1.0522628693756582,0.6529646055618628,0.5552868412867926,-0.4064981768489437,-0.28647853025523423,0.6665867601239533
3.9600000000000026,-1.285161718206394,-0.5760541592975098,-0.43660893820884084,0.21727885210565184,0.8407284302239548,-0.4958662039788728,-0.7684325411630215,-1.1113043823212154,0.649525227923019,0.5531498212944514,-0.4074543908478585,-0.2933033543704334,0.6647969698706213
3.9700000000000024,-1.2133543029208405,-0.4720341444617319,-0.5193748294700451,0.21064977635922966,0.8478845840677437,-0.4864355917423223,-0.7463881463040792,-1.1103805330289893,0.6186237283553275,0.5514348981876634,-0.40846240994310223,-0.2998632782023356,0.6626713394078849
3.9800000000000026,-1.0517041912383724,-0.3648879354153339,-0.6064880873473211,0.20389666883330082,0.8547471110828606,-0.47730121915160273,-0.7158553528135891,-1.0516866277115617,0.5607974405359893,0.5501385948789236,-0.40943936847047285,-0.30611331507185163,0.6603009365878284
3.990000000000003,-0.7163797746826785,-0.2643065001675766,-0.6916647919654444,0.19677648874511416,0.8601418044853114,-0.4705093605051467,-0.6844046923278317,-0.8267690536213377,0.42247683240593237,0.5501241423008205,-0.40980403495399725,-0.31111853628740554,0.6577349789693728
4.000000000000003,-0.3757279103582718,-0.14030396749911156,-0.8073670464376168,0.18941426745471593,0.8640230609317243,-0.46642136273377294,-0.6535558016350923,-0.6799900623223782,0.3236263310363529,0.5511999603208236,-0.4094178541840633,-0.3148987629862042,0.6552744360260208
4.0100000000000025,-0.05972777768832655,-0.0017057018529828393,-0.9555599477492142,0.18171068469441087,0.8667950610498859,-0.4643660308774582,-0.6217766790529294,-0.5877821906097711,0.2520718795286,0.553203869413709,-0.4084631791324977,-0.3177640085331937,0.6527981346822261
4.020000000000003,-0.02931908276319861,0.12228973208294758,-1.2206245047554205,0.1722353818529822,0.8688345025972876,-0.46413313083178226,-0.5764507775862197,-0.5061532621561531,0.18314222850596118,0.5570371768745463,-0.4069617150149968,-0.31986339433379973,0.6494341605524692
4.030000000000003,-0.17642488795507488,0.2073539604743478,-1.4835417004170508,0.16122211012615364,0.871590855918278,-0.46287204062072274,-0.5241006881136396,-0.47708946372840466,0.15861107952266784,0.5614657937746341,-0.4056499409881019,-0.3225003336256678,0.6451095514804586
4.040000000000003,-0.4743967428859306,0.26161643701842996,-1.7505733212949224,0.14876717545808632,0.8751340873871609,-0.46039580594752605,-0.4655010131941466,-0.4834976526009445,0.16891110265444928,0.5663321742607612,-0.40456813158319466,-0.3257644351617449,0.6398874051860373
4.0500000000000025,-1.056406185765564,0.27864456661775033,-2.079301387296758,0.13237561552736116,0.8817718972861663,-0.4525315834229115,-0.39259300990166607,-0.4731033481449962,0.21842611229716274,0.5714034495714784,-0.4045437704193464,-0.33175626268300396,0.6322386746974032
4.060000000000002,-1.0705030881476272,0.21522105351131815,-2.248026234338216,0.11439264439577308,0.8890779079191579,-0.44290266638144427,-0.38778236908342,-0.37852294512095824,0.22644322154985078,0.5764193511505837,-0.404708685563578,-0.338715339526214,0.6238073847174332
4.070000000000003,-0.6442551311024045,0.1404852655364704,-2.3078243261377307,0.09515973343569989,0.8964384781592941,-0.4327778330249844,-0.4441062774079406,-0.18030622731878776,0.16280414421589562,0.5816079247460036,-0.4047443427235144,-0.3461070398971293,0.6149050356737833
4.080000000000003,0.13655376316250134,0.6280768838915043,-2.4492796596084285,0.07474134545880988,0.8986560207706236,-0.43201542388999037,-0.6429057925873326,0.5306018999954796,-0.40029993868890534,0.5893481214853177,-0.4015873546542943,-0.3502959450374472,0.6071420383357211
4.0900000000000025,1.1419556425161042,1.1849416718382104,-2.6974050140124572,0.05560862987398711,0.8969866666113745,-0.43825299898761705,-0.737126556299055,1.266474187945413,-0.8604263080565908,0.6002036591547472,-0.39753848544272397,-0.350457611108586,0.5989584136512647
4.100000000000003,2.226002951810551,1.7302826874128463,-3.052290987060676,0.03705928920019185,0.8920520532184405,-0.45029361053110006,-0.7256082705849141,2.0199958611524256,-1.2653004390247777,0.6136849181038735,-0.39256864823820936,-0.3474670539077878,0.5903354635859451
4.110000000000003,2.1439848653814026,1.4432119308405862,-3.7704008886034863,0.013594384557526065,0.882139012084661,-0.47027694196126585,-0.34383034993746936,2.7615978994441184,-1.951244758706038,0.6312702916430252,-0.3841875537838413,-0.3423694847498725,0.5800379031780627
4.120000000000003,1.6161796208434234,0.9883046734495835,-4.152718359758003,-0.015190604108212914,0.8730459428940558,-0.4866726667121659,0.03874104369496395,3.13624595023708,-2.3585007053401417,0.6482349439235625,-0.37501827324519676,-0.34054960127452105,0.5682380849098124
4.130000000000003,0.7348339938214021,0.3919704862718885,-4.274860315404208,-0.04835794528822609,0.8649328342105518,-0.49941989689738664,0.43270572260746293,3.188708902932673,-2.5088424857030094,0.6643943250640528,-0.36537692356766027,-0.3417275290474916,0.5552116762842135
4.140000000000002,-0.34019142138613434,-0.39939549985399875,-4.341092108441152,-0.08623104777138182,0.8620139709721231,-0.4988200424896522,0.9849819696575359,2.6243824971267644,-2.0113303212947837,0.6756906634390062,-0.3576387370729148,-0.35017587731713734,0.5410160853777621
4.150000000000003,-1.1287354277481314,-0.7489419239239841,-4.332548237844314,-0.12632530963039248,0.8610005120813221,-0.4916449968152632,1.2233093272010342,2.127608302647051,-1.572117347410968,0.6849375164696603,-0.3510353197093082,-0.3617065814693198,0.5258501460275112
4.160000000000003,-1.6778307935662915,-0.7330174315676619,-4.244480191779316,-0.1678562918955269,0.8615146883764359,-0.4790434293266772,1.2012658004144379,1.6929986760444176,-1.1796078084785102,0.6924660335130474,-0.345512717377595,-0.37561198006964996,0.5098896737520324
4.170000000000003,-1.9827080551629115,-0.4033335396548631,-3.8119415892113238,-0.20435882429694166,0.8625821667437724,-0.4619776527077172,0.9451577052941662,1.4100087057338302,-0.803413373021255,0.6981596498978109,-0.34313976264744434,-0.3888204461385165,0.49337423691151494
4.180000000000003,-2.484940375321681,-0.12415319534980193,-3.3339349528050546,-0.23627568448311884,0.8649761793180748,-0.4419274266749565,0.8074850631331185,1.171584829656793,-0.5654692591586643,0.7024343469351796,-0.34342663154416003,-0.40127002732855166,0.47686628495390676
4.190000000000003,-3.1386816767896466,0.09489823352025768,-2.8221688365625273,-0.26415822662864424,0.8686348600035241,-0.4190279074635694,0.7680434792031168,0.947384604820935,-0.4328425210343411,0.7053759306439062,-0.3461150230641906,-0.41312860298238724,0.4603683528268669
4.200000000000003,-3.652626497638219,-0.051120381037703846,-2.3641225642320243,-0.2856438109325932,0.8759763658525904,-0.38776708320199726,0.7818757753105066,0.3164438694372401,-0.18695151777991942,0.7047466498364255,-0.35366809894444245,-0.4253668644505092,0.443945329126036
4.210000000000003,-3.697134339954129,-0.27138293795675694,-1.9176943164292852,-0.30495185111474993,0.8832341338725286,-0.35513079990650603,0.8107511972878197,-0.09101781766150364,-0.056966384042011084,0.7025057740870879,-0.36154857103763016,-0.43772288094768924,0.4288858243531917
4.220000000000002,-3.3304119992742627,-0.5356952821467198,-1.4881570461888598,-0.32224974321588307,0.8902920964049805,-0.3216816641693488,0.8487231753630684,-0.30869342910567465,-0.02594429927546208,0.6989233383590819,-0.36959279919130594,-0.45005790580181254,0.41513880556124166
4.230000000000003,-2.4653618220991866,-0.4224707751954735,-1.2169240043154477,-0.3350051729757053,0.8945117634291102,-0.29529693949481944,0.813924036636189,-0.4192281823218316,-0.06205313544845323,0.6951566692450644,-0.37530920664925543,-0.4598186383366979,0.405405615801283
4.240000000000003,-1.536918664521314,-0.1354138471342267,-0.963464314962112,-0.34558556571714366,0.8966064151917313,-0.2766823469348686,0.7355087747082609,-0.4725791524199176,-0.08651144712747565,0.6930222103379722,-0.379127041299798,-0.46680597515427996,0.39754359705070247
4.250000000000003,-0.5667462481893569,0.2985596973888557,-0.7107028312814918,-0.35402725552741665,0.8968526252616231,-0.2651796052352483,0.6179891680008287,-0.4782192595962583,-0.09523064799209861,0.692372524280523,-0.381275818047918,-0.4712099350976796,0.3914203752776223
4.260000000000003,0.09042655690347501,0.713239075333786,-0.08608960666741206,-0.3549517536731946,0.8959800090802802,-0.26688397832063154,0.4474228979880496,-0.5061840151013246,0.04692466576149107,0.6942606726593968,-0.3819708304619367,-0.4697393083825926,0.38915294321692717
4.270000000000003,0.5096105601529403,1.0203845362118356,0.43877364603200963,-0.35103582014479856,0.8957529647564508,-0.2726203730070724,0.3842448241635147,-0.5738952277753472,0.17837198568824078,0.696518346522139,-0.38300820839767086,-0.4658051592318858,0.3888033893149813
4.280000000000003,0.710940832266086,1.2274372284638844,0.8701922777589295,-0.34274803649459973,0.8961289991620182,-0.2818946435130902,0.4176891694624754,-0.6857675768661778,0.30267006796494683,0.6990819148407427,-0.38438308295152374,-0.4596731217051782,0.3901683995509977
4.290000000000003,0.5907951056563925,1.236902792360532,1.099464613406637,-0.329787105687295,0.897760065978838,-0.2917822872823242,0.5431242659920643,-1.0969838339483662,0.4962939907582663,0.7011223018798067,-0.38698154130712237,-0.4520202777720515,0.39282744571738876
4.3000000000000025,0.43865903529445405,1.1880744820905187,1.2728762827589089,-0.3155235031049531,0.9000726425634578,-0.30026772118361833,0.6306981290318493,-1.3691649146642892,0.6336347016911424,0.7024840682114832,-0.39024259204166273,-0.44445513989227753,0.3957835577884225
4.310000000000003,0.26034612568087984,1.0865500527371388,1.3958326869600857,-0.30007185769731903,0.9030126615530173,-0.30743238583354393,0.6846208828952312,-1.5159937206651726,0.7196841594444179,0.7032098473164539,-0.3941126977807051,-0.43698585919546484,0.39901366764352264
4.320000000000003,0.1830057033934051,0.9666934045503425,1.5028946313712628,-0.2837868422159419,0.9066277079616222,-0.3120011610754707,0.7499017372332661,-1.6325383571966565,0.7713187756098081,0.7028096767399447,-0.39859977590408585,-0.4302153677604477,0.40255824766667814
4.330000000000003,0.1826355798032701,0.8792023942995997,1.6911302746983825,-0.26630560842219964,0.910423210869464,-0.3162567693462144,0.7778414402461061,-1.6669191531267553,0.7958353040550377,0.7019123027300089,-0.40322954317444637,-0.42336920210812534,0.4067371697062893
4.340000000000003,0.2541384158616998,0.8218332323212819,1.955279426661948,-0.24764922184716806,0.9143854418732136,-0.32024139029196774,0.7707614905283245,-1.6243477059068456,0.7944938239981384,0.700541456273519,-0.4079948711135199,-0.4164338657734719,0.41153500138668125
4.350000000000003,0.3843277571756418,0.7834992487392693,2.2878128748196715,-0.22481214125756774,0.918385343542925,-0.32519232030617784,0.726700283095825,-1.506220200070471,0.7423598981455214,0.6982746264132309,-0.41299945331371674,-0.40840055907062484,0.4183102837920737
4.360000000000003,0.5061043360385621,0.7286763714446688,2.6382362564551096,-0.1995689590684791,0.9221107945662914,-0.33086584939252145,0.6835784096055596,-1.4328067023977635,0.6986415481586636,0.6954895634210543,-0.41804229351575445,-0.39968748720502445,0.42623983379789254
4.370000000000003,0.6196006604939884,0.6584157013104649,3.0050453983748575,-0.17200024260626534,0.9255659618272531,-0.3372324787964078,0.6416539277649516,-1.4012965678247014,0.6625410061064684,0.6922006064090686,-0.42312266979242635,-0.3903187161596468,0.43528409663839013
4.380000000000003,0.7029703860161044,0.6009957897124012,3.324879132804656,-0.1396911444697284,0.9280241394629186,-0.3445410363233863,0.6278788314282097,-1.3385710303537328,0.5961499098265688,0.6876168909842229,-0.42832921031294224,-0.3797291886163296,0.446520268606786
4.390000000000003,0.7655155687704469,0.5480932191860668,3.603214707887154,-0.10549996376900903,0.9296524201952039,-0.35203766229614697,0.6080127787383952,-1.286647833520017,0.5553451655153925,0.6824091842552743,-0.4335962605818346,-0.36863715943150555,0.45851674822000243
4.400000000000003,0.8078117776307453,0.49972025271636755,3.8411134967281764,-0.06947064397588336,0.9304657492743564,-0.35971813809334524,0.5822225682484751,-1.2450081468696836,0.5393559703025197,0.676591541483739,-0.438921917091757,-0.35705362431515536,0.4712551777820432
4.410000000000003,0.8395733722962795,0.48540639048336537,4.038185128735769,-0.03061794736941089,0.9290072334514304,-0.3677207058678228,0.552992104763819,-1.1577917077842477,0.5215671998704526,0.6697187457781877,-0.44422463634988046,-0.3445455184770617,0.4849937935260767
4.4200000000000035,0.9110791570376937,0.4384218676662043,4.271704161152722,0.009695625509378511,0.9260901381414771,-0.3759543200067743,0.5263180383085101,-1.0884086121885368,0.513248784330092,0.6622085272864011,-0.4494438725879024,-0.3315392098390597,0.4993119902021272
4.430000000000003,1.022174183745465,0.35889405526136525,4.541528498850642,0.05146437923641216,0.921720149814234,-0.38441807974464454,0.5021904024223964,-1.0367893343769266,0.5143638022198606,0.65406337108747,-0.45457995127568585,-0.318036640712263,0.5142075082354076
4.440000000000003,1.0399244593090298,0.2781510143129776,4.672820242865024,0.09529967242572408,0.9136674632850081,-0.393805905258436,0.5349221267633848,-1.006065180842916,0.542893934048739,0.644694578057465,-0.4591263968922287,-0.3036193148819197,0.5301875237154422
4.450000000000003,1.3124467241326736,0.13913592003339095,4.626991803614976,0.13834676666684084,0.9035143459712865,-0.40433746624323114,0.545869020589486,-0.9859726908637723,0.5462704155039017,0.6352080467651328,-0.46277539522847727,-0.28906542643107674,0.5463517771516211
4.460000000000003,1.8457757932456356,-0.059477869806559336,4.400331415809252,0.18058276470597487,0.8912216311713105,-0.41603666088605895,0.5343988440793117,-0.9767047520827935,0.5238541555717475,0.6256040004264171,-0.4655078721907717,-0.2743740346347497,0.5627018934223874
4.470000000000003,3.3368230757295425,-0.44098789563672736,3.8334318228287643,0.21328266611115984,0.8703088550855551,-0.4426580261314789,0.6266921450978015,-0.49466633036032814,0.1823821339077012,0.62079896970012,-0.4604523216164002,-0.25788166284588354,0.5794683598859306
4.480000000000003,4.983802210351119,-0.5059403914739842,3.885790717721076,0.2453865456784501,0.8420329735823948,-0.478166682410439,0.753878380969687,0.19386615830063167,-0.16610570598715527,0.6178139557742017,-0.4515655020618826,-0.23801832372123152,0.5976595543228942
4.490000000000003,6.7854906365589365,-0.23673221396244726,4.5916781644323805,0.2769545529675782,0.8061060995974183,-0.5228674530344225,0.9167277706875053,1.0947849517562454,-0.5189486407973344,0.6166949241136294,-0.43872880123473995,-0.2146319594772174,0.6173429993735282
4.5000000000000036,8.061590813061466,0.570444851402292,4.441779441810206,0.3138444291582289,0.7462116988199664,-0.583297247341695,1.2196578462977767,2.578908060082516,-1.2898020007997388,0.6196630789179475,-0.41915186106829083,-0.17827647455480702,0.6383078178715557
4.510000000000003,7.602297177300455,0.9805012133070099,4.2594956597727505,0.3500866752057184,0.6849666441875788,-0.6362060476123971,1.2283392149888992,3.221242885914759,-1.9235580581987188,0.6219798863373162,-0.4012181582245729,-0.1419712795404985,0.6566022133918545
4.520000000000003,5.280773628782465,0.9532179681537424,4.056846768684654,0.38554011660720927,0.6226728602477717,-0.6807379320013521,0.917368092374212,2.9460111753483855,-2.402381758335731,0.623524878343205,-0.38517088303496505,-0.10594086500719212,0.6719954650543397
4.530000000000003,2.141285346232852,-0.397337983864291,3.817683566655907,0.4090486815487499,0.5860414568966107,-0.6986665746373533,1.175780755234779,1.9119245120035917,-2.5287077066721726,0.6156225283284915,-0.3777383211311223,-0.08832652991091462,0.6857201369516507
4.540000000000003,-0.6772047048468235,-1.7025870267815089,3.4180218836178256,0.422698158790463,0.5660427000964984,-0.7077535452321928,1.5393686822504626,0.9107178494446402,-2.4170107804125798,0.604213767094088,-0.3733063271541786,-0.08214091471823727,0.6990073811471705
4.550000000000003,-3.119685451142128,-2.924506434008536,2.841516795818362,0.425727564304572,0.5638223387485486,-0.7077144906620547,2.005178051540988,-0.0350621952163952,-2.0505252317929896,0.5891581963798322,-0.3719817609588881,-0.08815168245853613,0.7118519586813596
4.560000000000003,-3.653970281938858,-3.3408696363697383,2.7028732578893733,0.4179432537569763,0.5777989392723883,-0.7009312641555565,1.731833718141055,0.02644621523246902,-1.4296604993512685,0.5708441411012718,-0.37172845558564643,-0.10576240557813649,0.724120107313659
4.570000000000003,-3.874627560945327,-3.495980562221884,2.517480241523169,0.40926115009556524,0.5933226575673217,-0.6930053169843385,1.3504608012469512,0.2101594397292773,-1.0467841249390628,0.5524171007744973,-0.3713022621051244,-0.12430927721984211,0.7356076705153595
4.580000000000004,-3.802960428206667,-3.381135740087129,2.2641449508566387,0.39992277317181235,0.6100595374293586,-0.684007235788338,0.8711594727641218,0.49887819049057347,-0.9431636496014547,0.5339714897864818,-0.37064329467493257,-0.14352951985482273,0.74622688906669
4.590000000000003,-3.928571380557886,-3.376165047887336,2.170215176371357,0.39082680570614126,0.627567543069771,-0.6731633234944325,0.44917183473569877,0.663953678974729,-0.6886892654695905,0.515949770413869,-0.3697750419716029,-0.16276385817134537,0.7550952523489659
4.600000000000003,-4.153863347458057,-3.3487419529450086,2.0864324038897624,0.38196219234827816,0.6462483191377568,-0.6604036403887869,0.1917670336783446,0.698024107427106,-0.49605830761806935,0.4975336600815827,-0.36908262573003475,-0.18267490157127125,0.7631940924818399
4.610000000000003,-4.4871474952997366,-3.290378640991084,2.0076693775584835,0.3733574604608041,0.6662660979167243,-0.6454850368795062,0.12417531632271131,0.5843517391977066,-0.3821422190395283,0.47863863737965406,-0.3686045993984733,-0.20337588664033487,0.7704690191757951
4.620000000000003,-4.633832591752563,-3.240356835175303,1.9161957507088778,0.3661956106642193,0.6884032967676356,-0.6257064501456706,-0.12128396963369173,0.3796118372160686,-0.18240626506407706,0.4590005045521054,-0.3689775166045094,-0.22527861687412512,0.775857684427887
4.6300000000000034,-4.614683201649964,-3.154611853867382,1.8260254998326522,0.3595862632891516,0.7100561217056375,-0.6050384453591772,-0.3259286709987925,0.2543869320052895,-0.034703951366233686,0.4394315559491218,-0.36913935647686735,-0.24697910950275842,0.7805329917373021
4.640000000000003,-4.40642969429727,-3.0255709887170035,1.7380892788668978,0.3535636309425395,0.7310160717318239,-0.583559771837331,-0.47222794620214364,0.2293568481835701,0.04604880361338198,0.4199848002611569,-0.36900309134145687,-0.26837359904116703,0.7844519967187404
4.650000000000003,-3.995034639824577,-2.7361332129037272,1.6460343862712166,0.35004776684288164,0.7484667473094962,-0.5629198821298517,-0.6292534867100161,0.23420601584686,0.19512659160775242,0.4018300643226972,-0.3686500923916669,-0.287149118204389,0.7872844821732536
4.660000000000004,-3.602678511426211,-2.4973368908009883,1.5088801418819417,0.34737021064932466,0.7641806427753952,-0.5432381847017936,-0.7407284691427888,0.19323157279215405,0.2927272328505828,0.3847114483979825,-0.3681657428389229,-0.30449535760566365,0.7896169757905005
4.6700000000000035,-3.246596624499711,-2.3310573599950666,1.316416444789987,0.34556743583202876,0.7779759460767548,-0.5246842108893703,-0.7954015367940253,0.09391048792360274,0.3225898242025915,0.36878798212459524,-0.36753322216138967,-0.3202457265076545,0.791401947298137
4.680000000000003,-2.9550054381544206,-2.2667446456108253,1.1113985807586173,0.34304876815144925,0.7894379911314352,-0.5088261519463766,-0.8262302124253533,-0.21661339374863653,0.4291845188942748,0.35483393074955694,-0.36582185865004396,-0.3341543339945745,0.7927194537210451
4.690000000000003,-2.754650759978811,-2.1740910243070752,0.8811397679489077,0.3398483802710958,0.8003948038238016,-0.49367424297041157,-0.834534701688324,-0.47523999264512945,0.507534006020779,0.34187017219332605,-0.36371969689919176,-0.34754873875981795,0.7936599049720608
4.700000000000003,-2.6649775309610146,-2.038019181939518,0.6198688179110575,0.33583831420436544,0.8108850874900226,-0.479216257836949,-0.8161014025437716,-0.652546447524053,0.5444556366581201,0.3300137318839918,-0.36120290031594743,-0.3604288550600059,0.79415782532768
4.7100000000000035,-2.631646884236162,-1.8680701693805863,0.3532655543681053,0.33032568713237487,0.8218886851199622,-0.4638718271437817,-0.8321580038509986,-0.9098795052936512,0.5968415334573592,0.3200211128847384,-0.3586538141483979,-0.3732833940854597,0.7933918187480112
4.720000000000003,-2.5092545468821625,-1.6718609676439968,0.10585980282742598,0.3241578219164413,0.832817257064359,-0.44849980369498216,-0.8536374081384602,-1.0991328427842073,0.6358064981142424,0.31113227550691686,-0.35611365484130636,-0.38582604112313895,0.7920974010111161
4.730000000000003,-2.2662634160032433,-1.4444242462803516,-0.11613496072569826,0.31726716132779864,0.843604271345999,-0.43316796196560464,-0.8792066741674331,-1.1930285754205046,0.6559998411857114,0.30351827215433724,-0.3535878690539632,-0.39796547537292853,0.7902245693415232
4.740000000000004,-1.9591661916956893,-1.188463458282981,-0.3089297205050774,0.309760223129051,0.8530216001418891,-0.4198015048007238,-0.9489289244200223,-1.2508564200848744,0.6540586705329778,0.2983727513638243,-0.3511477049228124,-0.40833265820645537,0.7879458831168771
4.7500000000000036,-1.6995951309970063,-0.9329348872145496,-0.48071916625992006,0.3019955695367536,0.8618287449216079,-0.40734469296144815,-0.99860273187741,-1.27956610104053,0.6468345288943774,0.2944591956262081,-0.34886320693983686,-0.41783569755475924,0.7854680377496384
4.760000000000003,-1.5097846864172317,-0.6807847844435471,-0.6273264937695578,0.29394729491611854,0.8699555846495816,-0.3959095742989942,-1.0171683229376003,-1.272934516083161,0.6347294756691444,0.2919483397598506,-0.34677817162068647,-0.42635883809929076,0.7827641001424781
4.770000000000003,-1.39136561089395,-0.47538115654729074,-0.6396815532046611,0.28617807389757427,0.8773651251519954,-0.38497830700206076,-1.0413735508076674,-1.2258369867171346,0.5733439120305245,0.29088560408755704,-0.34537413602274825,-0.43381736352494144,0.7796596332455445
4.780000000000003,-1.2255180053014438,-0.28303541922584924,-0.581689829453721,0.2793078568683068,0.884089669501402,-0.37456510303503276,-1.050411684355578,-1.171652210017001,0.5148107340759848,0.2901815453994266,-0.34444046468817363,-0.44052562156734615,0.7765778849217146
4.790000000000004,-0.9866518423229576,-0.10339644820165578,-0.44214512079337936,0.2736398818379578,0.8899543812118292,-0.3648064958488924,-1.0380141809147077,-1.1122520854504054,0.46568005010668,0.2898082422861798,-0.3440762201490876,-0.44632319022137207,0.7735719187687912
4.800000000000003,-0.6382954061348594,0.08300421204649769,-0.40948869932907844,0.27025763053565116,0.8936824740231964,-0.3581318889175878,-0.9852309152994376,-0.9768540300647395,0.3678356135307794,0.2901071753618118,-0.3443837803864368,-0.44980886423013694,0.7712983997061538
4.810000000000003,-0.2986226655296178,0.25253236310760463,-0.47247662642597615,0.26687687648149805,0.8965852325508143,-0.35341401728533656,-0.9386116640681497,-0.8567464095454442,0.2930830132529457,0.2913220959412674,-0.3446917839944382,-0.4521946108543975,0.7693079095750767
4.820000000000004,0.015076643573834536,0.39742969519531635,-0.6568734476341679,0.2632115359501261,0.8985926330486425,-0.3510674444836963,-0.9057464823431566,-0.7677238490169616,0.2569897279051244,0.293743831741738,-0.3449161484950576,-0.45331993051135616,0.7676244934756137
4.830000000000004,0.21401897100857903,0.513427068195173,-0.904257855669662,0.257502148587802,0.9001990669777572,-0.35116120228200004,-0.7990896809587809,-0.6411728959879108,0.20003628995273823,0.2982358256816897,-0.3446703882061666,-0.45345526371744965,0.7659129270548883
4.840000000000003,0.35671534676494476,0.6242028305908558,-1.2244101160047123,0.24997375075971764,0.90187559978365,-0.3522588313893993,-0.7038490971242246,-0.5627716441096698,0.15716388235515708,0.3040298706298554,-0.34400937142959037,-0.4533513606722996,0.7639820898295878
4.850000000000003,0.434022348394841,0.7314726876683122,-1.6411734756918241,0.24009631289024383,0.9037100841921464,-0.35446840436003213,-0.6355256846322455,-0.5594293909112826,0.13763130408170823,0.3114200312728667,-0.3428125905711746,-0.45303986992235873,0.7617374152826628
4.860000000000003,0.24213941166517208,0.6867029838040205,-2.0935559323528588,0.2248119545728502,0.9071207854311648,-0.3555955067843229,-0.5364809051384187,-0.5430580371654615,0.09492491917363663,0.32103649693896136,-0.34058499727548924,-0.4540929183341723,0.7580719451320094
4.870000000000004,0.03352242853665144,0.617157426690617,-2.475067822529644,0.20666056103474176,0.9114253112556411,-0.35549310939078627,-0.46215186006015846,-0.47153529644490644,0.05733391769135573,0.33133539246429905,-0.33773700292390896,-0.4562626380360938,0.7535894878220142
4.8800000000000034,-0.15793257028972263,0.5344790999549316,-2.7454478849535087,0.1850840410388026,0.9168147626360712,-0.3537285961574327,-0.4294405450987304,-0.3199007932983422,0.030985563613504394,0.34230269709492295,-0.334126078134795,-0.45988231254982237,0.7481122555296588
4.890000000000003,-0.5013457136418129,0.6696997928648931,-2.739859335082736,0.16161760466469746,0.9230971840993226,-0.34846420941486245,-0.5598904553575326,0.31346476379781074,-0.2672576297129141,0.3532688674382886,-0.330752169038323,-0.4651330525538571,0.7411751942213153
4.900000000000004,0.0825202759337158,0.9255018546124905,-2.801196330616914,0.13853956024577202,0.9275764886780195,-0.3466776292937794,-0.6970450080075555,0.9810071921457424,-0.589083111161407,0.36525520065020683,-0.32722057281947076,-0.4685951661015238,0.7347342277576062
4.910000000000004,2.1124122870735187,1.3281870248190342,-3.012788678617313,0.116383436727071,0.9291404953517911,-0.3508218148017979,-0.8162104138261671,1.6174557717488476,-0.899930805474734,0.3788036517694801,-0.3234065060333511,-0.4690363528523461,0.7293056034695318
4.9200000000000035,2.787703669441537,1.708219808759151,-3.8459716234114985,0.08943865796419688,0.9226342071197648,-0.37409380546821386,-0.627857052127507,2.4982986374308527,-1.5926766377141046,0.40001258893849617,-0.31587998044481,-0.4616276694033351,0.7257850018050821
4.930000000000003,3.010718826560323,1.8431731134668665,-4.54501119020708,0.05841126578870498,0.9140748480352325,-0.40015139032108926,-0.32461902036762214,3.3301915706424308,-2.101143702033657,0.4235816433387088,-0.3067044063763131,-0.4536296100208512,0.72135220299043
4.940000000000003,2.7805018379064337,1.5966591215374475,-4.914167167669147,0.021871805098098426,0.9038250178004748,-0.4269406238234088,0.10073105224570444,4.038351480364858,-2.2465862348498575,0.4494027798304897,-0.2956420309718907,-0.4462030663310213,0.7151190389525969
4.950000000000004,1.5800748850781734,0.701123697243618,-4.897710541107109,-0.017393800075066905,0.8949193891645513,-0.44470845729721153,0.8223681650207855,3.574929213010985,-2.073034133913529,0.47186337925448085,-0.28391821666812556,-0.44379976139859834,0.7066768840976942
4.9600000000000035,0.36387105215855675,-0.20863411127416095,-4.87018630804075,-0.05957917456209423,0.8882940163658665,-0.4543777985012057,1.3424453350158916,2.908894528788531,-1.799554529351633,0.4913825630048835,-0.2717155991770186,-0.44595993618809837,0.6968296639467194
4.970000000000003,-0.6742204046149693,-1.0051814599166242,-4.90568887659647,-0.10591823902397261,0.8850772949209385,-0.4528326001550084,1.4740882565412068,2.160830271248845,-1.4312906758481359,0.5068461802411429,-0.25887683229867825,-0.45445213185648015,0.685171888652795
4.980000000000004,-1.1860170950496285,-0.9944699267434558,-4.564611574165857,-0.15193869906752733,0.8831996613094775,-0.4423069979342952,1.4220191422623636,1.589452259247049,-1.065074152626895,0.5190586157846556,-0.24723285405659493,-0.4664383850490892,0.6719801429630715
4.990000000000004,-1.6582975333986638,-0.7916073898865192,-4.094153093275069,-0.19451872781265264,0.8819959499997623,-0.4284155966463037,1.2908291948068324,1.205547610963168,-0.7859329400282776,0.5297653865734347,-0.2375745950081204,-0.4788199395085132,0.6583616549999511
5.0000000000000036,-2.185828348842242,-0.4545559821774159,-3.494945762276271,-0.2314457258999709,0.8816059990380286,-0.4109871676153958,1.0701942666196564,1.0930467386783498,-0.6512501027871048,0.5387137219299492,-0.2309466479683082,-0.4910559781043998,0.6443856293241009
5.010000000000003,-2.8077838183752606,-0.33158337817074784,-2.948145522441672,-0.26029980133136266,0.884219504837652,-0.3868138484450539,0.8165299967153048,0.5804762689205196,-0.3826797083028851,0.5447004964733168,-0.22925512236369322,-0.5039267128200345,0.6297395131261944
5.020000000000003,-3.1754034429301377,-0.3228893287280175,-2.4406156441758644,-0.2856593317887951,0.8878364629762071,-0.3599655122338213,0.6520211084218819,0.1297689952246121,-0.17208698250387822,0.5490323293389021,-0.22932215363091746,-0.5170607189720903,0.6151909251641874
5.030000000000004,-3.0838155390461877,-0.45607045038271116,-1.9871561730262859,-0.3070640421017937,0.8924168256292752,-0.33023185334370353,0.6484660142719564,-0.11448229279621863,-0.09440921415679326,0.5512747343885975,-0.231159767913906,-0.5304860136726663,0.6009777125080705
5.040000000000004,-2.5230807484595683,-0.4949905455182237,-1.5118019543513888,-0.32344932325849896,0.8957390028407899,-0.30419505215919995,0.6447235330972191,-0.3103944375730303,-0.03403177152316685,0.5516856451472183,-0.23275940875981863,-0.5419004908499747,0.5896398555355751
5.050000000000003,-1.770703593159697,-0.3857884985091268,-1.0805999785653344,-0.3367444894665225,0.8979713209450755,-0.28309184813615185,0.6368815871307195,-0.4253537323762334,0.006336753536812895,0.5518581925907512,-0.2338856541612672,-0.5511234659510069,0.5805027614417367
5.060000000000004,-0.8092386780408858,-0.0414749882694751,-0.7331738531593062,-0.34597104245068866,0.8986283893068295,-0.26966700816076544,0.6218693672134431,-0.41094782970418636,0.016196545647552338,0.5521125231647832,-0.23424315349272937,-0.5570367019231213,0.5744549058835762
5.070000000000004,-0.04019139033787322,0.4283155344904765,-0.22055805575249632,-0.34879881987853795,0.8979919959636994,-0.2682308566080701,0.5075410074404633,-0.4482287270388117,0.08061549826121302,0.5537723698841269,-0.23472859375570582,-0.5574825572143474,0.5722310925170427
5.080000000000004,0.5340584783699348,0.8315218375381536,0.3128721709353539,-0.3472225333523344,0.8974348746205654,-0.27200297954941466,0.41880904009319453,-0.5048844387354421,0.15802209918694782,0.555666745542066,-0.23588528586886337,-0.5552861468535651,0.5720423305913276
5.090000000000003,0.8123975648181087,1.076562263974402,0.8348001919748465,-0.3395669256711532,0.8974071597530258,-0.28164630625338305,0.4061087516048169,-0.5812675652579731,0.24271613735812858,0.5575674071029181,-0.23822119728793478,-0.5499278736982987,0.574404159365246
5.100000000000003,0.8304804424103038,1.108377909255713,1.0995324095762085,-0.32726329843711816,0.8983240753356052,-0.292822002949865,0.5659243137248617,-0.9046964973350057,0.40635919571752155,0.6988181626254766,-0.4195218524445784,-0.34971382043204047,0.24864933820987944
5.110000000000004,0.7257063109792443,1.0732175860180038,1.27953575036707,-0.31339535007474273,0.899787613764751,-0.30337738131005787,0.7154380694434938,-1.2127478219279713,0.5489038050567058,0.8072675229066193,-0.5570549628524244,-0.19487143288191167,0.0010922889855044385
5.120000000000004,0.4768160356861649,0.9824581352085264,1.3851636526965425,-0.29812188085529545,0.9019610303299154,-0.3122888214047084,0.7903087730442829,-1.4127491700044974,0.6268977244385545,0.8100143867237363,-0.5557917442072358,-0.18691634424724418,0.004210721887589253
5.1300000000000034,0.2618917175956148,0.9246822708300471,1.49419575032599,-0.2820401461275376,0.9050783328307253,-0.31799337654253323,0.8254097644013787,-1.6680271677094736,0.7149498202304456,0.8117435498736222,-0.5557935100800793,-0.17906063056331062,0.00777993976883486
5.140000000000004,0.10909915281276603,0.8856043242517211,1.6588216235619533,-0.2649569937622138,0.9087057085866308,-0.32233802881830037,0.8265966812759048,-1.852809012981624,0.7730268581015443,0.81303202661964,-0.5563761972074515,-0.17101918343704942,0.011791564297181211
5.150000000000004,0.06324071784298425,0.8708533949504305,1.9284409570380703,-0.2462403057783093,0.9129815000120645,-0.3251921578557399,0.7767395940990816,-1.8838910295140394,0.7703897460367787,0.8138300654280775,-0.557631807899046,-0.1625887509745703,0.016492519540317566
5.160000000000004,0.18903908791729346,0.8612707267599347,2.296744624508582,-0.2233442324264334,0.9174575003472198,-0.3287215965669246,0.7095156088099663,-1.7539773883501437,0.7227849290470423,0.8147398828302627,-0.5587525146489286,-0.1529028820287728,0.023077439387856266
5.1700000000000035,0.3729543021536317,0.8632385838075411,2.6938495921857815,-0.19773326679282682,0.9217039027864561,-0.33317341984697946,0.6492819114085527,-1.613855385391162,0.6741817494576967,0.8158394808795285,-0.5595383929346479,-0.14239628607942673,0.030915934888516527
5.180000000000003,0.6070373246363686,0.8859932433944263,3.110729254944599,-0.1683441674982683,0.9254239199783967,-0.3391870901360069,0.6092858684096706,-1.5138097886849127,0.6404167144394274,0.8172705794474977,-0.5597161274448925,-0.1307445446638425,0.04051607035858402
5.190000000000004,0.7842516933734913,0.9201919551182359,3.527726472637169,-0.13368324926662364,0.9278228326101308,-0.3471602186888573,0.5679362907634083,-1.3476594427954494,0.6099144238792471,0.818997648450573,-0.5590575348218143,-0.1173395592621899,0.05232221084363882
5.200000000000004,0.9488141468489633,0.9329033502823564,3.9021894907323564,-0.09626578322392636,0.9290939514801472,-0.3561314621133717,0.5273216823424354,-1.2142546019554616,0.5914777627514155,0.8208031122049119,-0.5578755680482881,-0.10303117064389508,0.06531040543557307
5.2100000000000035,1.110715469439638,0.8974585928002422,4.190430533813254,-0.055393053998179356,0.928613806136385,-0.3663333810326743,0.4887428762417949,-1.1738948769053217,0.5961681602759176,0.8226478488342313,-0.5559710714781128,-0.0876006939245529,0.07980234638468998
5.220000000000004,1.3246198624569938,0.8101729625313416,4.3651880442150075,-0.012283384538574478,0.9250428170255163,-0.3781412200621195,0.512659421920459,-1.0978588025048461,0.5910879811442306,0.8244718657753598,-0.5528533506258013,-0.0716355534607968,0.09574705352099898
5.230000000000004,1.602185952283364,0.7042720014667146,4.458050963707325,0.03128476045988657,0.9192386837950794,-0.39137410842259435,0.5381249857867283,-1.0241026600970922,0.5838458972622577,0.8264191246453572,-0.5487373970882771,-0.055591754580366276,0.11227230054143104
5.240000000000004,1.9899653675334066,0.5821254049335731,4.429458566202616,0.0748341500555898,0.9101210369414964,-0.40688133602547477,0.5395606639781096,-0.9706698976368823,0.576353052736286,0.8286327013884736,-0.543066809870564,-0.0396169961098004,0.12937570876669421
5.2500000000000036,2.6113524423013894,0.39956732428846076,4.295367581641962,0.11594687994908282,0.8956542056409258,-0.42781591603440206,0.552711906212407,-0.7870631054266857,0.478688939906073,0.832042258192188,-0.5341552529465825,-0.024260075635958132,0.1464357715257659
5.260000000000003,3.4492517273458025,0.17064645727780273,4.101879723247172,0.15465798770879144,0.8769696304771908,-0.4537350525591865,0.5683714399432683,-0.5694648730284623,0.36599864165952845,0.8366901550689043,-0.5223687732789968,-0.009501612756397968,0.16338554847229972
5.270000000000004,4.643144147666616,-0.12961626896117556,3.8302191467144726,0.1893475554202987,0.8517259061699421,-0.48782671859146615,0.5839153571047593,-0.3399783553797487,0.26340740066784596,0.8434401016410089,-0.50592073242439,0.004259738638670404,0.18011839101915483
5.280000000000004,5.944629550822787,-0.1539557788909629,3.8151039902195096,0.2200365280347685,0.8154321800050588,-0.5329520078606759,0.634218999727752,0.24839352999984354,-0.05827792239695806,0.8530699947332283,-0.4824252987341901,0.018114407733457825,0.19632449931562504
5.290000000000004,7.424704001308854,0.16968558669389305,3.85087869519133,0.25047298561024295,0.7697386789921072,-0.5845223236023396,0.6580581457773937,0.841575096924484,-0.34727058738833677,0.8644454468620945,-0.453833173877024,0.03379206836285856,0.21178242128242702
5.300000000000004,9.246478997858038,1.1255190108492101,3.869469003052756,0.28237796967592343,0.7087921771589999,-0.6447977717654902,0.6055485628534403,1.263427108628056,-0.45261360353912156,0.8782335434780675,-0.4175061471938009,0.05346736870678656,0.2258473449336991
5.310000000000004,9.318754726748278,2.3841496467959966,4.1154189033097905,0.3226310823686577,0.6314594909394984,-0.7005549599975363,0.3195681422332694,1.7569084724672908,-0.9625953767300837,0.8911906606148744,-0.3763411500554863,0.08118065970368601,0.236456541929708
5.320000000000004,8.205068819047073,3.2176401293597903,4.499761455900981,0.3674006862091185,0.5530506799208369,-0.7457430400595659,0.07753563849433355,2.150831889568086,-1.4216771913392168,0.9010603488674065,-0.33761842599775327,0.1115000026355629,0.24679745546854964
5.330000000000004,5.332581746844388,2.9127745391214974,5.076669162339732,0.41794782604500014,0.4811278350188837,-0.7692097592282274,0.06358721219039022,2.2777848559837173,-1.543285944054175,0.9043178413904789,-0.30712729732870675,0.14339394831447855,0.258411607364499
5.340000000000003,0.5730963849113246,1.1517749168317126,4.275585036501691,0.45042488687572535,0.44865185967476284,-0.7714237560095084,0.7935180134429619,0.6804214801959703,-1.874534536194941,0.9001810896278482,-0.2979105668499876,0.15951525907859923,0.2742367976989656
5.350000000000004,-3.3393150388934245,-0.7921224899418655,3.55184037851201,0.4711365051334283,0.43655989669158335,-0.766386698990983,1.6779075315656227,-1.003971872111319,-2.1621400059330647,0.8928795546854364,-0.29878601571480984,0.16570199598224883,0.29280990116541744
5.360000000000004,-4.140443769801182,-2.311606581818707,3.8213842209282984,0.47468014429479,0.4494239658081531,-0.7567195216283537,2.489657188493665,-1.8797025415153072,-2.223318848948202,0.8824503166167976,-0.3109913174590929,0.1576949823695238,0.315398236695576
5.370000000000004,-3.7694754486261397,-2.6106401491013314,3.328984444154601,0.47194909532776314,0.4624214628976378,-0.7505388505707468,1.9601665712048506,-0.7467345514062158,-2.0921692343845972,0.8724185426897744,-0.32136298132360397,0.1459821666333839,0.3373892919494305
5.380000000000004,-3.170976422418858,-2.602588043090695,2.729333510603765,0.46676369029358517,0.4745677279862489,-0.7462322224654772,1.1848228583573819,0.4510083386013796,-1.9069234251231733,0.8631118770390209,-0.3301699091507211,0.13343792186625753,0.3578145422497439
