time,seconds_elapsed,rotationRateX,rotationRateY,rotationRateZ,gravityX,gravityY,gravityZ,accelerationX,accelerationY,accelerationZ,quaternionW,quaternionX,quaternionY,quaternionZ
1681249887110807000,0.23580712890625,-0.17904523015022278,-0.26202690601348877,-0.09453348070383072,0.09744840860366821,-0.43043676018714905,-0.8973450064659119,-0.09499173611402512,-0.07052457332611084,-0.08333736658096313,0.9739982715751114,0.22096382361488112,0.05002493933241269,1.2288529005638775e-18
1681249887125840000,0.25083984375,-0.19674177467823029,-0.21838703751564026,-0.02691023051738739,0.09434174746274948,-0.4278920888900757,-0.8988926410675049,-0.10187958925962448,-0.046579986810684204,-0.08645886182785034,0.9743950937951534,0.2196040414173498,0.0482466444995586,-0.0007266783540342834
1681249887140873000,0.265873046875,-0.2531178593635559,-0.2156682163476944,0.005458893720060587,0.09104973822832108,-0.42503735423088074,-0.9005849361419678,-0.09451347589492798,-0.015880674123764038,-0.08281350135803223,0.9748289996647811,0.2180533120496905,0.046478893379455564,-0.0009901053326763442
1681249887155906000,0.280906005859375,-0.35236427187919617,-0.25129303336143494,-0.02576986514031887,0.0877218097448349,-0.42098626494407654,-0.9028153419494629,-0.0823201835155487,-0.026981323957443237,-0.08322286605834961,0.9754014089712423,0.21580154569674384,0.044967029034346157,2.7305695241518473e-17
1681249887170939000,0.29593896484375,-0.4093656837940216,-0.2790546119213104,-0.09532018005847931,0.08405593037605286,-0.41578254103660583,-0.9055714011192322,-0.06556227058172226,-0.01689574122428894,-0.10781055688858032,0.9761072981271434,0.21301004826520958,0.04290719367804559,-0.0006851406887797816
1681249887185972000,0.310971923828125,-0.38996830582618713,-0.27466174960136414,-0.16408219933509827,0.08087775856256485,-0.4101584553718567,-0.9084210991859436,-0.06215521693229675,0.013597726821899414,-0.1122087836265564,0.976835117323482,0.21002381159258468,0.04098122236475083,-0.0019377978537616866
1681249887201005000,0.326005126953125,-0.30021706223487854,-0.264026939868927,-0.22473330795764923,0.07802551239728928,-0.40524575114250183,-0.9108721017837524,-0.09923521429300308,0.055483728647232056,-0.10992562770843506,0.9774573183911284,0.20744219055156923,0.03913695383191207,-0.0036542875009090933
1681249887216038000,0.341037841796875,-0.163400337100029,-0.25693175196647644,-0.25542062520980835,0.07575060427188873,-0.4018835127353668,-0.9125521779060364,-0.11058641970157623,0.07792416214942932,-0.10029566287994385,0.9778767255364986,0.2057090605375463,0.037519203555287296,-0.005766132256004327
1681249887231071000,0.356071044921875,-0.12952332198619843,-0.2801832854747772,-0.29502156376838684,0.0734626054763794,-0.39977648854255676,-0.9136640429496765,-0.1113501712679863,0.10927960276603699,-0.08778548240661621,0.9781442947614859,0.20465192750365027,0.03585470472422549,-0.008112450134378365
1681249887246104000,0.37110400390625,-0.17840740084648132,-0.3324179947376251,-0.3771420121192932,0.07110969722270966,-0.3973652422428131,-0.9149012565612793,-0.10342780500650406,0.09450873732566833,-0.0678410530090332,0.9784323444184065,0.2034446390115627,0.034053785353953064,-0.010988360120450662
1681249887261137000,0.386136962890625,-0.1893576830625534,-0.3317423462867737,-0.45422613620758057,0.06866040080785751,-0.39439651370048523,-0.916371762752533,-0.10584606230258942,0.06682077050209045,-0.03089386224746704,0.9787624956280322,0.20195224409789447,0.03208454629827084,-0.014493776218103273
1681249887276170000,0.401169921875,-0.12145692855119705,-0.2955380082130432,-0.49451151490211487,0.06694535911083221,-0.391710102558136,-0.9176499843597412,-0.11523942649364471,0.08204823732376099,-0.017103374004364014,0.9790222040530455,0.20062492888168654,0.03040786878417366,-0.01845583985401171
1681249887291203000,0.416203125,-0.015265836380422115,-0.24016450345516205,-0.49665480852127075,0.06583040207624435,-0.3903964161872864,-0.9182902574539185,-0.13806550204753876,0.1214144229888916,0.005890965461730957,0.9791021858424763,0.20003025012377754,0.02903039587344454,-0.02245398894866614
1681249887306236000,0.43123583984375,0.02135971188545227,-0.18227510154247284,-0.4845044016838074,0.06565777212381363,-0.39011481404304504,-0.918422281742096,-0.13844218850135803,0.12796878814697266,0.018581032752990723,0.9790376896116709,0.19999231460010317,0.028141284220255715,-0.026388550301831088
1681249887321269000,0.44626904296875,-0.02643827721476555,-0.1442376971244812,-0.4380224049091339,0.06579680740833282,-0.389725923538208,-0.9185774326324463,-0.14054960012435913,0.10696524381637573,0.02047562599182129,0.9789739101157093,0.19988983870802723,0.027483366832069662,-0.029981042361473226
1681249887336302000,0.461302001953125,-0.09560749679803848,-0.12137313187122345,-0.41007304191589355,0.0662965402007103,-0.3885045051574707,-0.9190587997436523,-0.142697274684906,0.08209273219108582,0.022543907165527344,0.9789910316845297,0.1993410775654604,0.027087785775982004,-0.033257415361147374
1681249887351335200,0.476335205078125,-0.10565235465765,-0.1300790011882782,-0.41392770409584045,0.06657374650239944,-0.3867496848106384,-0.91977858543396,-0.13627588748931885,0.07243382930755615,0.008386373519897461,0.9790629141276486,0.19849986795335542,0.026617829701005694,-0.03640477571228978
1681249887366368000,0.491367919921875,-0.12535643577575684,-0.15095898509025574,-0.41899970173835754,0.06687550246715546,-0.3848304748535156,-0.9205613732337952,-0.10836413502693176,0.09158700704574585,0.007978975772857666,0.9791377486589197,0.19757344261499188,0.026154496274469134,-0.039625250634360426
1681249887381401000,0.506401123046875,-0.16863584518432617,-0.18664906919002533,-0.4619876444339752,0.06668852269649506,-0.3824703097343445,-0.9215579628944397,-0.08435819298028946,0.0933772623538971,0.015796303749084473,0.9792481545731421,0.19640488059124186,0.02541912675092742,-0.043036750080848105
1681249887396435000,0.52143505859375,-0.1952059417963028,-0.21045613288879395,-0.524790346622467,0.06655330955982208,-0.3794154226779938,-0.9228296875953674,-0.08498591929674149,0.07666575908660889,0.01574045419692993,0.979394923849954,0.19487918886436995,0.024642802935130357,-0.046909167423735056
1681249887411468000,0.536468017578125,-0.17672796547412872,-0.21389134228229523,-0.5802488327026367,0.0662987157702446,-0.3764251172542572,-0.9240717887878418,-0.0885002389550209,0.061147987842559814,0.009597301483154297,0.9794965476956449,0.19339313452721785,0.02373212481097302,-0.05121082774969079
1681249887426501000,0.551501220703125,-0.18653137981891632,-0.21004441380500793,-0.6187772750854492,0.0664900690317154,-0.37339702248573303,-0.9252857565879822,-0.0922316387295723,0.05302348732948303,0.005501270294189453,0.9795503285215389,0.19190789753627938,0.022988670805537074,-0.055893857913671116
1681249887441534000,0.566533935546875,-0.1924012005329132,-0.216352641582489,-0.6321852207183838,0.06656686216592789,-0.37024590373039246,-0.9265456795692444,-0.0968402847647667,0.04102221131324768,0.031388819217681885,0.9795833881942433,0.19035622997315657,0.022173680533789118,-0.060741182160006166
1681249887456567000,0.581567138671875,-0.1968393623828888,-0.20504672825336456,-0.6047738790512085,0.06683186441659927,-0.36694055795669556,-0.9278405904769897,-0.09832599014043808,0.02944663166999817,0.046401381492614746,0.979603030733895,0.18872806650026802,0.02148095876446084,-0.06556057412097957
1681249887471599900,0.596599853515625,-0.22958281636238098,-0.20727552473545074,-0.5957590341567993,0.06675098836421967,-0.3635702431201935,-0.9291722178459167,-0.09752795100212097,0.015700340270996094,0.07229965925216675,0.9796242544035195,0.187046805410743,0.020673371963179272,-0.07016081640109231
1681249887486632700,0.6116328125,-0.26628267765045166,-0.2127792090177536,-0.6141010522842407,0.06677082180976868,-0.3595336675643921,-0.9307401180267334,-0.10111835598945618,-0.011544853448867798,0.08674603700637817,0.9796781950513207,0.18501934228196093,0.01994425452402233,-0.07483789980660005
1681249887501665800,0.626665771484375,-0.21507562696933746,-0.17184242606163025,-0.620887041091919,0.06671401858329773,-0.3556249141693115,-0.9322447180747986,-0.09916945546865463,-0.011135369539260864,0.10785812139511108,0.9796879881738106,0.1830569969003805,0.019177762521507494,-0.07958607085094739
1681249887516699000,0.641698974609375,-0.14366376399993896,-0.13404418528079987,-0.5851346254348755,0.06745154410600662,-0.35266420245170593,-0.9333157539367676,-0.10831457376480103,0.012225329875946045,0.10207796096801758,0.9795786969357049,0.18162542604692428,0.018823792272006305,-0.08416435327340258
1681249887531732000,0.65673193359375,-0.14405354857444763,-0.1360977441072464,-0.5500426888465881,0.06764010339975357,-0.35052379965782166,-0.9341080784797668,-0.11782626062631607,0.022673428058624268,0.10081040859222412,0.979408690128292,0.18059213370991212,0.018232909857895038,-0.0883902360658844
1681249887546764800,0.671764892578125,-0.23131003975868225,-0.17534182965755463,-0.5373750925064087,0.06764201074838638,-0.3476320505142212,-0.9351879954338074,-0.10682656615972519,-0.004891782999038696,0.10637634992599487,0.9793030002976619,0.179153261687363,0.017610326207075637,-0.09251943629043599
1681249887561798000,0.6867978515625,-0.34043624997138977,-0.19807377457618713,-0.5035889148712158,0.0656573623418808,-0.3437623381614685,-0.9367585182189941,-0.0842273011803627,-0.066653311252594,0.11373001337051392,0.9793313401979467,0.17709249053361756,0.016092818349424953,-0.09638171921944219
1681249887576831000,0.7018310546875,-0.39415568113327026,-0.18662777543067932,-0.43814224004745483,0.0639052614569664,-0.33863237500190735,-0.9387460947036743,-0.0891432911157608,-0.08612659573554993,0.12226355075836182,0.9794813914534565,0.17437620829916434,0.014828578342799386,-0.09994662573419603
1681249887591863800,0.71686376953125,-0.39241936802864075,-0.1740453988313675,-0.35191601514816284,0.06070370972156525,-0.33365246653556824,-0.9407396912574768,-0.10443539917469025,-0.09339532256126404,0.1349382996559143,0.9796954858040694,0.1716447435201006,0.012970971464444883,-0.1027951843652134
1681249887606897000,0.73189697265625,-0.36705487966537476,-0.1522897630929947,-0.2646500766277313,0.058753691613674164,-0.32850733399391174,-0.9426722526550293,-0.10427065193653107,-0.09689250588417053,0.1376338005065918,0.9799388005734259,0.16888844022550054,0.011856272671840234,-0.10514884118993306
1681249887621930000,0.746929931640625,-0.386848121881485,-0.15884993970394135,-0.166675865650177,0.05643780156970024,-0.32346272468566895,-0.9445562958717346,-0.08533793687820435,-0.09716108441352844,0.1143714189529419,0.9802437078024757,0.1661552961213089,0.010689189289416973,-0.10677294654748386
1681249887636962800,0.761962890625,-0.4272512197494507,-0.17560042440891266,-0.05547982454299927,0.05416528135538101,-0.3177984654903412,-0.9466098546981812,-0.07482567429542542,-0.1064721941947937,0.10183757543563843,0.9806605254438816,0.16309825125261376,0.009696301680419949,-0.1077501405977209
1681249887651996000,0.776995849609375,-0.49917498230934143,-0.18735428154468536,0.02893492579460144,0.05096941441297531,-0.3115387260913849,-0.948865532875061,-0.04094438627362251,-0.0937042236328125,0.09156572818756104,0.981212867999607,0.15967656745958017,0.008404791481414434,-0.10795458440443352
1681249887667029000,0.792029052734375,-0.6390385627746582,-0.20621025562286377,0.11306072026491165,0.04753797873854637,-0.30360883474349976,-0.9516101479530334,-0.032096073031425476,-0.11237630248069763,0.10195499658584595,0.9819508001100788,0.15538144843797638,0.007179506990801456,-0.10760014903258087
1681249887682061800,0.807061767578125,-0.7487446069717407,-0.20528455078601837,0.20263800024986267,0.04337042197585106,-0.29393959045410156,-0.9548395276069641,-0.03876226022839546,-0.14879420399665833,0.11742192506790161,0.9828816713368984,0.15015609655986678,0.005777450692334244,-0.10660013662026467
1681249887697095000,0.822094970703125,-0.8419696092605591,-0.18590019643306732,0.2446935772895813,0.03934628143906593,-0.28273749351501465,-0.9583899974822998,-0.027841147035360336,-0.14849117398262024,0.1348273754119873,0.9839487367885578,0.1441660488946093,0.004599270964359338,-0.10507115527710091
1681249887712128000,0.8371279296875,-0.8860536217689514,-0.17103150486946106,0.2705092132091522,0.03537967428565025,-0.27042096853256226,-0.962091863155365,-0.006693147122859955,-0.14055925607681274,0.15595483779907227,0.9850737031514706,0.137628678838829,0.0035220367752795533,-0.10332418867423887
1681249887727160800,0.852160888671875,-0.8299577832221985,-0.13031895458698273,0.30600303411483765,0.03184792771935463,-0.2581944167613983,-0.9655678868293762,0.01778891682624817,-0.12760883569717407,0.15294581651687622,0.9861625516980511,0.13118281670287527,0.002668255777786928,-0.10132904946429827
1681249887742194000,0.86719384765625,-0.6770228743553162,-0.07936656475067139,0.3549625873565674,0.02875363454222679,-0.24748826026916504,-0.9684641361236572,0.06524050980806351,-0.06322649121284485,0.10142922401428223,0.9871364233824258,0.12555484713480802,0.001976810438131528,-0.09896420486245676
1681249887757227000,0.88222705078125,-0.594836413860321,0.03129790350794792,0.4353378415107727,0.026861369609832764,-0.23854683339595795,-0.9707594513893127,0.08031637221574783,-0.053948938846588135,0.061793386936187744,0.9880020817659009,0.12090040270518365,0.0018363023109613204,-0.0960825129377759
1681249887772259800,0.897259765625,-0.7206454873085022,0.10937619209289551,0.5701374411582947,0.02596127986907959,-0.22964943945407867,-0.9729270935058594,0.09015810489654541,-0.04302515089511871,0.07230758666992188,0.9889115088891791,0.11632409534874653,0.0022701625335163405,-0.09229085588730312
1681249887787293000,0.91229296875,-1.0702719688415527,0.15101151168346405,0.7274652719497681,0.025640150532126427,-0.21695269644260406,-0.9758453369140625,0.10898815095424652,-0.07595504820346832,0.0816192626953125,0.9900992293664321,0.10984857515154252,0.0032594000310404753,-0.0873288140042915
1681249887802326000,0.927325927734375,-1.457877278327942,0.1838988959789276,0.9441211223602295,0.025273773819208145,-0.1987096220254898,-0.9797324538230896,0.15377286076545715,-0.12389171123504639,0.1391867995262146,0.9916201909184977,0.10056450220521024,0.004532373287044173,-0.08096787064315102
1681249887817358800,0.94235888671875,-1.7789514064788818,0.2802952229976654,1.246093511581421,0.02556862309575081,-0.1752002090215683,-0.9842007756233215,0.1773427575826645,-0.1053784191608429,0.13239413499832153,0.9933917385586247,0.08864988032543382,0.006388883375657632,-0.07261879712932467
1681249887832392000,0.957391845703125,-1.9626507759094238,0.34958240389823914,1.5408633947372437,0.026665665209293365,-0.14794765412807465,-0.9886356592178345,0.23639586567878723,0.04321131110191345,0.06489908695220947,0.9952358614135223,0.07487125617497531,0.00874490247463078,-0.061834037106654735
1681249887847425000,0.972425048828125,-2.1123011112213135,0.41048678755760193,1.8008863925933838,0.028977282345294952,-0.11832430958747864,-0.9925521016120911,0.27059853076934814,0.10132599622011185,0.030027687549591064,0.9969332708910082,0.059913648032368774,0.011588940465304953,-0.04899119168106671
1681249887862458000,0.9874580078125,-2.382578134536743,0.44080448150634766,2.10901141166687,0.032228149473667145,-0.08599121123552322,-0.995774507522583,0.33840784430503845,0.2694171071052551,-0.019789457321166992,0.9983656144594691,0.043564637314625385,0.014658491014465504,-0.033961985945213886
1681249887877491000,1.002490966796875,-2.799727439880371,0.3750899136066437,2.4104933738708496,0.03606412187218666,-0.04839400202035904,-0.9981770515441895,0.36884310841560364,0.30152204632759094,-0.028632640838623047,0.9994078219646855,0.024502715866034648,0.017637962589477908,-0.01651015248629873
1681249887892524000,1.01752392578125,-3.4356746673583984,0.3135189414024353,2.630209445953369,0.04009484127163887,-0.0033705781679600477,-0.9991902112960815,0.4530844986438751,0.28297263383865356,0.07404983043670654,0.9997933396150522,0.0016269705693441178,0.020056322686649784,0.002924499112036473
1681249887907558000,1.032557861328125,-4.253881454467773,0.2243022471666336,2.740506887435913,0.045146483927965164,0.05254783853888512,-0.9975973963737488,0.5015912055969238,0.21611365675926208,0.17285984754562378,0.99911532278699,-0.026820556010641396,0.021953836589729193,0.023818567439586314
1681249887922591000,1.047591064453125,-5.064481735229492,0.11407160758972168,2.671722412109375,0.05100778862833977,0.12039866298437119,-0.9914143085479736,0.5846428275108337,0.07563100755214691,0.42841076850891113,0.9968431737599289,-0.0614166352740674,0.022821767375434194,0.04484405546188302
1681249887937624000,1.0626240234375,-5.735435485839844,0.06156978756189346,2.7000062465667725,0.05853285267949104,0.19845707714557648,-0.9783602356910706,0.5805052518844604,0.015577971935272217,0.48267847299575806,0.9924013744041617,-0.10149623667639825,0.022768599573700813,0.06572495950835966
1681249887952657000,1.077656982421875,-6.124977111816406,0.1018383800983429,2.879415988922119,0.06964601576328278,0.2823767066001892,-0.9567720890045166,0.5350903272628784,0.08679449558258057,0.5081636905670166,0.9852715908858184,-0.14529014355195224,0.022466095438518664,0.0873273440537878
1681249887967690000,1.09268994140625,-6.368480682373047,0.1936521828174591,3.16029691696167,0.08640396595001221,0.3674581050872803,-0.9260177612304688,0.5114048719406128,0.08272197842597961,0.4759750962257385,0.9751020792932714,-0.190988295452271,0.022684391025941945,0.11038575430493613
1681249887982723000,1.10772314453125,-6.428043365478516,0.26431864500045776,3.511941432952881,0.11006419360637665,0.44993266463279724,-0.8862541913986206,0.5349095463752747,0.16510337591171265,0.4503411650657654,0.9616568659152149,-0.23728910778459014,0.02380703097086109,0.13543774485240864
1681249887997756000,1.122755859375,-6.52078914642334,0.3173741400241852,3.8132424354553223,0.1409163773059845,0.5269885659217834,-0.8381084203720093,0.5482163429260254,0.14450502395629883,0.3926891088485718,0.9448314903981515,-0.28332870170371394,0.02589687193099366,0.16232032253422815
1681249888012789000,1.1377890625,-6.463224411010742,0.21435347199440002,4.041186809539795,0.1775015890598297,0.5968044996261597,-0.7825072407722473,0.5868722200393677,0.1753208041191101,0.3565276861190796,0.924609610982799,-0.3285559425136889,0.028237581369948556,0.19065872641024506
1681249888027822000,1.152822021484375,-6.55258846282959,0.0832979828119278,4.20927095413208,0.2181675285100937,0.6580944061279297,-0.7206349968910217,0.5923183560371399,0.14853107929229736,0.28125816583633423,0.9010535903486114,-0.3725281795813445,0.030087693787975024,0.22004547834252547
1681249888042855000,1.16785498046875,-6.482209205627441,-0.15785284340381622,4.269356727600098,0.26158350706100464,0.710226833820343,-0.6535686254501343,0.5760477185249329,0.21624106168746948,0.20190852880477905,0.8742316119626556,-0.41504198571029627,0.030916758744690184,0.25000687215465134
1681249888057888000,1.182887939453125,-6.4201436042785645,-0.44293197989463806,4.320090293884277,0.3060586452484131,0.7520698308944702,-0.5837116241455078,0.5339834690093994,0.21809935569763184,0.08117872476577759,0.8446047556349052,-0.4552293198576423,0.030173616799686227,0.2801764798859782
1681249888072921000,1.197921142578125,-5.981038570404053,-0.7789297103881836,4.302029609680176,0.3509717285633087,0.7820366621017456,-0.5150122046470642,0.47608518600463867,0.35089796781539917,-0.043612003326416016,0.8130103813240532,-0.4916414277257063,0.027975171576908864,0.31067716468303536
1681249888087954000,1.212953857421875,-5.418559551239014,-1.0513463020324707,4.0901780128479,0.39432403445243835,0.8000110983848572,-0.45220690965652466,0.41782504320144653,0.4015881419181824,-0.15939581394195557,0.7811218410659186,-0.5227768979915606,0.024512415075615853,0.3405177969621843
1681249888102987000,1.227987060546875,-4.8025898933410645,-1.265233039855957,3.855865478515625,0.4349885582923889,0.8078657388687134,-0.3976660966873169,0.29413753747940063,0.5826984643936157,-0.2483452558517456,0.7501430070533049,-0.54841453066209,0.02021035625381027,0.36894284990950904
1681249888118019800,1.243019775390625,-4.273374557495117,-1.4557294845581055,3.5318353176116943,0.4723340570926666,0.8081527352333069,-0.35183781385421753,0.20977962017059326,0.6530747413635254,-0.26240459084510803,0.7206407233732448,-0.5690776348340854,0.015223184764924767,0.395722076283085
1681249888133053000,1.258052978515625,-3.820711612701416,-1.6011300086975098,3.3064424991607666,0.5058197975158691,0.803367555141449,-0.31424054503440857,0.053399622440338135,0.8372422456741333,-0.25242501497268677,0.6928316171495673,-0.5854837966695848,0.009404788828999271,0.4208382056749816
1681249888148085800,1.273085693359375,-3.5058600902557373,-1.5239934921264648,3.248950719833374,0.5381709337234497,0.7940379977226257,-0.2826229929924011,-0.03637039661407471,0.9480884671211243,-0.2776033580303192,0.6659787767075324,-0.5988919451672086,0.0041155710864027644,0.4447289340386099
1681249888163118800,1.288118896484375,-3.4533324241638184,-1.4788779020309448,3.0726025104522705,0.5696128010749817,0.7817675471305847,-0.25373411178588867,-0.2623007297515869,0.9310926198959351,-0.29323238134384155,0.6393405468479498,-0.6108456402735785,-0.0007395751933873308,0.46702344398481893
1681249888178152000,1.30315185546875,-3.527775526046753,-1.4621455669403076,2.82255220413208,0.5986789464950562,0.7684139013290405,-0.22610601782798767,-0.3996585011482239,0.8504674434661865,-0.30712753534317017,0.6125929994348381,-0.6220167952535877,-0.006488133756586021,0.4876300353748787
1681249888193184800,1.318184814453125,-3.5476720333099365,-1.4846545457839966,2.608044147491455,0.6249839067459106,0.7548969388008118,-0.19881084561347961,-0.5650473833084106,0.7642986178398132,-0.2820240259170532,0.5855766487479387,-0.6327784190864204,-0.013640090639333698,0.5064636632273813
1681249888208217900,1.3332177734375,-3.250706911087036,-1.590199589729309,2.363034248352051,0.6486315131187439,0.740635335445404,-0.1753191500902176,-0.6258653402328491,0.7650562524795532,-0.24953120946884155,0.55944690085158,-0.6417767478329853,-0.02151822784221171,0.5240982410438805
1681249888223251000,1.3482509765625,-2.89898681640625,-1.6121357679367065,2.1511545181274414,0.6694484949111938,0.7259739637374878,-0.1574828326702118,-0.7076258659362793,0.7990963459014893,-0.18751829862594604,0.5352224451109379,-0.6483723449848567,-0.02952777615113403,0.540627894533868
1681249888238283800,1.36328369140625,-2.6782219409942627,-1.453997015953064,1.8408045768737793,0.6876703500747681,0.7117790579795837,-0.14310869574546814,-0.7815119028091431,0.8464027643203735,-0.14976833760738373,0.5129587743482317,-0.6534984053733993,-0.03722212973002376,0.5553626351023846
1681249888253316900,1.37831689453125,-2.6905839443206787,-1.3375258445739746,1.41860032081604,0.7020962238311768,0.7002285122871399,-0.12938781082630157,-0.962685763835907,0.7583744525909424,-0.058096811175346375,0.4925668044578992,-0.6581959341208627,-0.04565312536563968,0.5675138755372046
1681249888268350000,1.393349853515625,-2.646191358566284,-1.3640117645263672,0.9576550722122192,0.7120513916015625,0.692571222782135,-0.1154475212097168,-1.0343170166015625,0.6790719032287598,-0.023025862872600555,0.473528449310222,-0.6626529322816525,-0.05627904858219479,0.5774899815773405
1681249888283382800,1.4083828125,-2.2026710510253906,-1.2766380310058594,0.5940701961517334,0.7177708745002747,0.6884298920631409,-0.10425641387701035,-1.1118900775909424,0.6730508804321289,-0.0044165849685668945,0.4573003965180701,-0.6657811743650007,-0.06787650090400613,0.5856660066451284
1681249888298415900,1.423415771484375,-1.471328854560852,-1.010521650314331,0.26989322900772095,0.7204906940460205,0.6865654587745667,-0.09757591038942337,-1.1564953327178955,0.7467231750488281,0.012416735291481018,0.4454741945503564,-0.6671999910144827,-0.07782169990470877,0.5918958525733172
1681249888313449000,1.438448974609375,-0.7590553164482117,-0.6267526745796204,-0.1529962718486786,0.7199265360832214,0.6875152587890625,-0.09501980990171432,-1.2986007928848267,0.787307858467102,0.0022007226943969727,0.4391571442282314,-0.6672591048278155,-0.0851785384809732,0.5955258395624349
1681249888328481800,1.453481689453125,-0.23338565230369568,-0.2259618639945984,-0.6717374324798584,0.7150025367736816,0.6926805973052979,-0.09468482434749603,-1.368048071861267,0.7285688519477844,-0.009990394115447998,0.43835173250686515,-0.6666427057567113,-0.09080248054048007,0.5959784463822951
1681249888343515000,1.468514892578125,-0.07394970953464508,0.1275530606508255,-1.1087541580200195,0.7053233981132507,0.7026921510696411,-0.09350192546844482,-1.404008150100708,0.5913141369819641,-0.03966145217418671,0.4416794901917166,-0.6663308788847572,-0.09618833564992758,0.5930178738331943
1681249888358548000,1.4835478515625,-0.03122967667877674,0.401705801486969,-1.5098233222961426,0.6914390325546265,0.7168062329292297,-0.09000658243894577,-1.345583200454712,0.506521463394165,-0.03894531726837158,0.44748160550653315,-0.6667360948490422,-0.1022726211400346,0.5871657933834807
1681249888373581000,1.4985810546875,0.07879770547151566,0.7444649934768677,-2.164489984512329,0.6709319353103638,0.7367544174194336,-0.08392655849456787,-1.1978330612182617,0.31063950061798096,-0.029064662754535675,0.4564512937398101,-0.6677749346079428,-0.11006069433067864,0.5775947898224774
1681249888388614000,1.51361376953125,0.24814939498901367,0.9946843981742859,-2.6247034072875977,0.6447898149490356,0.7604855895042419,-0.0768643319606781,-1.129347801208496,0.2474338412284851,-0.026132404804229736,0.46829481271792106,-0.668965010721145,-0.1185480817451612,0.564917974837234
1681249888403647000,1.52864697265625,0.49993953108787537,1.2800177335739136,-3.1404035091400146,0.6124020218849182,0.7873757481575012,-0.07073527574539185,-0.9169063568115234,0.23741984367370605,-0.024998240172863007,0.48339264255092035,-0.6696207012966863,-0.12743813915689792,0.5492716411216693
1681249888418680000,1.54368017578125,0.7717154622077942,1.5889207124710083,-3.6331660747528076,0.5728988647460938,0.8170268535614014,-0.06522361934185028,-0.7925338745117188,0.22511792182922363,-0.03914641588926315,0.5016734211905417,-0.669846430963262,-0.13672581488004354,0.5300336390405449
1681249888433713000,1.558712890625,0.9925380349159241,1.7851951122283936,-4.113556861877441,0.5257906317710876,0.8483117818832397,-0.06254220753908157,-0.5672181844711304,0.19741886854171753,-0.0027805566787719727,0.5231849161378015,-0.6688286268354977,-0.1462777004354179,0.5074926332226075
1681249888448746000,1.57374609375,1.2651455402374268,1.9209257364273071,-4.446704387664795,0.4716842472553253,0.8795155882835388,-0.06298225373029709,-0.42722004652023315,0.2241833209991455,-0.0003568604588508606,0.5468437459279112,-0.6664008934421414,-0.15626490579395783,0.48213413291485685
1681249888463779000,1.588779052734375,1.9630827903747559,1.8698197603225708,-4.659348487854004,0.41213688254356384,0.9083035588264465,-0.07161260396242142,-0.2066619098186493,0.46297353506088257,-0.049740441143512726,0.5731895925524091,-0.6609278218532694,-0.16543310632764868,0.45525845037291385
1681249888478813000,1.60381298828125,2.7091779708862305,1.7888518571853638,-4.835892200469971,0.34857693314552307,0.9325970411300659,-0.09357856214046478,-0.05237331986427307,0.6139575242996216,-0.13222092390060425,0.6027948974545847,-0.6505749217501039,-0.17309820700343184,0.42828454331480365
1681249888493846000,1.618845947265625,3.4700093269348145,1.9680479764938354,-5.095852851867676,0.2808540165424347,0.9510590434074402,-0.12887199223041534,0.1756432056427002,1.2342133522033691,-0.2516058087348938,0.6358293831984014,-0.635242833934428,-0.17897079543291136,0.4001964133644637
1681249888508878800,1.63387890625,3.6750924587249756,2.1569745540618896,-5.316218376159668,0.21010121703147888,0.9621509909629822,-0.1735607534646988,0.290890634059906,1.5536115169525146,-0.26503777503967285,0.6709169116797049,-0.6162355333898185,-0.18295734687213328,0.36966350000346215
1681249888523912000,1.648911865234375,3.5336251258850098,1.995566964149475,-5.692112922668457,0.13627685606479645,0.9659397602081299,-0.21997596323490143,0.5147088766098022,2.2194089889526367,-0.3198341429233551,0.7047886638610724,-0.5956232830548911,-0.18773631379047023,0.33654300925108827
1681249888538945000,1.663945068359375,3.313692569732666,1.8239505290985107,-5.980926513671875,0.058340419083833694,0.9620810151100159,-0.2664521038532257,0.7076812982559204,2.520096778869629,-0.36986982822418213,0.736482172209213,-0.5733632238125251,-0.19500912213968058,0.3013638535626699
1681249888553977900,1.678977783203125,3.2302751541137695,1.4806500673294067,-5.942130088806152,-0.02046208083629608,0.9493776559829712,-0.31347039341926575,1.056427001953125,2.578134059906006,-0.3978637754917145,0.765685953040747,-0.549303100076503,-0.20379132337622463,0.26544382065914895
1681249888569011000,1.694010986328125,2.418907403945923,1.0856261253356934,-5.615523338317871,-0.09610480815172195,0.9298568964004517,-0.35514795780181885,1.2044270038604736,2.219007968902588,-0.2693484127521515,0.7901291035522194,-0.525791788385054,-0.21440386699309938,0.23080301477269527
1681249888584044000,1.7090439453125,1.0474624633789062,0.7693748474121094,-4.868666172027588,-0.1638982892036438,0.9097942113876343,-0.3813292980194092,1.168292760848999,1.2392537593841553,0.12676697969436646,0.8070095687284445,-0.5079740356459364,-0.2264900236190998,0.19849532660538255
1681249888599076900,1.724076904296875,-0.5064374804496765,0.6220245361328125,-3.9081389904022217,-0.21957428753376007,0.8955036997795105,-0.38711804151535034,1.1209566593170166,0.7546733617782593,0.3014247715473175,0.8153468872185244,-0.4995273580302397,-0.2385652918043803,0.16961297907323433
1681249888614110000,1.73910986328125,-2.145089864730835,0.7201071977615356,-2.926452875137329,-0.26168394088745117,0.8907018303871155,-0.37171515822410583,0.8547929525375366,0.016647040843963623,0.5072895288467407,0.8155981945857234,-0.5021767748851114,-0.24891948661543703,0.14372691473698504
1681249888629143000,1.75414306640625,-3.3810524940490723,0.916442334651947,-2.00213360786438,-0.2902863025665283,0.8955910801887512,-0.3371211290359497,0.7049744129180908,-0.24547499418258667,0.5031521320343018,0.8087779853010775,-0.5156248076865625,-0.2560673483899788,0.1201619471524863
1681249888644176100,1.769176025390625,-3.23869252204895,0.9623759984970093,-1.121645450592041,-0.3068421483039856,0.9049015045166016,-0.29495969414711,0.4429505169391632,-0.5190982222557068,0.41085031628608704,0.798363002440424,-0.5340769353697327,-0.25938771537455513,0.10048080990936371
1681249888659209000,1.784208984375,-2.0907366275787354,0.996017336845398,-0.32250431180000305,-0.31241899728775024,0.9128788113594055,-0.2627674639225006,0.38476088643074036,-0.5044314861297607,0.34630945324897766,0.7898349917881308,-0.5494972320436164,-0.2582035182708508,0.08685881955471986
1681249888674242000,1.799241943359375,-0.6437666416168213,1.016098141670227,0.368221640586853,-0.30823346972465515,0.9183022379875183,-0.2484220266342163,0.3929807245731354,-0.3138556480407715,0.2804807722568512,0.7859815889102355,-0.5583245008542316,-0.25310618024829507,0.0802760086820076
1681249888689275100,1.814275146484375,0.40001022815704346,1.2142919301986694,0.7957700490951538,-0.29566875100135803,0.9212886095046997,-0.2526012063026428,0.42462074756622314,-0.32195383310317993,0.2774883508682251,0.7874322793451982,-0.5604941076502524,-0.2440199857740777,0.07906387441836482
1681249888704308000,1.829307861328125,0.7626590132713318,1.3785914182662964,1.0181807279586792,-0.2779485881328583,0.9227814078330994,-0.26686912775039673,0.43444275856018066,-0.5612243413925171,0.39510414004325867,0.7918480005995211,-0.5592107812535192,-0.2320533022723253,0.08007113508047861
1681249888719341000,1.844341064453125,0.7512476444244385,1.3017975091934204,1.16731858253479,-0.2570917308330536,0.9239957332611084,-0.2830832004547119,0.4660455584526062,-0.7139583826065063,0.4488852620124817,0.7967313304769444,-0.5572799317352521,-0.21885490761618345,0.08222562651880808
1681249888734374100,1.8593740234375,0.48772820830345154,1.0182074308395386,1.2980432510375977,-0.23494850099086761,0.9257663488388062,-0.29623642563819885,0.6561063528060913,-1.021209955215454,0.540163516998291,0.8004838008372722,-0.5561689469138097,-0.2062956187575919,0.08569707474868482
1681249888749406700,1.87440673828125,0.21390609443187714,0.6203315854072571,1.4566882848739624,-0.21191079914569855,0.9288105964660645,-0.30398139357566833,0.7216306328773499,-1.1672139167785645,0.5554157495498657,0.8023005993536458,-0.5566598662743325,-0.1952923469297663,0.09112884307881639
1681249888764439800,1.889439697265625,-0.08217828720808029,0.28171682357788086,1.5480235815048218,-0.18895694613456726,0.9329860210418701,-0.3063211441040039,0.7590710520744324,-1.412310242652893,0.5591593384742737,0.8021655672821689,-0.5586737975579301,-0.18634114344338326,0.09844380628372304
1681249888779473000,1.904472900390625,-0.357018381357193,0.07945078611373901,1.8126105070114136,-0.16476622223854065,0.9384645223617554,-0.30353987216949463,0.6901110410690308,-1.4485963582992554,0.5622680187225342,0.8001469063665495,-0.5624787589229242,-0.1784592667510144,0.10740052972316283
1681249888794505700,1.919505615234375,-0.5065038800239563,-0.07341785728931427,2.1983182430267334,-0.13663490116596222,0.9449477195739746,-0.2973296344280243,0.571174681186676,-1.3910382986068726,0.5597503781318665,0.796594499451112,-0.5677156124170486,-0.17039414647487133,0.11875240223628315
1681249888809538800,1.934538818359375,-0.492493212223053,-0.22177377343177795,2.621058225631714,-0.10310618579387665,0.9515186548233032,-0.289795458316803,0.5162989497184753,-1.3417468070983887,0.5188452005386353,0.7919464553076808,-0.5736004131950676,-0.16150799813936415,0.13311112082242182
1681249888824572000,1.949572021484375,-0.21347783505916595,-0.300749272108078,3.0008251667022705,-0.0639943853020668,0.9566642642021179,-0.2840745151042938,0.4662618637084961,-1.2225486040115356,0.3874681890010834,0.7870164799692357,-0.5788456239381692,-0.15132904953230455,0.15047407842166005
1681249888839604700,1.964604736328125,0.2877381443977356,-0.32469987869262695,3.3879213333129883,-0.019387967884540558,0.9585443735122681,-0.2842830419540405,0.41616225242614746,-1.161821961402893,0.3377651870250702,0.7829485615760161,-0.581788918835796,-0.1392125204438054,0.17068434232140808
1681249888854637800,1.979637939453125,0.49296727776527405,-0.6614025831222534,3.8718650341033936,0.03074798546731472,0.9562129378318787,-0.2910522222518921,0.3787216246128082,-1.062978744506836,0.21527716517448425,0.7795743835930528,-0.582018602831609,-0.125412277889304,0.194396177685668
1681249888869671000,1.9946708984375,0.34541192650794983,-0.606460452079773,4.054862022399902,0.08429375290870667,0.9509985446929932,-0.29748374223709106,0.33886298537254333,-1.0398198366165161,0.14227145910263062,0.774642257952759,-0.5821113292432621,-0.1113755940553637,0.2206160774472271
1681249888884704000,2.0097041015625,0.7971420288085938,0.05620139092206955,3.9882237911224365,0.14085865020751953,0.9417846202850342,-0.30528756976127625,0.24003124237060547,-1.0696685314178467,-0.1009470522403717,0.7695580423431065,-0.5817744032410651,-0.09431201998092673,0.2458133280770101
1681249888899736800,2.02473681640625,0.27945175766944885,-0.6651788949966431,4.315449237823486,0.19788335263729095,0.9281923770904541,-0.3151211738586426,0.31337764859199524,-0.958999752998352,-0.08578819036483765,0.764305143764732,-0.5801996363151546,-0.07620888273293583,0.27092143585083955
1681249888914770000,2.03977001953125,-0.24567219614982605,-1.349607229232788,3.9415929317474365,0.25133323669433594,0.9143166542053223,-0.3175794780254364,0.6744327545166016,-0.3563942313194275,0.2605727016925812,0.754392152291323,-0.5806253319689333,-0.06391001636116442,0.2994699316984766
1681249888929803000,2.054802978515625,-0.07715343683958054,-1.6416566371917725,3.735011339187622,0.29488465189933777,0.8999693393707275,-0.32108914852142334,0.6243505477905273,0.12455153465270996,0.171843022108078,0.7439220813441387,-0.5798416071192126,-0.05691342628547386,0.327298840315821
1681249888944835800,2.0698359375,1.552113652229309,-1.0320301055908203,3.905505418777466,0.3398856222629547,0.8780909776687622,-0.33680006861686707,0.7977792024612427,2.07425594329834,-0.5046000480651855,0.7364643850470098,-0.5740123230100136,-0.04593282519187242,0.3549936051410811
1681249888959869000,2.084868896484375,2.0210659503936768,-0.9364266991615295,3.222565174102783,0.382866770029068,0.8482263088226318,-0.3659578263759613,0.8588477373123169,2.768320322036743,-1.1705868244171143,0.734141380357079,-0.5622527300093274,-0.029882384111019195,0.3794935315470544
1681249888974902800,2.09990283203125,0.9915918707847595,-2.2231204509735107,1.7958285808563232,0.40465813875198364,0.8249189853668213,-0.3946651220321655,1.0977833271026611,3.4896867275238037,-1.7525362968444824,0.7331969034622332,-0.5496424939940922,-0.023676407253736986,0.39969349771979035
1681249888989935900,2.114935791015625,-0.5432977080345154,-3.0163400173187256,1.4978357553482056,0.40796440839767456,0.8137168288230896,-0.41404131054878235,1.1910804510116577,3.2465555667877197,-1.443334698677063,0.7287028725286544,-0.5403763976759931,-0.031187988289354075,0.4195390180218351
1681249889004969000,2.129968994140625,-1.636991024017334,-3.074122667312622,0.9957345724105835,0.4043041169643402,0.8130559325218201,-0.4189014732837677,0.6032795906066895,2.0477993488311768,-0.6292094588279724,0.7190516687381019,-0.5370195733059385,-0.04646771634975361,0.4386520779221792
1681249889020001800,2.145001708984375,-2.1856741905212402,-2.7728285789489746,0.5107452273368835,0.39473140239715576,0.8208922743797302,-0.4127022624015808,0.12600532174110413,1.627761960029602,-0.3854086399078369,0.7075712918969015,-0.5378799545378266,-0.06583334137784398,0.453535179325584
1681249889035035000,2.160034912109375,-2.3742966651916504,-2.520102024078369,0.41712474822998047,0.38422876596450806,0.8323476314544678,-0.39945676922798157,-0.3554353713989258,1.0266458988189697,-0.20744621753692627,0.6951626003164093,-0.5412010846398899,-0.0858661871199874,0.46527131111611814
1681249889050068000,2.17506787109375,-2.402174472808838,-2.483588933944702,0.3517702519893646,0.37454885244369507,0.8442100286483765,-0.38343554735183716,-0.4373081922531128,0.7324044704437256,-0.11845648288726807,0.6822334433683443,-0.5451031705813798,-0.10556875694789918,0.47568419017584807
1681249889065100800,2.190100830078125,-2.5681047439575195,-2.607454299926758,0.23189015686511993,0.36378175020217896,0.8565168976783752,-0.3661171495914459,-0.5752074718475342,0.16930103302001953,0.09718111157417297,0.668831231773001,-0.5486250802513348,-0.12630102114045505,0.48551359803092264
1681249889080134000,2.2051337890625,-3.005666494369507,-2.57658052444458,0.1118074432015419,0.35233667492866516,0.8703337907791138,-0.34406110644340515,-0.6212880611419678,-0.060534536838531494,0.1986449658870697,0.6540003664022327,-0.5530641700479316,-0.14862528758270704,0.4942813963516766
1681249889095167000,2.2201669921875,-2.9371516704559326,-2.4636499881744385,-0.16374291479587555,0.3394889533519745,0.8855555653572083,-0.317078173160553,-0.7016258239746094,-0.43909865617752075,0.30661073327064514,0.638249106881611,-0.558318192650612,-0.17245785442627262,0.5011757747595195
1681249889110199800,2.23519970703125,-2.250126361846924,-2.045936107635498,-0.3113086521625519,0.3255528509616852,0.8988858461380005,-0.2932911515235901,-0.7619999647140503,-0.5882626175880432,0.30441489815711975,0.6251153536901373,-0.5618113470660716,-0.1942226314639453,0.5058423537790825
1681249889125233000,2.25023291015625,-1.4093680381774902,-1.6119318008422852,-0.30299001932144165,0.31358131766319275,0.9081518054008484,-0.2773575782775879,-0.8350809216499329,-0.7622318863868713,0.38625967502593994,0.6157846996116845,-0.5628526436438899,-0.2109931508158576,0.5093997858413046
1681249889140266000,2.265265869140625,-0.8238483667373657,-1.2483229637145996,-0.41606223583221436,0.30299195647239685,0.9142348170280457,-0.26901814341545105,-0.8085461854934692,-0.8831526041030884,0.4007015526294708,0.6101782151769156,-0.5618454188716263,-0.22320540716677895,0.5120466308778023
1681249889155299000,2.280299072265625,-0.6394912600517273,-0.9779738187789917,-0.718458890914917,0.2908185124397278,0.9195707440376282,-0.26422446966171265,-0.774552583694458,-1.198791265487671,0.3670382499694824,0.6074546883696641,-0.5598458650756961,-0.23336746887194107,0.5129437221147982
1681249889170332000,2.295331787109375,-0.6289525628089905,-0.7580667734146118,-0.975264847278595,0.2754572033882141,0.9257426261901855,-0.25908321142196655,-0.7782495021820068,-1.320151686668396,0.28831911087036133,0.6065584060824933,-0.5578759274288397,-0.24337798259048152,0.5114964591725197
1681249889185365000,2.310364990234375,-0.6074235439300537,-0.5553032755851746,-1.0409879684448242,0.2586211860179901,0.9322177171707153,-0.2531508803367615,-0.8120574355125427,-1.4152803421020508,0.19847875833511353,0.6066704090475294,-0.5562347120941518,-0.2530365561138929,0.5084551162135094
1681249889200398000,2.325398193359375,-0.6224296689033508,-0.29041752219200134,-1.0732444524765015,0.2421000897884369,0.9385495781898499,-0.24599286913871765,-0.8174784779548645,-1.4033780097961426,0.17922049760818481,0.6072756936178856,-0.5553995489841941,-0.2617917233173104,0.5041952186839931
1681249889215431000,2.340430908203125,-0.4910826086997986,0.03386865183711052,-1.1443356275558472,0.22493740916252136,0.9448488354682922,-0.23804202675819397,-0.8404921889305115,-1.19779372215271,0.2091115117073059,0.6089295003212064,-0.5552438000646375,-0.269598416727356,0.4982228265552035
1681249889230464000,2.355464111328125,-0.2540341019630432,0.4137667417526245,-1.3187772035598755,0.20820705592632294,0.9501967430114746,-0.2318970263004303,-0.8130654096603394,-1.057496428489685,0.23528456687927246,0.6123601571761591,-0.5552958033081996,-0.2751328056745552,0.4908805286793887
1681249889245497000,2.3704970703125,-0.012400967068970203,0.7906031608581543,-1.615014672279358,0.18944816291332245,0.954943060874939,-0.228458434343338,-0.7309978008270264,-0.7738211750984192,0.2714272737503052,0.6184346447244263,-0.5549837231541904,-0.27886169784206344,0.48142279798390286
1681249889260530000,2.385530029296875,0.17450474202632904,1.2049586772918701,-2.0720152854919434,0.1663108468055725,0.9596316814422607,-0.22682110965251923,-0.6651816964149475,-0.6504122614860535,0.28893977403640747,0.6274456602183197,-0.5543385054224405,-0.2815994791869631,0.46874570972472973
1681249889275563000,2.40056298828125,0.17976586520671844,1.4707168340682983,-2.4957849979400635,0.13783343136310577,0.964150607585907,-0.22675085067749023,-0.5208747982978821,-0.46099191904067993,0.2314658761024475,0.6391046291312646,-0.5531584110943338,-0.28397243685947665,0.4526819255518769
1681249889290596000,2.41559619140625,-0.2592603862285614,1.61172616481781,-2.9028947353363037,0.10375862568616867,0.969136655330658,-0.22362607717514038,-0.4154498875141144,-0.4080250859260559,0.21338748931884766,0.6513723491684559,-0.5526203516084842,-0.28774590930924543,0.43304420773896285
1681249889305629000,2.43062890625,-0.7976883053779602,1.5227861404418945,-3.0790998935699463,0.06467515230178833,0.9746330380439758,-0.2142607718706131,-0.36863023042678833,-0.19127726554870605,0.24393917620182037,0.6623050619033855,-0.5534653697079783,-0.29418650086168324,0.4104661242926222
1681249889320662000,2.445662109375,-1.7531676292419434,1.5692870616912842,-2.6708626747131348,0.026642581447958946,0.9805863499641418,-0.19426986575126648,-0.4236152470111847,0.0649765133857727,0.15484124422073364,0.6690658893416247,-0.557979138374868,-0.3025299127831445,0.38663405351962393
1681249889335695000,2.460695068359375,-1.2348469495773315,2.208949565887451,-2.452601194381714,-0.005677276756614447,0.9854949712753296,-0.16961099207401276,-0.8725118041038513,1.2115572690963745,-0.10284985601902008,0.673334647092924,-0.5655807165966368,-0.3087279643753672,0.3625275587246731
1681249889350728000,2.47572802734375,0.15442626178264618,3.0450329780578613,-3.2281219959259033,-0.039735693484544754,0.9859397411346436,-0.16230925917625427,-1.0847760438919067,1.9260478019714355,-0.31045371294021606,0.684468852371963,-0.5691322816096962,-0.30811331393361485,0.3356444986621148
1681249889365761000,2.490760986328125,1.8531038761138916,3.173635721206665,-4.405030250549316,-0.08902189880609512,0.9796223640441895,-0.18004240095615387,-0.5500161647796631,3.563300609588623,-0.43003445863723755,0.7051887446901904,-0.5624458565656465,-0.30599584724578527,0.3045162086484866
1681249889380794000,2.505794189453125,2.517160654067993,3.166463613510132,-4.678624153137207,-0.14718933403491974,0.9644203782081604,-0.21961109340190887,0.06767573952674866,3.9586756229400635,-0.5075769424438477,0.732173645019437,-0.5462043350511386,-0.30307635528485816,0.27152815185743084
1681249889395827000,2.520826904296875,1.6947152614593506,2.4737155437469482,-4.326409339904785,-0.20161017775535583,0.9446983933448792,-0.258647084236145,0.8867145776748657,3.323810577392578,-0.3281295597553253,0.7562438703937703,-0.5292286482100853,-0.3009875457034523,0.23962213350193834
1681249889410859800,2.53585986328125,-0.053801245987415314,1.6985739469528198,-3.8935654163360596,-0.2514484226703644,0.9271464347839355,-0.27780091762542725,1.0224597454071045,2.4676899909973145,-0.1247868537902832,0.7712768093618363,-0.5183300313588478,-0.3040288262001348,0.20983961086083228
1681249889425894100,2.55089404296875,-1.7038240432739258,1.4809353351593018,-3.0914340019226074,-0.293599933385849,0.9165876507759094,-0.2714155316352844,0.9267175793647766,1.3383104801177979,0.17278283834457397,0.7764630996978849,-0.5179365895606104,-0.3098934083376258,0.18114346076320378
1681249889440927000,2.565927001953125,-2.7581238746643066,1.437374234199524,-2.2851595878601074,-0.32478389143943787,0.912960946559906,-0.2470180094242096,0.8739324808120728,0.9637633562088013,0.29044461250305176,0.7743716601187038,-0.5267006108411694,-0.31476572842088096,0.15445912546505924
1681249889455960800,2.5809609375,-2.967430591583252,1.3070197105407715,-1.435760259628296,-0.345655232667923,0.9136840105056763,-0.21378549933433533,0.7883584499359131,0.21525287628173828,0.34652179479599,0.7679194978434928,-0.540715947617353,-0.31738543912562844,0.13112031262310814
1681249889470993700,2.59599365234375,-2.494858503341675,1.0868687629699707,-0.5572084784507751,-0.35558438301086426,0.9167197942733765,-0.18216630816459656,0.7969601154327393,-0.08157575130462646,0.2850869297981262,0.7603367066172575,-0.5553513959162947,-0.3170199873430848,0.11389139127231512
1681249889486026800,2.61102685546875,-1.9060145616531372,0.9731274843215942,0.1479625105857849,-0.3558415174484253,0.9212310910224915,-0.15719549357891083,0.751791775226593,-0.4385954737663269,0.2414240837097168,0.753620834518916,-0.568210040121871,-0.3139101780351834,0.10321623022241941
1681249889501059800,2.626059814453125,-1.111566424369812,1.0915899276733398,0.8734408617019653,-0.3463568389415741,0.9273484945297241,-0.1416403204202652,0.6785253882408142,-0.5588333606719971,0.17876505851745605,0.7491175937692373,-0.5787118663525487,-0.30703813185817064,0.09819954738317081
1681249889516092700,2.6410927734375,-0.40969809889793396,1.2398399114608765,1.4503244161605835,-0.32758310437202454,0.934830904006958,-0.1370430886745453,0.5626142024993896,-0.9133464097976685,0.14618319272994995,0.7476182855424256,-0.5864500457362535,-0.295896599652527,0.09792164812158452
1681249889531125800,2.656125732421875,-0.09851343184709549,1.2994364500045776,2.0117835998535156,-0.3004298210144043,0.9434506297111511,-0.1401536613702774,0.5522303581237793,-1.0799860954284668,0.19723689556121826,0.7481888416316931,-0.5923789123077666,-0.28108787372062216,0.10144166778070086
1681249889546158800,2.671158935546875,0.033290036022663116,1.0327330827713013,2.25065016746521,-0.26701536774635315,0.9527359008789062,-0.14490456879138947,0.7208117246627808,-1.4043654203414917,0.3303599953651428,0.7488105390488133,-0.5978602865055748,-0.2647844338278398,0.10832915084970457
1681249889561191700,2.686191650390625,-0.03181413188576698,0.6848616003990173,2.305588960647583,-0.23245415091514587,0.96123868227005,-0.14827431738376617,0.7839831113815308,-1.5871083736419678,0.35016345977783203,0.7485970417125593,-0.6029334405541136,-0.24966799135951878,0.11721632572780522
1681249889576224500,2.701224609375,-0.2080080658197403,0.34792327880859375,2.4605154991149902,-0.19691017270088196,0.9691484570503235,-0.1482486128807068,0.8500168323516846,-1.6784379482269287,0.31699568033218384,0.7468241823349343,-0.6083905725456737,-0.2360860149781869,0.1279764360792626
1681249889591257600,2.716257568359375,-0.31466495990753174,-0.05246783047914505,2.7265069484710693,-0.15870970487594604,0.9766687750816345,-0.14466966688632965,0.786700427532196,-1.6890254020690918,0.33062857389450073,0.7432066758295782,-0.614529990895912,-0.22364717791591257,0.1413457815633457
1681249889606290700,2.731290771484375,-0.4009226858615875,-0.39958930015563965,3.036142349243164,-0.1171630248427391,0.9833716154098511,-0.1387568563222885,0.6415923237800598,-1.6209903955459595,0.31377530097961426,0.7379000564770749,-0.6209827027374936,-0.2121368753751714,0.15774078806375125
1681249889621323500,2.746323486328125,-0.19121816754341125,-0.6243899464607239,3.339138984680176,-0.07071167230606079,0.9886062145233154,-0.1328827440738678,0.5448632836341858,-1.5061842203140259,0.30645155906677246,0.7314219567391134,-0.6272011525180693,-0.20044286800107278,0.17737926347908642
1681249889636356600,2.761356689453125,-1.8054862022399902,-1.775862216949463,4.2703962326049805,-0.017461353912949562,0.9924604892730713,-0.12131495028734207,0.44870525598526,-1.2863142490386963,0.2721787095069885,0.7210970349489385,-0.6350924041865227,-0.18973708526240024,0.201684309488016
1681249889651389700,2.7763896484375,-2.983621835708618,-2.8530585765838623,4.687697410583496,0.04844898357987404,0.9954254031181335,-0.08234686404466629,0.37659984827041626,-1.2001068592071533,0.27260881662368774,0.6969302809201019,-0.6515027352530123,-0.1853935139837086,0.23550299572813338
1681249889666422500,2.791422607421875,-1.9578052759170532,-1.4242969751358032,3.4483447074890137,0.10741398483514786,0.9931680560112,-0.04560414329171181,0.09964779764413834,-1.3822364807128906,-0.35393184423446655,0.67332362381773,-0.6666270297528127,-0.18112518266167965,0.26350995281228146
1681249889681455600,2.80645556640625,1.3089237213134766,-1.9105592966079712,2.917402505874634,0.15226933360099792,0.9874500632286072,-0.04190949350595474,0.19853022694587708,-0.9052509665489197,-0.6375643014907837,0.6626176654804256,-0.6698053995254788,-0.17437310418531757,0.2861687340763665
1681249889696488700,2.82148876953125,5.280093193054199,-1.372554063796997,3.1574482917785645,0.19501478970050812,0.976108729839325,-0.0958191528916359,0.6336137652397156,-0.2696114182472229,-0.06781595945358276,0.6702694792889632,-0.6529422528389293,-0.16048936786794374,0.31408370324940943
1681249889711521500,2.836521484375,5.402566432952881,-1.442322015762329,3.5000014305114746,0.24164952337741852,0.9530147314071655,-0.18267077207565308,0.27954497933387756,-0.20063424110412598,0.12509942054748535,0.6876789067442587,-0.6244591349970433,-0.13680425736992607,0.34414127194439237
1681249889726554600,2.8515546875,5.482005596160889,-1.6337556838989258,2.1162874698638916,0.2766354978084564,0.9246335625648499,-0.261774480342865,-0.028252899646759033,0.3381381630897522,0.5193276405334473,0.7024319865120081,-0.5960355640353492,-0.1177045866326582,0.37077857196165626
1681249889741587700,2.866587646484375,10.278911590576172,-2.346146821975708,3.084927558898926,0.30053967237472534,0.8781062960624695,-0.3722972273826599,0.20374807715415955,1.0908725261688232,0.3099193871021271,0.7262790573809285,-0.5519681721055613,-0.09582547399741906,0.39833069236303326
1681249889756620500,2.88162060546875,14.005349159240723,-0.06367015838623047,3.1010851860046387,0.33127498626708984,0.7767940759658813,-0.5355819463729858,1.3519525527954102,3.6858067512512207,-0.6368881464004517,0.7636888237456976,-0.479004105458501,-0.052574669526034505,0.4296167279379868
1681249889771653600,2.896653564453125,13.114316940307617,1.382366418838501,2.1744096279144287,0.3665785491466522,0.634522557258606,-0.6804420948028564,0.7797837853431702,4.095488548278809,-1.142052412033081,0.8017067350819796,-0.39966075806105483,0.007087043609028552,0.44439574864434583
1681249889786686700,2.911686767578125,7.120843410491943,0.33066385984420776,3.3263609409332275,0.3996633291244507,0.5072569847106934,-0.7635179162025452,0.1536509394645691,2.6236329078674316,-2.0272841453552246,0.8212486365468046,-0.33941013447995444,0.05515245094271407,0.45531281594597367
1681249889801719600,2.926719482421875,1.0836623907089233,-1.2944289445877075,3.040280818939209,0.41893652081489563,0.4392551779747009,-0.7946993708610535,0.6471951007843018,1.1482387781143188,-1.5929501056671143,0.8190708909851351,-0.3115560076161768,0.07472057490315798,0.47589134299017716
1681249889816753700,2.941753662109375,-1.8796522617340088,-2.6401162147521973,2.301819086074829,0.4108293652534485,0.4315948486328125,-0.8030847907066345,1.4953596591949463,-0.4570464789867401,-1.0534214973449707,0.8093900022928902,-0.30684711218076527,0.06559306913203963,0.49641762608691803
1681249889831786800,2.956786865234375,-2.3145742416381836,-2.8982815742492676,2.24470853805542,0.3918422758579254,0.4441137909889221,-0.8057435154914856,1.194156289100647,0.0013208389282226562,-0.8377348184585571,0.7967218431980477,-0.3083090037749696,0.045538998995681375,0.5177896671940855
1681249889846819600,2.971819580078125,-2.2956013679504395,-2.767294406890869,2.1689114570617676,0.37236353754997253,0.4591537415981293,-0.8065502643585205,0.34273964166641235,0.3146805465221405,-0.515394926071167,0.7834960740212428,-0.31001882239803014,0.024762946901587493,0.5379676705542047
1681249889861852700,2.986852783203125,-2.726529121398926,-2.641249656677246,1.9590421915054321,0.35430553555488586,0.477690726518631,-0.8039149045944214,0.10126090049743652,0.1989755630493164,-0.33562666177749634,0.769407930686135,-0.31309576354389174,0.0036874789326444882,0.5567484842918442
1681249889876885800,3.0018857421875,-3.723219394683838,-2.530329942703247,1.7432767152786255,0.3366703391075134,0.5065225958824158,-0.7937808036804199,-0.16905251145362854,-0.07897132635116577,0.0358310341835022,0.7538814356150413,-0.32046050733001313,-0.020363152845552276,0.5731956596505752
1681249889891918600,3.016918701171875,-4.8294172286987305,-2.343853235244751,1.6369364261627197,0.3213690221309662,0.5486775636672974,-0.7717998027801514,-0.2666509747505188,-0.2244282364845276,0.26925164461135864,0.7352889540675057,-0.33427390454171246,-0.0485906176575817,0.5875799791807479
1681249889906951700,3.03195166015625,-5.452105522155762,-2.3181018829345703,1.4334543943405151,0.30816376209259033,0.6004501581192017,-0.7378989458084106,-0.45907312631607056,-0.5159621834754944,0.7216178178787231,0.7139183785715472,-0.35294514598014354,-0.08050006660190809,0.5993915862782728
1681249889921984800,3.04698486328125,-5.285708904266357,-2.127784490585327,1.2852020263671875,0.29691073298454285,0.6527764201164246,-0.6969412565231323,-0.510915219783783,-0.61905437707901,0.8853720426559448,0.6913241314941393,-0.372444174348629,-0.1132021242987763,0.6087213690477251
1681249889937017600,3.062017578125,-4.3583526611328125,-1.9502451419830322,1.0772778987884521,0.28810688853263855,0.6971226930618286,-0.6565169095993042,-0.6119746565818787,-0.5763493180274963,1.1196211576461792,0.669980356961057,-0.3890787951043596,-0.14268576985707918,0.6159423622514368
1681249889952050700,3.07705078125,-3.056455135345459,-1.414229393005371,0.4736793637275696,0.28033626079559326,0.7292678356170654,-0.6241634488105774,-0.6855181455612183,-0.5373122096061707,1.1132078170776367,0.6532636943324881,-0.4004661116830763,-0.16596737229902175,0.6207481332419232
1681249889967083800,3.092083740234375,-2.2226064205169678,-0.8992734551429749,-0.12749676406383514,0.27149927616119385,0.7523791193962097,-0.6001783013343811,-0.8806911706924438,-0.45669418573379517,0.8936201333999634,0.6432250001067932,-0.407895210435001,-0.18311840213535663,0.6215713284876389
1681249889982116600,3.10711669921875,-2.315232753753662,-0.5702002048492432,-0.580314040184021,0.26083534955978394,0.7735870480537415,-0.5775189399719238,-0.9184433221817017,-0.4532744884490967,0.8955121040344238,0.6370164714293884,-0.414704580660634,-0.19814299934117802,0.61884539992537
1681249889997149700,3.122149658203125,-1.7569907903671265,-0.3000989258289337,-0.6426786184310913,0.24930551648139954,0.7939596176147461,-0.55450439453125,-0.9696270823478699,-0.5752398371696472,0.8615725040435791,0.6327346994671268,-0.4216260195478591,-0.21208321517978793,0.6139212374615131
1681249890012182800,3.137182861328125,-1.1299084424972534,0.07427147030830383,-0.5491894483566284,0.24104243516921997,0.8082467913627625,-0.5372482538223267,-0.9355462193489075,-0.6949654817581177,0.6801927089691162,0.6306537210219191,-0.42707639938422565,-0.22131793049574497,0.6090156174828183
1681249890027215600,3.152215576171875,-0.5745356678962708,0.36286360025405884,-0.6738061904907227,0.23540179431438446,0.8172719478607178,-0.5259777307510376,-0.9553114175796509,-0.7438313961029053,0.47774481773376465,0.6310484644466858,-0.4311407915170315,-0.226116668599818,0.6039592526728754
1681249890042248700,3.167248779296875,-0.20388831198215485,0.5301327109336853,-0.787720263004303,0.22989165782928467,0.8227360844612122,-0.5198609828948975,-0.9493283033370972,-0.7847720980644226,0.43535780906677246,0.6339300849225741,-0.43367152750475085,-0.22803185341386745,0.5983839423824101
1681249890057281800,3.18228173828125,-0.012950110249221325,0.6095311641693115,-0.9584669470787048,0.22366978228092194,0.8265805840492249,-0.5164654850959778,-0.7867801189422607,-0.6752285361289978,0.38272225856781006,0.6384129124775131,-0.4353210764934048,-0.22861060419365237,0.5921671804680226
1681249890072314600,3.197314697265625,0.2815367877483368,0.6342761516571045,-1.365891933441162,0.21421849727630615,0.8291923999786377,-0.5162854194641113,-0.6935275197029114,-0.6020041108131409,0.33850526809692383,0.6449869751218738,-0.4353529875004594,-0.22874674851982318,0.5849228758329361
1681249890087347700,3.21234765625,0.24236175417900085,0.7157657146453857,-1.920307993888855,0.1989801973104477,0.8322319984436035,-0.5174909830093384,-0.5503901243209839,-0.5155051946640015,0.19926905632019043,0.6541955874135658,-0.4341915231350452,-0.2296349698583647,0.5751293401310241
1681249890102380800,3.227380859375,-0.0685039684176445,0.7614951133728027,-2.548395872116089,0.17682112753391266,0.837420642375946,-0.5171664953231812,-0.48457562923431396,-0.469180166721344,0.19635051488876343,0.6654565729385105,-0.4327973985283679,-0.2326008621601129,0.5619172793457867
1681249890117413600,3.24241357421875,-0.9259130954742432,0.6759573221206665,-3.1394946575164795,0.14615842700004578,0.848092257976532,-0.5092910528182983,-0.3933660387992859,-0.33059030771255493,0.17256009578704834,0.6770420431520583,-0.43314885857517593,-0.24028431653882365,0.5442973931759643
1681249890132446700,3.25744677734375,-1.2502939701080322,0.5646121501922607,-3.3958253860473633,0.10826942324638367,0.8634741902351379,-0.4926358759403229,-0.42151710391044617,-0.09040284156799316,0.11937540769577026,0.6874835087893171,-0.43564891004869155,-0.2527688433797524,0.5231486086339043
1681249890147479800,3.272479736328125,-0.016807114705443382,0.8718549013137817,-3.4784295558929443,0.06821548938751221,0.8732837438583374,-0.4824129641056061,-0.8388301134109497,0.8887402415275574,-0.5160305500030518,0.6995671369935378,-0.4352037274262356,-0.26342215501075483,0.5018091803743194
1681249890162513000,3.287512939453125,2.8521957397460938,1.4695087671279907,-4.174854755401611,0.027836985886096954,0.8657280802726746,-0.4997401237487793,-0.9882556796073914,1.9269204139709473,-1.1307377815246582,0.7202643660577972,-0.424696667514515,-0.2641262488053762,0.48071772958326
1681249890177546800,3.302546630859375,4.352497100830078,1.9113554954528809,-5.2905378341674805,-0.019848749041557312,0.8365234732627869,-0.5475714802742004,-0.4940367639064789,4.104302883148193,-2.3439536094665527,0.752004675151098,-0.4006348839250934,-0.25633170113934484,0.4563713002316691
1681249890192579800,3.317579833984375,2.524653434753418,1.713138222694397,-5.070212364196777,-0.06786750257015228,0.8013958930969238,-0.5942716002464294,0.1917383372783661,4.455699443817139,-2.468533515930176,0.7840819908406332,-0.3759577811726868,-0.24803217134025646,0.4270261623349058
1681249890207612700,3.33261279296875,-0.599827766418457,-0.24307693541049957,-4.822564125061035,-0.11941999197006226,0.7860389947891235,-0.6065325140953064,1.405659556388855,2.347475528717041,-1.3892712593078613,0.8032918907270439,-0.3634858591429499,-0.25418846852507915,0.39747774466488534
1681249890222645800,3.347645751953125,-2.770101547241211,-1.3061751127243042,-4.865602493286133,-0.18526841700077057,0.7909127473831177,-0.5832090377807617,1.7604331970214844,1.2150688171386719,-0.8771485686302185,0.8106392893163836,-0.3620538660512955,-0.2780512051699683,0.3666996497421244
1681249890237678800,3.362678955078125,-3.698136568069458,-0.7763893604278564,-3.96024227142334,-0.2481529712677002,0.8043399453163147,-0.5398680567741394,1.3895561695098877,0.7406888008117676,-0.19772648811340332,0.8109186796145216,-0.36956307864277754,-0.3057598574370817,0.3351793096286861
1681249890252711700,3.377711669921875,-3.759235143661499,-0.285250723361969,-3.147623300552368,-0.29496076703071594,0.8190843462944031,-0.4920355975627899,0.9593894481658936,0.6063612699508667,-0.06825175881385803,0.8076304486619191,-0.3828354229755688,-0.32774873984502423,0.3061876551810876
1681249890267744800,3.392744873046875,-3.469891309738159,-0.2087266743183136,-2.278071880340576,-0.3305625915527344,0.8319177031517029,-0.4456920623779297,0.5378379821777344,0.1483527421951294,0.12644776701927185,0.8024021833076987,-0.397472842218389,-0.34520907195758815,0.2810637851163792
1681249890282777900,3.40777783203125,-2.5332090854644775,-0.21355871856212616,-1.3681575059890747,-0.35428377985954285,0.8424416780471802,-0.4059249758720398,0.5735831260681152,-0.0332069993019104,0.10496070981025696,0.7961183794770075,-0.4107715637233934,-0.3581958108620047,0.2629791916759013
1681249890297810700,3.422810791015625,-1.3765040636062622,0.2342962920665741,-1.451833724975586,-0.3722674250602722,0.8462731242179871,-0.3811022937297821,0.6281419992446899,-0.4104057550430298,-0.11056631803512573,0.7926706083871512,-0.41847306595155837,-0.36650941685970206,0.24944863118367205
1681249890312843800,3.43784375,-0.3181939721107483,0.9699492454528809,-0.5409485697746277,-0.38262200355529785,0.8448302149772644,-0.3739820122718811,0.4898454546928406,-0.47337013483047485,-0.05112779140472412,0.7937036175302584,-0.42152975952563376,-0.3678609276778878,0.23880057010088318
1681249890327876600,3.452876708984375,0.25189709663391113,1.5359573364257812,0.4342763125896454,-0.37543103098869324,0.8447025418281555,-0.3814830482006073,0.5099982023239136,-0.6519839763641357,0.39404112100601196,0.7972649144290731,-0.4236873793476897,-0.36020476789136074,0.23475590506228958
1681249890342909700,3.46790966796875,0.16339386999607086,1.7005620002746582,0.8597532510757446,-0.35713109374046326,0.8470622301101685,-0.3936280608177185,0.6207876801490784,-0.9640512466430664,0.6312533020973206,0.8012259946203878,-0.426976975482956,-0.3476731707541936,0.23420286026898732
1681249890357942500,3.482942626953125,-0.12320103496313095,1.5644757747650146,1.0400428771972656,-0.33529528975486755,0.8518339991569519,-0.40243765711784363,0.8921495079994202,-1.5644803047180176,1.0250115394592285,0.8038505076924402,-0.4321635305187101,-0.3346876957913442,0.2346130982423666
1681249890372975600,3.4979755859375,-0.3006238639354706,1.3393806219100952,1.437815546989441,-0.310707688331604,0.8591440320014954,-0.40661078691482544,0.965370774269104,-1.6809823513031006,1.1039069890975952,0.8045208514003195,-0.4390969442991826,-0.32231736894540214,0.23675227794806894
1681249890388008700,3.5130087890625,-0.27606654167175293,1.2865378856658936,1.8706934452056885,-0.2812816798686981,0.8684332370758057,-0.40829482674598694,0.951569676399231,-1.628213882446289,1.005371332168579,0.8035856469851068,-0.4472690545255425,-0.3095205695912377,0.24165642368216245
1681249890403041500,3.52804150390625,0.05533509701490402,1.3435686826705933,2.4148528575897217,-0.24528157711029053,0.8776304721832275,-0.41182759404182434,0.8126338720321655,-1.5529690980911255,0.8929373025894165,0.8022125377863727,-0.45528917077542275,-0.2946149510399054,0.24973803219965926
1681249890418074600,3.54307470703125,0.47660642862319946,1.4428819417953491,2.963641881942749,-0.20095790922641754,0.8849029541015625,-0.4201936721801758,0.6883999109268188,-1.284942626953125,0.7217532396316528,0.8010001516534304,-0.4620590551339221,-0.27641380858444903,0.26171664743665635
1681249890433107700,3.558107666015625,0.7255504131317139,1.4029921293258667,3.494800090789795,-0.14865316450595856,0.8894854784011841,-0.43210867047309875,0.6326924562454224,-1.214756965637207,0.6661022305488586,0.7994408218236658,-0.46774039100695786,-0.25527357357399766,0.27739647270903833
1681249890448140500,3.573140625,0.9370294809341431,1.3296691179275513,3.9034597873687744,-0.09002037346363068,0.8906842470169067,-0.44562089443206787,0.591653048992157,-1.1641979217529297,0.6192355155944824,0.7968708178603997,-0.47252020011785184,-0.23219434911744596,0.29632323141753675
1681249890463172000,3.588172119140625,1.1044368743896484,1.2399381399154663,4.1760406494140625,-0.027143655344843864,0.8872841596603394,-0.4604237377643585,0.551557719707489,-1.1169135570526123,0.6021932363510132,0.7933075032293674,-0.4760728827830781,-0.20770829062433463,0.31760833935643346
1681249890478205200,3.603205078125,1.23013174533844,1.1536821126937866,4.418850421905518,0.03828256577253342,0.8786523342132568,-0.4759249985218048,0.5345476269721985,-1.0474450588226318,0.556064248085022,0.7886151292223598,-0.478316829450167,-0.18234723709773162,0.340659293075633
1681249890493238300,3.61823828125,1.2702809572219849,0.9765592217445374,4.4795379638671875,0.1048564463853836,0.8648481369018555,-0.4909612536430359,0.4994526505470276,-1.0305126905441284,0.5233099460601807,0.7826112137963049,-0.47961009427525353,-0.15650409311868776,0.3646922427980962
1681249890508272000,3.633272216796875,1.818326473236084,0.5833658576011658,4.2942023277282715,0.16745351254940033,0.8447497487068176,-0.5082887411117554,0.5603449940681458,-0.8570481538772583,0.44177567958831787,0.7763547249306171,-0.47801556626945135,-0.131745033219904,0.38912464089041204
1681249890523305200,3.64830517578125,4.374833583831787,-0.3013945519924164,3.748136043548584,0.21946491301059723,0.8104349970817566,-0.543166995048523,0.636614203453064,-0.5308786034584045,0.33251953125,0.7743868008894766,-0.4656555513233422,-0.10761689268934246,0.4146188283948093
1681249890538338300,3.66333837890625,8.583487510681152,-0.41131678223609924,3.698514223098755,0.2567283511161804,0.7408196926116943,-0.6207066774368286,1.0095679759979248,1.0698034763336182,-0.5150811672210693,0.7841797259111676,-0.4284702740864438,-0.07784524001020798,0.44205830015741515
1681249890553371100,3.67837109375,11.07524585723877,2.775883913040161,4.302339553833008,0.30909693241119385,0.6202377676963806,-0.7209467887878418,1.2206577062606812,2.578233242034912,-1.0277409553527832,0.8016016672088856,-0.3727436565751184,-0.024264765932962146,0.4668064350771749
1681249890568404200,3.693404296875,6.8274030685424805,3.320324182510376,5.106471538543701,0.38621553778648376,0.49032434821128845,-0.7812936305999756,0.12197846174240112,3.0455644130706787,-2.3196585178375244,0.8093317974214184,-0.32802581332236086,0.04186004188253098,0.4854163876950756
1681249890583437300,3.708437255859375,-1.7100369930267334,-0.028246650472283363,4.757779598236084,0.4440929889678955,0.42050105333328247,-0.7911766171455383,0.19201543927192688,1.9538886547088623,-2.9016945362091064,0.7955828994945113,-0.3138341261543877,0.07694053937954928,0.5124806631974679
1681249890598470100,3.72347021484375,-5.612024307250977,-3.2295291423797607,2.568807363510132,0.4468417167663574,0.44941067695617676,-0.7735389471054077,2.8910183906555176,-1.9553005695343018,-2.5350546836853027,0.7725713827495454,-0.3314238878559463,0.058212727822447276,0.5384264064205628
1681249890613503200,3.738503173828125,-4.102239608764648,-4.210392951965332,2.292536973953247,0.41870737075805664,0.490217387676239,-0.764441728591919,2.897103786468506,-0.9980908632278442,-1.7885825634002686,0.7508008420180272,-0.34252389160369634,0.02136618131218372,0.5643750343264026
1681249890628536300,3.753536376953125,-2.693504810333252,-3.313237428665161,1.686112403869629,0.39025813341140747,0.51603764295578,-0.7624983787536621,0.9259498119354248,1.1361688375473022,-1.0395188331604004,0.73394342783133,-0.3444885543555887,-0.008856484394139268,0.5853001969189487
1681249890643569200,3.768569091796875,-2.5716030597686768,-2.8331968784332275,1.3919849395751953,0.3676028251647949,0.5367847681045532,-0.7594276666641235,0.16987279057502747,0.9019970297813416,-0.765337347984314,0.7201095400811576,-0.34525962204332095,-0.03289329029546935,0.6009627978829806
1681249890658602200,3.783602294921875,-3.211742639541626,-2.785564422607422,1.3667067289352417,0.34707382321357727,0.5616970062255859,-0.751023530960083,-0.052029818296432495,0.6485233902931213,-0.186873197555542,0.7054955892157918,-0.34814020453454914,-0.05732928525246481,0.6146445108542969
1681249890673635300,3.79863525390625,-4.244300365447998,-2.657870292663574,1.3341120481491089,0.3282635807991028,0.5964917540550232,-0.7324210405349731,-0.07048159837722778,0.3755999207496643,0.04362410306930542,0.6878465498859868,-0.35563099746944393,-0.08553402065188431,0.6269590574162944
1681249890688668200,3.813668212890625,-4.549995422363281,-2.608109951019287,1.221416711807251,0.31178194284439087,0.638742208480835,-0.7034206390380859,-0.3916769027709961,0.07237845659255981,0.39357566833496094,0.6675656468593238,-0.3669558148864435,-0.11676096620346367,0.6372336048208879
1681249890703701200,3.828701171875,-3.9788239002227783,-2.331906318664551,1.2283145189285278,0.29803138971328735,0.6779618859291077,-0.6719710826873779,-0.5415005683898926,-0.02606058120727539,0.45830225944519043,0.6472271973684485,-0.37756015534896475,-0.1465018639787232,0.6458194274792459
1681249890718734300,3.843734375,-3.015341281890869,-1.9947463274002075,1.3225313425064087,0.289762943983078,0.7068136930465698,-0.6453309059143066,-0.6569046378135681,-0.02288419008255005,0.5651918053627014,0.6284713759620255,-0.3851572360407231,-0.1702599629372617,0.6539796075237344
1681249890733767200,3.85876708984375,-2.263028144836426,-1.7029343843460083,1.1664005517959595,0.28610149025917053,0.7261334657669067,-0.6252009868621826,-0.6740714311599731,-0.12412840127944946,0.6138331890106201,0.6119876981824799,-0.3899496607097748,-0.1879861087203782,0.6618698568466954
1681249890748800300,3.87380029296875,-2.4020962715148926,-1.539828896522522,0.6032155156135559,0.28102168440818787,0.7433218955993652,-0.6070414185523987,-0.7189489603042603,-0.5631461143493652,0.6540691256523132,0.5985133420035393,-0.3935285353417192,-0.2039965038558218,0.6673098743051763
1681249890763833300,3.888833251953125,-2.827601194381714,-1.5579553842544556,0.15884923934936523,0.27148234844207764,0.7654333710670471,-0.5834460258483887,-0.7071818113327026,-0.7565221190452576,0.6678577065467834,0.5863569780613851,-0.39818802495100697,-0.22298715785036247,0.6692598228306887
1681249890778866200,3.9038662109375,-2.6617252826690674,-1.553820013999939,-0.07947490364313126,0.2582753598690033,0.789374589920044,-0.5569396615028381,-0.6187184453010559,-1.022452473640442,0.6269928216934204,0.5750579890712716,-0.40256164559630114,-0.2438735386021637,0.6691623864450825
1681249890793899300,3.918899169921875,-1.913987636566162,-1.3066859245300293,-0.1587047576904297,0.24490806460380554,0.8087365031242371,-0.5347574353218079,-0.6104170680046082,-1.0716910362243652,0.5979288816452026,0.5659498648606522,-0.40492362447540386,-0.2620270058262988,0.6686401213168773
1681249890808932400,3.933932373046875,-1.3214412927627563,-0.942528247833252,-0.1927841603755951,0.23390693962574005,0.821932315826416,-0.5193408727645874,-0.7313129305839539,-1.004152774810791,0.6175770163536072,0.55971794442737,-0.4056551497341989,-0.27526982434350056,0.6681215048159869
1681249890823965200,3.948965087890625,-1.2464467287063599,-0.6844988465309143,-0.3528190851211548,0.22445371747016907,0.8326058387756348,-0.5063478350639343,-0.7788665294647217,-1.0461525917053223,0.6533205509185791,0.5555080040735983,-0.4063992171042803,-0.2857722209431148,0.6667719876845953
1681249890838999300,3.963999267578125,-1.2991927862167358,-0.5367516875267029,-0.46697601675987244,0.2146785408258438,0.8436722159385681,-0.49206745624542236,-0.7646510601043701,-1.1349166631698608,0.6481497287750244,0.5522951698175345,-0.4078368064122192,-0.2960327841514637,0.6640811848574423
1681249890854032400,3.979032470703125,-1.0841478109359741,-0.3746194839477539,-0.5982469916343689,0.20458556711673737,0.8542251586914062,-0.4779583513736725,-0.7188982963562012,-1.0734480619430542,0.5741803646087646,0.5501399932081966,-0.40940408591983296,-0.30562904525551154,0.6605492005048686
1681249890869065200,3.994065185546875,-0.5800641775131226,-0.22341828048229218,-0.7262907028198242,0.19388200342655182,0.8623348474502563,-0.46774834394454956,-0.6716194152832031,-0.7353358864784241,0.36624693870544434,0.5501182670596586,-0.4099522786458225,-0.3131532515818423,0.6566918695869296
1681249890884098300,4.009098388671875,-0.06246946007013321,-0.01288527064025402,-0.9316614270210266,0.18256498873233795,0.8666111826896667,-0.46438702940940857,-0.6258633136749268,-0.5951419472694397,0.25828665494918823,0.5528582540706204,-0.40859855283820934,-0.31757472553120014,0.6531014344005178
1681249890899131400,4.02413134765625,-0.016756193712353706,0.17351655662059784,-1.3301318883895874,0.16832080483436584,0.8696770668029785,-0.4640369117259979,-0.5577250719070435,-0.4724295139312744,0.1546649932861328,0.5586208494539467,-0.4063414079887192,-0.3207307235944889,0.6480443858888045
1681249890914164200,4.039164306640625,-0.42575860023498535,0.260193407535553,-1.7231017351150513,0.1501370072364807,0.8745793700218201,-0.4610530138015747,-0.4715938866138458,-0.4843662977218628,0.16477316617965698,0.5659083711506872,-0.40457016742948015,-0.3252637021147398,0.6405266045137391
1681249890929197300,4.054197265625,-1.30069100856781,0.2857917249202728,-2.2172772884368896,0.12549564242362976,0.8845579624176025,-0.44923076033592224,-0.3619915843009949,-0.4687405824661255,0.2392088770866394,0.5735319985251354,-0.40453354539178593,-0.3342711918515932,0.6290282993419222
1681249890944230400,4.06923046875,-0.7043408155441284,0.10296356678009033,-2.296938896179199,0.09673099219799042,0.896267831325531,-0.43283650279045105,-0.4288080334663391,-0.23501282930374146,0.2061367630958557,0.5810122924187962,-0.40498728282102964,-0.34578469055625205,0.6155024225783163
1681249890959263200,4.08426318359375,0.4694269299507141,0.8359461426734924,-2.509584665298462,0.06603661179542542,0.899601399898529,-0.43169039487838745,-0.727657675743103,0.8336750864982605,-0.6403615474700928,0.5926479094604596,-0.4002414726800588,-0.3520817522044439,0.6038325300467281
1681249890974296300,4.09929638671875,2.231773853302002,1.750481367111206,-3.0017638206481934,0.03871031105518341,0.892749547958374,-0.44888755679130554,-0.7524706721305847,1.9678157567977905,-1.217036485671997,0.6124475878660792,-0.3931583531751623,-0.3478257256439493,0.5910600136126942
1681249890989329400,4.114329345703125,2.108476400375366,1.3189290761947632,-4.081295490264893,0.003435616148635745,0.8778473138809204,-0.47892841696739197,-0.1785454899072647,3.082663059234619,-2.248213768005371,0.6388836077799782,-0.3805590882574931,-0.3401625708368535,0.5755797332876117
1681249891004362000,4.129362060546875,0.8034141063690186,0.44245484471321106,-4.27063512802124,-0.04594187065958977,0.8651190400123596,-0.4994581639766693,0.39747384190559387,3.2247095108032227,-2.5405807495117188,0.6636736870715262,-0.3658705730137263,-0.3411885755799943,0.5561172690341826
1681249891019395000,4.14439501953125,-0.812667191028595,-0.7472023963928223,-4.370201110839844,-0.10287635028362274,0.8607311248779297,-0.4985564053058624,1.2277084589004517,2.3763599395751953,-1.7926727533340454,0.6806554262179563,-0.3542377889948306,-0.3538889428823248,0.5347770954486167
1681249891034428200,4.15942822265625,-1.6603986024856567,-0.7518680095672607,-4.269211769104004,-0.16576915979385376,0.861453652381897,-0.480019211769104,1.215909481048584,1.709179401397705,-1.201117753982544,0.6921404854277646,-0.34564839755284016,-0.37485674990525947,0.5108339890127913
1681249891049461200,4.174461181640625,-2.1187193393707275,-0.256255567073822,-3.618978261947632,-0.22064326703548431,0.8630583882331848,-0.4543642997741699,0.8309032320976257,1.283761739730835,-0.6355862021446228,0.7006996755862565,-0.34208114443982673,-0.394712982771238,0.4860064005495369
1681249891064494000,4.189494140625,-3.1126832962036133,0.10228472203016281,-2.84533953666687,-0.26307135820388794,0.8682634830474854,-0.4206092655658722,0.7673437595367432,0.9793013334274292,-0.44528114795684814,0.7054077634035035,-0.34573294363977747,-0.4125095190526489,0.4611991268773626
1681249891079527200,4.204527099609375,-3.8852944374084473,-0.11722446233034134,-2.1567604541778564,-0.29537054896354675,0.8792999386787415,-0.37361499667167664,0.7881377935409546,0.03081071376800537,-0.07563421130180359,0.7044617681466524,-0.35708745163114697,-0.4309072473216818,0.4365104627079623
1681249891094560300,4.219560302734375,-3.36844801902771,-0.5406737327575684,-1.500083088874817,-0.3216888904571533,0.8901065587997437,-0.3228417932987213,0.8502532839775085,-0.3038332462310791,-0.024356603622436523,0.6990889577700776,-0.36934145031845866,-0.44962872906120155,0.4155667712535704
1681249891109593000,4.234593017578125,-2.068042755126953,-0.37046656012535095,-1.09234619140625,-0.34086376428604126,0.896449863910675,-0.2831783890724182,0.797940731048584,-0.46999698877334595,-0.0786379873752594,0.6934266314998994,-0.3779347626430622,-0.4643017599475051,0.4009351446354147
1681249891124627200,4.249627197265625,-0.5912458300590515,0.28310033679008484,-0.7339885830879211,-0.3539927899837494,0.8968851566314697,-0.2651160657405853,0.6243479251861572,-0.4771767258644104,-0.1005302369594574,0.6923021335926676,-0.38124990779508083,-0.4712647604637429,0.39150490576484653
1681249891139660000,4.264659912109375,0.3966633081436157,0.9064760208129883,0.20497466623783112,-0.3553825616836548,0.8955733776092529,-0.2676782011985779,0.3679405152797699,-0.5192153453826904,0.11316779255867004,0.6951405332088971,-0.38229470013836164,-0.4690540092587927,0.3880963398052462
1681249891154693000,4.279693115234375,0.7146279215812683,1.2271467447280884,0.863156259059906,-0.34314578771591187,0.8960789442062378,-0.2815912067890167,0.41383975744247437,-0.673147976398468,0.2967280447483063,0.6990192984709153,-0.3843033402231785,-0.4599079758268588,0.39008679747504105
1681249891169726200,4.294726318359375,0.5340104103088379,1.241376519203186,1.207826018333435,-0.32366135716438293,0.8985309600830078,-0.2964555025100708,0.6024088859558105,-1.2913377285003662,0.5878068208694458,0.7020866537521022,-0.38820965545033553,-0.4484033000937966,0.3940841955888521
1681249891184759000,4.309759033203125,0.26220977306365967,1.0894381999969482,1.3932528495788574,-0.3004642724990845,0.9029255509376526,-0.30732229351997375,0.6830478310585022,-1.5131853818893433,0.7184399366378784,0.7032194900986565,-0.39400457409643197,-0.43714900555890346,0.3989282550340769
1681249891199792000,4.324792236328125,0.1459423452615738,0.9092552661895752,1.5542012453079224,-0.27598267793655396,0.9083601236343384,-0.3141906261444092,0.7811858654022217,-1.6883893013000488,0.7960633039474487,0.7026179055425253,-0.4007500897830844,-0.42697078825903517,0.4042568941821682
1681249891214825200,4.3398251953125,0.25186264514923096,0.8225033283233643,1.949466586112976,-0.24804842472076416,0.9143155217170715,-0.3201548457145691,0.7715317010879517,-1.6264126300811768,0.7954051494598389,0.7005810815220542,-0.40790738867076076,-0.4165742917402531,0.41141656627431894
1681249891229858000,4.354858154296875,0.44757574796676636,0.7648760080337524,2.4493627548217773,-0.2137175351381302,0.9203285574913025,-0.32759755849838257,0.705294668674469,-1.4488320350646973,0.7170324325561523,0.6971733654906273,-0.41543075656571027,-0.4044978547229722,0.42160182052510153
1681249891244891100,4.36989111328125,0.6186928749084473,0.6590409278869629,3.0015628337860107,-0.17235204577445984,0.9255391955375671,-0.337152898311615,0.6418039202690125,-1.4019795656204224,0.6632639169692993,0.6922505169822993,-0.4230659774810932,-0.39043402205038014,0.4351617496486922
1681249891259924200,4.38492431640625,0.7440242767333984,0.5727204084396362,3.482375383377075,-0.12378112226724625,0.9292346239089966,-0.34814000129699707,0.6210955381393433,-1.307682991027832,0.5634568333625793,0.6853597244774089,-0.43089307560343937,-0.3745145701947325,0.4520533152035255
1681249891274957000,4.39995703125,0.807675302028656,0.4997817575931549,3.840266704559326,-0.06963758915662766,0.9304720163345337,-0.3596837520599365,0.5823481678962708,-1.2453829050064087,0.5394324064254761,0.6766210730277886,-0.4388991319699429,-0.3571073700824327,0.47119614466751336
1681249891289990100,4.414990234375,0.8554231524467468,0.4782634377479553,4.136528491973877,-0.011229541152715683,0.9282793998718262,-0.37171417474746704,0.5384054183959961,-1.1142686605453491,0.5126901865005493,0.6662890596399702,-0.44687081754216523,-0.338303680505126,0.49184968478115204
1681249891305023200,4.430023193359375,1.0224318504333496,0.3587096035480499,4.542154312133789,0.051561255007982254,0.9217100143432617,-0.3844377100467682,0.5021344423294067,-1.0366696119308472,0.5143663883209229,0.6540444797339839,-0.4545918635675626,-0.3180053237184431,0.5142420559456851
1681249891320056300,4.445056396484375,1.0487899780273438,0.23732270300388336,4.739043712615967,0.11746696382761002,0.9095913767814636,-0.39855384826660156,0.551539421081543,-0.9905543923377991,0.5573521256446838,0.6399559064895654,-0.46142456695676026,-0.2963282680444554,0.5382689279239129
1681249891335089200,4.460089111328125,1.850528359413147,-0.06124774366617203,4.398311614990234,0.18095913529396057,0.8911120891571045,-0.41614091396331787,0.5342966318130493,-0.9766221642494202,0.5236544013023376,0.6255184174939575,-0.46553222165588926,-0.27424311769125553,0.5628475914799723
1681249891350122200,4.475122314453125,4.104995250701904,-0.6372516751289368,3.5414810180664062,0.22998866438865662,0.8595569729804993,-0.4563630521297455,0.6744455695152283,-0.24557369947433472,0.0059999823570251465,0.618359784229929,-0.4578268410712983,-0.2494254568079379,0.5880585887792688
1681249891365155300,4.4901552734375,6.8134660720825195,-0.23255212604999542,4.6026387214660645,0.2774447202682495,0.8055482506752014,-0.5235615372657776,0.9192563891410828,1.1087738275527954,-0.5244273543357849,0.6166775485243688,-0.43852948136838493,-0.2142688313605449,0.6176486309910078
1681249891380188200,4.505188232421875,8.7193603515625,0.9936292767524719,4.357005596160889,0.33302730321884155,0.7149409651756287,-0.6147783398628235,1.3779712915420532,3.353677988052368,-1.6931592226028442,0.6212364720930758,-0.4089397340720388,-0.15930827758828758,0.6491953384647028
1681249891395221200,4.52022119140625,5.229423522949219,0.9526144862174988,4.052364349365234,0.38632431626319885,0.6212949752807617,-0.6817229390144348,0.9104896783828735,2.9399232864379883,-2.412972927093506,0.6235590522386474,-0.38481593109840273,-0.10514390320136337,0.6723359505525338
1681249891410255000,4.535255126953125,0.4817214012145996,-1.1228017807006836,3.691566228866577,0.4212607443332672,0.5670962333679199,-0.7077720761299133,1.3183480501174927,1.35947847366333,-2.5909035205841064,0.6113574442628313,-0.3739348169980626,-0.07928888173403877,0.6929127921731201
1681249891425288200,4.5502880859375,-3.190049886703491,-2.9597082138061523,2.824908494949341,0.42581483721733093,0.563758373260498,-0.7077133655548096,2.018597364425659,-0.06230878829956055,-2.0399672985076904,0.5887244665594561,-0.37194360206947347,-0.0883248442244899,0.7122219928974279
1681249891440321300,4.5653212890625,-3.908158540725708,-3.549713134765625,2.6360085010528564,0.41363030672073364,0.585491955280304,-0.6972152590751648,1.5747120380401611,0.07507628202438354,-1.0952651500701904,0.5610472689623519,-0.37161057391743413,-0.11531668127606855,0.7306392451169755
1681249891455354000,4.58035400390625,-3.8004233837127686,-3.377070188522339,2.2551767826080322,0.39959219098091125,0.6106520295143127,-0.6836887001991272,0.8541920185089111,0.5090989470481873,-0.9394954442977905,0.5333185079521955,-0.3706199669704948,-0.14420992395200183,0.7466028135515357
1681249891470388000,4.595387939453125,-4.000150680541992,-3.375659465789795,2.122758388519287,0.38593074679374695,0.6370159983634949,-0.6672841906547546,0.22294074296951294,0.7504504919052124,-0.5485970973968506,0.5062481589551766,-0.36930309436845116,-0.17312748191941627,0.7598388522431774
1681249891485421000,4.610421142578125,-4.50118350982666,-3.2879207134246826,2.004352331161499,0.3729950785636902,0.6671091318130493,-0.6448567509651184,0.12132874131202698,0.5795645117759705,-0.3773447275161743,0.47784288752221776,-0.36858446767430497,-0.20424769326249997,0.7707753973141492
1681249891500454000,4.625453857421875,-4.709358215332031,-3.213275671005249,1.8660025596618652,0.36232423782348633,0.7005274295806885,-0.6148029565811157,-0.25941893458366394,0.2657659649848938,-0.07141530513763428,0.44827232835307373,-0.36920130455026784,-0.23725286951997016,0.7787513561963005
1681249891515487000,4.640487060546875,-4.396286487579346,-3.0192859172821045,1.7338062524795532,0.3532702922821045,0.7320369482040405,-0.5825136303901672,-0.4793536067008972,0.22813773155212402,0.04998195171356201,0.41903762551513013,-0.3689964544043196,-0.26941564021862974,0.7846428759896859
1681249891530520000,4.65552001953125,-3.762202501296997,-2.5718297958374023,1.5951035022735596,0.34817785024642944,0.758000373840332,-0.5515503287315369,-0.7162350416183472,0.23772722482681274,0.27934885025024414,0.39184513018794664,-0.36844911086706617,-0.2974392231000044,0.7888173120413511
1681249891545553000,4.670552978515625,-3.2269060611724854,-2.3218624591827393,1.3057736158370972,0.345467746257782,0.778738796710968,-0.5236582159996033,-0.7984248399734497,0.08841824531555176,0.32424116134643555,0.3679074486502549,-0.3674982451268535,-0.32111668806924565,0.7915006523876089
1681249891560586000,4.6855859375,-2.7942330837249756,-2.234153985977173,0.9964663982391357,0.34161844849586487,0.7957643270492554,-0.5000560879707336,-0.842671275138855,-0.3969758152961731,0.4912365674972534,0.34710367904862194,-0.36483062664101534,-0.341863374924184,0.7934401198150881
1681249891575619000,4.700619140625,-2.6594254970550537,-2.0295944213867188,0.6036924719810486,0.33559003472328186,0.811534583568573,-0.4783211052417755,-0.8149601221084595,-0.6635242104530334,0.5467416048049927,0.3292796514976553,-0.3610470752149933,-0.36122631538561967,0.7941886535996977
1681249891590652000,4.71565185546875,-2.61491060256958,-1.7707537412643433,0.20238633453845978,0.3271539807319641,0.8281269073486328,-0.4551663100719452,-0.8425195217132568,-1.0583056211471558,0.6270261406898499,0.31444295421076307,-0.3572119030071416,-0.3805476396585661,0.7929117352893259
1681249891605685000,4.73068505859375,-2.249617099761963,-1.4288434982299805,-0.13134290277957916,0.31679511070251465,0.8443432450294495,-0.43211764097213745,-0.8809583187103271,-1.1994609832763672,0.6573832035064697,0.3029966683113872,-0.35341483792800504,-0.3987970977485325,0.7900962693985336
1681249891620718000,4.745718017578125,-1.7808716297149658,-1.0409051179885864,-0.4179421663284302,0.30544182658195496,0.8583488464355469,-0.4122411906719208,-0.9906529784202576,-1.2824057340621948,0.6520178914070129,0.2955343396945695,-0.3497560153983967,-0.4141861037556706,0.7866258590800101
1681249891635751000,4.7607509765625,-1.495530366897583,-0.6618489027023315,-0.6383363604545593,0.2933428883552551,0.8705658912658691,-0.3950508236885071,-1.0185625553131104,-1.272436499595642,0.6338204145431519,0.2917597803691064,-0.3466215903550205,-0.4269989059780716,0.782561040765535
1681249891650784000,4.775783935546875,-1.3262255191802979,-0.3587723672389984,-0.6405227780342102,0.28169751167297363,0.8816170692443848,-0.37867939472198486,-1.0556385517120361,-1.1966956853866577,0.5355245471000671,0.29033893239802677,-0.3445940325335223,-0.4380813292556657,0.7778452196261791
1681249891665817000,4.790817138671875,-0.9671331644058228,-0.08871745318174362,-0.43074238300323486,0.27317672967910767,0.8904336094856262,-0.3640090823173523,-1.037001132965088,-1.107398271560669,0.46166539192199707,0.2897777382451634,-0.34404645631919717,-0.4467969319763757,0.773326289649802
1681249891680850000,4.805849853515625,-0.4288124740123749,0.1923978477716446,-0.39594924449920654,0.2683980464935303,0.8957521319389343,-0.35438787937164307,-0.9522511959075928,-0.8936920762062073,0.30806225538253784,0.2903170401094258,-0.3445986694400917,-0.45172758671258467,0.7700065519157699
1681249891695884000,4.820884033203125,0.04280870407819748,0.4102391004562378,-0.6731747388839722,0.26288750767707825,0.8987700939178467,-0.35085999965667725,-0.9028410911560059,-0.7598539590835571,0.2537989616394043,0.2939579212274184,-0.34493598306187256,-0.4534194125054438,0.7674756739029542
1681249891710917000,4.835917236328125,0.325152724981308,0.5804070830345154,-1.054255485534668,0.2540064752101898,0.9011266231536865,-0.35135671496391296,-0.7317439317703247,-0.5641362071037292,0.16513857245445251,0.3010126426895924,-0.34449798877078436,-0.45347853498409807,0.7648985373991253
1681249891725950000,4.850949951171875,0.44136613607406616,0.7416628003120422,-1.6807639598846436,0.2391580045223236,0.9038843512535095,-0.35467830300331116,-0.6290352940559387,-0.5591118931770325,0.13577580451965332,0.312122060449182,-0.3426989022332819,-0.4530102798220654,0.7615241821610305
1681249891740983000,4.865983154296875,0.11042694747447968,0.6503680348396301,-2.3664603233337402,0.21532751619815826,0.9092604517936707,-0.3562018871307373,-0.47529149055480957,-0.5324445366859436,0.06791764497756958,0.3269299954162563,-0.33918745569625647,-0.45480867063437425,0.7557896075218729
1681249891756016000,4.88101611328125,-0.1773865669965744,0.5260780453681946,-2.772921562194824,0.1828916221857071,0.9173623919487,-0.3535493016242981,-0.4261167049407959,-0.3044930100440979,0.02830827236175537,0.34341709948438837,-0.3337591672712149,-0.4602501124845413,0.7475557066819853
1681249891771049000,4.896049072265625,-0.7194753885269165,0.76640385389328,-2.717597723007202,0.14729328453540802,0.9269585609436035,-0.34504029154777527,-0.6499636173248291,0.7295509576797485,-0.46626943349838257,0.3599023055217055,-0.3287274830440761,-0.46842085640453746,0.7368790379835338
1681249891786082000,4.91108203125,2.3320529460906982,1.3717588186264038,-3.0356836318969727,0.113986074924469,0.9293097257614136,-0.35127022862434387,-0.829104483127594,1.686321496963501,-0.9335654973983765,0.38026963651949075,-0.3229938120881355,-0.46908409063749357,0.7287182093571131
1681249891801115100,4.926115234375,3.1001527309417725,1.938938021659851,-4.401602745056152,0.07260598987340927,0.9180566668510437,-0.3897444009780884,-0.48985755443573,3.0550880432128906,-2.044642686843872,0.4135507369945289,-0.3110018799465117,-0.4565146481847352,0.7237736411293484
1681249891816148000,4.94114794921875,2.7540740966796875,1.5683605670928955,-4.956544399261475,0.01767726056277752,0.902648389339447,-0.43001589179039,0.14955908060073853,4.119644641876221,-2.263282299041748,0.452366915176779,-0.2943721264515917,-0.4453505368283484,0.7144035033738417
1681249891831181000,4.95618115234375,0.7603023648262024,0.09555518627166748,-4.85662841796875,-0.041882991790771484,0.8895224332809448,-0.4549678862094879,1.292172908782959,3.1945688724517822,-1.9401888847351074,0.4854772431608943,-0.27661852865727227,-0.4427168960356337,0.7012815907325528
1681249891846214000,4.9712138671875,-0.8002309203147888,-1.1018717288970947,-4.909998416900635,-0.1115431860089302,0.8846868276596069,-0.45264503359794617,1.490067958831787,2.0700252056121826,-1.3865883350372314,0.5087232579974535,-0.2573183765145244,-0.4554829716236453,0.6837567895619444
1681249891861246700,4.986246826171875,-1.4603060483932495,-0.9181086421012878,-4.3190460205078125,-0.18065938353538513,0.8821423053741455,-0.43495678901672363,1.373637318611145,1.247771143913269,-0.8364817500114441,0.526406920766896,-0.24006217874452496,-0.474227541526708,0.6636071003787365
1681249891876279800,5.00127978515625,-2.25334095954895,-0.41142064332962036,-3.418260097503662,-0.23617158830165863,0.8815560936927795,-0.40875670313835144,1.0419577360153198,1.0786490440368652,-0.6340135931968689,0.5398589166061871,-0.2300984131445145,-0.49262192816102685,0.6425969983037743
1681249891891313000,5.01631298828125,-3.209172010421753,-0.2737852931022644,-2.60780668258667,-0.2777673900127411,0.886147677898407,-0.3709283471107483,0.6533318758010864,0.21982473134994507,-0.20072686672210693,0.5482055519692604,-0.22864462309132488,-0.5121107970832166,0.6204313533266106
1681249891906345700,5.031345703125,-3.071490526199341,-0.4739926755428314,-1.9261339902877808,-0.3099444806575775,0.8930332064628601,-0.32623058557510376,0.6479876041412354,-0.14735126495361328,-0.08395609259605408,0.5515764955368857,-0.2314070562422215,-0.5322926597759222,0.5990650360393135
1681249891921378800,5.04637890625,-2.118859052658081,-0.5104676485061646,-1.2064062356948853,-0.33340346813201904,0.8977333903312683,-0.28795310854911804,0.6423176527023315,-0.43057024478912354,0.002766430377960205,0.551766097105545,-0.23375620030178842,-0.5489822277689153,0.5826927466379943
1681249891936412000,5.061411865234375,-0.6734927892684937,0.007137439213693142,-0.6841219663619995,-0.34727370738983154,0.8987211585044861,-0.2677716016769409,0.6197498440742493,-0.40891391038894653,0.01758861541748047,0.5521484312143345,-0.23429362758046965,-0.5578715711522875,0.5736010301830696
1681249891951445800,5.07644580078125,0.4351312220096588,0.7444295883178711,0.12736855447292328,-0.34994348883628845,0.8974447250366211,-0.2685755491256714,0.42332297563552856,-0.47773635387420654,0.12792015075683594,0.5549912125585964,-0.23505505641478927,-0.5571905838797969,0.5712028895930185
1681249891966478800,5.091478759765625,0.8535572290420532,1.1127978563308716,0.9119808077812195,-0.3384348452091217,0.8974030613899231,-0.2830723226070404,0.40423068404197693,-0.5925627946853638,0.2552403509616852,0.5578484692873432,-0.2385666224701927,-0.5491355138227768,0.5747534171016618
1681249891981497300,5.106497314453125,0.8128847479820251,1.1050077676773071,1.2425376176834106,-0.3187451660633087,0.8990263342857361,-0.30025598406791687,0.689213216304779,-1.1426936388015747,0.5215849876403809,0.8063053828874732,-0.5574974286215294,-0.19765785028039085,-6.321261301571034e-18
1681249891996530200,5.1215302734375,0.43872901797294617,0.9685694575309753,1.4013276100158691,-0.2957846224308014,0.9022936224937439,-0.31365251541137695,0.801766037940979,-1.443354845046997,0.6388329267501831,0.8104347319973118,-0.5555984372133875,-0.18569899816418803,0.004687927391256874
1681249892011563300,5.136563232421875,0.12485963106155396,0.8906738758087158,1.566159725189209,-0.2713894844055176,0.9072362184524536,-0.3213571310043335,0.8437314033508301,-1.8421268463134766,0.7739331722259521,0.8127577592293475,-0.555944672995889,-0.17391652713271483,0.010175955240596618
1681249892026596400,5.151596435546875,0.05591971427202225,0.8684985041618347,1.9714839458465576,-0.24325230717658997,0.9136641025543213,-0.3256478011608124,0.7687802314758301,-1.8888530731201172,0.7699687480926514,0.8139574671802347,-0.5578322580531553,-0.16124288676871085,0.017242996745756724
1681249892041629400,5.16662939453125,0.29405415058135986,0.8555688858032227,2.5533359050750732,-0.2076391726732254,0.9204500317573547,-0.3311464488506317,0.6627629995346069,-1.6475768089294434,0.6855626106262207,0.8153571140135762,-0.5594784856434263,-0.146323628413014,0.027680107976897975
1681249892056662300,5.181662353515625,0.645950198173523,0.8897758722305298,3.1800293922424316,-0.1634586602449417,0.9260423183441162,-0.3401867747306824,0.6026371121406555,-1.4971786737442017,0.6348037719726562,0.8175084786210641,-0.5597456732036877,-0.12880761333331134,0.042111952253495205
1681249892071695400,5.1966953125,0.8953108191490173,0.9446167349815369,3.8069348335266113,-0.1097729429602623,0.9292526245117188,-0.35276004672050476,0.5400707721710205,-1.2275922298431396,0.5899277329444885,0.8201934843969408,-0.558504944649214,-0.10813046099724581,0.060521271825039365
1681249892086728400,5.211728515625,1.1387003660202026,0.8913319110870361,4.240253448486328,-0.04832813888788223,0.9285308122634888,-0.36809679865837097,0.48207446932792664,-1.1669186353683472,0.5969789028167725,0.8229667144430095,-0.5556418762701827,-0.08493351191349952,0.08230730102139817
1681249892101761300,5.22676123046875,1.4765931367874146,0.7438324689865112,4.467311382293701,0.01718011684715748,0.9221916794776917,-0.38635167479515076,0.5376600027084351,-1.0414083003997803,0.586272656917572,0.8257021981542872,-0.5505739695987821,-0.060765610680728006,0.10673290079737223
1681249892116794400,5.24179443359375,2.0595498085021973,0.5602070093154907,4.424327850341797,0.08264879882335663,0.908484935760498,-0.40966400504112244,0.539818286895752,-0.9610817432403564,0.5750085115432739,0.8290299130354919,-0.5420492606505908,-0.03675043178464405,0.13244480179539084
1681249892131827500,5.256827392578125,3.070476531982422,0.26590803265571594,4.1880669593811035,0.14365234971046448,0.8849784731864929,-0.4429191052913666,0.5634399652481079,-0.6422719359397888,0.39854681491851807,0.8345486620097103,-0.5275870909280648,-0.013867549313504672,0.15807687442697274
1681249892146860300,5.2718603515625,4.865250110626221,-0.185475692152977,3.7796807289123535,0.1958010345697403,0.8470296859741211,-0.4941689670085907,0.5868070721626282,-0.297285795211792,0.2443218231201172,0.8446958290062269,-0.5028608185740032,0.00681983379565776,0.18323128799685912
1681249892161893400,5.286893310546875,6.858735084533691,-0.1272621750831604,3.8451032638549805,0.2405610978603363,0.7886728644371033,-0.5657966136932373,0.6743712425231934,0.7105187773704529,-0.31454378366470337,0.8601619134285392,-0.46511885294305083,0.027679563556297984,0.20741288628578133
1681249892176926500,5.301926513671875,9.59744644165039,1.309661626815796,3.8730504512786865,0.2885245084762573,0.6970507502555847,-0.6564099192619324,0.5954325199127197,1.3446974754333496,-0.472908079624176,0.8808898391420416,-0.4105076958374381,0.05725784221785983,0.2285569717044979
1681249892191959300,5.316959228515625,9.078526496887207,3.310342788696289,4.324337005615234,0.3520304560661316,0.5749207735061646,-0.7386073470115662,0.08177703619003296,2.1122283935546875,-1.384698748588562,0.9000698198299328,-0.34689008145609024,0.10180178258108481,0.24326585727850478
1681249892206993400,5.331993408203125,4.7599778175354,2.8520023822784424,5.1916704177856445,0.42802393436431885,0.46679067611694336,-0.7738876342773438,0.060806721448898315,2.3030917644500732,-1.5675275325775146,0.9049671926221889,-0.30104917072757514,0.14975171360910547,0.2607267819306677
1681249892222026200,5.347026123046875,-3.101069211959839,-0.34024661779403687,3.4716813564300537,0.47008267045021057,0.43273428082466125,-0.7692615985870361,1.4365031719207764,-0.743540346622467,-2.1439461708068848,0.8959810817585383,-0.29515630915847935,0.16808318330687597,0.2860924081211497
1681249892237059300,5.362059326171875,-4.305422306060791,-2.6245179176330566,3.87689208984375,0.4754098951816559,0.4520730972290039,-0.7547287344932556,2.656822919845581,-2.060044050216675,-2.235917568206787,0.8803025963260556,-0.31350478719085134,0.15604607710040277,0.3200499117492017
1681249892252092400,5.377092529296875,-3.2907731533050537,-2.5982446670532227,2.8395988941192627,0.46885794401168823,0.47166451811790466,-0.7467964887619019,1.3379201889038086,0.42630016803741455,-1.9637746810913086,0.8653765859737905,-0.3283818405934077,0.13699318391310517,0.35287665041818805
1681249892267125200,5.392125244140625,-2.6713790893554688,-2.620701551437378,2.2694854736328125,0.4580298662185669,0.4866752028465271,-0.7438790202140808,0.5463495254516602,0.5540506839752197,-1.6698323488235474,0.853667190730756,-0.3376268261797585,0.11861114467620303,0.3784074046071015
1681249892282158300,5.407158447265625,-2.993795394897461,-2.7040650844573975,1.9045944213867188,0.44382569193840027,0.5035395622253418,-0.741260290145874,0.29398268461227417,0.6664739847183228,-1.0317802429199219,0.8426059648452321,-0.3458261558341371,0.09886424557639499,0.4008061374752848
1681249892297191400,5.42219140625,-3.50181245803833,-2.7107961177825928,1.674871802330017,0.42738622426986694,0.5280212163925171,-0.733849287033081,0.13836407661437988,0.43987447023391724,-0.7221442461013794,0.8303027860924623,-0.35671472823014994,0.07635421610608921,0.42133385987862787
1681249892312224500,5.437224609375,-3.8460452556610107,-2.5767910480499268,1.6212480068206787,0.4118849039077759,0.5579447746276855,-0.720450222492218,-0.27490657567977905,0.2908713221549988,-0.11939334869384766,0.8162114945403377,-0.37015228936815286,0.05255648026898312,0.44048153588038497
1681249892327257300,5.45225732421875,-3.980492115020752,-2.5715160369873047,1.5118961334228516,0.39824268221855164,0.5904475450515747,-0.7019789814949036,-0.3944888412952423,0.26732540130615234,0.11811691522598267,0.8004505207887268,-0.3849861559865337,0.02821629072729777,0.4585505016773
1681249892342290400,5.46729052734375,-3.708221912384033,-2.5096068382263184,1.2822240591049194,0.3843109905719757,0.6224457025527954,-0.6818112134933472,-0.5515013933181763,0.13364267349243164,0.4814329743385315,0.7844784838311454,-0.3988509520988924,0.003510752305284449,0.4748675824972997
1681249892357323500,5.482323486328125,-3.073962688446045,-2.2270755767822266,1.2197740077972412,0.3721800148487091,0.6500471830368042,-0.6625109910964966,-0.6287869215011597,0.10770446062088013,0.5885823369026184,0.7694119777873949,-0.41034507966918105,-0.01901116512544474,0.4891430117295886
1681249892372356400,5.4973564453125,-2.32478404045105,-1.8099669218063354,1.1047478914260864,0.3638976812362671,0.6698164343833923,-0.6472437381744385,-0.80489182472229,-0.03788882493972778,0.7562680244445801,0.7562976589386255,-0.41834955612406055,-0.036902342387797146,0.5016331301508926
1681249892387389400,5.512389404296875,-2.110074281692505,-1.371424674987793,0.8595615029335022,0.3585573732852936,0.685363233089447,-0.6338091492652893,-0.8548797965049744,-0.2482445240020752,0.8286030292510986,0.745166650135594,-0.4248424115108037,-0.051032733797436676,0.5114992614827328
1681249892402422500,5.527422607421875,-2.253542900085449,-1.116573452949524,0.57938551902771,0.35457316040992737,0.7018017768859863,-0.6178610324859619,-0.8997237682342529,-0.7154735326766968,0.9332146644592285,0.7348380790875404,-0.43241749011689473,-0.06391092456348516,0.5185977912778438
1681249892417455400,5.542455322265625,-2.405081033706665,-0.8657980561256409,-0.23587782680988312,0.34771955013275146,0.7221664190292358,-0.5979690551757812,-0.8830739855766296,-0.922651469707489,0.9125139117240906,0.7258101982837339,-0.4415387797712913,-0.07783946830518822,0.5217128375578791
1681249892432488400,5.557488525390625,-2.017566442489624,-0.6543616652488708,-0.7845057845115662,0.33475667238235474,0.7447385787963867,-0.5773236155509949,-0.9577270746231079,-1.0414302349090576,0.811057984828949,0.7200270979083919,-0.45028697592848105,-0.09262737298746189,0.5198297135257353
1681249892447521500,5.572521484375,-1.6746330261230469,-0.3243022561073303,-0.9810857176780701,0.3204360604286194,0.764654815196991,-0.559127688407898,-0.9680494666099548,-1.0184693336486816,0.794662594795227,0.7169217837126741,-0.45752175181116655,-0.10540401365379462,0.5153513860609248
1681249892462555400,5.587555419921875,-1.5473909378051758,0.03441327065229416,-1.0460790395736694,0.3072601854801178,0.7825232744216919,-0.5415244102478027,-1.0297789573669434,-1.0125799179077148,0.7638909816741943,0.7152818918912947,-0.4645635415467811,-0.11583829129486004,0.5090522549015786
1681249892477588500,5.60258837890625,-1.5040969848632812,0.35994982719421387,-1.036910057067871,0.29648616909980774,0.7995371222496033,-0.5223376154899597,-1.0414048433303833,-1.052497148513794,0.6912678480148315,0.7140089859083513,-0.4726430523944173,-0.12425679601848243,0.501358365989008
1681249892492621300,5.617621337890625,-1.1228268146514893,0.6368658542633057,-1.174749493598938,0.2871118485927582,0.8146251440048218,-0.5039374232292175,-0.9826987981796265,-0.8820382952690125,0.5447854399681091,0.7137880756321546,-0.4806373617374945,-0.130456916359845,0.4924180589433597
1681249892507654400,5.632654296875,-0.4333324730396271,0.8231645822525024,-1.4601449966430664,0.2765207588672638,0.8261879086494446,-0.49086666107177734,-0.8982246518135071,-0.7500768303871155,0.46337056159973145,0.7163782065829508,-0.4863751471844444,-0.1341860228149046,0.4819084994506831
1681249892522687500,5.6476875,0.5002856254577637,0.9312255382537842,-2.0528135299682617,0.2613494098186493,0.8328163027763367,-0.4879688620567322,-0.6893887519836426,-0.5287847518920898,0.3214499354362488,0.7236394707301806,-0.4874661131368666,-0.1356184096977833,0.469393736436955
1681249892537720300,5.66272021484375,0.8655923008918762,1.0150001049041748,-2.5266923904418945,0.23939166963100433,0.8362582921981812,-0.4933190941810608,-0.5873681902885437,-0.4008638858795166,0.19761922955513,0.7353357231484218,-0.48453691427772355,-0.13625137660623954,0.45380719156820143
1681249892552753400,5.67775341796875,0.9736120700836182,0.9844682812690735,-2.877166986465454,0.21311326324939728,0.8383622169494629,-0.5017285943031311,-0.38414889574050903,-0.00555264949798584,0.04593360424041748,0.7487424982051367,-0.47989505440845437,-0.1372458941565299,0.43617550189188753
1681249892567786500,5.692786376953125,0.3602418601512909,1.156178593635559,-3.1914520263671875,0.1824675351381302,0.8421127200126648,-0.5074958801269531,-0.35660070180892944,0.03664118051528931,-0.08886313438415527,0.7622100497328619,-0.4760963497083474,-0.13994396097320133,0.4156731297148746
1681249892582819600,5.707819580078125,0.08935223519802094,1.049178123474121,-2.9179697036743164,0.15202461183071136,0.8491725921630859,-0.5057613849639893,-0.7416393756866455,0.4764043688774109,-0.6441712379455566,0.7731712197314926,-0.4757889592019494,-0.14402842319410222,0.3938110200745383
1681249892597852400,5.722852294921875,0.9872062802314758,1.042833685874939,-3.196424722671509,0.12146811187267303,0.8504847884178162,-0.5117825269699097,-0.8060535788536072,0.9966375827789307,-1.1127747297286987,0.7850679075003296,-0.4716721986107724,-0.14708524787220484,0.373577165241118
1681249892612885500,5.737885498046875,1.0271450281143188,1.0898003578186035,-4.170618534088135,0.08333369344472885,0.8485549092292786,-0.5225038528442383,-0.4289604127407074,2.4237842559814453,-1.9116237163543701,0.7996824345813532,-0.4647954381690676,-0.1507092616800892,0.3489414506551146
1681249892627918600,5.752918701171875,1.0351917743682861,0.6352474093437195,-4.780888557434082,0.03250491991639137,0.8434518575668335,-0.5362206697463989,-0.05507257953286171,2.922295570373535,-2.0914645195007324,0.8160539918696579,-0.4548121436145215,-0.15822640117031753,0.31963470834774177
1681249892642951400,5.767951416015625,0.07794447988271713,-0.22240281105041504,-4.8691301345825195,-0.026773126795887947,0.8392918109893799,-0.5430217385292053,0.9395081996917725,2.6219358444213867,-1.9333117008209229,0.8292111797045894,-0.44600414429112023,-0.17195763069737263,0.28968929611373706
1681249892657984500,5.782984619140625,-0.14704351127147675,-0.47291305661201477,-4.774245738983154,-0.09138045459985733,0.8356397151947021,-0.5416235327720642,1.1425584554672241,2.1556172370910645,-1.446535348892212,0.8384372627092014,-0.43903786312294635,-0.190876872749991,0.26045146563845784
1681249892673017600,5.798017578125,-0.41754844784736633,-0.35796675086021423,-4.05655574798584,-0.15047936141490936,0.8295269012451172,-0.5378114581108093,0.9329501390457153,1.486055612564087,-0.9863123893737793,0.8452764219980508,-0.4331334278616888,-0.20854182982056876,0.23326716626172833
1681249892688050400,5.813050537109375,-1.398878574371338,-0.26777079701423645,-3.007995128631592,-0.1967419534921646,0.8269879221916199,-0.5266723036766052,0.9460248351097107,1.390495777130127,-0.7426145672798157,0.8480004840786914,-0.4322530243539334,-0.22320659921774022,0.21031275964291885
1681249892703084500,5.82808447265625,-3.170804500579834,-0.4820266366004944,-2.2334530353546143,-0.23164299130439758,0.8363856077194214,-0.49679064750671387,0.89411860704422,0.5394538640975952,-0.23625659942626953,0.8437407748942153,-0.4419046668551085,-0.23732875840254375,0.19104223485178334
1681249892718117400,5.843117431640625,-3.936746835708618,-0.8409273028373718,-1.8130286931991577,-0.26232293248176575,0.8550469279289246,-0.44730478525161743,0.9040313363075256,0.22303247451782227,-0.07379785180091858,0.8327336911846142,-0.46046553386477657,-0.2536121032498098,0.17380209080659226
1681249892733150500,5.858150390625,-2.7539093494415283,-0.6976907849311829,-1.2811115980148315,-0.28755560517311096,0.8706507682800293,-0.3990979492664337,0.7586097121238708,-0.061629533767700195,-0.013499408960342407,0.8208939803116074,-0.4779001675060151,-0.26844450338273285,0.16025663485444286
1681249892748183600,5.87318359375,-0.9909539222717285,-0.08064061403274536,-0.8165313601493835,-0.30370569229125977,0.8768277168273926,-0.3727414011955261,0.6315865516662598,-0.09830886125564575,-0.07597354054450989,0.8145063359790089,-0.486742992367189,-0.276966703809773,0.15149327603622909
1681249892763216400,5.88821630859375,0.03230801969766617,0.6102840304374695,-0.16063155233860016,-0.3088247776031494,0.8766677379608154,-0.36889204382896423,0.392656534910202,-0.3332103490829468,0.22858771681785583,0.8142393286468512,-0.4884065988927078,-0.2775121130197285,0.14649450662320238
1681249892778249500,5.90324951171875,0.14354251325130463,0.987643837928772,0.38728561997413635,-0.3023492097854614,0.8765803575515747,-0.37442252039909363,0.3962365388870239,-0.5730370283126831,0.4740779399871826,0.8162614704758967,-0.4887712620526823,-0.27182970670436013,0.14466788600666708
1681249892793282600,5.918282470703125,-0.027964428067207336,1.1154325008392334,0.5899681448936462,-0.2896801829338074,0.8784804344177246,-0.37994444370269775,0.6050946116447449,-1.1739819049835205,0.7940376996994019,0.8180817904279312,-0.4905821829930975,-0.26335698140082237,0.14392585777099734
1681249892808315400,5.9333154296875,-0.1483273208141327,1.228669285774231,0.744205117225647,-0.27426254749298096,0.8817831873893738,-0.3837168216705322,0.6625224351882935,-1.436363697052002,0.8840528130531311,0.8193042950259696,-0.4936599633178113,-0.2538531736074134,0.14352334101277303
1681249892823348500,5.948348388671875,-0.15605704486370087,1.3315356969833374,0.9796556830406189,-0.2554265856742859,0.8861453533172607,-0.3866572678089142,0.6419164538383484,-1.6530060768127441,0.9163663983345032,0.8201656945523167,-0.4976532911158632,-0.24292503778166452,0.14372554215077823
1681249892838381600,5.963381591796875,-0.02914532460272312,1.418229103088379,1.3885211944580078,-0.2318035215139389,0.8910378813743591,-0.39028045535087585,0.5959545373916626,-1.6471412181854248,0.8743810653686523,0.8209485138596089,-0.5018827095381023,-0.2301597574454515,0.14554705923989614
1681249892853414700,5.97841455078125,0.28495705127716064,1.4924026727676392,1.8744107484817505,-0.20088759064674377,0.8953635096549988,-0.39745262265205383,0.5451259016990662,-1.4848713874816895,0.7716289162635803,0.8222469241882102,-0.5051944204336791,-0.21459797393769714,0.15045440326283646
1681249892868447500,5.993447509765625,0.5116745829582214,1.536191701889038,2.395336151123047,-0.16282783448696136,0.8987168073654175,-0.4071800410747528,0.49838387966156006,-1.4046521186828613,0.726958692073822,0.8236923684878357,-0.5077233416701282,-0.19653749742933235,0.15849678774811476
1681249892883480600,6.00848046875,0.5673683881759644,1.4741759300231934,2.8922414779663086,-0.11762097477912903,0.9008123278617859,-0.41797468066215515,0.4826112389564514,-1.2664430141448975,0.6813568472862244,0.8246927156971859,-0.5098172886609468,-0.1763490703587094,0.16991049300809163
1681249892898513400,6.023513427734375,0.5939617156982422,1.2788493633270264,3.3080737590789795,-0.06666865944862366,0.901492178440094,-0.4276299476623535,0.48707884550094604,-1.2097651958465576,0.6658961772918701,0.8244649742358896,-0.5119970333134987,-0.15506150253498893,0.18458788449835203
1681249892913546200,6.038546142578125,0.7036212682723999,1.0936506986618042,3.5893139839172363,-0.012145048938691616,0.8993648886680603,-0.43703049421310425,0.5362082123756409,-1.0900232791900635,0.5961188673973083,0.8232057504549445,-0.5134946062661639,-0.1334467741385815,0.20210850507387793
1681249892928580600,6.05358056640625,1.1680693626403809,0.8899495005607605,3.7391490936279297,0.04411374777555466,0.8924192786216736,-0.44904568791389465,0.4958643317222595,-0.984597384929657,0.5736950039863586,0.8217522393698439,-0.5128456927568236,-0.11165327013398951,0.22191509231072326
1681249892943613400,6.068613525390625,1.9016554355621338,0.6103660464286804,3.6240367889404297,0.09870652109384537,0.8781659603118896,-0.4680616855621338,0.4614589512348175,-0.7201762199401855,0.4104142189025879,0.8216303931975534,-0.5078084753194277,-0.08999837592600701,0.24280544501385598
1681249892958646500,6.083646484375,3.390104055404663,0.129623144865036,3.3250908851623535,0.14645196497440338,0.8523728847503662,-0.5020085573196411,0.4475879967212677,-0.45744460821151733,0.3211463689804077,0.8252146473716304,-0.4941016011234693,-0.06970878332738159,0.2646230883728654
1681249892973679600,6.0986796875,4.6680121421813965,-0.09538361430168152,3.54669451713562,0.18900495767593384,0.8124911189079285,-0.5514847636222839,0.4817104935646057,0.24645382165908813,-0.18772703409194946,0.8325600163481212,-0.47100906950195504,-0.04907198955168663,0.2873784477388318
1681249892988712400,6.11371240234375,7.512301445007324,0.4520169198513031,3.348635673522949,0.2314087599515915,0.7479245662689209,-0.6221405863761902,0.4010070860385895,0.6940311789512634,-0.2284145951271057,0.8452067560539673,-0.43406201349148105,-0.022800781539446487,0.31095960771125003
1681249893003745300,6.128745361328125,9.761713027954102,2.194459915161133,3.298661708831787,0.2777758836746216,0.647668182849884,-0.7094833254814148,0.15403270721435547,1.6252508163452148,-0.9917036294937134,0.8642409749311862,-0.380790829977823,0.016021247944620065,0.3283737676357188
1681249893018778400,6.1437783203125,7.604650974273682,3.7622756958007812,3.8085970878601074,0.34478139877319336,0.5291124582290649,-0.7753488421440125,0.14351525902748108,2.4738783836364746,-1.3024402856826782,0.8784323836591307,-0.3279544247404764,0.06907588481295508,0.3406333052017285
1681249893033811500,6.1588115234375,1.8215211629867554,2.038179397583008,3.7095980644226074,0.4123061001300812,0.44481414556503296,-0.7950749397277832,0.3658922612667084,1.3333232402801514,-1.9147027730941772,0.8779059163266364,-0.2993378127149069,0.11339932438916561,0.3561164514959976
1681249893048844300,6.17384423828125,-4.006986618041992,-1.6761935949325562,2.8857431411743164,0.43445801734924316,0.44649189710617065,-0.7822348475456238,1.4716242551803589,-0.5018506050109863,-2.424659013748169,0.865364657777031,-0.30873891973323203,0.11645973170922187,0.3771758925051026
1681249893063877400,6.18887744140625,-4.00474214553833,-2.9700753688812256,2.8592634201049805,0.42579811811447144,0.4750004708766937,-0.7701108455657959,2.781813144683838,-0.547204852104187,-2.0344696044921875,0.8485921393236523,-0.32541111604945683,0.09514300691298487,0.4061368660151468
1681249893078910500,6.203910400390625,-3.2454774379730225,-2.75294828414917,2.3179588317871094,0.411350816488266,0.5001423358917236,-0.7620027661323547,1.5995593070983887,0.7007092833518982,-1.8249568939208984,0.8334463926940852,-0.3373568433866831,0.07203465281381119,0.4317042764288731
1681249893093943300,6.218943359375,-3.199753761291504,-2.8108489513397217,2.249940872192383,0.3974006474018097,0.5225074291229248,-0.7543598413467407,0.43406620621681213,0.6344293355941772,-1.0212136507034302,0.8190427265725031,-0.3468374390074732,0.05023805259366611,0.4542566365104168
1681249893108976400,6.233976318359375,-3.6882996559143066,-2.888690710067749,2.25343656539917,0.38318899273872375,0.547749400138855,-0.7437317371368408,0.30309048295021057,0.5752518773078918,-0.6996274590492249,0.8028998687214528,-0.3569608116932737,0.026703985784694535,0.4766738142338992
1681249893124009500,6.249009521484375,-4.074860572814941,-2.699784994125366,2.0579097270965576,0.3704833388328552,0.578717827796936,-0.7265176773071289,-0.0888364315032959,0.3254266381263733,-0.18707168102264404,0.7845795999149787,-0.36978210666697614,0.0015362729941837021,0.497688585800078
1681249893139042300,6.264042236328125,-4.1725568771362305,-2.331129312515259,1.8613191843032837,0.36078140139579773,0.6126019954681396,-0.703246533870697,-0.3399682641029358,0.2545704245567322,0.021667122840881348,0.7651857823727242,-0.38448211396162907,-0.02345729630693149,0.5158624798461682
1681249893154075400,6.279075439453125,-3.808084011077881,-2.017632007598877,1.7663787603378296,0.3555073142051697,0.6444990038871765,-0.6769310235977173,-0.6848680973052979,0.22412294149398804,0.3427485227584839,0.7456326421322682,-0.3992491777689142,-0.04620142702021676,0.5315050469541656
1681249893169109200,6.294109130859375,-2.9226717948913574,-1.7471295595169067,1.5082236528396606,0.35311436653137207,0.6697108149528503,-0.6532976627349854,-0.7602644562721252,0.11584228277206421,0.4477619528770447,0.7277747524487613,-0.41119964182471924,-0.06531488342355403,0.544970576258621
1681249893184142300,6.309142333984375,-1.9217498302459717,-1.4920536279678345,1.220453143119812,0.3510081171989441,0.6857740879058838,-0.6375792622566223,-0.8325753211975098,-0.09403812885284424,0.5978455543518066,0.7138080600712894,-0.41812512597722085,-0.07988578354881473,0.556118626155445
1681249893199175400,6.324175537109375,-1.193979024887085,-1.1848984956741333,0.8228349089622498,0.34925776720046997,0.6948131322860718,-0.6286922693252563,-0.8755027055740356,-0.20778292417526245,0.6854550838470459,0.7036906548800521,-0.4213476318227436,-0.0901113129187042,0.5649476922007391
1681249893214208300,6.339208251953125,-0.883898138999939,-0.8678295016288757,0.08235101401805878,0.34422624111175537,0.7018755674362183,-0.6236017942428589,-1.0549347400665283,-0.6165940761566162,0.7536678910255432,0.6978660205192753,-0.422510546372227,-0.09840705153616779,0.5698983418279703
1681249893229241300,6.354241455078125,-0.8532853722572327,-0.6472102999687195,-0.47413885593414307,0.3349960446357727,0.7111139297485352,-0.6181380748748779,-1.1217542886734009,-0.8207787275314331,0.7307329177856445,0.6954358188962843,-0.4237214705768616,-0.10672896044078946,0.5704718455040818
