time,seconds_elapsed,rotationRateX,rotationRateY,rotationRateZ,gravityX,gravityY,gravityZ,accelerationX,accelerationY,accelerationZ,quaternionW,quaternionX,quaternionY,quaternionZ
1681574325032600300,0.107600341796875,0.04620302841067314,0.07975064963102341,0.3182508945465088,-0.029250934720039368,-0.4060479700565338,-0.9133835434913635,-0.019546672701835632,-0.0032232999801635742,0.021904051303863525,0.9781062767873987,0.20756842652791238,-0.0149528405534621,1.144080784411483e-17
1681574325042645500,0.1176455078125,0.03935680165886879,0.06877585500478745,0.3042789101600647,-0.029833955690264702,-0.40633803606033325,-0.9132356643676758,-0.027996856719255447,-0.0034520328044891357,0.03019428253173828,0.9780671215791854,0.20774958387530387,-0.014909370166120981,0.0016106578553648217
1681574325052691500,0.12769140625,0.03675809130072594,0.06831512600183487,0.29155856370925903,-0.03042485937476158,-0.40659236907958984,-0.913102924823761,-0.03753779083490372,-0.001809149980545044,0.03566157817840576,0.9780294984896967,0.207910936677122,-0.01488508048756727,0.003147412406301516
1681574325062736400,0.137736328125,0.040657222270965576,0.07411480695009232,0.28228065371513367,-0.03094860352575779,-0.40682893991470337,-0.9129799604415894,-0.04305652529001236,-0.0027627646923065186,0.034058451652526855,0.9779920862780075,0.2080621591270306,-0.01483779273280492,0.004628702039502577
1681574325072781300,0.14778125,0.033074673265218735,0.08552059531211853,0.2784595489501953,-0.03134622424840927,-0.4070746898651123,-0.9128568768501282,-0.05433187633752823,-0.002684861421585083,0.027892887592315674,0.9779526698508915,0.20821768826489775,-0.01472987688934775,0.0060897333769498125
1681574325082826500,0.157826416015625,0.007051555439829826,0.09282203763723373,0.2873300015926361,-0.03166035935282707,-0.407147079706192,-0.9128137230873108,-0.06341715157032013,-0.003238081932067871,0.01993042230606079,0.9779312242316287,0.20828042450323922,-0.014574272010987167,0.007574136177403397
1681574325092872400,0.16787255859375,-0.03288041427731514,0.09748097509145737,0.2958212196826935,-0.031978484243154526,-0.4069313108921051,-0.91289883852005,-0.06741727143526077,-0.010259270668029785,0.010707676410675049,0.9779398314020061,0.20818967623360962,-0.014409881012821374,0.009113061437293365
1681574325102920700,0.177920654296875,-0.07480648159980774,0.0923701822757721,0.29859012365341187,-0.03231451287865639,-0.4063299000263214,-0.9131548404693604,-0.06602838635444641,-0.02004644274711609,0.004539787769317627,0.9779896295492462,0.2078928281872256,-0.014252722071924467,0.010670123818170384
1681574325112966000,0.1879658203125,-0.11890123784542084,0.0789387971162796,0.3087570071220398,-0.032753363251686096,-0.40532422065734863,-0.9135860800743103,-0.0620647594332695,-0.03130608797073364,0.004391133785247803,0.9781580325494192,0.2071875001912039,-0.01674236713074138,1.4467686698572973e-17
1681574325123010600,0.198010498046875,-0.16243547201156616,0.06578535586595535,0.31179752945899963,-0.03334592282772064,-0.40393322706222534,-0.9141805171966553,-0.054819364100694656,-0.036969542503356934,0.008540928363800049,0.9783086544967516,0.20647184582830277,-0.016706877619817866,0.001590911287615886
1681574325133055700,0.2080556640625,-0.20845623314380646,0.0508522130548954,0.3117043077945709,-0.034058503806591034,-0.40212127566337585,-0.9149527549743652,-0.04991061985492706,-0.03701150417327881,0.020848751068115234,0.978502168086139,0.20553218430685452,-0.016737588425480697,0.003169744245223749
1681574325143101700,0.218101806640625,-0.25625309348106384,0.03308289498090744,0.31512540578842163,-0.03492247313261032,-0.3998681604862213,-0.9159071445465088,-0.046803608536720276,-0.04074472188949585,0.032285988330841064,0.9787396621330293,0.2043585886804753,-0.016852050658761542,0.004734161103565457
1681574325153146600,0.228146728515625,-0.29247501492500305,0.016935350373387337,0.30803367495536804,-0.035938382148742676,-0.39723098278045654,-0.9170147180557251,-0.04510105773806572,-0.04133719205856323,0.04308289289474487,0.9790139473589645,0.202982164243038,-0.01705514811990275,0.00626637476049587
1681574325163191800,0.23819189453125,-0.31565216183662415,0.0064741275273263454,0.29284968972206116,-0.0370209775865078,-0.39431390166282654,-0.9182298183441162,-0.0436522476375103,-0.041660308837890625,0.052507221698760986,0.9793136891416242,0.20145818575034044,-0.01731152286759974,0.0077290327896046875
1681574325173236700,0.24823681640625,-0.32922443747520447,-0.007870988920331001,0.28106358647346497,-0.038153938949108124,-0.39119651913642883,-0.9195159673690796,-0.043678950518369675,-0.03987959027290344,0.057959020137786865,0.9796300180054768,0.19982941368168922,-0.0176133610886591,0.009119741256499772
1681574325183281700,0.25828173828125,-0.33341091871261597,-0.0218880046159029,0.2598501741886139,-0.0393473356962204,-0.3880239725112915,-0.9208089709281921,-0.0443318746984005,-0.03780314326286316,0.06483674049377441,0.9799470459609427,0.19817299139772881,-0.017971458163219736,0.010408026684919268
1681574325193327600,0.26832763671875,-0.3296412229537964,-0.026913123205304146,0.23414695262908936,-0.0405285581946373,-0.3848632574081421,-0.9220833778381348,-0.0452105812728405,-0.034463584423065186,0.06873565912246704,0.9802591337954825,0.19652346356867942,-0.01835341641616175,0.01156693976878255
1681574325203372800,0.278372802734375,-0.3274269998073578,-0.03678661584854126,0.21249890327453613,-0.04168492183089256,-0.38171687722206116,-0.9233388304710388,-0.04695339500904083,-0.028195321559906006,0.0721120834350586,0.9805664989308455,0.1948820369019666,-0.018750283354044335,0.012605371734548811
1681574325213417700,0.288417724609375,-0.3250512182712555,-0.04561446234583855,0.1936434656381607,-0.04283451661467552,-0.37861043214797974,-0.9245644211769104,-0.049771085381507874,-0.02483201026916504,0.0780373215675354,0.9808664643008227,0.1932624426318085,-0.01916836733032735,0.013534180173527295
1681574325223463000,0.298462890625,-0.34236225485801697,-0.04825122654438019,0.17261087894439697,-0.043962541967630386,-0.37543997168540955,-0.9258034825325012,-0.05137438327074051,-0.030901670455932617,0.0850595235824585,0.9811705315402848,0.19160935845987986,-0.019598497955641832,0.014361521261387528
1681574325233508900,0.3085087890625,-0.3704093396663666,-0.06077127903699875,0.14976441860198975,-0.04507376626133919,-0.37205740809440613,-0.9271146655082703,-0.05154489725828171,-0.03719869256019592,0.09972214698791504,0.981493925833821,0.18984403669747754,-0.020047325654715526,0.015067920194586526
1681574325243553500,0.318553466796875,-0.3915688693523407,-0.07619184255599976,0.13407041132450104,-0.04624709486961365,-0.36843743920326233,-0.9285014867782593,-0.05374376103281975,-0.041566312313079834,0.12010616064071655,0.9818378015096549,0.18795425687202202,-0.020553457736486,0.01566011954683935
1681574325253598700,0.3285986328125,-0.4141300916671753,-0.08175891637802124,0.12072505056858063,-0.047459956258535385,-0.3646295368671417,-0.9299423694610596,-0.05353797972202301,-0.04963141679763794,0.13914042711257935,0.9821962992722135,0.1859668823123984,-0.021098020091861555,0.01617266562840677
1681574325263643600,0.3386435546875,-0.42309990525245667,-0.09086760878562927,0.10325656831264496,-0.048669472336769104,-0.3606482148170471,-0.931431233882904,-0.05490719899535179,-0.05573374032974243,0.15579652786254883,0.9825681075516708,0.1838891990656491,-0.02165964453171469,0.016600543477652687
1681574325273688800,0.348688720703125,-0.42751091718673706,-0.09415847808122635,0.08580221235752106,-0.04988505691289902,-0.356627881526947,-0.9329137802124023,-0.05930684879422188,-0.05676332116127014,0.17282772064208984,0.9829397112765174,0.18179194938472718,-0.02224436823631656,0.0169295438415078
1681574325283734800,0.35873486328125,-0.421215295791626,-0.09321408718824387,0.07548671960830688,-0.051058486104011536,-0.3525962829589844,-0.9343815445899963,-0.06416064500808716,-0.05774316191673279,0.1814519166946411,0.9833083761624658,0.17968973144959374,-0.02282147758707325,0.017189030441048598
1681574325293779700,0.36877978515625,-0.41230833530426025,-0.08916342258453369,0.059682462364435196,-0.052158478647470474,-0.3486476242542267,-0.9358014464378357,-0.06696689873933792,-0.05088859796524048,0.1899518370628357,0.983665650545595,0.17763189077176278,-0.023370787864103154,0.017396640621006442
1681574325303824600,0.37882470703125,-0.3901419937610626,-0.08887958526611328,0.04633629694581032,-0.05318251624703407,-0.3448416292667389,-0.9371530413627625,-0.07236681133508682,-0.05150550603866577,0.19189858436584473,0.9840066648507836,0.17564901425587504,-0.023893287699639318,0.017535558262001604
1681574325313869800,0.388869873046875,-0.36288294196128845,-0.08050181716680527,0.04064086079597473,-0.054147686809301376,-0.34127098321914673,-0.9384040236473083,-0.07938198745250702,-0.05707502365112305,0.18791580200195312,0.984322837882542,0.17378993665877465,-0.024393363076811683,0.017624149104436704
1681574325323914800,0.398914794921875,-0.3470948338508606,-0.06524476408958435,0.02715434692800045,-0.05495435371994972,-0.33790624141693115,-0.9395740628242493,-0.08359546214342117,-0.06477329134941101,0.17942696809768677,0.9846187360490922,0.17203830050512428,-0.02481526621555279,0.01769141134140347
1681574325333960700,0.408960693359375,-0.3531138300895691,-0.05737566575407982,0.009812108241021633,-0.05560510233044624,-0.3346005380153656,-0.9407181143760681,-0.08141882717609406,-0.08040806651115417,0.1631150245666504,0.9849091730633451,0.17031571854235064,-0.025169491344039393,0.017690013853484957
1681574325344006000,0.419005859375,-0.3735434412956238,-0.06881237030029297,0.011111997067928314,-0.05623194947838783,-0.3311578929424286,-0.9418983459472656,-0.08477453142404556,-0.10210025310516357,0.15620803833007812,0.9852097051439912,0.1685215922611622,-0.02552084591145393,0.017639219752473425
1681574325354050600,0.429050537109375,-0.37632855772972107,-0.08470211923122406,0.021224819123744965,-0.05703078210353851,-0.3275820314884186,-0.9430999755859375,-0.08588305115699768,-0.12018722295761108,0.159637451171875,0.9855151895232294,0.1666620128133394,-0.025957625316242506,0.01760302809572781
1681574325364095700,0.439095703125,-0.3516976237297058,-0.09510374814271927,0.02806514874100685,-0.05797255411744118,-0.32409030199050903,-0.9442481994628906,-0.08166063576936722,-0.12471655011177063,0.1631355881690979,0.9858063356155372,0.16485094731611352,-0.026458701169391828,0.017610582128750378
1681574325374141700,0.4491416015625,-0.3029066324234009,-0.09933577477931976,0.028498178347945213,-0.05900721997022629,-0.3209690749645233,-0.9452496767044067,-0.07667393982410431,-0.12271082401275635,0.1577131152153015,0.9860599341969519,0.1632360564693533,-0.027002549447936442,0.01762770673176944
1681574325384186600,0.4591865234375,-0.2543632388114929,-0.09883684664964676,0.02794051170349121,-0.06005282327532768,-0.31832462549209595,-0.9460777640342712,-0.07436186075210571,-0.11772584915161133,0.15452808141708374,0.9862694671091841,0.16187118577357112,-0.027547106894465243,0.01765318516120361
1681574325394231800,0.469231689453125,-0.2016552835702896,-0.1034582331776619,0.040059760212898254,-0.06112031266093254,-0.3161415755748749,-0.9467411637306213,-0.07285186648368835,-0.11534655094146729,0.14715009927749634,0.9864364143158594,0.1607487346255876,-0.028093964184937183,0.017712403402543344
1681574325404276700,0.47927685546875,-0.15308500826358795,-0.11372105032205582,0.04853420332074165,-0.0622933991253376,-0.3144381642341614,-0.9472318291664124,-0.0700003132224083,-0.11436441540718079,0.13639509677886963,0.9865588921682426,0.15987904614526502,-0.02868391854001485,0.017815494393666028
1681574325414321700,0.48932177734375,-0.12251271307468414,-0.11070608347654343,0.05746538192033768,-0.06353674829006195,-0.3131236135959625,-0.9475846886634827,-0.059967897832393646,-0.12208765745162964,0.12164169549942017,0.9866456566218311,0.15921438506455776,-0.02929931600258402,0.017965291581596463
1681574325424367600,0.49936767578125,-0.12062251567840576,-0.11289570480585098,0.05926940590143204,-0.06480161845684052,-0.31197836995124817,-0.9478766918182373,-0.04858645051717758,-0.1395597755908966,0.10310441255569458,0.9867162251641036,0.15863965194295143,-0.02991832574431592,0.01815379768950887
1681574325434412800,0.509412841796875,-0.15784631669521332,-0.12459950149059296,0.05784860998392105,-0.06613323092460632,-0.3106444776058197,-0.9482227563858032,-0.03811483085155487,-0.17493605613708496,0.084300696849823,0.9868006587020862,0.15796770272172286,-0.030574869358747224,0.018328509850638337
1681574325444457700,0.519457763671875,-0.22065883874893188,-0.14186054468154907,0.0634782612323761,-0.06758175045251846,-0.30879926681518555,-0.9487231969833374,-0.02714482694864273,-0.21884974837303162,0.07494395971298218,0.9869243618735244,0.15703169316564614,-0.03129602816758478,0.018493477865471637
1681574325454503000,0.5295029296875,-0.25943365693092346,-0.15835615992546082,0.07361026108264923,-0.06924651563167572,-0.30645951628685,-0.9493616223335266,-0.01739288866519928,-0.2470683753490448,0.08144176006317139,0.9870824564320395,0.155843104251218,-0.03212658387974769,0.018683353913749867
1681574325464548900,0.539548828125,-0.26772233843803406,-0.16438861191272736,0.0892225056886673,-0.07104763388633728,-0.3038623631000519,-0.9500631093978882,-0.012768901884555817,-0.2597668468952179,0.08752959966659546,0.9872557266801413,0.15452507438512092,-0.03302196955181245,0.01891400352302716
1681574325474593500,0.549593505859375,-0.22986763715744019,-0.14468707144260406,0.10922898352146149,-0.07283434271812439,-0.3014086186885834,-0.9507092237472534,-0.007869400084018707,-0.2517530918121338,0.08733642101287842,0.987413159596193,0.15328564491153326,-0.033895441121489615,0.019234472544211057
1681574325484638700,0.559638671875,-0.18112370371818542,-0.11492269486188889,0.12248753011226654,-0.07444004714488983,-0.2993911802768707,-0.9512221813201904,-0.011756867170333862,-0.23674169182777405,0.07750391960144043,0.9875341508049218,0.1522759163989178,-0.03465495437772252,0.019681854335345927
1681574325494683600,0.56968359375,-0.1282501071691513,-0.0940893217921257,0.132425919175148,-0.07582525163888931,-0.29784825444221497,-0.9515970349311829,-0.014232128858566284,-0.2281375229358673,0.05193889141082764,0.9876183462693923,0.15151339916218426,-0.035286888092488415,0.02021372106497956
1681574325504728800,0.579728759765625,-0.08488943427801132,-0.07862123847007751,0.1291704624891281,-0.0770505964756012,-0.2967499792575836,-0.9518417119979858,-0.0094057098031044,-0.22133171558380127,0.023115575313568115,0.9876685727801476,0.15098119778678007,-0.03583045004385848,0.02077535330067393
1681574325514774800,0.58977490234375,-0.03520364314317703,-0.059653934091329575,0.140611931681633,-0.07813285291194916,-0.2960907220840454,-0.9519587755203247,-0.0019147694110870361,-0.22545474767684937,-0.008108913898468018,0.9876853949033474,0.1506767821121101,-0.03629201546822476,0.02137908650911683
1681574325524819700,0.59981982421875,0.0247099120169878,-0.03598973900079727,0.14705412089824677,-0.07928889244794846,-0.2995188534259796,-0.9507900476455688,0.006931699812412262,-0.22112634778022766,-0.03585845232009888,0.9873759714541409,0.15249295735724694,-0.03675418425974947,0.021996083954851593
1681574325534864600,0.60986474609375,0.07767725735902786,-0.015210158191621304,0.12795552611351013,-0.08004137128591537,-0.30295613408088684,-0.9496372938156128,0.01630539447069168,-0.21468311548233032,-0.06368362903594971,0.9870701182820185,0.15431007990096707,-0.03701026953513879,0.02261001646758129
1681574325544909800,0.619909912109375,0.10597923398017883,0.002284591319039464,0.10932697355747223,-0.0805189311504364,-0.3064822554588318,-0.9484647512435913,0.027525149285793304,-0.213781476020813,-0.07190573215484619,0.986760488722581,0.1561686614305619,-0.03713467807801222,0.023157231950466105
1681574325554955800,0.629955810546875,0.11708249151706696,0.017245963215827942,0.08886724710464478,-0.08073712140321732,-0.3099585175514221,-0.9473158121109009,0.030810363590717316,-0.21320438385009766,-0.06425029039382935,0.9864582191494287,0.15799621878096246,-0.03713882442651037,0.02362501810327231
1681574325565000700,0.640000732421875,0.12393605709075928,0.03640438988804817,0.06809139251708984,-0.08080638200044632,-0.3134267330169678,-0.946168065071106,0.03325998783111572,-0.2139934003353119,-0.04832345247268677,0.9861580339792094,0.15981582541002537,-0.03707919416259706,0.0240104299981846
1681574325575046000,0.6500458984375,0.09750925004482269,0.08725319057703018,0.05839695408940315,-0.08047694712877274,-0.31606289744377136,-0.9453188180923462,0.03718775510787964,-0.2203294038772583,-0.03281527757644653,0.9859343125944862,0.1611957768875781,-0.03683067207273653,0.024354556389888378
1681574325585090600,0.660090576171875,0.05002671852707863,0.13771802186965942,0.06207877770066261,-0.07960391044616699,-0.31787750124931335,-0.9447841644287109,0.03947329521179199,-0.22979098558425903,-0.026224076747894287,0.9857893531554638,0.16214078572102858,-0.03630814394705211,0.02473020522784438
1681574325595135700,0.6701357421875,-0.041887491941452026,0.18906989693641663,0.0887783020734787,-0.0782565250992775,-0.3187738358974457,-0.9445947408676147,0.0456179603934288,-0.23652410507202148,-0.024277329444885254,0.9857292511410152,0.16260313802258464,-0.03553678653710679,0.025206240493326728
1681574325605181700,0.680181640625,-0.1382557898759842,0.24692359566688538,0.13686832785606384,-0.0764838457107544,-0.3185644745826721,-0.9448105096817017,0.0626135990023613,-0.24256229400634766,-0.015180885791778564,0.9857659283274798,0.16248938762820372,-0.03452452912675868,0.025902114966642326
1681574325615226600,0.6902265625,-0.2173658013343811,0.31687501072883606,0.22193768620491028,-0.07427378743886948,-0.31736981868743896,-0.9453887343406677,0.08458872139453888,-0.2295815646648407,-0.0006256699562072754,0.9858841122840541,0.16186607897795288,-0.033241760074389545,0.026962857543020795
1681574325625271800,0.700271728515625,-0.2643180191516876,0.39801737666130066,0.34154611825942993,-0.07165851444005966,-0.31546860933303833,-0.9462265372276306,0.10400713235139847,-0.19292381405830383,0.010496556758880615,0.9860509892659636,0.16088368232346195,-0.031673015601207014,0.028579949940203006
1681574325635316700,0.710316650390625,-0.2929166555404663,0.48031172156333923,0.48218125104904175,-0.06864867359399796,-0.31317007541656494,-0.9472126960754395,0.12333615869283676,-0.12941116094589233,0.017616748809814453,0.986230984536521,0.15970481922282428,-0.02979987786252009,0.03089933267471481
1681574325645362700,0.72036279296875,-0.3262788951396942,0.5521726608276367,0.6499806046485901,-0.06536834686994553,-0.31056323647499084,-0.9483023881912231,0.13490262627601624,-0.06294146180152893,0.00770491361618042,0.9864040985073363,0.15837658419461503,-0.027670434245735787,0.034032448060395945
1681574325655407600,0.73040771484375,-0.3460904061794281,0.581425666809082,0.8330766558647156,-0.06224552541971207,-0.30686280131340027,-0.9497161507606506,0.14305606484413147,-0.010504812002182007,-0.020254552364349365,0.9866129633910841,0.15649840250867691,-0.02549881243593773,0.03811734692280997
1681574325665452800,0.740452880859375,-0.3709965944290161,0.5534818768501282,0.9811883568763733,-0.05960266664624214,-0.30284079909324646,-0.9511755704879761,0.16520872712135315,0.028197795152664185,-0.05108267068862915,0.9867804340028159,0.1544722667787893,-0.023463412398399688,0.04303747563092917
1681574325675497700,0.750497802734375,-0.3979640305042267,0.5005360841751099,1.0239120721817017,-0.057607922703027725,-0.29857540130615234,-0.9526458382606506,0.22199083864688873,0.06040087342262268,-0.046667516231536865,0.9869043481456014,0.15233367066157572,-0.0217150299706176,0.0484023242261772
1681574325685543000,0.76054296875,-0.5056143403053284,0.4404049515724182,1.0228862762451172,-0.05613233149051666,-0.29364416003227234,-0.954265296459198,0.28377819061279297,0.06819543242454529,-0.0007975101470947266,0.9870360731704396,0.14985493092122498,-0.020269210642158118,0.0537835078386445
1681574325695588900,0.7705888671875,-0.589834988117218,0.3904658854007721,1.0611937046051025,-0.055204495787620544,-0.28775691986083984,-0.9561110734939575,0.30207642912864685,0.05559435486793518,0.0722762942314148,0.9871940039303797,0.14689326359172195,-0.019152543180148602,0.059192452424052744
1681574325705633500,0.780633544921875,-0.6820906400680542,0.390176385641098,1.0917481184005737,-0.05454013869166374,-0.28105056285858154,-0.9581419229507446,0.28748080134391785,0.029387295246124268,0.1481749415397644,0.9873588733362,0.14351851242137284,-0.018206421315189597,0.06475678436877513
1681574325715678700,0.7906787109375,-0.7471979856491089,0.3998734951019287,1.0933101177215576,-0.053765345364809036,-0.2734858989715576,-0.9603722095489502,0.26676276326179504,-0.023038208484649658,0.18742305040359497,0.9875379352277717,0.1396991503055012,-0.017264108306920246,0.07039205547797343
1681574325725723600,0.8007236328125,-0.7182995676994324,0.4161463677883148,1.1355451345443726,-0.0528230145573616,-0.26572027802467346,-0.9626019597053528,0.2337922304868698,-0.0432550311088562,0.21159487962722778,0.9876780278526187,0.13577208582791747,-0.016278068713513172,0.07611297389299113
1681574325735768800,0.810768798828125,-0.5982727408409119,0.4569492042064667,1.2219719886779785,-0.051704008132219315,-0.2586696445941925,-0.9645811319351196,0.20964771509170532,-0.02071884274482727,0.19962751865386963,0.9876917569953153,0.13220911841928215,-0.015172268821360869,0.0821915997818607
1681574325745814800,0.820814697265625,-0.4435698390007019,0.48231422901153564,1.3211328983306885,-0.05039430782198906,-0.25291046500205994,-0.9661763310432434,0.19663453102111816,0.02642419934272766,0.13283288478851318,0.9875258379275376,0.12930138919895326,-0.01389179156873131,0.08877438784811294
1681574325755859700,0.830859619140625,-0.2539895176887512,0.5037151575088501,1.4286396503448486,-0.0490577258169651,-0.24883094429969788,-0.9673037528991699,0.1947791427373886,0.0887661725282669,0.03758573532104492,0.9871459447029118,0.12724856258414238,-0.012487620960157337,0.09588916838878185
1681574325765904600,0.840904541015625,-0.07253803312778473,0.5320033431053162,1.5330981016159058,-0.04771813377737999,-0.24650631844997406,-0.9679657220840454,0.2050667405128479,0.1365513950586319,-0.04286801815032959,0.9865398976924568,0.12608419253448963,-0.010950930725536703,0.10354617547669619
1681574325775949800,0.85094970703125,0.06359449028968811,0.6070895791053772,1.6532527208328247,-0.04612492024898529,-0.24574272334575653,-0.968237042427063,0.2211889773607254,0.15611252188682556,-0.11203938722610474,0.9857083176172999,0.1256896781444137,-0.009141821938633787,0.11179350959033431
1681574325785995800,0.860995849609375,0.10333745926618576,0.6875640749931335,1.7432668209075928,-0.043984949588775635,-0.24583767354488373,-0.9683125615119934,0.21927788853645325,0.13985005021095276,-0.1547648310661316,0.9846846808548686,0.1256805632178824,-0.006937425710310228,0.12063359107510212
1681574325796040700,0.871040771484375,0.03952465578913689,0.6849592328071594,1.7524172067642212,-0.04156329110264778,-0.24581612646579742,-0.9684249758720398,0.1994764804840088,0.059796154499053955,-0.1826828122138977,0.9835559018917207,0.1255653456161043,-0.004566871028088385,0.12973223274268988
1681574325806086000,0.8810859375,-0.06201927736401558,0.6403908133506775,1.733393669128418,-0.039374783635139465,-0.24498678743839264,-0.9687265157699585,0.17868749797344208,-0.03992539644241333,-0.20043236017227173,0.9824006395319895,0.12502421857125728,-0.002381785555782221,0.13875331714763064
1681574325816130800,0.891130859375,-0.15039467811584473,0.6123277544975281,1.7222696542739868,-0.03751577436923981,-0.24325929582118988,-0.9692355394363403,0.18209277093410492,-0.09330388903617859,-0.21493804454803467,0.9812305168113183,0.12402434649983156,-0.00045253506830991366,0.14766331380437114
1681574325826176000,0.901176025390625,-0.22610196471214294,0.6051677465438843,1.6956417560577393,-0.0357227586209774,-0.2407560497522354,-0.9699280261993408,0.2017536163330078,-0.10744960606098175,-0.2367979884147644,0.9800418558896292,0.12261383619647738,0.0013506372200101106,0.1564673393105054
1681574325836221700,0.9112216796875,-0.2649652063846588,0.6166092157363892,1.6595876216888428,-0.03377153351902962,-0.2377198338508606,-0.9707465171813965,0.20024488866329193,-0.12937618792057037,-0.25839465856552124,0.9788349394235923,0.12090031306657471,0.003140437286330665,0.16509250663101022
1681574325846266600,0.9212666015625,-0.2754199206829071,0.6540703773498535,1.6469080448150635,-0.03146235644817352,-0.2344902604818344,-0.9716091752052307,0.17130912840366364,-0.16475602984428406,-0.280908465385437,0.9775838860791517,0.11903753699068388,0.005046019269071018,0.17359301451941586
1681574325856311800,0.931311767578125,-0.2380608469247818,0.7074742317199707,1.6469892263412476,-0.028644921258091927,-0.23143412172794342,-0.9724287986755371,0.1379435956478119,-0.17997342348098755,-0.3154587745666504,0.976248341615844,0.1171919907598226,0.007186749458486113,0.1820816621256131
1681574325866356700,0.941356689453125,-0.1662607192993164,0.7689902186393738,1.6079922914505005,-0.025160597637295723,-0.22896519303321838,-0.9731093645095825,0.10832096636295319,-0.16242282092571259,-0.3475845456123352,0.9748139906488383,0.11554944235288961,0.009676267396445148,0.19050598126222093
1681574325876403000,0.95140283203125,-0.06216282397508621,0.8302136063575745,1.5588359832763672,-0.020918089896440506,-0.2274298071861267,-0.9735698103904724,0.07005135715007782,-0.15294136106967926,-0.3757649064064026,0.9732918689502574,0.11426619608451177,0.012583527885001507,0.1987157282927909
1681574325886447900,0.96144775390625,0.05861392989754677,0.9041638970375061,1.5115259885787964,-0.015871409326791763,-0.22709108889102936,-0.9737442135810852,0.018267003819346428,-0.1435754895210266,-0.4004470705986023,0.9716704350788464,0.11345868795963934,0.015969706197348308,0.20670956716892278
1681574325896492800,0.971492919921875,0.17037348449230194,0.9807825088500977,1.4525407552719116,-0.009942390955984592,-0.2279987782239914,-0.9736106395721436,-0.03430813550949097,-0.12530329823493958,-0.41765516996383667,0.9699546198564608,0.11313311343565126,0.019888978982170187,0.21446066171571757
1681574325906537700,0.981537841796875,0.2669057548046112,1.0197603702545166,1.3718982934951782,-0.0032650423236191273,-0.22999124228954315,-0.9731872081756592,-0.08285559713840485,-0.11337734758853912,-0.43645018339157104,0.9681756533607747,0.11321599601440123,0.02425958732252083,0.2218773300919457
1681574325916583000,0.9915830078125,0.33360037207603455,1.040566325187683,1.2682819366455078,0.003966174554079771,-0.23283463716506958,-0.9725082516670227,-0.12469375133514404,-0.110182985663414,-0.43818199634552,0.9663791844585893,0.1136111606147344,0.028954768342717655,0.22883489616311373
1681574325926628900,1.00162890625,0.3644394874572754,1.0312867164611816,1.1554057598114014,0.011960429139435291,-0.23601408302783966,-0.9716760516166687,-0.1590399444103241,-0.11725747585296631,-0.4240606427192688,0.9646282828145432,0.11404129008695492,0.034008396526483,0.23522398268466435
1681574325936673800,1.011673828125,0.38283446431159973,0.9903548359870911,1.0194039344787598,0.019606992602348328,-0.23967263102531433,-0.9706557393074036,-0.1891016662120819,-0.12307463586330414,-0.39048922061920166,0.9629385510175134,0.1147155625059346,0.03889038303982154,0.24099217780828397
1681574325946719000,1.021718994140625,0.38212648034095764,0.937682569026947,0.8758020401000977,0.02683795429766178,-0.24357032775878906,-0.969511866569519,-0.21218650043010712,-0.1315365582704544,-0.33168137073516846,0.9613628190346531,0.11553934288753381,0.04352855387643356,0.2460439454353947
1681574325956763600,1.031763671875,0.36016926169395447,0.8945491909980774,0.7585803270339966,0.0338202565908432,-0.247419536113739,-0.968317985534668,-0.23792186379432678,-0.13089169561862946,-0.26132673025131226,0.9599201596671787,0.11636002347700064,0.04797226543166843,0.25042463247022045
1681574325966809900,1.041809814453125,0.3247305750846863,0.8450604677200317,0.6668218970298767,0.04055676981806755,-0.25100767612457275,-0.9671351313591003,-0.26734820008277893,-0.11537119746208191,-0.17887622117996216,0.9585978223944874,0.11707514338027143,0.052209755396544884,0.25427919774545243
1681574325976854800,1.051854736328125,0.2616370916366577,0.7887578010559082,0.583558976650238,0.04694852605462074,-0.25412261486053467,-0.9660318493843079,-0.29230988025665283,-0.09672275185585022,-0.09607136249542236,0.9574000044660331,0.1175968311060911,0.05616994597624136,0.25768418314660874
1681574325986900000,1.06189990234375,0.17282693088054657,0.758134126663208,0.5057949423789978,0.05307883769273758,-0.25648313760757446,-0.9650901556015015,-0.31050992012023926,-0.07405281066894531,-0.00890880823135376,0.9563420324606818,0.11778027823889935,0.059855817240850435,0.26068213306103905
1681574325996945000,1.07194482421875,0.07133014500141144,0.7426883578300476,0.4453079104423523,0.059151116758584976,-0.25792399048805237,-0.9643528461456299,-0.33449599146842957,-0.05332484841346741,0.07145428657531738,0.9554154237233645,0.11751786450248775,0.06334934069241002,0.2633589202588794
1681574326006989800,1.08198974609375,-0.02593705803155899,0.72016441822052,0.40221452713012695,0.06518717110157013,-0.25838786363601685,-0.9638394117355347,-0.3710801601409912,-0.03366541862487793,0.14032256603240967,0.9546025059107489,0.11677654127626944,0.06665993233233132,0.26580812787063823
1681574326017035800,1.092035888671875,-0.12796755135059357,0.7077658176422119,0.3580739498138428,0.07112673670053482,-0.2578873038291931,-0.9635533690452576,-0.404653400182724,-0.00425875186920166,0.20096492767333984,0.9538946839366582,0.11557124971057783,0.06976095492279162,0.26807045024025816
1681574326027080700,1.102080810546875,-0.2241939902305603,0.6869792938232422,0.29389575123786926,0.0770564153790474,-0.25641053915023804,-0.9634915590286255,-0.4252925515174866,0.03445613384246826,0.257391095161438,0.9533043233234662,0.11389095988241715,0.07268479274748317,0.2701050069234001
1681574326037126000,1.1121259765625,-0.29516908526420593,0.6443900465965271,0.2026715725660324,0.08290150761604309,-0.25405246019363403,-0.9636309742927551,-0.44281062483787537,0.06989407539367676,0.3042987585067749,0.9528669614571181,0.1118070748178603,0.07539018995565226,0.271772300268674
1681574326047170800,1.1221708984375,-0.33171865344047546,0.582066535949707,0.09114052355289459,0.08848372846841812,-0.2510514259338379,-0.963921070098877,-0.4595164656639099,0.09336701035499573,0.34934282302856445,0.9526097174831897,0.10947658362996388,0.07780966127282694,0.2729384950790708
1681574326057216000,1.132216064453125,-0.3428876996040344,0.4961377680301666,-0.05125444009900093,0.09369055926799774,-0.2476634979248047,-0.9643054008483887,-0.4750535190105438,0.10874740779399872,0.38622617721557617,0.952559981296299,0.10705739541722707,0.0799125977039942,0.27346326243404967
1681574326067261700,1.14226171875,-0.28777873516082764,0.39770588278770447,-0.1950150728225708,0.09834359586238861,-0.24437063932418823,-0.9646821022033691,-0.4845283329486847,0.12338362634181976,0.40767526626586914,0.9527230562605778,0.10482416876581074,0.08167526722201066,0.27323959905548195
1681574326077306600,1.152306640625,-0.16100828349590302,0.2903301417827606,-0.3114798963069916,0.10228420048952103,-0.24187396466732025,-0.9649015069007874,-0.4944809079170227,0.13353650271892548,0.43798506259918213,0.9530539248319144,0.10314432816869169,0.0831293482289755,0.2722849895664984
1681574326087351800,1.162351806640625,0.007231432478874922,0.1821736842393875,-0.43478479981422424,0.10545410960912704,-0.2407366782426834,-0.9648447036743164,-0.5026251673698425,0.12075674533843994,0.4732217788696289,0.9534987094020309,0.1022975613966442,0.08433779682868414,0.2706704373900439
1681574326097396700,1.172396728515625,0.11621091514825821,0.0706799253821373,-0.59757399559021,0.10791867226362228,-0.24080969393253326,-0.9645538926124573,-0.49540039896965027,0.0845901370048523,0.49572765827178955,0.9541112359719229,0.10221756889833043,0.08529133052519694,0.2682325657630312
1681574326107443000,1.18244287109375,0.16656097769737244,-0.06902500987052917,-0.7400099635124207,0.10957443714141846,-0.24145333468914032,-0.9642062783241272,-0.47764697670936584,0.06400880217552185,0.5092349648475647,0.9549383891074831,0.10260724738871226,0.08584063623503517,0.26494522196867276
1681574326117487900,1.19248779296875,0.1905643194913864,-0.2524219751358032,-0.8284932374954224,0.10993051528930664,-0.24232609570026398,-0.9639467597007751,-0.44928601384162903,0.0558331161737442,0.5237306952476501,0.9559533674409344,0.10334260875446366,0.08571421497658037,0.2610107849496174
1681574326127532800,1.20253271484375,0.1438690572977066,-0.4448647201061249,-0.8856593370437622,0.10865213721990585,-0.2430197298526764,-0.963917076587677,-0.40862470865249634,0.03664453327655792,0.5333598256111145,0.9571279189000432,0.10423876756742378,0.08470973787573026,0.25664144393499805
1681574326137577700,1.21257763671875,0.1297372579574585,-0.6839324235916138,-0.9424017071723938,0.10542479902505875,-0.24332524836063385,-0.9641983509063721,-0.37069886922836304,0.03315061330795288,0.5112106800079346,0.9584609248735136,0.1052141931334777,0.08264866330417664,0.2518967669794928
1681574326147623000,1.222622802734375,0.1472683995962143,-0.91041499376297,-1.0011765956878662,0.10000285506248474,-0.2436574250459671,-0.9646919369697571,-0.33074629306793213,0.06818129122257233,0.4829719662666321,0.9599316939042993,0.10649021408572149,0.0794599056612926,0.2467330422640155
1681574326157668900,1.2326689453125,0.15812531113624573,-1.0342952013015747,-1.0756809711456299,0.0930432453751564,-0.24411819875240326,-0.9652715921401978,-0.2911634147167206,0.10782663524150848,0.45704716444015503,0.9614992217093562,0.10801646855038205,0.07547609584006522,0.24115381259952093
1681574326167713800,1.2427138671875,0.18426628410816193,-1.003392219543457,-1.16900634765625,0.0857996866106987,-0.2447775900363922,-0.9657754898071289,-0.2826991379261017,0.10883696377277374,0.4161997437477112,0.963130630951973,0.10966773777028711,0.07131078911980164,0.23508976730767972
1681574326177758700,1.2527587890625,0.21075274050235748,-0.8305716514587402,-1.165575623512268,0.07970819622278214,-0.245721697807312,-0.9660576581954956,-0.3561059236526489,0.05347613990306854,0.3772820830345154,0.9647152778714919,0.11129559896021107,0.06770854458210061,0.22880842054978706
1681574326187803600,1.2628037109375,0.24901579320430756,-0.6664142608642578,-1.0513372421264648,0.07528088241815567,-0.24703314900398254,-0.9660783410072327,-0.46508195996284485,-0.0012274235486984253,0.25768911838531494,0.9660970979665486,0.11285205248495063,0.06500176661203623,0.22292528282502763
1681574326197849900,1.272849853515625,0.31800761818885803,-0.685002326965332,-0.9513930678367615,0.07127693295478821,-0.24907031655311584,-0.9658589959144592,-0.4901154637336731,0.021805837750434875,0.05568748712539673,0.967247253196146,0.11465757050790049,0.06264301708425153,0.21762905546311573
1681574326207894800,1.282894775390625,0.2634165287017822,-0.8221026659011841,-0.9899308681488037,0.06644966453313828,-0.25129613280296326,-0.96562659740448,-0.38898998498916626,0.05987456440925598,-0.13575279712677002,0.9683395681501704,0.1166158663108841,0.05989530709707497,0.21244248901799917
1681574326217940000,1.29293994140625,0.1902240663766861,-0.9787077307701111,-1.1651948690414429,0.06037325784564018,-0.2527735233306885,-0.9656400084495544,-0.2590884864330292,0.0414239764213562,-0.2965974807739258,0.9696022013923019,0.1183408038903646,0.056351121143375454,0.2066197143322587
1681574326227985000,1.30298486328125,0.20403514802455902,-1.0279797315597534,-1.3300154209136963,0.053728267550468445,-0.25392046570777893,-0.965731680393219,-0.18950100243091583,0.027952998876571655,-0.3625001311302185,0.9710419126003238,0.11997023631306705,0.052357447554950955,0.1998590941897525
1681574326238029800,1.31302978515625,0.26403379440307617,-1.0106443166732788,-1.4075528383255005,0.04730834811925888,-0.2554943263530731,-0.9656524062156677,-0.16925662755966187,0.042618900537490845,-0.3628387451171875,0.9725107345905988,0.12177379720517284,0.04842455205101358,0.19248165352062002
1681574326248075800,1.32307568359375,0.261290580034256,-1.0056731700897217,-1.4895625114440918,0.04126027226448059,-0.25745689868927,-0.9654085040092468,-0.15509086847305298,0.06452468037605286,-0.3592527508735657,0.9739492004406933,0.1237033650713745,0.04464564333123839,0.1847359046775184
1681574326258120700,1.33312060546875,0.17257560789585114,-1.0101126432418823,-1.6621603965759277,0.03553042188286781,-0.25898587703704834,-0.9652273654937744,-0.1349567174911499,0.04447773098945618,-0.3577095866203308,0.9754529473585836,0.12536059473795444,0.04087816753745213,0.17636736781755813
1681574326268166000,1.343165771484375,0.04603106528520584,-1.0232810974121094,-1.8343379497528076,0.03023553267121315,-0.25948160886764526,-0.9652746319770813,-0.12670162320137024,-0.02887904644012451,-0.3475610613822937,0.9770937647579699,0.12643791731436596,0.03709634112435977,0.16710839528229915
1681574326278210800,1.3532109375,-0.08936910331249237,-1.0091735124588013,-1.917763352394104,0.025203609839081764,-0.2587337791919708,-0.9656198024749756,-0.1408957839012146,-0.11219218373298645,-0.3573629856109619,0.978821086437425,0.12682586936084,0.033245971901102706,0.1572238633384703
1681574326288256800,1.3632568359375,-0.18748615682125092,-0.9688221216201782,-1.9468352794647217,0.02059229277074337,-0.2569153904914856,-0.9662144780158997,-0.1345449537038803,-0.14796140789985657,-0.41900885105133057,0.9805463886401536,0.12658254446044492,0.029489163433028702,0.1470925271887436
1681574326298301700,1.3733017578125,-0.23079608380794525,-0.9237121939659119,-1.8947513103485107,0.016321949660778046,-0.25450611114501953,-0.9669334292411804,-0.09797175228595734,-0.11304768919944763,-0.5238960385322571,0.9821853742081771,0.12595011882926516,0.02588161664178738,0.1370349668082445
1681574326308346600,1.3833466796875,-0.19030466675758362,-0.8793063163757324,-1.803674340248108,0.012228196486830711,-0.25214245915412903,-0.9676128625869751,-0.05910322442650795,-0.07114556431770325,-0.6314013600349426,0.9836588979498075,0.12526078837107785,0.022434424929548183,0.12736406783221096
1681574326318391800,1.393391845703125,-0.05044742301106453,-0.8421528339385986,-1.7438448667526245,0.008251163177192211,-0.25075462460517883,-0.9680155515670776,-0.008647914044559002,-0.05255967378616333,-0.7432118654251099,0.9849184967990205,0.12499824690162095,0.019174899524878893,0.11808270755634767
1681574326328436700,1.403436767578125,0.15291136503219604,-0.7890457510948181,-1.7143535614013672,0.004591288045048714,-0.25112295150756836,-0.967944324016571,0.046891842037439346,-0.039373934268951416,-0.841381847858429,0.9859449696687094,0.1255588588210558,0.016211631892363042,0.10901766016014712
1681574326338483000,1.41348291015625,0.32722699642181396,-0.7286151647567749,-1.6983453035354614,0.0014460692182183266,-0.2534641623497009,-0.9673436880111694,0.09299055486917496,-0.024902015924453735,-0.8961053490638733,0.9867419386598536,0.12705404548442095,0.013616845570776744,0.10006196907550863
1681574326348527900,1.42352783203125,0.4018782675266266,-0.6981267929077148,-1.6511034965515137,-0.0014537787064909935,-0.2570740580558777,-0.9663906097412109,0.13269460201263428,-0.01268613338470459,-0.8895205855369568,0.987350714177252,0.12914777102034022,0.011204742507741516,0.09128999878583018
1681574326358572800,1.43357275390625,0.35924503207206726,-0.717616617679596,-1.5902843475341797,-0.0043737078085541725,-0.26090967655181885,-0.9653533101081848,0.1759282499551773,-0.010361135005950928,-0.8219696283340454,0.9878376982223094,0.13132421023809787,0.008791775462892722,0.08278520148377644
1681574326368617700,1.44361767578125,0.2061970978975296,-0.770946204662323,-1.5401841402053833,-0.0075534796342253685,-0.2637779712677002,-0.9645538330078125,0.23477208614349365,-0.02909928560256958,-0.7000884413719177,0.9882929234549037,0.13298328069386026,0.006206629023631609,0.07452596498011888
1681574326378663700,1.45366357421875,0.035282619297504425,-0.8177017569541931,-1.5347667932510376,-0.011235426180064678,-0.2651028633117676,-0.9641546607017517,0.29417914152145386,-0.07200965285301208,-0.5649590492248535,0.9887729926171127,0.13383480931798597,0.003302370432000542,0.06637292380863033
1681574326388708900,1.463708984375,-0.15895795822143555,-0.8613814115524292,-1.5515515804290771,-0.015314173884689808,-0.2647233009338379,-0.9642028212547302,0.33547407388687134,-0.12562713027000427,-0.4380341172218323,0.9893027762707325,0.1337855845536165,0.00012392885763833224,0.05815043706017185
1681574326398753800,1.47375390625,-0.37701332569122314,-0.9091132879257202,-1.5811901092529297,-0.019786560907959938,-0.2623901069164276,-0.9647589921951294,0.3574482798576355,-0.16061410307884216,-0.31490403413772583,0.9898998558657843,0.13270067322555074,-0.0033211863306473197,0.04977848820803928
1681574326408798700,1.483798828125,-0.5113366842269897,-0.9140511751174927,-1.6381216049194336,-0.02448185905814171,-0.25835198163986206,-0.9657406210899353,0.3664160370826721,-0.1667427122592926,-0.1911044716835022,0.9905433878838563,0.13069705206242468,-0.006926728554244307,0.04116163535160383
1681574326418843600,1.49384375,-0.5207746624946594,-0.8403322100639343,-1.6678049564361572,-0.028805693611502647,-0.2537141740322113,-0.966850221157074,0.3426026701927185,-0.15271902084350586,-0.09584814310073853,0.9911512623600528,0.12832702636695292,-0.010347017891139508,0.032318889108188066
1681574326428889900,1.503889892578125,-0.3875141441822052,-0.6918917298316956,-1.6241557598114014,-0.03215650096535683,-0.24976913630962372,-0.9677713513374329,0.29022839665412903,-0.09866540133953094,-0.02501124143600464,0.9916297196336211,0.1262529205301483,-0.01321120347667827,0.023584626836054497
1681574326438934800,1.513934814453125,-0.26478421688079834,-0.5257695913314819,-1.5293328762054443,-0.03414652869105339,-0.24710725247859955,-0.9683862924575806,0.23603555560112,-0.004525512456893921,0.021395325660705566,0.9919469623792383,0.12479259796843636,-0.015285939658731824,0.01530878134420454
1681574326448980000,1.52397998046875,-0.13483926653862,-0.3625742495059967,-1.3681737184524536,-0.034892961382865906,-0.24570231139659882,-0.968717098236084,0.1976126730442047,0.08482882380485535,0.06466442346572876,0.9921180173749441,0.12395741741748746,-0.016613167276793687,0.007778946266989434
1681574326459025000,1.53402490234375,-0.017255380749702454,-0.21000471711158752,-1.1617417335510254,-0.03457280620932579,-0.24538105726242065,-0.9688100218772888,0.1667139083147049,0.13652479648590088,0.1258077621459961,0.992171113376501,0.12368099326371114,-0.01726266224693302,0.0012846559965297155
1681574326469070800,1.54407080078125,0.12304630130529404,-0.0813923105597496,-0.960098385810852,-0.03337329253554344,-0.24624741077423096,-0.9686322212219238,0.15399400889873505,0.1650705635547638,0.1840100884437561,0.9921186672250532,0.12403055076549721,-0.017329086059730273,-0.004078546592105168
1681574326479115800,1.55411572265625,0.23885758221149445,0.025320548564195633,-0.7753536105155945,-0.03148765116930008,-0.24831295013427734,-0.9681679606437683,0.16355246305465698,0.19464771449565887,0.22865080833435059,0.9919745537693302,0.12501774640853686,-0.016928741441606443,-0.008391255480218438
1681574326489160700,1.56416064453125,0.28179213404655457,0.058666788041591644,-0.6110399961471558,-0.029301216825842857,-0.2510925531387329,-0.9675194621086121,0.1891675442457199,0.23240044713020325,0.25935912132263184,0.9917766506634504,0.1263939007921229,-0.016273809626255485,-0.011783603569646233
1681574326499206000,1.574205810546875,0.2791934013366699,0.01404871977865696,-0.47016966342926025,-0.0275767482817173,-0.25398847460746765,-0.9668140411376953,0.235035240650177,0.2710171937942505,0.3050403594970703,0.9915639651380377,0.12784544651208385,-0.015764701625500803,-0.01441847460617418
1681574326509250800,1.584250732421875,0.24079564213752747,-0.06521473079919815,-0.33830592036247253,-0.026817647740244865,-0.2566671669483185,-0.9661277532577515,0.2920916974544525,0.2845143675804138,0.38209760189056396,0.9913598607268245,0.12919262179104496,-0.01566536265796097,-0.016418801448532628
1681574326519296800,1.594296875,0.17758390307426453,-0.1582581251859665,-0.23853644728660583,-0.027174390852451324,-0.2587853968143463,-0.9655525088310242,0.3432754576206207,0.27231985330581665,0.48244404792785645,0.9911891919620028,0.13025287572006047,-0.016060090577313717,-0.017898971731461384
1681574326529341700,1.604341796875,0.04468430206179619,-0.2479626089334488,-0.14644646644592285,-0.0286690853536129,-0.25994673371315,-0.9651972651481628,0.3782632052898407,0.25622349977493286,0.6086604595184326,0.9910796163133472,0.1308183753163583,-0.01696799603924322,-0.01897357668548154
1681574326539386600,1.61438671875,-0.11238253861665726,-0.32571515440940857,-0.06488156318664551,-0.031255628913640976,-0.25965991616249084,-0.9651941657066345,0.4013880789279938,0.23590189218521118,0.7426753044128418,0.9910648575776609,0.1306356344619686,-0.01836397528594154,-0.019688927023433153
1681574326549431800,1.624431884765625,-0.24208758771419525,-0.3715548813343048,0.029347194358706474,-0.03468934819102287,-0.2579135000705719,-0.9655450582504272,0.410086065530777,0.21300682425498962,0.875853955745697,0.9911466030351646,0.1297021292957543,-0.02012024049219452,-0.020026150905444868
1681574326559477800,1.634477783203125,-0.2942730188369751,-0.36329641938209534,0.15521404147148132,-0.03852982446551323,-0.2552351951599121,-0.9661110043525696,0.40188735723495483,0.18823379278182983,0.9887703061103821,0.9912928475835945,0.12829795342606473,-0.02200319182502468,-0.019849849983278656
1681574326569523000,1.64452294921875,-0.2920834720134735,-0.30242159962654114,0.29248616099357605,-0.0423707589507103,-0.2522643208503723,-0.9667302966117859,0.3803224265575409,0.17978501319885254,1.0429022312164307,0.9914657799861123,0.1267620406437619,-0.023795936372769888,-0.01899209276101117
1681574326579567900,1.65456787109375,-0.2332952618598938,-0.20873773097991943,0.4389408230781555,-0.045767657458782196,-0.24950042366981506,-0.9672925472259521,0.3593357801437378,0.1912117600440979,1.0220715999603271,0.9916375045788793,0.1253598343899536,-0.025271344540096018,-0.01735950761275274
1681574326589612800,1.66461279296875,-0.16330333054065704,-0.08420277386903763,0.6113003492355347,-0.048509132117033005,-0.24736997485160828,-0.967706024646759,0.3425459861755371,0.2189732789993286,0.9477170705795288,0.9917820456429438,0.1243148912070749,-0.026320923451783117,-0.014881991981045272
1681574326599657700,1.67465771484375,-0.1716398149728775,0.092635378241539,0.876008927822113,-0.050310585647821426,-0.24542652070522308,-0.9681088328361511,0.31428763270378113,0.23535564541816711,0.8184811472892761,0.9919316560335502,0.12340858232747094,-0.026756615027581157,-0.01122645787068368
1681574326609703700,1.68470361328125,-0.1958022266626358,0.2777431309223175,1.2107748985290527,-0.05101385340094566,-0.24310903251171112,-0.968656599521637,0.2690924406051636,0.23056623339653015,0.6493969559669495,0.9921154433961384,0.12236205467444489,-0.026443007753119776,-0.005946210261123263
1681574326619748900,1.694748779296875,-0.26700448989868164,0.4306272268295288,1.5986385345458984,-0.05095987394452095,-0.2402171939611435,-0.9693806171417236,0.21931008994579315,0.19357101619243622,0.4899190068244934,0.9923149063639054,0.12107033071635696,-0.02552770060208529,0.0012258869771295808
1681574326629793800,1.704793701171875,-0.42610010504722595,0.5373857617378235,2.010620594024658,-0.050518766045570374,-0.23593394458293915,-0.9704550504684448,0.16775202751159668,0.11679325997829437,0.2958335280418396,0.9925309270121178,0.11911014600157421,-0.024191791801309554,0.010480054037108
1681574326639838700,1.714838623046875,-0.5361675024032593,0.5325194001197815,2.3969876766204834,-0.0504123717546463,-0.23005159199237823,-0.9718718528747559,0.1629459261894226,0.06165550649166107,0.06708669662475586,0.9927049271546183,0.11637146254205501,-0.02284219386818765,0.021746111470815326
1681574326649884700,1.724884765625,-0.5425231456756592,0.4837639629840851,2.680461883544922,-0.05124088376760483,-0.22345158457756042,-0.9733672142028809,0.24986453354358673,0.09030331671237946,-0.06436771154403687,0.9927143341675485,0.11330886869200328,-0.021851471362398452,0.03466783885084051
1681574326659929900,1.734929931640625,-0.48000091314315796,0.46030551195144653,2.857900619506836,-0.05280487239360809,-0.2169448286294937,-0.9747546315193176,0.4073733389377594,0.17226700484752655,-0.13420838117599487,0.9924733703049693,0.11033511986674518,-0.02118598196602843,0.04872350138790736
1681574326669974800,1.744974853515625,-0.423811674118042,0.4518575370311737,2.8803467750549316,-0.054495275020599365,-0.211037278175354,-0.9759577512741089,0.5018677115440369,0.18084006011486053,-0.2226048707962036,0.9919563947319376,0.10768801938799082,-0.02060128748062275,0.0632573514352741
1681574326680020000,1.75502001953125,-0.4641471207141876,0.3777316212654114,2.8414578437805176,-0.0563424713909626,-0.20513714849948883,-0.9771101474761963,0.5054696798324585,0.07067662477493286,-0.34341591596603394,0.9912207850539948,0.10505925638540684,-0.02018587821872688,0.0776949530463392
1681574326690066000,1.76506591796875,-0.565933883190155,0.3022269308567047,2.789278745651245,-0.05870560556650162,-0.19845770299434662,-0.9783497452735901,0.48824048042297363,-0.044996365904808044,-0.4689006209373474,0.9903238266010166,0.10206921622258247,-0.020174495470835867,0.09183492196884778
1681574326700110800,1.77511083984375,-0.6818733215332031,0.31623196601867676,2.730053424835205,-0.06111402437090874,-0.1906731277704239,-0.9797493815422058,0.46643322706222534,-0.12799149751663208,-0.5702841877937317,0.9892984660437044,0.09854263960955961,-0.02036321439900082,0.105656950878414
1681574326710155800,1.78515576171875,-0.8304681181907654,0.3585039973258972,2.6640470027923584,-0.06278645992279053,-0.18155860900878906,-0.98137366771698,0.41491350531578064,-0.2032070904970169,-0.6820784211158752,0.9881771828044247,0.09432446701603343,-0.020397230132785247,0.11913296495120852
1681574326720200700,1.79520068359375,-0.9288508892059326,0.3506218194961548,2.634359121322632,-0.0639629065990448,-0.17118005454540253,-0.9831612706184387,0.3386058211326599,-0.25295332074165344,-0.8033071756362915,0.9869495647067684,0.08945831877296559,-0.020409828594353415,0.13232956506980015
1681574326730246000,1.805245849609375,-0.9333833456039429,0.3588382303714752,2.6171746253967285,-0.06482331454753876,-0.1601996123790741,-0.9849538207054138,0.2825967073440552,-0.27261602878570557,-0.9040995240211487,0.9855632711480654,0.08429030048364101,-0.0204508137313174,0.14540329729500304
1681574326740291800,1.815291748046875,-0.8023347854614258,0.3787629306316376,2.5288329124450684,-0.06515083461999893,-0.1498551070690155,-0.9865590929985046,0.23286014795303345,-0.27078402042388916,-0.9652994275093079,0.983996325491117,0.07941594170738123,-0.020336383246505996,0.15821121037134286
1681574326750336800,1.825336669921875,-0.5591719150543213,0.39834967255592346,2.3604323863983154,-0.06483376771211624,-0.14145860075950623,-0.9878188371658325,0.17869482934474945,-0.24584004282951355,-0.9766128659248352,0.9822830179188807,0.07545898441131921,-0.019912928389294593,0.17038069298965944
1681574326760381700,1.835381591796875,-0.24933604896068573,0.42263105511665344,2.133277177810669,-0.06383698433637619,-0.135976180434227,-0.988653302192688,0.1446322351694107,-0.20287582278251648,-0.928247332572937,0.9804860953291902,0.07287076727103796,-0.01905802733506438,0.1815866902796093
1681574326770426600,1.845426513671875,0.0718827098608017,0.4342309832572937,1.8888684511184692,-0.06218217685818672,-0.13386280834674835,-0.9890470504760742,0.11821241676807404,-0.16836808621883392,-0.835843026638031,0.9786743185607456,0.07185539094323395,-0.01769923328564246,0.19162518428626288
1681574326780472800,1.855472900390625,0.36007454991340637,0.43880656361579895,1.653361201286316,-0.059492383152246475,-0.1351054161787033,-0.9890435934066772,0.07003617286682129,-0.15723779797554016,-0.7323766946792603,0.9768986973565327,0.07235191331788209,-0.015601785798224497,0.2004760832822098
1681574326790516500,1.8655166015625,0.6135009527206421,0.4497089982032776,1.4558196067810059,-0.05704975500702858,-0.1391093134880066,-0.9886323809623718,0.005352940410375595,-0.15537013113498688,-0.6346738934516907,0.9751622879499577,0.0741895172042405,-0.013406692930554265,0.2082663047134631
1681574326800561400,1.8755615234375,0.8098587393760681,0.4811398983001709,1.3223129510879517,-0.05434611067175865,-0.1454770416021347,-0.9878678917884827,-0.06288720667362213,-0.15699800848960876,-0.5509657263755798,0.9734474275350644,0.07712405859992515,-0.010860165276962493,0.21525390145203366
1681574326810606300,1.8856064453125,0.9045115113258362,0.49627918004989624,1.2356083393096924,-0.05132447928190231,-0.15338845551013947,-0.9868322014808655,-0.11578981578350067,-0.1559072732925415,-0.4735864996910095,0.9717269165597925,0.08074749054817514,-0.0079840622561351,0.22172715208401395
1681574326820651300,1.8956513671875,0.8890058398246765,0.4872361719608307,1.1712888479232788,-0.04829598218202591,-0.1617620289325714,-0.9856472611427307,-0.14707759022712708,-0.16151072084903717,-0.3864229917526245,0.9700108763230247,0.08456375110948468,-0.0050335180461725006,0.22782129787120942
1681574326830697200,1.905697265625,0.7556390166282654,0.454179972410202,1.135223150253296,-0.045519646257162094,-0.1694316565990448,-0.984490156173706,-0.1622135490179062,-0.16209612786769867,-0.27492451667785645,0.9683256148357015,0.08803294568088832,-0.0022629379405697636,0.23364618402886517
1681574326840742400,1.915742431640625,0.5283334255218506,0.41530394554138184,1.1170873641967773,-0.04315435513854027,-0.17533667385578156,-0.9835622906684875,-0.17928831279277802,-0.15854094922542572,-0.14569491147994995,0.9667000342856601,0.09065784874326481,0.0001228214604729404,0.2393163836441585
1681574326850787300,1.925787353515625,0.25674664974212646,0.35892176628112793,1.1019585132598877,-0.04127250984311104,-0.17877842485904694,-0.9830233454704285,-0.21330517530441284,-0.14951449632644653,-0.012337982654571533,0.9651671611919505,0.09211070099455411,0.0019887019371965945,0.24487582793882984
1681574326860832500,1.93583251953125,-0.001822858233936131,0.2757996916770935,1.0759034156799316,-0.04003870114684105,-0.1795750856399536,-0.9829291701316833,-0.2648319602012634,-0.11580462753772736,0.11481088399887085,0.9637500149197951,0.09233168329197208,0.003207658184788688,0.2503012089818696
1681574326870878500,1.94587841796875,-0.16779732704162598,0.15865561366081238,1.036042332649231,-0.03975871577858925,-0.17827574908733368,-0.9831770062446594,-0.33276939392089844,-0.060280218720436096,0.22898083925247192,0.9624455005748035,0.09164062084981663,0.003674056680406254,0.25551373548778816
1681574326880923400,1.95592333984375,-0.23782382905483246,0.06381005793809891,0.9765262603759766,-0.040450453758239746,-0.17581571638584137,-0.9835916757583618,-0.41062989830970764,0.002536863088607788,0.3121592402458191,0.9612341562242043,0.09050988238939645,0.003481410564922583,0.2604320903208878
1681574326890968300,1.96596826171875,-0.19714118540287018,0.019268900156021118,0.8824492692947388,-0.04167894646525383,-0.17325039207935333,-0.9839954972267151,-0.48975419998168945,0.08322349190711975,0.37242329120635986,0.9601024714463574,0.08940603157519281,0.002967477399787791,0.26495477771449505
1681574326901013200,1.97601318359375,-0.12496606260538101,-0.006982410326600075,0.7190877795219421,-0.04295559227466583,-0.1713380366563797,-0.9842754006385803,-0.5586832165718079,0.16636362671852112,0.4169842004776001,0.959093493611282,0.08863566643047825,0.002451712637759015,0.26884457647167126
1681574326911058400,1.986058349609375,-0.08085406571626663,-0.07098464667797089,0.48960748314857483,-0.04433927685022354,-0.17009635269641876,-0.9844294190406799,-0.6049374938011169,0.2285832315683365,0.44951730966567993,0.9583145796475991,0.08821427608586464,0.0018809643264018994,0.27174960260256187
1681574326921104400,1.9961044921875,-0.06464339792728424,-0.13338199257850647,0.24182164669036865,-0.04595303535461426,-0.16927312314510345,-0.9844973087310791,-0.620779812335968,0.26395383477211,0.5111238956451416,0.9578464631114051,0.08803430815221111,0.0011453626466147119,0.2734570076455243
1681574326931149300,2.0061494140625,-0.15158534049987793,-0.20299245417118073,-0.03080029971897602,-0.047770123928785324,-0.16829213500022888,-0.9845789670944214,-0.612996518611908,0.2497587651014328,0.6000117659568787,0.9577421419754678,0.08780933333058034,0.00017293550801330965,0.27389673710159795
1681574326941194200,2.0161943359375,-0.33270585536956787,-0.3224181830883026,-0.32704100012779236,-0.05001197010278702,-0.16610419750213623,-0.9848392009735107,-0.587530791759491,0.17663270235061646,0.6975619792938232,0.9580892052265852,0.08705584417954837,-0.001301354319047887,0.272918750319477
1681574326951239400,2.026239501953125,-0.44509032368659973,-0.4680657684803009,-0.610039472579956,-0.053139202296733856,-0.16252446174621582,-0.9852725863456726,-0.5569682717323303,0.08937375247478485,0.8123905062675476,0.9588920546393525,0.08573975554073954,-0.0035230855665915016,0.2704852872761783
1681574326961285400,2.036285400390625,-0.3739524781703949,-0.6046617031097412,-0.8784583806991577,-0.05725346505641937,-0.1587459146976471,-0.9856580495834351,-0.5310797095298767,0.0032282769680023193,0.9310621023178101,0.9600643673420988,0.08444217656162924,-0.006363870795844083,0.2666559237896523
1681574326971330300,2.046330322265625,-0.11841963231563568,-0.6895721554756165,-1.1240495443344116,-0.0621248297393322,-0.15688462555408478,-0.9856610894203186,-0.5056089758872986,-0.04216635227203369,0.9713330864906311,0.9614752100517938,0.08414726148460419,-0.009418522490526946,0.26152650197847555
1681574326981375500,2.05637548828125,0.16610825061798096,-0.6902600526809692,-1.3222906589508057,-0.0670745000243187,-0.15796318650245667,-0.9851642847061157,-0.476489394903183,0.014499977231025696,0.9251514673233032,0.9630151719633822,0.0852553270338881,-0.012222625474621919,0.25531161366982297
1681574326991420200,2.066420166015625,0.3312202990055084,-0.6937861442565918,-1.5244909524917603,-0.07165788114070892,-0.1615278273820877,-0.9842631220817566,-0.43421679735183716,0.15077033638954163,0.8396251201629639,0.9646532278059278,0.08748832186512803,-0.014636522136797841,0.24814478840805818
1681574327001466400,2.07646630859375,0.40775129199028015,-0.6926085352897644,-1.732887864112854,-0.07586950808763504,-0.16641347110271454,-0.9831329584121704,-0.38781461119651794,0.26434433460235596,0.7197510004043579,0.9664291541063412,0.09027762745845634,-0.01683687488182236,0.23996098361659016
1681574327011511300,2.08651123046875,0.47290974855422974,-0.5895698070526123,-1.9008238315582275,-0.07917218655347824,-0.17217634618282318,-0.9818793535232544,-0.36997029185295105,0.2797507643699646,0.6508552432060242,0.9683220761041739,0.09334529397091826,-0.018627316008861257,0.23085098699746542
1681574327021556500,2.096556396484375,0.6629119515419006,-0.43950602412223816,-1.9811426401138306,-0.08082050085067749,-0.17925885319709778,-0.9804765582084656,-0.4191185235977173,0.197081059217453,0.5628893375396729,0.9702128555297622,0.09684334893447995,-0.019572385219786013,0.2211909207908535
1681574327031601400,2.106601318359375,0.9089070558547974,-0.36851343512535095,-1.9692686796188354,-0.0810459703207016,-0.18858835101127625,-0.9787063002586365,-0.512917697429657,0.12164796888828278,0.3402175307273865,0.9719341648655523,0.10129343496922352,-0.019659590704221946,0.21141702856172717
1681574327041646300,2.116646240234375,1.1716012954711914,-0.4104137420654297,-1.846603512763977,-0.08113633841276169,-0.20038069784641266,-0.9763526320457458,-0.5438331961631775,0.17370827496051788,-0.05091482400894165,0.9733378594943999,0.10697726409331065,-0.019481957076544223,0.20196481385088347
1681574327051692300,2.1266923828125,1.347885251045227,-0.4955756664276123,-1.6590282917022705,-0.08192592114210129,-0.21427443623542786,-0.9733316898345947,-0.4161210060119629,0.3388318419456482,-0.4518391489982605,0.9743252264206126,0.11382142295218345,-0.01946351104603288,0.19327794026827003
1681574327061737200,2.1367373046875,1.200316309928894,-0.6201242804527283,-1.6020421981811523,-0.08369999378919601,-0.2282641977071762,-0.9699947237968445,-0.21383117139339447,0.43160274624824524,-0.6933963894844055,0.9750454053959626,0.12084588284478669,-0.019972648738778607,0.18515945349481114
1681574327071782400,2.146782470703125,0.8412948250770569,-0.818713903427124,-1.6985183954238892,-0.08684582263231277,-0.23965652287006378,-0.9669656753540039,-0.09445914626121521,0.3919391632080078,-0.7157888412475586,0.9758285566331284,0.126699670995104,-0.021549217427958452,0.1767531734774066
1681574327081827300,2.156827392578125,0.5592761635780334,-0.9906406402587891,-1.8006764650344849,-0.09140338748693466,-0.2478976547718048,-0.9644647240638733,-0.09518112242221832,0.31222862005233765,-0.5904669165611267,0.9767919453347226,0.13106324141551567,-0.024291419297375834,0.16765974773375386
1681574327091873300,2.166873291015625,0.38576698303222656,-1.0866950750350952,-1.9887230396270752,-0.0967644453048706,-0.25425082445144653,-0.9622853994369507,-0.09778515249490738,0.22425195574760437,-0.4870706796646118,0.9778803444366196,0.13448289204180494,-0.027778744545772636,0.15777421698525787
1681574327101918500,2.17691845703125,0.20437215268611908,-1.136935830116272,-2.327228307723999,-0.10197466611862183,-0.25923338532447815,-0.9604161977767944,-0.03376755863428116,0.146531879901886,-0.49363958835601807,0.9791588284928906,0.13709731455124066,-0.031563305771956957,0.14647873942943965
1681574327111963400,2.18696337890625,-0.0006284305127337575,-1.1216238737106323,-2.595379114151001,-0.10641643404960632,-0.2628265619277954,-0.9589565992355347,0.008516021072864532,0.09455257654190063,-0.5407992005348206,0.9806362143124672,0.1388225232965688,-0.03535543171380952,0.13353308061803634
1681574327122008300,2.19700830078125,-0.20622579753398895,-1.0672633647918701,-2.608328104019165,-0.11004653573036194,-0.2646704316139221,-0.9580393433570862,-0.01918017864227295,0.025610893964767456,-0.5982808470726013,0.9821704414469514,0.13949624365038277,-0.039001756567625424,0.1198376070252584
1681574327132053200,2.20705322265625,-0.33076056838035583,-1.038934588432312,-2.381531000137329,-0.11355061829090118,-0.26478371024131775,-0.9575989842414856,-0.056096628308296204,-0.044481515884399414,-0.6683317422866821,0.9835743876623156,0.1392257913400062,-0.042622472825950095,0.10668235478231364
1681574327142099500,2.217099365234375,-0.23594830930233002,-0.9594351649284363,-2.1094822883605957,-0.11731548607349396,-0.26453420519828796,-0.9572140574455261,-0.06376058608293533,-0.0440748929977417,-0.7207339406013489,0.9846900152780216,0.13877336130384102,-0.04620526072373026,0.0948300453935334
1681574327152144400,2.227144287109375,0.010987174697220325,-0.7856335639953613,-1.9462206363677979,-0.12040845304727554,-0.2657935917377472,-0.956480860710144,-0.03376637399196625,0.01940983533859253,-0.7713786363601685,0.9854699042091523,0.13906084905567545,-0.049210403537596044,0.08419950239300246
1681574327162189300,2.237189208984375,0.2730773985385895,-0.5673406720161438,-1.8604172468185425,-0.12192461639642715,-0.2695012390613556,-0.9552505016326904,0.016608431935310364,0.10147136449813843,-0.8038132190704346,0.9859495211423634,0.14053465683212385,-0.05123253052574356,0.07435617072723265
1681574327172234200,2.247234130859375,0.4385732412338257,-0.3738628923892975,-1.7647743225097656,-0.12197931110858917,-0.275217205286026,-0.9536123871803284,0.06883292645215988,0.15903669595718384,-0.7784280180931091,0.9861843812388855,0.14299853773975002,-0.05239502634532121,0.06516499737033032
1681574327182280200,2.2572802734375,0.4696912169456482,-0.23368211090564728,-1.6302298307418823,-0.12019652128219604,-0.28170832991600037,-0.9519418478012085,0.12831416726112366,0.1605076789855957,-0.6978994607925415,0.9862858368378876,0.14583234687735178,-0.05255487712841503,0.056668699066675904
1681574327192325400,2.267325439453125,0.3582242429256439,-0.17796267569065094,-1.5070499181747437,-0.11767580360174179,-0.2875864505767822,-0.9504979848861694,0.202728271484375,0.11133208870887756,-0.5939965844154358,0.9863367704675254,0.148376696862327,-0.05230065353466522,0.04887454354358431
1681574327202370300,2.277370361328125,0.19577619433403015,-0.17239800095558167,-1.4493695497512817,-0.11508245766162872,-0.29197999835014343,-0.9494755268096924,0.30142277479171753,0.04628288745880127,-0.4623897075653076,0.9864147178454307,0.1501898519114793,-0.052012107096535067,0.041518931758863384
1681574327212415500,2.28741552734375,-0.021361101418733597,-0.17716774344444275,-1.4693325757980347,-0.11247898638248444,-0.2944900095462799,-0.9490121603012085,0.39952731132507324,-0.017582833766937256,-0.31449180841445923,0.9865778433575298,0.15104324891766296,-0.051767258698827756,0.034209160122516014
1681574327222461400,2.29746142578125,-0.27067214250564575,-0.18928858637809753,-1.5345209836959839,-0.1098155677318573,-0.2947860360145569,-0.9492321610450745,0.4693889021873474,-0.07969525456428528,-0.17813289165496826,0.9868682573365047,0.15074411931442608,-0.0515763417697168,0.026592945874635076
1681574327232506400,2.30750634765625,-0.4928058385848999,-0.1920231133699417,-1.5819880962371826,-0.1070486307144165,-0.29277464747428894,-0.9501702785491943,0.503761887550354,-0.11422309279441833,-0.06173151731491089,0.9872886709869896,0.14924099758842424,-0.05140011317230238,0.018611275779449477
1681574327242551300,2.31755126953125,-0.5769705772399902,-0.11548678576946259,-1.5675134658813477,-0.1039937436580658,-0.28924891352653503,-0.9515883326530457,0.5047505497932434,-0.10722026228904724,0.02960658073425293,0.9877670879178934,0.14695931624856584,-0.05107627382258668,0.010515894672289375
1681574327252596500,2.327596435546875,-0.5394922494888306,0.08424878865480423,-1.4548019170761108,-0.09981925040483475,-0.2853935956954956,-0.9531980752944946,0.47880178689956665,-0.06107255816459656,0.0917021632194519,0.98822621211889,0.1445400295562405,-0.05009125312029032,0.002823689684112231
1681574327262641400,2.337641357421875,-0.4161573052406311,0.32960742712020874,-1.2557625770568848,-0.09396243095397949,-0.2821107804775238,-0.9547693729400635,0.4223926067352295,0.01767587661743164,0.12023574113845825,0.9886200614381307,0.1424895592136539,-0.04808360236789547,-0.0038964191197312327
1681574327272687400,2.347687255859375,-0.3405602276325226,0.5643833875656128,-0.976316511631012,-0.08648298680782318,-0.27954885363578796,-0.9562286138534546,0.359706848859787,0.0910264253616333,0.1431945562362671,0.9889535538383443,0.14091496956592053,-0.04504073679121779,-0.009237520280261391
1681574327282732300,2.357732177734375,-0.3025372326374054,0.7394551038742065,-0.6234498023986816,-0.07793699949979782,-0.27714958786964417,-0.9576606750488281,0.3121746778488159,0.1267436146736145,0.1875801682472229,0.9892754355531643,0.1395426088695644,-0.041201043583535296,-0.012832496941077784
1681574327292777200,2.367777099609375,-0.28765004873275757,0.8576459288597107,-0.28140988945961,-0.06897493451833725,-0.2746351361274719,-0.9590714573860168,0.29791778326034546,0.15096256136894226,0.25347453355789185,0.9896079571917095,0.13821690638131962,-0.03688317052637742,-0.014559816589008819
1681574327302822400,2.377822509765625,-0.2700657248497009,0.9019979238510132,-0.027819156646728516,-0.06004050746560097,-0.27205148339271545,-0.9604077935218811,0.31527426838874817,0.17042791843414307,0.3232771158218384,0.989942856166393,0.1369258235483296,-0.03236387329005825,-0.014738863460370193
1681574327312868400,2.387868408203125,-0.2448151856660843,0.880270779132843,0.15976113080978394,-0.051580507308244705,-0.26951563358306885,-0.961613655090332,0.3447628617286682,0.19819599390029907,0.37942981719970703,0.990260629019915,0.1356934368901553,-0.027936953012572034,-0.013815046255299205
1681574327322913500,2.39791357421875,-0.21405594050884247,0.7914490103721619,0.3126678466796875,-0.044087011367082596,-0.26717767119407654,-0.962638258934021,0.3756299912929535,0.24038317799568176,0.43132728338241577,0.990541721195404,0.13457269251268505,-0.02389679791396664,-0.012092118604252865
1681574327332958500,2.40795849609375,-0.20986534655094147,0.6470782160758972,0.4523027241230011,-0.03804725408554077,-0.26494652032852173,-0.9635121822357178,0.40311378240585327,0.26853227615356445,0.48214322328567505,0.9907883392365757,0.13350365606272127,-0.020510439890387137,-0.009721668991682145
1681574327343003400,2.41800341796875,-0.23279063403606415,0.45839381217956543,0.568096399307251,-0.03394819423556328,-0.2625632584095001,-0.9643173813819885,0.4271061420440674,0.26479095220565796,0.5421830415725708,0.9910156404753219,0.13234751582224616,-0.018039820861628524,-0.0068278445015908205
1681574327353049300,2.42804931640625,-0.2517297565937042,0.26915815472602844,0.654468297958374,-0.03200291097164154,-0.25999176502227783,-0.9650803804397583,0.45038363337516785,0.24035364389419556,0.6349564790725708,0.9912252597576853,0.13108705729944803,-0.01661344843045393,-0.003556522888949801
1681574327363094300,2.43809423828125,-0.25344589352607727,0.12241265922784805,0.7355604767799377,-0.03193235769867897,-0.2573215961456299,-0.9657980799674988,0.46470212936401367,0.21134677529335022,0.7503897547721863,0.9914126945497584,0.12977531378063392,-0.016103700262960752,0.000005896314752096014
1681574327373139500,2.448139404296875,-0.2528204619884491,0.07538694143295288,0.8364327549934387,-0.03301328420639038,-0.25459474325180054,-0.9664841890335083,0.4605645537376404,0.20286738872528076,0.8606950044631958,0.9915777295931786,0.1284429700192067,-0.01613451993855261,0.003955159013630671
1681574327383184400,2.458184326171875,-0.27010250091552734,0.08364807069301605,0.9855927228927612,-0.03453890234231949,-0.2517368793487549,-0.9671791791915894,0.4392477571964264,0.23566928505897522,0.9204873442649841,0.9917245034211878,0.12705870602501682,-0.016324247270561133,0.008502332744721857
1681574327393229300,2.468229248046875,-0.24660174548625946,0.10248247534036636,1.16499924659729,-0.03633687272667885,-0.24880234897136688,-0.9678724408149719,0.40996357798576355,0.2865524888038635,0.9342725872993469,0.9918383568735595,0.1256567246654057,-0.01655824865072929,0.013889663250923251
1681574327403275300,2.478275146484375,-0.19358140230178833,0.1448403149843216,1.332161545753479,-0.038257353007793427,-0.24619083106517792,-0.96846604347229,0.38388416171073914,0.32152336835861206,0.9082090854644775,0.9918801224880361,0.12444388601368436,-0.016754141751032032,0.020174366115182175
1681574327413320200,2.4883203125,-0.19978293776512146,0.29087093472480774,1.528794527053833,-0.03972207009792328,-0.243778258562088,-0.9690172076225281,0.3537326753139496,0.33832162618637085,0.8178789019584656,0.9918460974638672,0.12335005324669752,-0.016618258674004047,0.027387747512014837
1681574327423365400,2.498365478515625,-0.1812145709991455,0.44888001680374146,1.7866265773773193,-0.04014476388692856,-0.24118995666503906,-0.969647228717804,0.30161935091018677,0.3670901358127594,0.6371124982833862,0.9917351190202229,0.12217195875554002,-0.01582350639350336,0.035848284971400156
1681574327433410300,2.508410400390625,-0.16042844951152802,0.6049806475639343,2.0262715816497803,-0.039581913501024246,-0.23883047699928284,-0.9702542424201965,0.24633848667144775,0.3803403973579407,0.43007785081863403,0.9914848351561107,0.12110323719164158,-0.01438359964763425,0.04566217035650408
1681574327443456500,2.51845654296875,-0.24993835389614105,0.7057834267616272,2.267495632171631,-0.03825245052576065,-0.23600593209266663,-0.9709984064102173,0.19055040180683136,0.33546262979507446,0.24536675214767456,0.9911018338955156,0.11977448972983182,-0.012444079397930583,0.05671386680681147
1681574327453501400,2.52850146484375,-0.24705979228019714,0.783351480960846,2.575019359588623,-0.03668200597167015,-0.23259337246418,-0.9718820452690125,0.14021286368370056,0.3041417598724365,0.03825783729553223,0.9905329816930062,0.11812519977836929,-0.010266630559350181,0.06917716745146803
1681574327463546400,2.53854638671875,-0.20067737996578217,0.9315577149391174,2.803337574005127,-0.03459795191884041,-0.22948364913463593,-0.972697377204895,0.13445144891738892,0.28195852041244507,-0.0878494381904602,0.9896678831218737,0.11658544230372678,-0.007689745406835947,0.08310370064201553
1681574327473591300,2.54859130859375,-0.297516405582428,1.085712194442749,2.804504871368408,-0.031155195087194443,-0.2262139618396759,-0.9735792875289917,0.17907387018203735,0.21705861389636993,-0.1591264009475708,0.9885587384388956,0.11485173835207095,-0.004409379409427149,0.09767955455136185
1681574327483637200,2.55863720703125,-0.47265520691871643,1.0979771614074707,2.70904803276062,-0.026545502245426178,-0.22165852785110474,-0.9747629761695862,0.1953229457139969,0.13082288205623627,-0.2641438841819763,0.9873401310357003,0.1123299794529328,-0.0007021812786154915,0.11198666494681818
1681574327493682400,2.568682373046875,-0.6843439340591431,0.9784629940986633,2.6260552406311035,-0.022148890420794487,-0.21536828577518463,-0.9762817025184631,0.20328594744205475,0.06030839681625366,-0.38211673498153687,0.9860622236139123,0.10886734355087244,0.0026566388876061446,0.1257866292661893
1681574327503727400,2.578727294921875,-0.8873223662376404,0.8375180959701538,2.537047863006592,-0.018725242465734482,-0.20706751942634583,-0.9781474471092224,0.2484310269355774,0.003057435154914856,-0.5129414200782776,0.9847510895645862,0.10439765831232088,0.005235318201002757,0.13906544011958707
1681574327513772300,2.588772216796875,-0.9974393844604492,0.749935507774353,2.4790244102478027,-0.016023483127355576,-0.19729778170585632,-0.9802126288414001,0.267137348651886,-0.051847800612449646,-0.6816830635070801,0.9833819948720172,0.0992078575492397,0.007174754683109101,0.15187573343676572
1681574327523818200,2.598818359375,-1.015177845954895,0.6865930557250977,2.448982000350952,-0.013671613298356533,-0.18695685267448425,-0.9822729825973511,0.21897858381271362,-0.11979064345359802,-0.8175011277198792,0.9818856897138302,0.09373999854556983,0.008736047776864868,0.1644293508397109
1681574327533863400,2.608863525390625,-0.9893346428871155,0.6338552236557007,2.378577709197998,-0.011576591059565544,-0.17675258219242096,-0.9841872453689575,0.1740826666355133,-0.1768699288368225,-0.9006394147872925,0.9802410365856056,0.08835137050714237,0.010020954398600266,0.1766950106216238
1681574327543908400,2.618908447265625,-0.9245982766151428,0.5866525173187256,2.254222869873047,-0.009506124071776867,-0.16697977483272552,-0.9859144687652588,0.15573106706142426,-0.18264493346214294,-0.9292160868644714,0.9784982061149784,0.08317602145738906,0.011158081716311568,0.18841036950941015
1681574327553953500,2.62895361328125,-0.760922372341156,0.5500431656837463,2.1371986865997314,-0.007438812870532274,-0.15837064385414124,-0.9873517155647278,0.1222611665725708,-0.15152017772197723,-0.9123827815055847,0.9766728360183978,0.07857697654658069,0.012239401537760656,0.19946424689002973
1681574327563998500,2.63899853515625,-0.5021363496780396,0.5806000232696533,2.0089495182037354,-0.0050666150636971,-0.15193136036396027,-0.9883780479431152,0.060074515640735626,-0.1297154277563095,-0.8716225028038025,0.9747497120068467,0.0750151411973248,0.013553522926131331,0.2098856284013396
1681574327574044400,2.64904443359375,-0.18638014793395996,0.6518730521202087,1.8581079244613647,-0.0018129341769963503,-0.14841194450855255,-0.988923966884613,-0.012606658041477203,-0.11410032212734222,-0.8272991180419922,0.972748324247038,0.07278586520343916,0.015499485830146835,0.21959711442567728
1681574327584089300,2.65908935546875,0.10387031733989716,0.7066106200218201,1.734283447265625,0.0023859073407948017,-0.14803852140903473,-0.9889787435531616,-0.0887506902217865,-0.08569568395614624,-0.7969251871109009,0.9706827946247512,0.07197311571649179,0.018179982111380347,0.22861372570285496
1681574327594134300,2.66913427734375,0.31511372327804565,0.6911571025848389,1.6108360290527344,0.007037739269435406,-0.15025600790977478,-0.9886220693588257,-0.14993633329868317,-0.06676982343196869,-0.7782846689224243,0.9685786416735762,0.07234498108663645,0.021334626145359123,0.23699492633038569
1681574327604179500,2.679179443359375,0.42968985438346863,0.6183207631111145,1.4563604593276978,0.011981860734522343,-0.1541191041469574,-0.9879796504974365,-0.17810432612895966,-0.07738731801509857,-0.7405664920806885,0.9665140477848265,0.073455083108138,0.024789869142189537,0.24462332362405473
1681574327614225400,2.689225341796875,0.4769924581050873,0.5204401612281799,1.2724555730819702,0.015619241632521152,-0.1588471382856369,-0.9871796369552612,-0.19149208068847656,-0.11018064618110657,-0.6586028337478638,0.9645675238306544,0.07512768466609968,0.02767698503213303,0.2513946804491005
1681574327624270300,2.699270263671875,0.4476684033870697,0.41944220662117004,1.0937482118606567,0.0184349212795496,-0.16366265714168549,-0.9863440990447998,-0.20202870666980743,-0.15611585974693298,-0.5369255542755127,0.962814029951857,0.07694281254623526,0.030128923580880734,0.25721817836297484
1681574327634315300,2.709315185546875,0.37396425008773804,0.32310953736305237,0.9887943267822266,0.02042972482740879,-0.16794157028198242,-0.9855852127075195,-0.22157111763954163,-0.20418983697891235,-0.4054974913597107,0.9612442177787367,0.07860357131895399,0.03207585057115866,0.2623018722408757
1681574327644360200,2.719360107421875,0.29753416776657104,0.25579601526260376,0.9462168216705322,0.021673215553164482,-0.17144310474395752,-0.9849556088447571,-0.2508755326271057,-0.22435468435287476,-0.2769462466239929,0.9597832752023766,0.0799822719646718,0.03354155216981025,0.2670093297700618
1681574327654406400,2.729406494140625,0.22745521366596222,0.20493191480636597,0.909626841545105,0.022364536300301552,-0.17425575852394104,-0.9844464063644409,-0.2830609977245331,-0.21533170342445374,-0.16141235828399658,0.9583818771316664,0.0810961373806028,0.034643971187103134,0.2715281721652457
1681574327664451300,2.739451416015625,0.18485209345817566,0.15142607688903809,0.8741519451141357,0.022592192515730858,-0.17647267878055573,-0.984046220779419,-0.3194977641105652,-0.18064408004283905,-0.07491368055343628,0.9570404279670084,0.08198362219419095,0.03543402694462,0.27585631734213933
1681574327674496500,2.74949658203125,0.19350884854793549,0.09485349804162979,0.854327917098999,0.022303903475403786,-0.17852017283439636,-0.9836834073066711,-0.3535722494125366,-0.12033852934837341,0.000758051872253418,0.9557341049490929,0.08286207712332073,0.035946646223809456,0.2800253697555962
1681574327684541400,2.75954150390625,0.21442878246307373,0.03376617282629013,0.8380719423294067,0.021456897258758545,-0.18076379597187042,-0.9832924604415894,-0.3896973133087158,-0.05802105367183685,0.06610190868377686,0.9544381349992819,0.0839173476852361,0.036216720425698005,0.2840672578997843
1681574327694587400,2.76958740234375,0.20725297927856445,-0.045469850301742554,0.8099876046180725,0.019920362159609795,-0.18301399052143097,-0.9829084873199463,-0.428260862827301,-0.0001678466796875,0.12315201759338379,0.9531642245937362,0.08507992799696415,0.036154809696309215,0.2879796744551407
1681574327704632300,2.77963232421875,0.1864776611328125,-0.1627195179462433,0.732100784778595,0.017518309876322746,-0.18510575592517853,-0.9825624823570251,-0.4630749821662903,0.05223216116428375,0.19307273626327515,0.9519716820317661,0.08630600953184032,0.035637708022519254,0.2916011759952818
1681574327714677200,2.78967724609375,0.17845606803894043,-0.30134665966033936,0.5890882015228271,0.014013622887432575,-0.1870071142911911,-0.9822586178779602,-0.4881042540073395,0.07950888574123383,0.2738845944404602,0.9509539768238582,0.0876303896952435,0.034519763670860466,0.29464544438684154
1681574327724722400,2.799722412109375,0.169169619679451,-0.4430510699748993,0.40222543478012085,0.009433911181986332,-0.18876805901527405,-0.9819763898849487,-0.5038034915924072,0.09803923964500427,0.35627448558807373,0.9501997814374894,0.08908636807609097,0.03279368924035925,0.2968310577260559
1681574327734767400,2.809767333984375,0.2156185358762741,-0.5935764312744141,0.17660029232501984,0.0037806208711117506,-0.19065901637077332,-0.9816490411758423,-0.49616652727127075,0.12568701803684235,0.4370781183242798,0.9497620410794914,0.09081033467513781,0.030478832860220975,0.2979542821129168
1681574327744813600,2.8198134765625,0.2698167860507965,-0.7351855039596558,-0.06305224448442459,-0.0028688651509582996,-0.19306980073451996,-0.9811808466911316,-0.4686582684516907,0.151626855134964,0.5359293818473816,0.9496611853357768,0.09297760319165367,0.027654077187887524,0.29788288081381015
1681574327754858200,2.829858154296875,0.31594157218933105,-0.8732652068138123,-0.3040456771850586,-0.010413188487291336,-0.19597820937633514,-0.9805529713630676,-0.43068793416023254,0.15738867223262787,0.6453784108161926,0.9499015396386989,0.09555332623451421,0.024353290968709352,0.2965864622520835
1681574327764903400,2.8399033203125,0.3452099561691284,-0.9883262515068054,-0.5605475306510925,-0.018687456846237183,-0.19935885071754456,-0.9797483682632446,-0.3983658254146576,0.14409145712852478,0.7588163614273071,0.9504835103545446,0.09848827606968982,0.020636950737459723,0.29403306485778585
1681574327774948400,2.8499482421875,0.35894304513931274,-1.0618623495101929,-0.8085480332374573,-0.027424238622188568,-0.20300039649009705,-0.978794515132904,-0.3775135576725006,0.11486555635929108,0.8579754829406738,0.9514100229134168,0.10162506150036164,0.016585406092146315,0.29020047143760513
1681574327784994000,2.859994140625,0.39494338631629944,-1.1012022495269775,-1.0098670721054077,-0.036189787089824677,-0.20698867738246918,-0.9776737689971924,-0.376789391040802,0.0911744087934494,0.9234440326690674,0.9526123485674779,0.10492278482981618,0.012422859052981385,0.2852484641953532
1681574327795039200,2.870039306640625,0.459303081035614,-1.128960371017456,-1.168619155883789,-0.04484198987483978,-0.21161168813705444,-0.9763245582580566,-0.3889654278755188,0.09454618394374847,0.9490571618080139,0.9539912559192046,0.10848643618651901,0.008270392542028118,0.27939785314799487
1681574327805084000,2.880083984375,0.5130153298377991,-1.1488054990768433,-1.2998218536376953,-0.05337205529212952,-0.21701951324939728,-0.9747071266174316,-0.38801896572113037,0.11802041530609131,0.9303193092346191,0.955470066247746,0.1123794856637502,0.0041585097608452,0.27281989051113986
1681574327815129000,2.890129150390625,0.5436369776725769,-1.1125751733779907,-1.4175426959991455,-0.061489082872867584,-0.2229641079902649,-0.9728854298591614,-0.3811379075050354,0.13855241239070892,0.8532871007919312,0.9570180810335535,0.11643554875741847,0.00019248101320060588,0.26562978450522645
1681574327825175000,2.900175048828125,0.5953968167304993,-0.9695415496826172,-1.5143219232559204,-0.068433977663517,-0.2295040637254715,-0.9708989262580872,-0.378770649433136,0.12669026851654053,0.7399724125862122,0.9586008183814956,0.12058191236940062,-0.003248370049933769,0.25794166512232836
1681574327835220200,2.91022021484375,0.5729877352714539,-0.6797942519187927,-1.564724326133728,-0.07289265096187592,-0.23631958663463593,-0.9689373970031738,-0.41409164667129517,0.06270501017570496,0.5970197319984436,0.9601884116080565,0.1245014153595656,-0.00553979659543422,0.250013828134692
1681574327845265200,2.92026513671875,0.5319744944572449,-0.4247230887413025,-1.588923692703247,-0.07440037280321121,-0.2428768277168274,-0.9671998023986816,-0.4829116761684418,-0.027905702590942383,0.40491342544555664,0.9617749034097522,0.12789832269375995,-0.006490274598741157,0.24205166784369747
1681574327855310000,2.93031005859375,0.49965211749076843,-0.3907618224620819,-1.470339059829712,-0.07437894493341446,-0.2489941269159317,-0.9656447172164917,-0.530891478061676,-0.04643136262893677,0.2062300443649292,0.9632723021296343,0.13088898987588718,-0.006761436073557442,0.2343693658389477
1681574327865356000,2.94035595703125,0.49388691782951355,-0.5431734919548035,-1.2214477062225342,-0.0754222571849823,-0.25482818484306335,-0.9640405178070068,-0.4902363419532776,0.07170739769935608,-0.10743165016174316,0.9644922494020832,0.13387782647645952,-0.007515242833970331,0.22754131361381755
1681574327875401000,2.95040087890625,0.5467196106910706,-0.72665935754776,-1.0642240047454834,-0.07874865084886551,-0.2607220411300659,-0.9621967673301697,-0.315645307302475,0.28014642000198364,-0.46887922286987305,0.9653854787263193,0.13716871327856925,-0.009292355057571455,0.22165128491642566
1681574327885446100,2.960446044921875,0.5282649397850037,-0.7747480273246765,-1.075606107711792,-0.08325397968292236,-0.2668713629245758,-0.9601293802261353,-0.10754196345806122,0.43171200156211853,-0.64124995470047,0.9661324460869137,0.14071280859382831,-0.011627854787085688,0.2159927137782359
1681574327895491000,2.970490966796875,0.47837918996810913,-0.7852634787559509,-1.0870198011398315,-0.08781620860099792,-0.27257484197616577,-0.9581186175346375,-0.06521423161029816,0.465049147605896,-0.6267507672309875,0.9668861457717223,0.14402046226395737,-0.01409964700509118,0.21021561382824
1681574327905536300,2.980536376953125,0.5496600270271301,-0.8169591426849365,-1.1966843605041504,-0.09241700172424316,-0.27852773666381836,-0.9559714794158936,-0.12447146326303482,0.4299101233482361,-0.5849525928497314,0.967622438321803,0.14743572257791193,-0.01664273251140389,0.20418809898845142
1681574327915582200,2.990582275390625,0.4504464864730835,-0.8337599039077759,-1.5554314851760864,-0.09651486575603485,-0.28478455543518066,-0.9537203907966614,-0.09809576719999313,0.3269292712211609,-0.5854946374893188,0.9685343622938175,0.15090961744590137,-0.0191331670013285,0.19698085165056356
1681574327925627000,3.000626953125,0.170253187417984,-0.8168752193450928,-1.903415560722351,-0.09940101951360703,-0.2895500659942627,-0.9519875049591064,-0.024240978062152863,0.21214216947555542,-0.6205527186393738,0.9698936569829899,0.15343772712202627,-0.021520013957698075,0.18788329072589047
1681574327935672000,3.010672119140625,-0.17223164439201355,-0.8591948747634888,-1.9347623586654663,-0.10171835869550705,-0.2915118932723999,-0.9511436223983765,-0.005810365080833435,0.11580684781074524,-0.6444068551063538,0.9715772931308302,0.15442782142826128,-0.024088025005514057,0.17779051319889524
1681574327945717000,3.020717041015625,-0.5248829126358032,-0.9456655979156494,-1.7479701042175293,-0.1049562618136406,-0.29004189372062683,-0.9512412548065186,-0.011422552168369293,-0.0031557977199554443,-0.666541337966919,0.9733384306998899,0.15371977278202847,-0.027379083530753353,0.16802664520934513
1681574327955763200,3.03076318359375,-0.6442528367042542,-0.9905267953872681,-1.5413596630096436,-0.10956049710512161,-0.2860136032104492,-0.9519415497779846,-0.008832477033138275,-0.058529943227767944,-0.6983269453048706,0.9750080311106948,0.15179890979990388,-0.031405609209819885,0.15915482491651514
1681574327965808000,3.04080810546875,-0.5190659165382385,-0.8834666609764099,-1.4233381748199463,-0.11445561796426773,-0.28200188279151917,-0.9525622725486755,-0.003067605197429657,0.0009959638118743896,-0.726743757724762,0.9764455726386169,0.14988267111694553,-0.03541269037052725,0.151113169636312
1681574327975853000,3.05085302734375,-0.2977225184440613,-0.689622163772583,-1.4087693691253662,-0.11807304620742798,-0.27971190214157104,-0.9527958631515503,0.02613881230354309,0.10451039671897888,-0.7868281006813049,0.9776501890435244,0.14871305651739833,-0.03855491919116414,0.1435200159199261
1681574327985898000,3.06089794921875,-0.078883096575737,-0.5213955640792847,-1.398910641670227,-0.12003152072429657,-0.2795647382736206,-0.9525943398475647,0.07828345149755478,0.18434983491897583,-0.8158077001571655,0.9786547117624179,0.14848837793544173,-0.04066977750152726,0.13613247267266718
1681574327995944000,3.07094384765625,0.021752167493104935,-0.4072134792804718,-1.3216419219970703,-0.12077683955430984,-0.2809714376926422,-0.9520861506462097,0.13179364800453186,0.18357449769973755,-0.7426922917366028,0.9794790214648479,0.14896708688339116,-0.0420206743849117,0.12908925975413899
1681574328005989000,3.080989013671875,-0.050222426652908325,-0.365101158618927,-1.2260915040969849,-0.12089003622531891,-0.28240638971328735,-0.9516471028327942,0.18190990388393402,0.11298799514770508,-0.6497169733047485,0.980207522474165,0.14942819098225382,-0.04298442646836246,0.12254287286720103
1681574328016034000,3.091033935546875,-0.19090987741947174,-0.36786553263664246,-1.177733302116394,-0.12102112919092178,-0.28271639347076416,-0.9515383839607239,0.2459447979927063,0.052918940782547,-0.5443569421768188,0.9809347043810187,0.14932146852497644,-0.04397611365147674,0.1163454093587459
1681574328026079200,3.101079345703125,-0.3767753541469574,-0.35228684544563293,-1.1808265447616577,-0.12115820497274399,-0.28145137429237366,-0.9518958926200867,0.3138003945350647,0.018694937229156494,-0.41803812980651855,0.9817331512127023,0.14840130861659795,-0.04504552086690202,0.11021749178674807
1681574328036125000,3.111125,-0.6001672148704529,-0.34948471188545227,-1.221825361251831,-0.12113714963197708,-0.27825140953063965,-0.9528388977050781,0.362241268157959,-0.023857414722442627,-0.2779502272605896,0.9826593644166017,0.14646127730608943,-0.0461481586962622,0.10392273070963484
1681574328046170000,3.121170166015625,-0.8096961975097656,-0.36708953976631165,-1.2727407217025757,-0.12112680822610855,-0.27298831939697266,-0.9543613791465759,0.38290655612945557,-0.0653296411037445,-0.1370539665222168,0.9837208192060696,0.14344025992055096,-0.04737291428922599,0.09733446337863687
1681574328056215000,3.131215087890625,-0.9399165511131287,-0.3202672302722931,-1.3011982440948486,-0.12100815027952194,-0.2660422623157501,-0.9563360214233398,0.38052961230278015,-0.07766202092170715,-0.01427549123764038,0.9848735260190272,0.13953150099377887,-0.048610283034859036,0.0905107049703473
1681574328066260200,3.14126025390625,-0.9155436158180237,-0.14784221351146698,-1.2891210317611694,-0.1199139729142189,-0.2585931420326233,-0.9585145711898804,0.3636273145675659,-0.04185250401496887,0.07353538274765015,0.9860299252530437,0.13531426060599416,-0.04932293878120234,0.0836799584204997
1681574328076306200,3.15130615234375,-0.7814049124717712,0.07116476446390152,-1.1961942911148071,-0.11708251386880875,-0.25181636214256287,-0.9606665372848511,0.31842219829559326,0.028091907501220703,0.12031930685043335,0.987099341249687,0.1313904620056658,-0.04902317911566968,0.07725453475210743
1681574328086351000,3.16135107421875,-0.5969562530517578,0.26936814188957214,-1.0219447612762451,-0.11264701932668686,-0.24647092819213867,-0.9625812768936157,0.25832265615463257,0.09867419302463531,0.145549476146698,0.9880049813262463,0.1281924718928547,-0.047707903876117105,0.0716724002496341
1681574328096396000,3.17139599609375,-0.4526735544204712,0.42611414194107056,-0.7942766547203064,-0.10704351961612701,-0.24239343404769897,-0.9642546772956848,0.22423100471496582,0.14507277309894562,0.1637786626815796,0.9887379901560018,0.1256781411558686,-0.04558133549376684,0.06726518155597265
1681574328106441000,3.18144091796875,-0.32217466831207275,0.5263387560844421,-0.5739328265190125,-0.10073242336511612,-0.23934683203697205,-0.9656946063041687,0.21891173720359802,0.17599228024482727,0.17974495887756348,0.9893128715811496,0.1237449241692321,-0.04289394395072676,0.06408893602497656
1681574328116487000,3.19148681640625,-0.20374277234077454,0.5637164115905762,-0.35015353560447693,-0.09432008862495422,-0.23722536861896515,-0.9668649435043335,0.23093199729919434,0.19564509391784668,0.20612281560897827,0.98973722476096,0.12234966316841857,-0.039976001529354314,0.06207051417957782
1681574328126532000,3.201531982421875,-0.10203133523464203,0.5844669342041016,-0.11613969504833221,-0.08818726241588593,-0.23594006896018982,-0.9677578806877136,0.25090697407722473,0.21561527252197266,0.24410980939865112,0.9900143294000808,0.12145033433625747,-0.03702540693926648,0.061242714461653636
1681574328136577000,3.211576904296875,-0.052040793001651764,0.5459274649620056,0.09482979774475098,-0.08261609077453613,-0.23519529402256012,-0.9684305787086487,0.29413342475891113,0.23513416945934296,0.2956247925758362,0.9901664671216088,0.12089107853761885,-0.03420619699853651,0.06152825197643978
1681574328146622200,3.221622314453125,-0.04455091804265976,0.41182827949523926,0.2867979109287262,-0.07835087925195694,-0.23453569412231445,-0.9689448475837708,0.34663090109825134,0.2257465422153473,0.377682089805603,0.9902183833236218,0.1204501063450368,-0.031927093327584616,0.06276994204257917
1681574328156667000,3.2316669921875,-0.0840829536318779,0.21915730834007263,0.4657335579395294,-0.07611936330795288,-0.23348641395568848,-0.9693760871887207,0.392357736825943,0.1747094839811325,0.5188908576965332,0.990193799133716,0.11990216480247337,-0.030584993281815905,0.06484128443479346
1681574328166713000,3.241713134765625,-0.1323719322681427,0.047500330954790115,0.6221931576728821,-0.0760497972369194,-0.23186375200748444,-0.9697709083557129,0.4339141845703125,0.11710233986377716,0.6680894494056702,0.9901078932264658,0.11915715966623408,-0.030267341039048934,0.06761630469565959
1681574328176758000,3.251758056640625,-0.17451857030391693,-0.049931563436985016,0.7606807351112366,-0.07769487798213959,-0.22978298366069794,-0.9701356887817383,0.4618806540966034,0.08842548727989197,0.8016939759254456,0.9899612471676008,0.1182632340243107,-0.030756334492726207,0.07102681867750821
1681574328186803200,3.26180322265625,-0.16323822736740112,-0.08305676281452179,0.8973539471626282,-0.08027145266532898,-0.2274191975593567,-0.9704828858375549,0.4676463007926941,0.09039519727230072,0.9283533692359924,0.9897499620215608,0.1172883146115521,-0.031654638404099045,0.07507610755120218
1681574328196848000,3.27184814453125,-0.10705432295799255,-0.07098705321550369,1.0377964973449707,-0.08323007076978683,-0.2252373844385147,-0.9707424640655518,0.45203498005867004,0.08122484385967255,1.0103847980499268,0.989444638712697,0.1164550996164116,-0.03266481290090089,0.07981627122031154
1681574328206894000,3.28189404296875,0.03725598752498627,-0.015931785106658936,1.1705678701400757,-0.0861513614654541,-0.22388823330402374,-0.9707996845245361,0.4264833629131317,0.06405234336853027,1.0223133563995361,0.989003562327565,0.11608121822890548,-0.03354569874759784,0.0852753230765442
1681574328216939000,3.29193896484375,0.24324452877044678,0.07655776292085648,1.2979042530059814,-0.08863921463489532,-0.224153533577919,-0.9705144762992859,0.39910978078842163,0.06112854182720184,0.9696447253227234,0.988379805709297,0.11654553749229983,-0.034057499581518984,0.09144806580829741
1681574328226984000,3.30198388671875,0.3963318169116974,0.21623975038528442,1.470678448677063,-0.09033888578414917,-0.22608397901058197,-0.9699097275733948,0.3659125864505768,0.07035268843173981,0.847458004951477,0.9875548522182575,0.11785475369600226,-0.0339909015068875,0.09843948829700584
1681574328237029000,3.312029052734375,0.428124338388443,0.4022773504257202,1.7196775674819946,-0.09095968306064606,-0.22873251140117645,-0.9692305326461792,0.32470905780792236,0.09306654334068298,0.6365431547164917,0.9865368563249565,0.11951266386408149,-0.03318838310107415,0.106585182191473
1681574328247075000,3.322074951171875,0.4027651846408844,0.5207509994506836,1.9477381706237793,-0.09064649790525436,-0.2311536818742752,-0.9686852693557739,0.2947175204753876,0.11889468133449554,0.4162103533744812,0.9853317398938458,0.12103569727404825,-0.03174449698292822,0.11603508273963781
1681574328257120300,3.332120361328125,0.2687722444534302,0.5876332521438599,2.1804802417755127,-0.09004878252744675,-0.23263396322727203,-0.9683866500854492,0.28018853068351746,0.11773520708084106,0.2803831100463867,0.9839512633138662,0.12208103498533958,-0.030048431343207057,0.12662243330242748
1681574328267165000,3.3421650390625,0.14682531356811523,0.6090104579925537,2.480895757675171,-0.08965389430522919,-0.23247681558132172,-0.9684609770774841,0.2506645917892456,0.10141898691654205,0.1553049087524414,0.9823668951915344,0.12232689841582559,-0.02838360217979813,0.13851276274394927
1681574328277210000,3.352210205078125,0.016370831057429314,0.6837537288665771,2.7348601818084717,-0.08942645788192749,-0.23092204332351685,-0.9688538908958435,0.2366737425327301,0.13337251543998718,0.03542804718017578,0.9804980693987491,0.1218961333287922,-0.02672775478341051,0.15182364829870426
1681574328287256000,3.362256103515625,-0.026758795604109764,0.7573195695877075,2.7833330631256104,-0.08882154524326324,-0.22832782566547394,-0.9695242047309875,0.26438915729522705,0.19172190129756927,-0.04600924253463745,0.9783879206997045,0.1209062089442858,-0.02489173388110769,0.16588893378887307
1681574328297301000,3.372301025390625,-0.04768359661102295,0.8257783055305481,2.795077323913574,-0.08744301646947861,-0.22548411786556244,-0.9703146815299988,0.2701212167739868,0.21611516177654266,-0.12660908699035645,0.9760864940711522,0.11969396992788633,-0.02271563657067231,0.18003483079057
1681574328307346200,3.38234619140625,-0.07260198891162872,0.8632586002349854,2.8407137393951416,-0.08551163971424103,-0.22248674929141998,-0.9711783528327942,0.23703137040138245,0.1902753710746765,-0.2305275797843933,0.9735587263829694,0.11831666816330853,-0.020297474615770843,0.19435161886028984
1681574328317391000,3.39239111328125,-0.23391887545585632,0.8246719837188721,2.7287607192993164,-0.0833953320980072,-0.21871396899223328,-0.9722188115119934,0.2530577778816223,0.1327763944864273,-0.3801981806755066,0.9708954330893403,0.11648614267543712,-0.017932465218152113,0.2084979097687432
1681574328327437000,3.40243701171875,-0.48915621638298035,0.6957995295524597,2.5278713703155518,-0.08162827044725418,-0.21300353109836578,-0.9736356139183044,0.2772153913974762,0.022085487842559814,-0.5342073440551758,0.9683313518071974,0.11367611134078195,-0.01612231657702953,0.22170348918197946
1681574328337482000,3.41248193359375,-0.7135969400405884,0.5556768774986267,2.4267590045928955,-0.08071138709783554,-0.2050723135471344,-0.9754132628440857,0.25670620799064636,-0.07442300021648407,-0.6450091004371643,0.9658951725878229,0.10983237205887432,-0.01517302459159066,0.2339942296672558
1681574328347527000,3.42252685546875,-0.868075966835022,0.46702316403388977,2.3573436737060547,-0.08056134730577469,-0.19535300135612488,-0.9774186015129089,0.2334086000919342,-0.1140190064907074,-0.7384169697761536,0.9634757344588367,0.1051981943927998,-0.014968314578656742,0.24581283899153716
1681574328357572000,3.432572021484375,-0.9620087742805481,0.3850342333316803,2.249053955078125,-0.08072769641876221,-0.18442650139331818,-0.9795253276824951,0.21053417026996613,-0.1085117906332016,-0.8139926791191101,0.9610720366992516,0.100025335683409,-0.015240038740085884,0.25710559157339685
1681574328367618000,3.4426181640625,-0.9072456955909729,0.3214645981788635,2.1322333812713623,-0.08118531852960587,-0.17332641780376434,-0.9815125465393066,0.15209287405014038,-0.08782780170440674,-0.8554624915122986,0.9586764972274688,0.09482765275969632,-0.015856820634172347,0.26776049487400944
1681574328377663200,3.452663330078125,-0.6926103830337524,0.3118846118450165,2.0263593196868896,-0.08159327507019043,-0.1636565774679184,-0.9831373691558838,0.06677694618701935,-0.07477732002735138,-0.8658311367034912,0.9562300381466746,0.09034315423463866,-0.016414532365039564,0.2778358723093876
1681574328387708000,3.4627080078125,-0.3796682357788086,0.3602180480957031,1.9054934978485107,-0.0814163014292717,-0.156704843044281,-0.984283983707428,-0.021656855940818787,-0.052767857909202576,-0.8632959127426147,0.9537093477913028,0.08710816391867929,-0.016436923057181682,0.287368071518376
1681574328397753000,3.472753173828125,-0.01832996867597103,0.4300108551979065,1.7971076965332031,-0.0803254172205925,-0.15325039625167847,-0.9849173426628113,-0.09571528434753418,-0.0021604299545288086,-0.8441384434700012,0.9511175380734508,0.08542674798467008,-0.015607875283804458,0.2963683439746786
1681574328407799000,3.482799072265625,0.27523425221443176,0.46011948585510254,1.6991124153137207,-0.07850571721792221,-0.15318939089775085,-0.9850735068321228,-0.15081867575645447,0.05423608422279358,-0.8006014823913574,0.9484569894560169,0.08525135544642279,-0.013979969758054496,0.3049037413268801
1681574328417844000,3.492843994140625,0.45655226707458496,0.43455663323402405,1.5750669240951538,-0.0764755979180336,-0.15562357008457184,-0.9848516583442688,-0.18325956165790558,0.07711704075336456,-0.7482263445854187,0.9457837459545018,0.08621146970757111,-0.011905992060316688,0.3129201439608793
1681574328427889200,3.50288916015625,0.49718597531318665,0.3586711883544922,1.3825818300247192,-0.07447723299264908,-0.159225732088089,-0.9844289422035217,-0.1937723308801651,0.06208820641040802,-0.6725382208824158,0.9432487739103618,0.08769947788239583,-0.009712817751139533,0.32015030796468186
1681574328437934000,3.51293408203125,0.47183817625045776,0.2519298791885376,1.1281405687332153,-0.07323378324508667,-0.16308178007602692,-0.9838908314704895,-0.1925286054611206,0.003444269299507141,-0.567119300365448,0.9410136886917796,0.08939738845989594,-0.007918113102949327,0.3262493472715676
1681574328447980300,3.522980224609375,0.38925808668136597,0.1731991022825241,0.8827489018440247,-0.07270995527505875,-0.1666106879711151,-0.9833382368087769,-0.19567693769931793,-0.06510934233665466,-0.44016939401626587,0.9391737113721081,0.09103341898079002,-0.006617048145094925,0.3310918298478675
1681574328458025000,3.53302490234375,0.2888309955596924,0.11305883526802063,0.7065445780754089,-0.07257097214460373,-0.1693623661994934,-0.9828783273696899,-0.21023547649383545,-0.10389208793640137,-0.3184369206428528,0.9377053507956727,0.09234803151358865,-0.005715583937537094,0.33488481304378215
1681574328468070100,3.543070068359375,0.22236143052577972,0.1061529889702797,0.6103581190109253,-0.07260502874851227,-0.17137816548347473,-0.9825263619422913,-0.2411004602909088,-0.09545235335826874,-0.21269458532333374,0.9364891573019332,0.09333297000508378,-0.005077450509226714,0.3380106476897656
1681574328478115000,3.553114990234375,0.18064665794372559,0.13989728689193726,0.5801796913146973,-0.07238109409809113,-0.17291893064975739,-0.9822728633880615,-0.28282833099365234,-0.06557600200176239,-0.1094018816947937,0.9353906263770217,0.0940425888349071,-0.004421519448537015,0.340852997761321
1681574328488161000,3.5631611328125,0.14698989689350128,0.1493176817893982,0.5854620933532715,-0.07189397513866425,-0.17410291731357574,-0.9820994734764099,-0.32204222679138184,-0.025054842233657837,0.009519577026367188,0.9343190307505522,0.09453323681085973,-0.0037035589245823443,0.34365353012447913
1681574328498206200,3.573206298828125,0.11369875073432922,0.13334082067012787,0.5834361910820007,-0.07147251069545746,-0.17497003078460693,-0.9819761514663696,-0.3560635447502136,0.009839370846748352,0.1252104640007019,0.9332442623278701,0.09488158007046404,-0.003067125012211246,0.34647269954140475
1681574328508251000,3.5832509765625,0.07588985562324524,0.0954112783074379,0.5238152146339417,-0.07130357623100281,-0.17550243437290192,-0.9818934202194214,-0.3827522397041321,0.035441964864730835,0.21715348958969116,0.9322261444442365,0.09511265175396671,-0.0026215071283743536,0.3491433756238604
1681574328518296000,3.593296142578125,0.03655903786420822,0.02500150352716446,0.39449748396873474,-0.07147622108459473,-0.17570099234580994,-0.9818453788757324,-0.40012723207473755,0.06556299328804016,0.2989687919616699,0.9313844145586447,0.09524367112957806,-0.0024419552392482904,0.35134840918825627
1681574328528342000,3.603342041015625,0.019663676619529724,-0.06683041900396347,0.2075054794549942,-0.07217267155647278,-0.17575012147426605,-0.9817855954170227,-0.418153315782547,0.09782342612743378,0.3659409284591675,0.9308355358205558,0.09539574569831215,-0.0026156367255462,0.3527579471087525
1681574328538387000,3.613386962890625,0.02230922318994999,-0.18323111534118652,0.000007414724677801132,-0.07352715730667114,-0.17584913969039917,-0.9816673994064331,-0.43944287300109863,0.1208106279373169,0.4278801679611206,0.9306458414107693,0.0956876847779348,-0.003190430977982491,0.3531741626723259
1681574328548432100,3.62343212890625,0.06827351450920105,-0.3048643469810486,-0.18280154466629028,-0.07571566104888916,-0.17632365226745605,-0.981415867805481,-0.4643082022666931,0.13147801160812378,0.49464529752731323,0.9307891635241128,0.09630427999286063,-0.004189108101392385,0.3526183138561536
1681574328558477000,3.63347705078125,0.1504879593849182,-0.4103890359401703,-0.3754948377609253,-0.07863915711641312,-0.1775912642478943,-0.9809573292732239,-0.48082441091537476,0.12072168290615082,0.5666964650154114,0.9312206571908608,0.09742301144219985,-0.0054867959900886994,0.3511507027463072
1681574328568523300,3.643523193359375,0.13599424064159393,-0.5133548378944397,-0.6279867887496948,-0.08215457946062088,-0.17943249642848969,-0.9803339242935181,-0.4774158000946045,0.06909613311290741,0.6484094858169556,0.932015520598125,0.09890857740572674,-0.007080208260727847,0.3485888469088845
1681574328578568000,3.65356787109375,0.04382847622036934,-0.6162808537483215,-0.879024863243103,-0.086339570581913,-0.18096235394477844,-0.9796928763389587,-0.4614968001842499,0.012947767972946167,0.7414116263389587,0.9332641739501626,0.10034522556857675,-0.009187139024995463,0.3447673471140111
1681574328588613000,3.663613037109375,-0.08177551627159119,-0.7040250301361084,-1.0917211771011353,-0.0910201296210289,-0.18163569271564484,-0.9791444540023804,-0.4349198639392853,-0.012334108352661133,0.8563264608383179,0.9349411041529215,0.10143090121480706,-0.011813383686119337,0.33979039555125085
1681574328598658000,3.673657958984375,-0.18306584656238556,-0.7768546938896179,-1.2528386116027832,-0.09617536514997482,-0.18142718076705933,-0.9786902070045471,-0.42131125926971436,-0.02072131633758545,0.9502783417701721,0.9369497117290321,0.10213745099705102,-0.014928068470439732,0.3338719766615241
1681574328608704000,3.6837041015625,-0.23504142463207245,-0.8632209897041321,-1.359385371208191,-0.10185392946004868,-0.18059030175209045,-0.9782703518867493,-0.435820072889328,-0.0057653337717056274,0.9843891859054565,0.9391663233283757,0.10258328178192129,-0.01847928717361569,0.327264235476843
1681574328618749200,3.693749267578125,-0.15081410109996796,-0.9617653489112854,-1.4297420978546143,-0.10832250863313675,-0.18009723722934723,-0.9776661992073059,-0.4458920359611511,0.054776743054389954,0.9343312978744507,0.9414448138461221,0.10327032398125054,-0.022408341370390862,0.3201794630036853
1681574328628793900,3.7037939453125,0.011422487907111645,-1.0176002979278564,-1.5398941040039062,-0.11538493633270264,-0.1810743361711502,-0.9766772389411926,-0.42114466428756714,0.14069952070713043,0.8367999196052551,0.9437104762790031,0.10469928440056343,-0.02644705718220267,0.3126487709718711
1681574328638839000,3.713839111328125,0.11583921313285828,-0.9910481572151184,-1.7632946968078613,-0.12227532267570496,-0.18372507393360138,-0.9753429293632507,-0.3790522515773773,0.1898132860660553,0.722642183303833,0.9460792641775386,0.10683120691481394,-0.030259304511143854,0.3043114499461821
1681574328648885000,3.723885009765625,0.17943602800369263,-0.8764262199401855,-2.014631986618042,-0.1279415786266327,-0.18753787875175476,-0.9738893508911133,-0.3648105263710022,0.18202939629554749,0.6311770081520081,0.9486973646390727,0.10924434294470914,-0.033481182913315366,0.29481873808863246
1681574328658930200,3.73393017578125,0.2940084636211395,-0.7153350114822388,-2.1678402423858643,-0.13172346353530884,-0.19258496165275574,-0.9723990559577942,-0.42555809020996094,0.11369696259498596,0.5350364446640015,0.9514856250036186,0.11189518566174239,-0.035776106540729644,0.2843847490244204
1681574328668975000,3.74397509765625,0.4375360608100891,-0.5959572196006775,-2.152256727218628,-0.13385802507400513,-0.19905851781368256,-0.9708026051521301,-0.5510480403900146,0.04158774018287659,0.3484729528427124,0.9542016059587752,0.11496645193318826,-0.03716720205354771,0.27367990368296996
1681574328679020300,3.754020263671875,0.49401575326919556,-0.5549541115760803,-1.9327082633972168,-0.13519030809402466,-0.2064214050769806,-0.9690788388252258,-0.6114528179168701,0.12171980738639832,-0.04044264554977417,0.956592256067205,0.11837698461700007,-0.038045671143126215,0.2635728616289224
1681574328689066200,3.764066162109375,0.5990950465202332,-0.6521956920623779,-1.5647928714752197,-0.13730213046073914,-0.21406380832195282,-0.9671218991279602,-0.48270830512046814,0.35389530658721924,-0.5244399309158325,0.9584282116415263,0.12208889058067672,-0.039157896219855895,0.25490468108996156
1681574328699111000,3.77411083984375,0.5544074773788452,-0.7345501780509949,-1.3830746412277222,-0.14080499112606049,-0.22191038727760315,-0.9648470282554626,-0.2159608006477356,0.516374409198761,-0.7996488213539124,0.9597525566343772,0.1261372145031198,-0.04081547027964771,0.24758548092538402
1681574328709156000,3.784156005859375,0.24519693851470947,-0.8625081777572632,-1.4049514532089233,-0.14542268216609955,-0.2278415411710739,-0.9627774953842163,-0.026147186756134033,0.49288663268089294,-0.8162447214126587,0.9610284247631934,0.12937184985261227,-0.043291843101418745,0.2404437016182518
1681574328719201000,3.794200927734375,0.042114999145269394,-0.9402579665184021,-1.3930453062057495,-0.15092521905899048,-0.23114486038684845,-0.96114182472229,-0.0639490932226181,0.419514536857605,-0.7340638041496277,0.9624079302158683,0.13137160834899392,-0.04658947502255634,0.2331137832813779
1681574328729247000,3.8042470703125,0.002725783037021756,-0.9812517762184143,-1.4951980113983154,-0.15686734020709991,-0.23355676233768463,-0.9596061110496521,-0.11660072207450867,0.34248918294906616,-0.6256752610206604,0.963804379540644,0.13292896137211221,-0.05026768670393525,0.22557500737025246
1681574328739292200,3.814292236328125,-0.19587105512619019,-1.0407999753952026,-1.847665786743164,-0.16272348165512085,-0.23542967438697815,-0.9581722021102905,-0.030529126524925232,0.2516801953315735,-0.567142128944397,0.9654388447585999,0.1340922950022837,-0.0541586651644383,0.21682721613684755
1681574328749336800,3.8243369140625,-0.520526111125946,-1.0833863019943237,-2.143629789352417,-0.16822029650211334,-0.23529686033725739,-0.9572551250457764,0.03116580843925476,0.17255264520645142,-0.5486195087432861,0.9675171744364313,0.1340391383995429,-0.058360604613932145,0.2062476584958748
1681574328759382000,3.834382080078125,-0.7807440757751465,-1.0968836545944214,-2.165778875350952,-0.17363251745700836,-0.23271727561950684,-0.956919252872467,-0.01211276650428772,0.07011954486370087,-0.564473569393158,0.9698102296937728,0.13260976720211007,-0.06288905338278632,0.19475044314481257
1681574328769428000,3.844427978515625,-0.8867861032485962,-1.0763440132141113,-2.0017240047454834,-0.17929707467556,-0.2282135784626007,-0.9569593071937561,-0.06975691020488739,-0.04093627631664276,-0.6130174398422241,0.9719991100437778,0.13016965191656346,-0.06764764329646086,0.18356883523919293
1681574328779473200,3.85447314453125,-0.720482349395752,-0.9526776075363159,-1.8404004573822021,-0.18480318784713745,-0.22384710609912872,-0.9569432139396667,-0.08160004019737244,-0.04641662538051605,-0.6777461171150208,0.9738855786130998,0.12776058842747515,-0.07215010504208776,0.17325881133071605
1681574328789517600,3.864517578125,-0.39388588070869446,-0.7406814694404602,-1.7544317245483398,-0.18897774815559387,-0.22179274260997772,-0.9566062092781067,-0.05766536295413971,0.04991768300533295,-0.7365395426750183,0.9754469307600249,0.1263860479488828,-0.0756536483992001,0.16372655657384974
1681574328799562800,3.874562744140625,-0.09077783674001694,-0.5268380641937256,-1.6878784894943237,-0.1912527233362198,-0.222779780626297,-0.9559244513511658,-0.022477179765701294,0.13383622467517853,-0.7805256843566895,0.9767299358134023,0.12638538061407525,-0.07787494706712195,0.15479295209510205
1681574328809608700,3.884608642578125,0.11536601185798645,-0.34805741906166077,-1.5956860780715942,-0.19187873601913452,-0.22605206072330475,-0.9550303816795349,0.019545942544937134,0.16103428602218628,-0.7624531388282776,0.9777839412412918,0.12743268003345565,-0.07902989521820075,0.14647111553960554
1681574328819653600,3.894653564453125,0.1460208147764206,-0.2277158498764038,-1.5015363693237305,-0.19138692319393158,-0.23016318678855896,-0.9541467428207397,0.08886308968067169,0.13656571507453918,-0.6699987649917603,0.9786821876039603,0.12886118893793833,-0.07950744130166881,0.1387612753555257
1681574328829698800,3.90469873046875,0.024771885946393013,-0.18230709433555603,-1.4133715629577637,-0.18998752534389496,-0.23375824093818665,-0.95355224609375,0.16113312542438507,0.07827110588550568,-0.534393310546875,0.9795307849568362,0.12999867659802014,-0.0795250538591047,0.13151305386441908
1681574328839743500,3.914743408203125,-0.16349203884601593,-0.169279545545578,-1.3770660161972046,-0.18844257295131683,-0.23575201630592346,-0.9533679485321045,0.23695023357868195,0.013797610998153687,-0.391495943069458,0.9803953151866286,0.13033793419506015,-0.07954912048226954,0.12453552339408581
1681574328849789700,3.924789794921875,-0.4287921190261841,-0.175835981965065,-1.4255670309066772,-0.18678851425647736,-0.2355649471282959,-0.953739583492279,0.31899064779281616,-0.05886870622634888,-0.24923276901245117,0.9813667380889968,0.12955140736099652,-0.0796657710278901,0.11742766597664463
1681574328859834600,3.934834716796875,-0.6704380512237549,-0.1824190616607666,-1.5080459117889404,-0.18508945405483246,-0.23298035562038422,-0.9547052383422852,0.3810122609138489,-0.13710640370845795,-0.11290645599365234,0.9824894636174918,0.1275040895002019,-0.07993808423429626,0.10985062508450369
1681574328869879800,3.9448798828125,-0.8193241953849792,-0.14402532577514648,-1.5516858100891113,-0.183180570602417,-0.22857628762722015,-0.9561368823051453,0.3989703357219696,-0.184051975607872,0.013082742691040039,0.9837132716659003,0.12448687785510551,-0.08021578047584288,0.10186582838912339
1681574328879924700,3.9549248046875,-0.8306330442428589,0.014754900708794594,-1.4973381757736206,-0.18040086328983307,-0.22332194447517395,-0.9579054117202759,0.3728141784667969,-0.1863766312599182,0.08296650648117065,0.9849531040387052,0.12099870984245238,-0.08004119142136415,0.09391514757605136
1681574328889970700,3.964970703125,-0.7028039693832397,0.2457905113697052,-1.3523956537246704,-0.17599324882030487,-0.2183973491191864,-0.9598588347434998,0.3198225796222687,-0.12700065970420837,0.10362720489501953,0.9861178537565723,0.11766561717129527,-0.07890112697266365,0.08660828000347442
1681574328900015900,3.975015869140625,-0.5070752501487732,0.4527750611305237,-1.130836844444275,-0.1698945313692093,-0.2146732658147812,-0.9617958664894104,0.2666657567024231,-0.03970608115196228,0.1125984787940979,0.987134102220821,0.11498181191250147,-0.0766893941019152,0.08040008660460182
1681574328910060500,3.985060546875,-0.2869119942188263,0.6070077419281006,-0.8480471968650818,-0.16261234879493713,-0.21247656643390656,-0.9635408520698547,0.23973023891448975,0.033063650131225586,0.11536580324172974,0.9879518935767738,0.11317144266395565,-0.07363292548797824,0.07564084192001688
1681574328920105700,3.995105712890625,-0.054042693227529526,0.6976071000099182,-0.5753994584083557,-0.15474501252174377,-0.2119252234697342,-0.9649568200111389,0.2527827024459839,0.09084665775299072,0.1474367380142212,0.9885504261657726,0.11232176823625271,-0.07003858818397875,0.07243321681259601
1681574328930151700,4.005151611328125,0.1403116136789322,0.755297839641571,-0.33582037687301636,-0.14672613143920898,-0.21305882930755615,-0.9659593105316162,0.2848334014415741,0.13476590812206268,0.2028672695159912,0.988936556318572,0.11244401635392857,-0.06615655529522209,0.07059892015940121
1681574328940196900,4.01519677734375,0.2612680196762085,0.7692800164222717,-0.08182992041110992,-0.13885363936424255,-0.21530796587467194,-0.9666240811347961,0.30747848749160767,0.16298548877239227,0.22425353527069092,0.9891429318500714,0.11323896657466151,-0.06216818945718946,0.0700606305442174
1681574328950241800,4.02524169921875,0.33525756001472473,0.6952364444732666,0.1588476598262787,-0.131780743598938,-0.21811285614967346,-0.9669853448867798,0.3387356698513031,0.1906164437532425,0.24152147769927979,0.9891831438336328,0.11442927095098443,-0.05842325447199497,0.07077798815376367
1681574328960286700,4.03528662109375,0.33393263816833496,0.543816328048706,0.34073278307914734,-0.12628652155399323,-0.22089242935180664,-0.9670875072479248,0.39880847930908203,0.18555299937725067,0.3047187328338623,0.9890834060158726,0.11572345974515072,-0.05535634845986188,0.07251095563463497
1681574328970332700,4.045332763671875,0.23685002326965332,0.34590592980384827,0.4417819082736969,-0.12282577902078629,-0.22312697768211365,-0.9670202732086182,0.4670945405960083,0.13877630233764648,0.43941712379455566,0.9888942251726188,0.11684628828057032,-0.05326177539996128,0.0748216017209854
1681574328980377600,4.055377685546875,0.029317142441868782,0.12158467620611191,0.4631814658641815,-0.1215430423617363,-0.2238561362028122,-0.9670138359069824,0.5289984345436096,0.08394822478294373,0.6151766777038574,0.9887050681404651,0.11729363088835938,-0.052300066078531667,0.07726062511456618
1681574328990422800,4.0654228515625,-0.10003125667572021,-0.10467135906219482,0.4612208306789398,-0.12251914292573929,-0.22284473478794098,-0.9671242237091064,0.5779787302017212,0.042180612683296204,0.7838509678840637,0.9885514998087648,0.11694215532975837,-0.05255869443621656,0.07954868574298532
1681574329000467700,4.0754677734375,-0.12063678354024887,-0.2749752998352051,0.510421097278595,-0.12547731399536133,-0.2210570126771927,-0.9671552181243896,0.6072125434875488,0.031908974051475525,0.9226148724555969,0.9883765073721097,0.11628484190491471,-0.05385365978978812,0.08179022224011072
1681574329010513700,4.085513671875,-0.04097577929496765,-0.29261529445648193,0.6332868337631226,-0.12958168983459473,-0.21951687335968018,-0.9669647812843323,0.6115763187408447,0.0686989277601242,0.991287350654602,0.9881072313611975,0.11583602556191554,-0.05567415861532359,0.08441935671250132
1681574329020558800,4.095558837890625,0.07971666753292084,-0.24806369841098785,0.7616059184074402,-0.13373681902885437,-0.21872559189796448,-0.9665783047676086,0.5968257784843445,0.1675170212984085,0.9501140713691711,0.9877213068315135,0.11582151243701265,-0.057412848460974324,0.08772561649444936
1681574329030603500,4.105603515625,0.27428561449050903,-0.2140876203775406,0.8997233510017395,-0.13777855038642883,-0.21926246583461761,-0.9658887386322021,0.564337968826294,0.26409268379211426,0.8209302425384521,0.9871802231989876,0.1165344961780333,-0.058952062847332,0.09175791551509505
1681574329040648700,4.115648681640625,0.4884372651576996,-0.10653083771467209,1.0626877546310425,-0.1416359692811966,-0.2216363102197647,-0.9647883772850037,0.5154915452003479,0.29454272985458374,0.6707973480224609,0.9864360697568268,0.11824011935106983,-0.060208721355191126,0.0966332566332255
1681574329050694700,4.125694580078125,0.5728895664215088,0.16535741090774536,1.272322416305542,-0.1439916044473648,-0.22513805329799652,-0.9636281728744507,0.4706517457962036,0.28360965847969055,0.45386260747909546,0.985541470531526,0.12051833344525403,-0.06050817432154096,0.10257767578292538
