,seconds_elapsed,rotationRateX,rotationRateY,rotationRateZ,gravityX,gravityY,gravityZ,accelerationX,accelerationY,accelerationZ,quaternionW,quaternionX,quaternionY,quaternionZ
0,1.0,0.3594390359693871,1.0327913715944375,1.1737082253464728,0.010664189550792036,-0.235498547332389,-0.9718109898575544,-0.1534708329055708,-0.1161103727484487,-0.4263503693498303,0.9649121852100199,0.11397154614220291,0.033188968917800175,0.2341880153163406
1,1.01,0.37976923095282944,0.9971754896068256,1.042066498023397,0.01833281315694362,-0.23906299158649733,-0.9708257582941895,-0.1840923534405273,-0.12210529770875242,-0.39608336970334634,0.9632201182253793,0.11460320562025202,0.03807687682906301,0.24003099888140428
2,1.02,0.3822476351626198,0.9466961899205277,0.9003761302281854,0.025600545103429052,-0.24290332854380794,-0.9697076135119773,-0.2082360734589291,-0.13008849907325556,-0.3417449524834606,0.9616324685398498,0.1153983722309087,0.04273483991700743,0.24517945410321612
3,1.03,0.3640245699482371,0.9021226669935216,0.779162434687535,0.03259428493671141,-0.24674368162679933,-0.9685276104185064,-0.2334031786001715,-0.1310049223594306,-0.2736797896503689,0.9601734657282496,0.11621592614383801,0.04719202645359151,0.249655459509095
4,1.04,0.3311148610657427,0.853975870419007,0.6833521952539042,0.03934318570779966,-0.25036127203455083,-0.967348222758733,-0.26204704012977187,-0.11816721809039561,-0.19372969571751808,0.9588360416999981,0.11694631439674942,0.05144637079158168,0.25358479709451814
5,1.05,0.2732869359336307,0.7991537605797107,0.5989329900209382,0.04576832548760989,-0.2535474595626272,-0.9662355639760467,-0.2877008513756273,-0.10016607873876233,-0.11136079744162163,0.9576211745710903,0.11750050450554053,0.05543871984766962,0.2570554724210452
6,1.06,0.18962412789121763,0.7639261654072594,0.5205029194041235,0.0519193751780255,-0.2560366778185973,-0.9652682637803277,-0.307067637699084,-0.07834051226856847,-0.02539438356937747,0.9565421330353724,0.11774558178519864,0.05915868635784668,0.2601151128584847
7,1.07,0.09098120946556526,0.745678854488733,0.457018966645135,0.057975446550570665,-0.25764502310408655,-0.9644955986034726,-0.3298519839737845,-0.0573380446833276,0.055894972623589056,0.9555948269219224,0.11756867112858761,0.06267295026330436,0.2628406603226069
8,1.08,-0.006669905962759848,0.7246260677397122,0.4107506702857418,0.06399152063259948,-0.2582959774276775,-0.9639411152753529,-0.3638333933054535,-0.03755965235949282,0.12668080836239032,0.954763532553098,0.11692338612105062,0.06600415453082058,0.2653229771308989
9,1.09,-0.10729068717923049,0.7102784407976351,0.36701920423656237,0.06992306133710517,-0.2579887441613786,-0.9636113366749501,-0.39784965650224563,-0.01021812376342943,0.18867552443817712,0.9540381267285107,0.11581550659084955,0.06913252100260282,0.26761198208209486
10,1.1,-0.20426063570562603,0.6912852325387066,0.3071902968936874,0.07582807950074293,-0.25671645168569235,-0.9635043630042175,-0.4210171410851959,0.02643632607169877,0.24570238658908175,0.9534266168172012,0.11423903275344113,0.07207911829240231,0.2696835474977143
11,1.11,-0.2801477916063385,0.6534037096139099,0.2219784178175651,0.08166444203821446,-0.2545515281618952,-0.9636014682016132,-0.4391030690601639,0.062393927258352674,0.2943711383242212,0.9529595254899813,0.11224811190966148,0.07481761494316623,0.27141943137936436
12,1.12,-0.32381959743660166,0.5955358305411786,0.1152445019659024,0.0872773044984755,-0.25170000644711094,-0.9638583748843126,-0.4559060161056488,0.08829406320167946,0.33960794499707153,0.9526653127927407,0.10998024704729745,0.0772867675592279,0.27268645822669746
13,1.1300000000000001,-0.34042369590913546,0.5150945167579736,-0.019840681803505178,0.09254188012915261,-0.2484109088505063,-0.9642206136272606,-0.4716258890864367,0.10535433773557554,0.3780893390589232,0.9525709535983626,0.10759109261997364,0.07944866881869332,0.2733474934880989
14,1.1400000000000001,-0.3001861876264223,0.41986723075684174,-0.16264822951562155,0.09729599261037912,-0.24511200666752087,-0.9645972901550416,-0.482395135478081,0.1200883696128479,0.40284613264830527,0.9526863409114861,0.10532696633789904,0.08127841276324319,0.2732899555222729
15,1.1500000000000001,-0.19011890053192587,0.3149871027251736,-0.2847357865393284,0.10137930955725519,-0.2424472823359496,-0.9648511244493678,-0.4921954731440096,0.13120507223061875,0.4310249479832691,0.9529779466513295,0.10353007418175741,0.08279544395730032,0.27250419893972205
16,1.1600000000000001,-0.03215739201948423,0.20749562264053667,-0.40591625842438006,0.104711960270224,-0.24100294340560785,-0.9648580026287603,-0.5007184070998459,0.12374878332230703,0.4649720452973065,0.9533945750050462,0.10249580916223254,0.08405487094799403,0.27104844154889157
17,1.1700000000000002,0.09020830039604025,0.09728244897492222,-0.5587323288846702,0.10733062512238223,-0.24079227231511013,-0.9646232804258509,-0.4971242360147767,0.09321952632068942,0.49035773269112176,0.9539650865130314,0.10223665518930714,0.08506381642110723,0.268814244398127
18,1.1800000000000002,0.15431760055901175,-0.035053647695553164,-0.7053745095517037,0.1091718129374954,-0.2412968237311435,-0.9642908059813978,-0.48196398910666327,0.06901346416736283,0.5059504595230806,0.9547372543466284,0.10251249118625867,0.08570706426651482,0.26574458919524807
19,1.1900000000000002,0.18461949028467362,-0.2070006481852622,-0.8065788742374322,0.1098423265782678,-0.24210994183327603,-0.9640110338299789,-0.45631008081669766,0.05785796160340855,0.5201405850790505,0.9557019910745659,0.10316048420855153,0.08574552531645134,0.2619852141063394
20,1.2000000000000002,0.15564274604933964,-0.39634243164797944,-0.8712455436178818,0.1089744659699535,-0.24284483774940188,-0.9639245608530688,-0.4188770025478887,0.04148272010757561,0.5309319479523897,0.9568317688699831,0.10401281113329851,0.08496300555617493,0.2577431244640097
21,1.2100000000000002,0.13336363209303903,-0.6225850384710723,-0.9278409949466006,0.10625296927251136,-0.2432468489729463,-0.964126172842577,-0.3804310540582279,0.034047191351617226,0.516894392803928,0.9581188609743327,0.10496388827429053,0.08317755756157648,0.25311430293361054
22,1.2200000000000002,0.14269100125801665,-0.8512801717590633,-0.9858304144429596,0.1014185299680608,-0.24357069338645718,-0.9645630611627588,-0.34117795002968887,0.05903474673753803,0.49034512222052185,0.9595476746626482,0.10615704375907288,0.08029249342061939,0.24808129587000333
23,1.2300000000000002,0.15524096991396538,-1.0013841116320346,-1.0558874929929605,0.09489219560728515,-0.24399578561578364,-0.9651175959234427,-0.3016793452651034,0.09729410952241507,0.4639345719972529,0.9610827786860778,0.10761099056045106,0.07653446928694493,0.24263603911030487
24,1.2400000000000002,0.1772036976908035,-1.011741372402275,-1.1437923459721173,0.08775670098036875,-0.2445994402815599,-0.9656393502371889,-0.28498595740900345,0.10856400023122344,0.4272356160113988,0.9626898681398759,0.10922160932753813,0.07243614274371872,0.2367281089240539
25,1.2500000000000002,0.20347836374622313,-0.8780359820867094,-1.1665178552550979,0.08138119450645535,-0.24546240318813564,-0.9659801620165013,-0.3359451060678267,0.06868072160945643,0.3879706297499315,0.9642800622825711,0.11084851478156676,0.06869788356897641,0.2305335619644327
26,1.2600000000000002,0.23833591528215184,-0.7122334197595266,-1.0832231446112621,0.07651662205777081,-0.24666710035672984,-0.9660725680777658,-0.4346648687469634,0.014041284468996974,0.2910695774080484,0.9657114081461221,0.11241761946244164,0.06575727502658554,0.2245673680289731
27,1.2700000000000002,0.2984362659556423,-0.6797293313737546,-0.9797448709543005,0.07241275890647314,-0.2484924202056704,-0.9659212189397562,-0.48301404961627403,0.0152718452076085,0.11299058177403526,0.9669209813063044,0.11414538766307085,0.06331213864827076,0.21913147015109335
28,1.2800000000000002,0.2791487508495608,-0.7825926834307811,-0.9788249305078391,0.06784080107006944,-0.25065469047177424,-0.9656935706966446,-0.41813262550718866,0.048903805805483695,-0.08058296798089823,0.9680247815856685,0.11605151881584289,0.06068715031401905,0.2139371691254204
29,1.2900000000000003,0.21164546949538124,-0.9328737730315909,-1.113899958390114,0.062151653503213174,-0.25234113211098097,-0.9656360834087284,-0.297107051158095,0.046823951644354475,-0.24952270424023182,0.9692326636720019,0.11783596251639201,0.057388406044443445,0.20832387893951787
30,1.3000000000000003,0.19993116483802206,-1.0133384841930875,-1.2810387519658557,0.05570283617162241,-0.25357965009669814,-0.9657044399405833,-0.2101790254575964,0.03195591962959801,-0.34291706183078363,0.9706141003013429,0.11948604807663016,0.05354417352452295,0.2018680223897883
31,1.3100000000000003,0.24593678872649313,-1.0158730863296352,-1.384165725986389,0.04924474711161015,-0.2550196128928335,-0.9656763171757934,-0.17536280810001373,0.03819531897974263,-0.36273661115893635,0.9720677032640551,0.121229800737376,0.049610806017663774,0.1947068634832859
32,1.3200000000000003,0.26213045110012534,-1.0071951518302595,-1.4644541741750159,0.043111970029098244,-0.25685603142254,-0.9654831778693734,-0.15942790145091537,0.057817938507524994,-0.3603506500541126,0.9735087952501739,0.12311260255610262,0.04580260580940794,0.1871073672984328
33,1.3300000000000003,0.2001362430765097,-1.0087334543970712,-1.6085402777796272,0.03731048574583126,-0.25851087700687864,-0.9652836388873377,-0.1412116931340302,0.050705616150341346,-0.3581889937145571,0.974985785850114,0.12484575151419826,0.042048590335336894,0.1789671791665763
34,1.3400000000000003,0.0859120492208504,-1.0191310100327116,-1.7800755525710261,0.03190423672778184,-0.25932537713481374,-0.9652597357688167,-0.1293032469139857,-0.005760384806164372,-0.3507594069105867,0.9765766550431118,0.12609839509177928,0.038288197804358846,0.1700263949630548
35,1.3500000000000003,-0.046088436952137726,-1.013683002246282,-1.8910964209191194,0.02681206406409536,-0.2589728229614317,-0.9655094687190318,-0.13635862017477546,-0.08556113787867516,-0.35422980035259677,0.9782689480311013,0.1267018604821129,0.03447674249350207,0.16038345415449232
36,1.3600000000000003,-0.15567704109735908,-0.9819038644457633,-1.9374102890126463,0.02208726141300119,-0.2575049040830203,-0.9660216868300358,-0.13660386482550058,-0.13636518328660688,-0.39902353353955766,0.9799870532803695,0.12666142931927815,0.030707104158315512,0.1503770616554817
37,1.3700000000000003,-0.21656014533409756,-0.9385397912242297,-1.911871269475663,0.017725608036705573,-0.25529803934552514,-0.9666971105465786,-0.1099933344358682,-0.12452380070305143,-0.4894197036233545,0.9816466409585674,0.1261579966300641,0.02706741439613163,0.14034087888742627
38,1.3800000000000003,-0.20379524484737316,-0.8941010803754923,-1.8340185728491238,0.013592117556937252,-0.25292996016256575,-0.9673864948953518,-0.07205310241351158,-0.08510614977071933,-0.5955836722272753,0.9831679621280531,0.12549045349651117,0.023582930276412048,0.13058613382393403
39,1.3900000000000003,-0.09767154957249752,-0.8546980601264474,-1.7640468566729708,0.009594046243683905,-0.25122324012075936,-0.9678795798086486,-0.025684628764119914,-0.058835376232503164,-0.7054579864268011,0.984493181285298,0.1250868965221134,0.020275509233155995,0.12121664699765405
40,1.4000000000000004,0.08333422962278911,-0.8072157978863749,-1.7244437107652986,0.005843476996905057,-0.25099693221423425,-0.9679686937965749,0.027889480906625644,-0.04388530057227072,-0.8077939895385362,0.9855937724446522,0.1253670511701253,0.017225483692453414,0.11211917367843165
41,1.4100000000000004,0.2667932848515681,-0.7495659228480637,-1.703895227147578,0.002536489198863226,-0.25265248493654724,-0.9675519232842759,0.07700853252944671,-0.029919304001991037,-0.8771331876942946,0.9864656364501362,0.12653567728739146,0.014516435394678775,0.10316682919394259
42,1.4200000000000004,0.3756603288851611,-0.7088344774599917,-1.6676950800367847,-0.00043533610217327086,-0.2558062427497759,-0.966725336092584,0.11875032140737121,-0.016976418789608292,-0.8918331908491272,0.9871369088538413,0.12841244305042887,0.012051886423278535,0.09437076319098867
43,1.4300000000000004,0.3744087197942613,-0.7106845231892285,-1.6119163577111089,-0.0033351543747706007,-0.2595454328937011,-0.9657222543729549,0.16055100894819918,-0.011188084895963454,-0.845995992025162,0.9876644888961532,0.1305500995169073,0.009650013838702383,0.0858101675473152
44,1.4400000000000004,0.26131726824066687,-0.7517395689460592,-1.5582277157497646,-0.006408285707704046,-0.26274495573445295,-0.9648417644601096,0.21357949513050578,-0.02235074594816879,-0.743983916493554,0.9881289742157294,0.13238576693697013,0.0071376687848839476,0.07750052667832959
45,1.4500000000000004,0.0976123234355357,-0.8006507747025228,-1.5367424107390542,-0.009892680727871084,-0.2646196969364086,-0.9643002322878493,0.2725143638165452,-0.05636094645269915,-0.6142385198809883,0.9885979192758055,0.13352427080982926,0.0043615058559825105,0.0693462040608745
46,1.4600000000000004,-0.08724010341981682,-0.8452539310523484,-1.5453542711691552,-0.013808211333563103,-0.26486344363654307,-0.9641850393288844,0.320227084811497,-0.10583038898485245,-0.48489756851696864,0.989107168598886,0.13380375940950284,0.0012974787627980993,0.061186358381383275
47,1.4700000000000004,-0.2955234528005201,-0.8912753205157542,-1.5701138400716272,-0.0181151769183188,-0.26326204914887213,-0.9645511445288943,0.3492362588823673,-0.14753905704761927,-0.3609192042111511,0.9896767201508924,0.13310611743565032,-0.0020337059900126142,0.05290718462915471
48,1.4800000000000004,-0.4605377473512283,-0.9121837454873165,-1.6165910276160427,-0.022706172707353693,-0.25987913576448174,-0.9653693848075325,0.363024575328308,-0.1644249706967853,-0.2379234779003876,0.9903000144101738,0.13145478940683056,-0.005563170392685776,0.044420390709520426
49,1.4900000000000004,-0.5171631631303251,-0.8685412171075637,-1.6564464427700276,-0.027151152215233256,-0.2554888591132643,-0.966425625992359,0.3517149988023672,-0.1580852710294411,-0.13229855232703766,0.990918655521796,0.12923393100795771,-0.00903822352695343,0.035702619344828136
50,1.5000000000000004,-0.4391129640386312,-0.749368270489791,-1.6410568424579335,-0.030859059628533244,-0.2512966651932899,-0.9674146873319003,0.31050785181197593,-0.119595103630151,-0.05243947430251573,0.9914444597308346,0.12705601971355018,-0.012102183356277158,0.026966555942032372
51,1.5100000000000005,-0.3128601997292467,-0.5908432474224711,-1.5664770628444937,-0.0333669915324142,-0.24814997029175845,-0.9681454066410965,0.2572640705547281,-0.04140215520240476,0.0032168636274176148,0.9918226914932985,0.12536463808916132,-0.014473220354673995,0.01855061008696482
52,1.5200000000000005,-0.18632456439930628,-0.4272336361249964,-1.4320263515716405,-0.03459721838269753,-0.2462589610385668,-0.9685860301646011,0.21283614689139776,0.04942587351347456,0.04752083779511493,0.9920502439264085,0.12428832307653631,-0.016087308372196664,0.010762331160141567
53,1.5300000000000005,-0.06437009835411267,-0.2711378425017761,-1.2444570189652906,-0.03470108926860489,-0.24550978066452203,-0.968772788279464,0.17909474234470857,0.11581072382355366,0.10130822195829525,0.9921498383259063,0.12379175372937208,-0.017002415939385927,0.003886854844448847
54,1.5400000000000005,0.066193228334925,-0.1335086531971828,-1.041808339641397,-0.03385935968331835,-0.24589634684752915,-0.968704269635639,0.15914836883996805,0.1535032426617394,0.16042533125777525,0.9921399194640257,0.12388890301141971,-0.017302169790298385,-0.0019052686694141677
55,1.5500000000000005,0.19140603220380129,-0.0184030898548031,-0.851049396582266,-0.03226025816308106,-0.24746663323432447,-0.968358182907684,0.15963606163135058,0.18252901892494236,0.21036009143964987,0.9920336016168068,0.1246132610850301,-0.017092775312215248,-0.006624202047499012
56,1.5600000000000005,0.264008480722303,0.04485464986412433,-0.6790993150288054,-0.030206846178389785,-0.24994123108929855,-0.9677880726480864,0.1785576809932884,0.21676312286523558,0.24663962224752423,0.9918586228764196,0.12582389245542566,-0.016545084854653475,-0.010378480194669982
57,1.5700000000000005,0.28028146473181337,0.03272985872544219,-0.5291506628637209,-0.028298766014361515,-0.2527759812512424,-0.9671093938431511,0.21583089489833635,0.25484874818041015,0.2859140819413295,0.9916530144404142,0.12723769883635738,-0.01597786005371804,-0.013315280455092303
58,1.5800000000000005,0.2570445091756423,-0.03167263625294868,-0.3941070002413271,-0.027138878041809457,-0.25553361862179336,-0.9664181712598344,0.26794698693969615,0.27880273787035004,0.34948911347638506,0.9914462320544453,0.1286225345661278,-0.015707400154651475,-0.0155723185919241
59,1.5900000000000005,0.20462044363450393,-0.11846217045542806,-0.2812092394841086,-0.027021806858312108,-0.25787940041972957,-0.9657985488784226,0.32138345103663446,0.2775356167808193,0.43952447636460734,0.991262189368036,0.12979939035830992,-0.015891259952496368,-0.017265882300866585
60,1.6000000000000005,0.10212855892562646,-0.20918892288043933,-0.1862512549757327,-0.028023021601701212,-0.2594447597823625,-0.9653508149648069,0.36314017144409577,0.2631809553260022,0.5541049310397597,0.9911269790718464,0.13057394490559218,-0.016575564804191863,-0.018509091596469913
61,1.6100000000000005,-0.04378986427021244,-0.2917598331690847,-0.1005017795429192,-0.030126059239166426,-0.25978517228125036,-0.9651955192640276,0.3912892132481793,0.244776543292835,0.6841496692518836,0.9910713028664712,0.13071543923718915,-0.01775433706154251,-0.019376526311973036
62,1.6200000000000006,-0.1848622685680702,-0.35133058766879166,-0.0122261349819318,-0.0331744057668569,-0.25868401146482634,-0.9653902459440117,0.40624855062494875,0.22310803140378674,0.817096097983028,0.9911105372850111,0.13011398782734468,-0.019345383710347212,-0.019877369154802982
63,1.6300000000000006,-0.2710122773131397,-0.3669774840915697,0.0991110998243758,-0.03681799945942739,-0.2564290026442711,-0.9658587437941125,0.40554178779910505,0.19927593748507572,0.9384398214686397,0.9912276616386456,0.1289238402158473,-0.021163899261706035,-0.01992843303016909
64,1.6400000000000006,-0.2930693401493876,-0.32983117334853074,0.2306778419690037,-0.040641334907138706,-0.2536019904933065,-0.9664514532919599,0.390032279655845,0.1835891714332484,1.0185287218103172,0.9913879152227378,0.12745360268544226,-0.02298873293391882,-0.019378307618216736
65,1.6500000000000006,-0.260028866078573,-0.2513399374347626,0.3723413984329549,-0.044222937181560264,-0.2507572901934447,-0.9670368669568716,0.36887933824217756,0.1860155119040407,1.0315442110531148,0.991559413796975,0.1259974797090463,-0.02460041106715536,-0.018101916423853
66,1.6600000000000006,-0.19544477401590193,-0.14139126987459555,0.5321500262913126,-0.04725020196456884,-0.24834831191098974,-0.9675161490296891,0.3502561350972545,0.20622473391037138,0.9818618906777353,0.9917156700143118,0.12479474626485507,-0.025838939591258762,-0.016019707816780058
67,1.6700000000000006,-0.16777428293909658,0.010637559216525524,0.753266601789785,-0.04947527234672338,-0.24632767805999484,-0.9679220553075389,0.32739070648207425,0.22775933036521742,0.8784063598240596,0.991862283414651,0.12382882734023297,-0.026554589850566877,-0.012921487030645436
68,1.6800000000000006,-0.1844890881476453,0.19107340303402498,1.054033351147913,-0.05068457478396083,-0.24419410900476532,-0.9684001284182403,0.2902533857536972,0.23280869504737212,0.7285642552285312,0.9920293918911413,0.12285205180099283,-0.026589842538522944,-0.008418487174843885
69,1.6900000000000006,-0.23334413694682474,0.3583523805665373,1.4152788168605732,-0.05098539234060589,-0.2415842896385547,-0.969038343068852,0.2428443347550115,0.21106023650685443,0.5653110493270944,0.9922206116941755,0.12168098383845592,-0.025960405411777018,-0.0021646699163262164
70,1.7000000000000006,-0.35017548898069734,0.48643777824268236,1.8140119089705953,-0.050729274348017654,-0.2379780239515234,-0.9699423025982774,0.19235689227669753,0.1534336265752337,0.3884562282143289,0.9924278362716052,0.12004559775334245,-0.024829322651572658,0.006063721881200612
71,1.7100000000000006,-0.4831482104482,0.5348635188468854,2.210875261445349,-0.05046362171701803,-0.23288511197080305,-0.9711893813870378,0.16526101762691423,0.08821527550661948,0.1772736850520995,0.9926211115600185,0.11769068205119859,-0.023492293067014638,0.016319269348546737
72,1.7200000000000006,-0.539432822445589,0.5074704634144938,2.54262738131781,-0.05083803392057883,-0.2266607257074945,-0.9726401202406189,0.20760184196075637,0.07637380720070092,-0.00045024578202909615,0.992709760167823,0.1147980027597042,-0.022333193297216444,0.02838486912084682
73,1.7300000000000006,-0.5106853569766402,0.47181836896206764,2.7708178537934214,-0.05203730349520289,-0.22013819168355356,-0.9740737196741164,0.33007171523319995,0.1320411510496701,-0.099932220235955,0.992591629711387,0.1117945659726736,-0.021512588537444068,0.04182531221277177
74,1.7400000000000007,-0.45163998744719447,0.4560414857223651,2.86923007975055,-0.05365808528867733,-0.21396305485248773,-0.9753618935246586,0.4550683767540824,0.17659416406239978,-0.17882557687750877,0.9922124323377043,0.10899902382255161,-0.020890863592063262,0.056059308891643
75,1.7500000000000007,-0.4439896908221025,0.4147756625821063,2.8608923851552754,-0.05541934460113625,-0.20808570765358103,-0.9765342434609497,0.5036696148926962,0.12573022928238956,-0.2830412237608635,0.9915884021690236,0.10637296703941397,-0.02039347683929072,0.07047983664515599
76,1.7600000000000007,-0.5146051352224278,0.34030222797881154,2.8155914774044835,-0.05751393077933266,-0.2018259953592655,-0.9777246443137398,0.49692877360239335,0.013334890938885444,-0.4056215398603958,0.9907761423368797,0.10357702543271649,-0.02018023553156143,0.08470445742276983
77,1.7700000000000007,-0.622883524666757,0.3091062270025216,2.760187171334399,-0.05988862481686797,-0.19463390692990223,-0.9790372488947432,0.4775287219546482,-0.08576371010749084,-0.5187003945657694,0.9898201678205557,0.10033695603035024,-0.020267194516582814,0.09862432514458101
78,1.7800000000000007,-0.7541987978569629,0.3368070121726365,2.697926149708085,-0.06192804814987987,-0.18623682228917446,-0.9805399695972329,0.44135705683826915,-0.16460114813459345,-0.624697743026805,0.9887527043737205,0.09648953042333638,-0.020379770861298253,0.11221612494563696
79,1.7900000000000007,-0.8779139412143717,0.3547027584454341,2.6497298011560955,-0.06335381008199334,-0.17655347393046536,-0.9822357525111359,0.37811355709582817,-0.22719758000980697,-0.7405418895971723,0.987585154846674,0.09197773083484129,-0.02040330583457492,0.1254971235053874
80,1.8000000000000007,-0.93101637779196,0.35454740474313673,2.626148820656416,-0.06437398691139128,-0.16593388776679718,-0.9840177039544398,0.31184613808838835,-0.26234764604800975,-0.8514631115835467,0.9862872300664236,0.08698917541334572,-0.020429410215994873,0.13857585084165758
81,1.8100000000000007,-0.8713655412961859,0.3682674538614673,2.575367534497829,-0.06497831110559786,-0.15530414839776763,-0.985713504465581,0.2590592323508235,-0.27174904378449877,-0.9330619455392076,0.9848217251974054,0.08198354466440022,-0.020396660313636475,0.151464551580402
82,1.8200000000000007,-0.6883595775136881,0.38794362084187256,2.4499002820539513,-0.06500221913977046,-0.14591949983153468,-0.9871495598045255,0.20747180045738606,-0.25909228875201457,-0.9706022580518774,0.9831932646188007,0.07756123819156924,-0.02013790164721261,0.1639152856264048
83,1.8300000000000007,-0.41533138233374184,0.40962224421382204,2.2549761439514615,-0.06437101350105226,-0.1389134007149511,-0.9882062354858298,0.16288135444334814,-0.22589401018519528,-0.9541592869691002,0.9814488010613637,0.07425741102038683,-0.01951604269425139,0.17558304945075626
84,1.8400000000000007,-0.10164755827851968,0.4279644169831838,2.020904052134092,-0.06307614452826522,-0.13500450388895086,-0.9888343379762,0.13248505199086302,-0.18701001361045522,-0.8857621037334733,0.9796530848992692,0.0724039221905141,-0.01843328722635056,0.18620214310684763
85,1.8500000000000008,0.20307828069206116,0.43631395644941745,1.7816568518206208,-0.06095768340755759,-0.13442848933134166,-0.9890454766903873,0.09628081100860093,-0.163301167879547,-0.7887413304877523,0.9778659902006357,0.07208142626873291,-0.01674439771378802,0.19565444044400526
86,1.8600000000000008,0.4743040106989236,0.44372072887396397,1.5643212686940653,-0.05839139251813319,-0.13691013354680714,-0.9888582434381618,0.04088084144310933,-0.15639596549968054,-0.6883381170968411,0.9761160278792453,0.07318019521255012,-0.01461236925807477,0.2039874490421883
87,1.8700000000000008,0.7011422708749502,0.46373770346721516,1.3962309371050468,-0.05584302438839869,-0.1419514522953143,-0.9882911628214691,-0.025105013630328958,-0.15609670948760884,-0.5973120234296714,0.9743968860284355,0.07549930522170017,-0.012270088958393793,0.21138511247418473
88,1.8800000000000008,0.8516822712166052,0.4878293826043234,1.2840014149677639,-0.053010964388762384,-0.14897280051832051,-0.9874102588458306,-0.08626289774930132,-0.15651605326204976,-0.5167747303342198,0.9726871978653567,0.07872511811818282,-0.009589322555820831,0.21811418962259116
89,1.8900000000000008,0.8977294759297901,0.49232385306246546,1.2074755965770922,-0.04999984303337554,-0.15705097804830082,-0.9863139196821811,-0.12947479509731544,-0.15835816873845615,-0.4354619982118279,0.9709763366428938,0.08241668715184361,-0.006693521871085125,0.2243926743372316
90,1.9000000000000008,0.8312744833851183,0.4729269217810914,1.1556768568933902,-0.047094171753968996,-0.16508203009897685,-0.9851463776560906,-0.15362959027528028,-0.16176412975873866,-0.33815792812785156,0.9692813663198119,0.08606548372603595,-0.0038341991767011597,0.23034275388948935
91,1.9100000000000008,0.658275212091622,0.43752786164252155,1.127454889384171,-0.044506500293506675,-0.17196100461539543,-0.9840927153749706,-0.16952733287422886,-0.16057330690788746,-0.21957046243047945,0.9676293156106697,0.08915729351346412,-0.0012410246173473758,0.23607495053803873
92,1.9200000000000008,0.4132206075453896,0.39140620044805696,1.1106749582204873,-0.042356729722756704,-0.17679546968861148,-0.9833338572320459,-0.1937064555436168,-0.15471506180307182,-0.08917120251178402,0.9660503217180632,0.09127364425197175,0.000913680142992564,0.24167276972851567
93,1.9300000000000008,0.14831022101134794,0.3240628187226661,1.091031773467878,-0.04075508684993702,-0.1791125209041204,-0.9829838511097515,-0.23491398982368222,-0.1353775711605826,0.04098450353100634,0.9645728518244442,0.09220337445528923,0.002499896251261539,0.24715107280206156
94,1.9400000000000008,-0.07067636709336575,0.22720317637286716,1.0593672854346174,-0.039922550902939495,-0.17903606369591676,-0.9830319834506417,-0.2930153954494989,-0.09277066091695971,0.1621736023856538,0.9632088449997745,0.09204500019953507,0.003401140791967417,0.25246359421216136
95,1.9500000000000008,-0.1965302506024652,0.11973906029431544,1.011621995975177,-0.040042546241657005,-0.17726636079094527,-0.983347151362546,-0.3647167260979381,-0.03450542834758762,0.2631101841282727,0.9619484678281863,0.09117666190832288,0.0035950110912170976,0.2575318102080974
96,1.9600000000000009,-0.22131306724993735,0.04573334559498002,0.938345782127026,-0.04094902879279457,-0.17477459774716383,-0.983755563831436,-0.44274193382689153,0.0352829579751472,0.33661697704679394,0.9607748699997125,0.09006189238124028,0.0032728344422454972,0.26226759085798845
97,1.9700000000000009,-0.16817219896795857,0.008732390791105167,0.816880738230463,-0.04219135480903745,-0.1724828284624227,-0.9841078422817303,-0.5174202941866639,0.11659351393404434,0.39030873879787803,0.9596974972102977,0.08909682950442137,0.0027604644870873342,0.26651602933504775
98,1.9800000000000009,-0.10745849402598162,-0.03238419716869752,0.6280095624900338,-0.043504761532628174,-0.1708452258879712,-0.9843365288560136,-0.5770410327622265,0.19105790663583053,0.4298962353066547,0.9587843511874895,0.08846842121653868,0.0022251888821516355,0.26999754953565114
99,1.9900000000000009,-0.07449373541776176,-0.09546653322598797,0.39238756699949273,-0.044972442444852614,-0.16977335478380873,-0.9844560558739323,-0.6111533005703027,0.24246105092543005,0.4736889379103181,0.9581309119648644,0.08814366483677383,0.0015923476134764502,0.27241951084865856
100,2.000000000000001,-0.09836023721584693,-0.16037753324477527,0.13609649170036991,-0.046657718061436114,-0.16889268743541005,-0.9845289765525231,-0.617761383533199,0.25844886365444086,0.5455953825859934,0.9578060064702177,0.0879470609654052,0.0007682469693949957,0.2736275385419153
101,2.0100000000000007,-0.22101545814826443,-0.24877270393982628,-0.1443601948883473,-0.04862950556052652,-0.1674534185356186,-0.9846787242580661,-0.603234574126287,0.22172687073758718,0.6374063305288828,0.957875184013107,0.08752049338088949,-0.0003922137033519407,0.2735218389991379
102,2.020000000000001,-0.37528330322778275,-0.37759753807896823,-0.4342564622394763,-0.05119673849358181,-0.16474799575311935,-0.985003391304809,-0.5759520200452248,0.14357418951394746,0.7410653716493169,0.9583933689559866,0.08655723706564003,-0.002143068906159681,0.2719968200261498
103,2.030000000000001,-0.418461174408715,-0.5191979542754268,-0.710517173604579,-0.05467930119066432,-0.16111003187868592,-0.9854168774473363,-0.5472773627305684,0.05712677183826953,0.8568130442757785,0.9593308884237504,0.0852540306205674,-0.0045864814761421005,0.26905183520601755
104,2.040000000000001,-0.2794567497608793,-0.6360614827312439,-0.9692776873954269,-0.0590548896541866,-0.15805761228856416,-0.9856591737113318,-0.5216606639248815,-0.013558600435442042,0.9459542621513124,0.9605860952204776,0.08433311733314051,-0.00749347719129927,0.26475906998698184
105,2.0500000000000007,-0.014476538175985418,-0.6898234565545728,-1.1964705479508781,-0.06393303229258641,-0.15727864304381567,-0.9854795978257339,-0.49497107524876865,-0.02146513465724139,0.9544621199648268,0.9620377855164454,0.0845520575295984,-0.010442911163608418,0.2592560927873861
106,2.060000000000001,0.22568712115152872,-0.6915324041267,-1.3952524156994544,-0.06872836279693964,-0.1592494480414551,-0.9848391100634974,-0.46123579202426274,0.06367164074772981,0.8942902236137373,0.96360624643628,0.08606107871132035,-0.013093653592325302,0.2527255434309929
107,2.070000000000001,0.3584912885832876,-0.693366516069258,-1.5987509324451248,-0.07315864873950341,-0.16326877355029523,-0.9838604005116784,-0.41768188142202967,0.19124119924878447,0.7969092772987155,0.965286059887946,0.08848226067080943,-0.015420593980592394,0.24522857830192354
108,2.080000000000001,0.4306733097889105,-0.6563606606906753,-1.7919658631602233,-0.07703135351138152,-0.16844078623759476,-0.9826919542034844,-0.3815371788083482,0.2697641446465039,0.6955142419538198,0.9670950629386531,0.09135679829992492,-0.017466732087557467,0.2367561884808414
109,2.0900000000000007,0.5388990906539818,-0.537451409724251,-1.9287192204088721,-0.07974465978976403,-0.17463615965308685,-0.9813921510673463,-0.38703988066405404,0.25103888961897175,0.6203039540585608,0.9689787594919893,0.09456019749332203,-0.0189555463898095,0.2274959658261807
110,2.100000000000001,0.7472440764285021,-0.41516832074382665,-1.9770720049596902,-0.08089779637067283,-0.18245719479414763,-0.9798696777791843,-0.45127478810529703,0.17122106166998,0.48655291339306256,0.9708029553786182,0.09836892893448172,-0.019602281033464026,0.21784023175012182
111,2.110000000000001,0.9977891895729898,-0.3826903302476792,-1.9277651362641015,-0.08107654620563179,-0.19257827081226786,-0.9779099407604918,-0.5233779020249689,0.13926248183869783,0.2078785867674741,0.9724091024731791,0.10321654855167656,-0.019599488678874285,0.20821888834712207
112,2.120000000000001,1.2304511508193474,-0.4388438218963773,-1.783984231330031,-0.08139992921576876,-0.20501892196485924,-0.9753441340711998,-0.5011983239643932,0.2288323955873965,-0.18475762583595956,0.9736674776981324,0.1092620877887677,-0.01947579913537588,0.19906482642945406
113,2.130000000000001,1.299293378251028,-0.5365873479076009,-1.6402637672266658,-0.0825100922538756,-0.2188810201460658,-0.9722328852487633,-0.34951049951252244,0.3693796790905992,-0.5313797258528936,0.9745623687684165,0.11613445480676753,-0.019631161188491522,0.19060466448548646
114,2.140000000000001,1.083705224169708,-0.6846266919591275,-1.6333779109032913,-0.08472176694898279,-0.23196445371585003,-0.9690108812062469,-0.1750588359002111,0.4187199142212692,-0.7006695144172743,0.9752997748973233,0.12274720803231536,-0.02048472223403213,0.18242907249705598
115,2.1500000000000012,0.7509602941637482,-0.8737844474847134,-1.7312410572797758,-0.08830567454800119,-0.2422962729510741,-0.966164585594801,-0.09469040534700811,0.3664067587687454,-0.6756464718755196,0.9761371435400483,0.12809738377389626,-0.022427583129812058,0.17384042173047753
116,2.160000000000001,0.5044800179283427,-1.020975708303858,-1.860063682805251,-0.09309646968641211,-0.24990405702676177,-0.9637764688989353,-0.09600350433129295,0.2844446025389622,-0.5578132250458493,0.9771356739808088,0.1321432054450831,-0.02539275573178162,0.16453778622707677
117,2.170000000000001,0.32930511422087316,-1.10233326558862,-2.0940878948590185,-0.09838620488590662,-0.2558017214523197,-0.9617035823106505,-0.07785871369132902,0.20006041336441452,-0.48911535127989575,0.9782782918253343,0.13529667036428275,-0.028956746140711316,0.15425832973146275
118,2.180000000000001,0.14148285263904292,-1.1322384863054598,-2.409490593323914,-0.10333729480870803,-0.2603356863911485,-0.9599684276818161,-0.02079596270136759,0.13058586670409325,-0.5081070350048871,0.9796120553015311,0.1376265675354799,-0.03272663976082725,0.14250731940422098
119,2.1900000000000013,-0.06278135806016469,-1.1051904688415903,-2.599293646913501,-0.107513828680786,-0.2633839712986892,-0.9586793090202872,0.00014334627077838835,0.07371122305427759,-0.5581761381110706,0.9811000174696402,0.13902619172357494,-0.03645773067676356,0.12939288276301378
120,2.200000000000001,-0.24331623798586344,-1.0588261485389499,-2.5407806679174487,-0.11109016366388472,-0.26470416961460524,-0.9579081903189136,-0.030175078851479867,0.004735131027474058,-0.619144245622904,0.9825885815627174,0.13941569429661654,-0.04008012174917132,0.11591955187784679
121,2.210000000000001,-0.3029498325891554,-1.0156154788138023,-2.3017325129044406,-0.11465494534953942,-0.2647105243590515,-0.9574860758736703,-0.058344653055918766,-0.04436224352682182,-0.6837025783618774,0.9839016283078131,0.1390930826341685,-0.04367339143700299,0.10320578489428184
122,2.220000000000001,-0.16464166713336634,-0.9092471224268153,-2.0623378277508544,-0.11820863065388264,-0.2648978735697472,-0.9570023349486109,-0.05509926890781991,-0.02574264388816823,-0.7353584212136077,0.9849152209068075,0.13885637807371135,-0.04707304464779091,0.09176030299149764
123,2.2300000000000013,0.08549790161424194,-0.7235741639010072,-1.9218272315564495,-0.1208394894728791,-0.26684765431659874,-0.9561310767773961,-0.01944510953222406,0.04273945099530212,-0.7805995996588794,0.9856062565149022,0.13947984403820324,-0.04978528248423154,0.08140110042686971
124,2.240000000000001,0.319386790842473,-0.5132013156860658,-1.8336542440096915,-0.1219399211850019,-0.2711006926668547,-0.9547921210257964,0.03122199905014401,0.11757941575927594,-0.7967098791216678,0.9860152401850248,0.14122410513295772,-0.0515578225335892,0.07178427740480268
125,2.250000000000001,0.44714053440837054,-0.3352688056939035,-1.727731999555652,-0.12148847959523,-0.2770043192118323,-0.9531524600708954,0.08520909542649599,0.15944168190408126,-0.7562571749217462,0.9862123136426159,0.14377873224556786,-0.05243903590865616,0.06282582598142339
126,2.260000000000001,0.4395115574345684,-0.21859608567061684,-1.5968788956100677,-0.11951403750627491,-0.28329982983485164,-0.9515509222240169,0.14846177015448547,0.14719339837597425,-0.6697677791096772,0.9862996271072804,0.14652122909469614,-0.05248604614447105,0.054558433116322816
127,2.2700000000000014,0.31497083119314356,-0.17648102559044884,-1.491691945297062,-0.11698529940249146,-0.28875627645314805,-0.9502257452345115,0.2290066664807891,0.09401209066068257,-0.5589549419914164,0.9863575247336385,0.14885946746225584,-0.05222382517014746,0.0469160386072228
128,2.280000000000001,0.13893366638278642,-0.17364663132008623,-1.4545955007428883,-0.11440091703341934,-0.2926370728572183,-0.9493542260279964,0.32710472795737994,0.029564022874460593,-0.4236727730227288,0.9864574210873999,0.1504132554636389,-0.051948010314624524,0.03960536874281938
129,2.290000000000001,-0.08550046860418217,-0.18028602971098562,-1.4861033662619187,-0.11179377811390398,-0.2945661672257098,-0.9490687591121971,0.41750035499349586,-0.033562275940576806,-0.2794112335914689,0.9866525571317456,0.15096629290570932,-0.05171814217769499,0.032249763699163894
130,2.300000000000001,-0.32681024701257533,-0.18997966190943158,-1.546516974270639,-0.10911630146928288,-0.2942777135849993,-0.9494692441144853,0.47807571683358263,-0.08842120395950889,-0.14871568646372635,0.9869745051767183,0.15036424716521898,-0.05153180490028464,0.02457580107466959
131,2.3100000000000014,-0.5136997390472648,-0.17302296632270023,-1.5783947685477364,-0.10629025485417971,-0.29189938385037345,-0.950522310549407,0.5040073230002101,-0.1124846397810531,-0.039056830034270955,0.9874074380133422,0.14867457008489207,-0.05131972003799359,0.016601597026081317
132,2.320000000000001,-0.5678344093618931,-0.06679684017519055,-1.5400375433022482,-0.1029761189811931,-0.2883090948889036,-0.9519807428777082,0.4984249672966169,-0.095970742970334,0.044743746667582185,0.987879009554447,0.14636956183067704,-0.05083615333056968,0.008640750279739734
133,2.330000000000001,-0.5099804731393237,0.14295858341693407,-1.4071754757361774,-0.09841782158183018,-0.2846080785892116,-0.9535740578270786,0.46530411096338714,-0.04222951080825195,0.09852972190632611,0.9883204529935722,0.14404938983908186,-0.04961085934094611,0.0012156916485816201
134,2.340000000000001,-0.3984081226127431,0.38472968224474174,-1.1901523787949806,-0.0922063575142969,-0.2815092743236883,-0.9551119831875672,0.40767482927739485,0.034897604317881664,0.1256261638238877,0.9886983609928713,0.14211986662624354,-0.04736917823218287,-0.0051504382290903285
135,2.3500000000000014,-0.3318058082374966,0.6046919226762546,-0.8950724338417898,-0.08451535756008419,-0.2789964463685632,-0.9565583318124226,0.3487630355215801,0.09924995575130346,0.15341390541427657,0.9890276639269233,0.14059899705773976,-0.044156685319401714,-0.010065228181970736
136,2.360000000000001,-0.2991761823921609,0.7661388140941864,-0.5462281236291772,-0.07591365170636921,-0.2765819050426694,-0.9579791846038094,0.30895592678347555,0.1322114786599309,0.20245700956967777,0.9893505083098348,0.13924330762483098,-0.04022620587140324,-0.013222470502463063
137,2.370000000000001,-0.28375889846407304,0.8674603680371754,-0.22529401860309506,-0.06699787822330985,-0.27406341206802587,-0.9593671687678534,0.30175851618928545,0.15526995640317934,0.2689208105110215,0.9896820653714717,0.13793120888473723,-0.035883117025752746,-0.014599437008095595
138,2.3800000000000012,-0.2645925655472122,0.8972884749411884,0.012839650192621909,-0.058206767274011924,-0.2715018274081657,-0.9606691690280789,0.3216660435418272,0.17644676418807484,0.33544844720099404,0.9900117347529722,0.1366586986187033,-0.031404319922824754,-0.0145386222420355
139,2.3900000000000015,-0.23828805066868367,0.8614227328805646,0.1922080511223607,-0.04999038182368209,-0.2690195162026263,-0.9618310767979333,0.3513128898785271,0.20714814615056074,0.3904424986249474,0.9903202769913378,0.13545561408885018,-0.027079629056661295,-0.013449439709636406
140,2.4000000000000012,-0.21318551429932836,0.7614618237093022,0.3416713383827633,-0.04283249635327513,-0.2667142399453636,-0.9628197811131067,0.3813386360248949,0.24623001332665162,0.44188223726180376,0.9905929461074168,0.1343506434775548,-0.023193419154742177,-0.011599753681322537
141,2.410000000000001,-0.214524622604575,0.6087304865070174,0.4758363307701727,-0.037214171777900935,-0.2644621523485764,-0.9636758288247981,0.40798992744024115,0.26777189916415134,0.49434556045550043,0.9908345353516446,0.13326868511456694,-0.020008317677707468,-0.009133535597112863
142,2.4200000000000013,-0.23655470870011772,0.4207839840796335,0.5852624678201636,-0.03356157698727989,-0.26205218441026035,-0.9644690243851586,0.4317324501053549,0.2599341351702913,0.5606213902620691,0.9910573014671361,0.1320970047451719,-0.017756335060565186,-0.006177682448800995
143,2.4300000000000015,-0.25206302351208043,0.24066076728116947,0.6702160742753277,-0.031989209808629356,-0.2594732289216451,-0.9652197548133402,0.45316422794426553,0.23472062619730374,0.6573731588518963,0.9912616588435462,0.13083232196220973,-0.01651445737809454,-0.0028647153486620995
144,2.4400000000000013,-0.253327237101658,0.11349097364983785,0.7546978933247228,-0.03213743030335022,-0.25680425956307434,-0.9659282480892456,0.4639171514726661,0.2097380721325676,0.7713167879253925,0.991444004880271,0.1295225424742368,-0.01610954734979192,0.0007551476120534834
145,2.450000000000001,-0.2560215707446066,0.07691712970076778,0.8640612820049453,-0.033295870630022484,-0.2540653882837584,-0.9666129203186226,0.45661609694100685,0.20894320177114978,0.8717701897059943,0.9916049161414787,0.12818656626897026,-0.01616966265674329,0.00479742060717199
146,2.4600000000000013,-0.26585461256904686,0.0870524909575125,1.0180214200731894,-0.03486389519057165,-0.2512064471492446,-0.9673044899706361,0.4339544837959341,0.24486669868553082,0.9229791013242546,0.9917450830470212,0.1268052903296193,-0.01636654428262389,0.009476121802048468
147,2.4700000000000015,-0.23725605312898085,0.10994872913004916,1.1944643033626463,-0.036675388413442096,-0.24834202673520456,-0.9679770728766405,0.4053666593932945,0.29271667149587305,0.9296784738841513,0.9918457187380925,0.12544294225214278,-0.016592777975520136,0.014997443698928177
148,2.4800000000000013,-0.194646266757943,0.169915204484076,1.3659253569793426,-0.038508859296328475,-0.24577656870682707,-0.9685606837620321,0.3787068558073852,0.32440779396447456,0.8926985071081645,0.9918742800577103,0.12425606420061422,-0.01673080929413071,0.021412974441070192
149,2.490000000000001,-0.19667805592407148,0.317292188454393,1.5719075300001635,-0.039792750211384335,-0.24334545950869857,-0.9691225556632499,0.34501862325663696,0.34313210975010117,0.7876523165341036,0.9918275403684176,0.12315305992796693,-0.016485365353069537,0.028802463704033505
150,2.5000000000000013,-0.177832228899211,0.47428089476748564,1.82562189391449,-0.04005317621111594,-0.24080601936282606,-0.9697460027003414,0.2926239837587517,0.36924623393265676,0.6034235773039585,0.9916943925359182,0.12199805512754307,-0.015589203076771797,0.03744521192680845
151,2.5100000000000016,-0.17459158804341818,0.6209306559567697,2.0644404264078355,-0.039371552777022416,-0.23838354968909314,-0.970371991374947,0.23751114650391386,0.37323939503462567,0.40085104182090087,0.9914242329250059,0.1208929896832245,-0.014076709654053983,0.04741087860185668
152,2.5200000000000014,-0.24949604720413213,0.7177021813466916,2.3147483301283662,-0.03801114315479597,-0.2354815736935972,-0.971134182340251,0.18281576453250914,0.3306500073069573,0.2135433378054523,0.9910144266520714,0.11952106733353694,-0.01210950250804334,0.0586289209258953
153,2.530000000000001,-0.24014030835092223,0.8054613843285129,2.6090806370553135,-0.03637109979394606,-0.23212945350159114,-0.9720036792234761,0.1393533564934505,0.30083238976244414,0.019444730720245877,0.9904039233848783,0.11789549359084824,-0.009882202184225086,0.07125477441052988
154,2.5400000000000014,-0.21469107718826919,0.9538656035976196,2.8035064950750517,-0.034099746246673425,-0.2290104885728478,-0.9728249995573565,0.1409088156345274,0.27256677329507567,-0.0981640171389388,0.9895073773994728,0.11633455582384707,-0.007215039516582427,0.08521299079796346
155,2.5500000000000016,-0.3220753363618446,1.0874320559034887,2.7911193858340564,-0.030508798477467788,-0.22557517370625307,-0.9737452708928547,0.18135240536769648,0.20496616292139933,-0.17385253291663735,0.9883878585731319,0.11449812338055243,-0.0038895355964882992,0.09968577665163081
156,2.5600000000000014,-0.5013742851760763,1.0817630872327606,2.697788687380442,-0.025949029108833094,-0.22080515244053667,-0.9749690165263596,0.196403258647429,0.12125642546102447,-0.2801488532709014,0.9871667617507708,0.11186021560300398,-0.0002465017508995739,0.1138588584291564
157,2.570000000000001,-0.7109693131780487,0.9599747670132998,2.614379836755936,-0.02169979874245797,-0.21427944570166915,-0.9765264386538982,0.20920778280144472,0.05279859125319458,-0.3992774589137673,0.9858902376508505,0.10828103956408251,0.002994893122838769,0.12752845655998296
158,2.5800000000000014,-0.9012743401827131,0.8264212645423596,2.529696213696076,-0.018382925932801695,-0.2058296805497912,-0.9784091084053981,0.2508011429939872,-0.003899131879295637,-0.5343212126894777,0.9845776234302198,0.10374010359284849,0.005481047405290826,0.14068852146954128
159,2.5900000000000016,-0.9996072797399378,0.7421941485346125,2.475352795400019,-0.0157360507870787,-0.19603397135569392,-0.9804644337221673,0.26125165450679166,-0.06015139381395003,-0.6982819855933271,0.9831991248474593,0.09853960648774396,0.007365567168673919,0.1534099661500634
160,2.6000000000000014,-1.0121378385943847,0.6803893588672492,2.440700149113118,-0.013425170045573415,-0.1857564961516201,-0.9824981626147187,0.21369735306443557,-0.12650503745663902,-0.8272809140707539,0.9816922246235248,0.09310611934503464,0.008887194891926326,0.1658721942798501
161,2.610000000000001,-0.9820104210079519,0.6285147463564876,2.364508299878093,-0.011342340042936947,-0.17564689440660952,-0.9843826620739399,0.17200638100413418,-0.17752330834612862,-0.9038725571292959,0.9800438541084333,0.08776583556093814,0.010149608094496344,0.17802047716893799
162,2.6200000000000014,-0.9068125197064093,0.5826743811865058,2.2415064979344006,-0.009281480776582359,-0.16604426809787814,-0.9860706464403209,0.15209407775322548,-0.17926277808689822,-0.9273869045030747,0.9782998532239389,0.08267626863696738,0.011275582771645186,0.18961153333900804
163,2.6300000000000017,-0.7339644466864795,0.553226295462412,2.1238388787116755,-0.007191699322989117,-0.15769985907291034,-0.9874586293449577,0.11578313852730782,-0.1492487612735762,-0.9081367540285253,0.9764725028103111,0.07820593760270213,0.012376294505643315,0.20054984967919823
164,2.6400000000000015,-0.47065895248847633,0.587705155094904,1.9939122814599783,-0.004742259104786178,-0.1515805135709471,-0.9884324700170442,0.05282900736706781,-0.12815877461909458,-0.8672039521016246,0.9745501958070133,0.0747929070637841,0.013747513881518767,0.2108537560301889
165,2.6500000000000012,-0.1587688237777483,0.657080198745893,1.8463285883796838,-0.0014135013143516109,-0.14837642102975815,-0.988929177750856,-0.019850186671510013,-0.11139820872557796,-0.8244096671946165,0.972551831855884,0.07270854891207425,0.015754479570297488,0.22045485836255532
166,2.6600000000000015,0.12302105387865692,0.7052096473395324,1.7230920494935338,0.0028076294167684816,-0.14823955253502574,-0.988946408467976,-0.09429760954604378,-0.08397991835836009,-0.7952352898514428,0.9704920380014793,0.07200682799120108,0.01846597331901112,0.22937354191763099
167,2.6700000000000017,0.32498823928000675,0.6848798475168021,1.5975228592812885,0.00746383854553785,-0.15058894117644328,-0.9885667037668341,-0.1523639357431204,-0.06768487108762199,-0.7750340028613943,0.9684007087551287,0.07244065302170148,0.021632409391604976,0.23765236458055958
168,2.6800000000000015,0.43355356710604703,0.6103258009518562,1.4413389680602473,0.012278964778417431,-0.15450529357876774,-0.9879143047815996,-0.17919784812455164,-0.08006590205238244,-0.7338716380013374,0.966355054224751,0.0735917024781273,0.02502569096842937,0.24517641321015904
169,2.6900000000000013,0.4747310050227314,0.5126512610247806,1.258673771187251,0.015836385116869696,-0.15921850814102945,-0.9871152007849837,-0.19230465881016684,-0.11372314162745709,-0.6492191567167896,0.9644322954601159,0.07526766621295167,0.027866077026474614,0.2518437850301028
170,2.7000000000000015,0.4423139965668236,0.41244389949465887,1.086123596789197,0.01857983834654757,-0.16397350857509918,-0.9862889680108183,-0.2034484098194445,-0.1596083037958031,-0.527377661993376,0.9626999873554768,0.07706346216639044,0.030270362545831944,0.2575874949340685
171,2.7100000000000017,0.3687536147360111,0.31852042523267443,0.9858915972994678,0.02051450004337589,-0.16818028805774232,-0.9855422893448166,-0.22356895168679852,-0.20556457927144867,-0.396733485879333,0.9611446177416305,0.07869756449684738,0.03217577505551182,0.26262280405035954
172,2.7200000000000015,0.29307057265847497,0.25255628726026763,0.9438862666788194,0.021717248400752513,-0.17162225336017511,-0.9849231758022077,-0.2529255473056128,-0.22377997638170946,-0.26958745388183303,0.9596940148295129,0.08005321828922009,0.03361176942969676,0.2672971520280887
173,2.7300000000000013,0.22493800130874408,0.20177051358195064,0.9075308014609154,0.022377987405194314,-0.1743867456215456,-0.9844227613333989,-0.2852138700530539,-0.21328217949773506,-0.15630156969845532,0.958302617387371,0.08114857456662841,0.03469065176134305,0.27178390133414165
174,2.7400000000000015,0.18532485390748288,0.14833654998004536,0.8730693204707977,0.02257644854991194,-0.17658449599137094,-0.9840264069047497,-0.32135863100748474,-0.17735068904974471,-0.0707811156546386,0.9569690873953407,0.0820315961454793,0.03546202197488715,0.27608399654430393
175,2.7500000000000018,0.19455728583485854,0.09179200512420631,0.8535132218828068,0.0222614543499242,-0.1786326157400323,-0.9836638143542165,-0.35538271708107105,-0.11721538539432264,0.004032867951045673,0.9556691552593077,0.08291496376289577,0.03596018144168555,0.2802279357033248
176,2.7600000000000016,0.21410127788495198,0.030149830563362894,0.836790169552551,0.021386769599669096,-0.18086649513985154,-0.9832749358590471,-0.39145735865712006,-0.055380625881139574,0.0687056829749353,0.954379993564908,0.08397040799984269,0.03621389481206447,0.2842458210934021
177,2.7700000000000014,0.20639962793532007,-0.05028590946759669,0.8067883841842503,0.019821697266581086,-0.18309991030395925,-0.9828942750803163,-0.42969086140991575,0.001984496632985635,0.12602402844678962,0.9531152406123601,0.08513028959996692,0.03613356961686364,0.2881284285287082
178,2.7800000000000016,0.1861840455582591,-0.16779370799636853,0.7268660737542867,0.01739002729307139,-0.18517535163048734,-0.9825513599599448,-0.46399113235569306,0.05323057520310026,0.1960307048228556,0.951934430815474,0.0863544860175027,0.03559678773782141,0.29171260580759245
179,2.790000000000002,0.17815769193658743,-0.30589966076465075,0.5830842501888804,0.013866475509266656,-0.1870636939223796,-0.9822495498160629,-0.4886086747653313,0.08010427103375832,0.27653180397011756,0.9509297443217125,0.08767717067518009,0.03446430443165429,0.29471566873571636
180,2.8000000000000016,0.17045321917673054,-0.4472107855056805,0.3959903631542988,0.009277684488337197,-0.18882031495813842,-0.9819673437182598,-0.5035924467636794,0.09880327629753405,0.35850746561970787,0.9501876846363265,0.08913400928800823,0.03272971899672145,0.2968620976377773
181,2.8100000000000014,0.21687375307272094,-0.5968560600933341,0.17105000270484444,0.003626620526533076,-0.19071484950155806,-0.9816381979149142,-0.495529443243586,0.12628777783063166,0.43936748754681276,0.9497597052870357,0.09086052804305075,0.030413412262982865,0.2979526284776389
182,2.8200000000000016,0.2706732947305267,-0.7377495584277662,-0.06752734310593601,-0.0030089585575889134,-0.1931238080796908,-0.9811691874355924,-0.4679531828867362,0.15173384850595426,0.537961782453387,0.9496656485661547,0.09302543277152775,0.0275927836343918,0.29785880712494034
183,2.830000000000002,0.3163548649610525,-0.874889959930047,-0.3076676865875538,-0.010530027712388122,-0.1960259467106228,-0.980541609729795,-0.430231520375291,0.15720090501970807,0.6469802445579813,0.9499097575263137,0.0955947700516064,0.024300813300113272,0.29655040625776813
184,2.8400000000000016,0.34534213347887655,-0.9890340167899522,-0.5629344691846748,-0.018771546035021125,-0.19939389962202517,-0.9797391876818811,-0.39816512791256686,0.14381016564726876,0.7597707414613315,0.9504924277902174,0.09851846679082933,0.020597955703443346,0.293996177170774
185,2.8500000000000014,0.3591285237125046,-1.0620650339372308,-0.8095852558543769,-0.027469399900383856,-0.20302094464673165,-0.9787887408989006,-0.37750982666914873,0.11474349639807595,0.8583127856660249,0.951416217456011,0.10164205181206232,0.016563960093013325,0.2901749580339067
186,2.8600000000000017,0.394980927516292,-1.1012184409212165,-1.0099596726646916,-0.03619483394526021,-0.20699137399829462,-0.9776729819985839,-0.37679649335904514,0.09117637555985188,0.9234589728829331,0.9526131528882084,0.1049248635181764,0.012420436907002669,0.28524505151665164
187,2.870000000000002,0.45905124215241205,-1.1288517537478056,-1.1679979604654593,-0.044808133886303426,-0.21159359833923072,-0.9763298377070538,-0.38891778315731973,0.09453299021913608,0.9489569378733638,0.9539858602676402,0.10847249165210647,0.008286641104629473,0.27942074653427706
188,2.8800000000000017,0.5125662373168937,-1.148639572332262,-1.298724857112733,-0.0533007347150327,-0.21697429797976173,-0.9747206500961367,-0.38802687916888823,0.1178241453309194,0.9304759779579775,0.9554577017932092,0.11234693555753181,0.004192889550279634,0.27287488939666193
189,2.8900000000000015,0.5432432760878305,-1.1130409855615961,-1.4160291627482424,-0.06138472249882071,-0.22288767851844868,-0.9729088513583742,-0.38122637705896095,0.1382884331354501,0.8542775015275165,0.9569981782550463,0.11638340007892714,0.00024347212287314807,0.26572222747708396
190,2.9000000000000017,0.5944949064407117,-0.9720338970187846,-1.5126355543937047,-0.06831296353002694,-0.22939010561664241,-0.9709335408950551,-0.37881189868067017,0.1268969652492541,0.7419469102882326,0.9585732393332195,0.1205096623764541,-0.00318841354628239,0.2580756298738955
191,2.910000000000002,0.5734789976721318,-0.686146228163315,-1.5636193810032037,-0.07279490583330409,-0.23617017354278957,-0.9689803985680764,-0.4133173231931431,0.06410772503833632,0.60015360775222,0.9601536076442613,0.12441549017553108,-0.00548956286730138,0.250187625897793
192,2.9200000000000017,0.5330570430554361,-0.4314557176351677,-1.5882849479994179,-0.07436057633423199,-0.24270374868184733,-0.967245666382263,-0.481095164598505,-0.02551402375407609,0.4099840906437692,0.9617330277997816,0.12780866098452126,-0.006465186636666788,0.24226182986187675
193,2.9300000000000015,0.5006498187047292,-0.39181011159717766,-1.4739994351881744,-0.07437960635171699,-0.24880530302951276,-0.9656927183389243,-0.5294104760102449,-0.04585952740999524,0.21236284365452301,0.9632260816266635,0.13079667635942585,-0.006753066078588148,0.23460649697704755
194,2.9400000000000017,0.49409119655766726,-0.537773078468866,-1.2302666911928264,-0.07538528942803716,-0.254621466255095,-0.9640973595183663,-0.4916768782720724,0.0675213786326249,-0.09631765311163709,0.9644490229239258,0.1337719228173846,-0.007488533145609337,0.22778325247218711
195,2.950000000000002,0.5446111311635992,-0.7193366910276777,-1.0704985847042658,-0.07861589908928764,-0.2604868254966026,-0.9622703488556157,-0.32261299345100974,0.2718279075914411,-0.45445435133613654,0.9653498311823179,0.13703737854861975,-0.009221432972428006,0.22188634779609392
196,2.9600000000000017,0.5290843998347118,-0.7726127010473148,-1.0751006975253938,-0.08305392534388265,-0.2665983088252072,-0.9602211803534667,-0.11678257128895442,0.42498189298248135,-0.6335960155328156,0.9660992777950725,0.14055543680768293,-0.011524149403544367,0.2162439766162339
197,2.9700000000000015,0.48081746147504645,-0.7847495138320685,-1.0864619327390026,-0.08759322001568245,-0.27229607237737347,-0.9582168978129914,-0.06728308900738056,0.4634197241007966,-0.6274594456774446,0.966849307105911,0.14385879369671525,-0.01397883293377105,0.21049798180411503
198,2.9800000000000018,0.545853970569196,-0.8152667455223508,-1.1908287964900879,-0.09217134133218223,-0.27820988050213236,-0.9560861263426146,-0.12130740994216191,0.43178637951636484,-0.5871844158486942,0.9675831238141346,0.14725336397902664,-0.01650694388414111,0.204509939510081
199,2.990000000000002,0.45619705258129106,-0.8327861065053184,-1.5346379619832362,-0.09627734739023848,-0.2844219008038585,-0.9538508672804965,-0.0996245422342626,0.33289819637723567,-0.5854632197663333,0.9684815058081258,0.15070826527179507,-0.018988817670657545,0.1973985945518175
200,3.0000000000000018,0.18774185844273328,-0.8179291014138975,-1.881695630090165,-0.0992208760420706,-0.28925261974300037,-0.9520956655412426,-0.028850731811402616,0.21930677286572625,-0.6183645176721847,0.9698088146340659,0.1532799314909767,-0.021371035444124904,0.18845112818194582
201,3.0100000000000016,-0.14931608376567662,-0.8563632789106133,-1.9326649535193443,-0.10156330620388578,-0.2913806279790058,-0.9512000863354205,-0.007043552042492143,0.12225261620405124,-0.6428107817634583,0.9714646415251674,0.15436157450579047,-0.02391620013214858,0.17846581801191622
202,3.020000000000002,-0.4997094541769902,-0.9394930207744562,-1.7613039767460197,-0.1047251291707781,-0.290146827336307,-0.9512342854699759,-0.011021934982970329,0.005336164411164274,-0.6649613025750922,0.9732127146528281,0.1537703157256892,-0.027144156472406922,0.16872362363354393
203,3.030000000000002,-0.6351845632920954,-0.9871187878221781,-1.5570554086951771,-0.1092107233677008,-0.28631962367594727,-0.9518883498926703,-0.009029239405801186,-0.0543232898739335,-0.6959122618729973,0.974881195200122,0.1519448335813348,-0.03109972281470142,0.15982879780128284
204,3.040000000000002,-0.529137098381242,-0.8920795582372281,-1.4328329037210492,-0.1140618096314917,-0.2823246223060687,-0.9525123359267871,-0.0035313842606259464,-0.0037928450618557943,-0.7244576492008066,0.9763299236385825,0.1500368308982156,-0.035090324080377724,0.15176011400189166
205,3.0500000000000016,-0.3165192769736056,-0.706083681204745,-1.410006570347823,-0.11776584967132112,-0.27990637016584924,-0.9527760263450551,0.02365856675745602,0.09571982145705167,-0.7817256630405855,0.9775478915100143,0.14881238165376837,-0.03828807718505667,0.14416483604157207
206,3.060000000000002,-0.09844588564899373,-0.5364339034160216,-1.3997919463459982,-0.11985644612598258,-0.2795778937448028,-0.9526123546908484,0.07362206750583808,0.17721272006142677,-0.8132171166730123,0.9785649141112397,0.1485084627065975,-0.04048072323199823,0.13679286991317274
207,3.070000000000002,0.012297128830491083,-0.4179412896195206,-1.3289015912460187,-0.12070681421658197,-0.28083927331153197,-0.9521338968174071,0.12676617595982756,0.18364734337120556,-0.749561742717288,0.9794015746555356,0.1489221104861721,-0.0418937528492076,0.1297509944956322
208,3.080000000000002,-0.04313604724143826,-0.369247397797432,-1.2354990807870443,-0.12087889125717557,-0.2822651091048143,-0.9516903300218121,0.17697562383612586,0.11993770767262248,-0.6588710142566676,0.9801357966851569,0.14938279220465045,-0.04288953864019248,0.12318740837039542
209,3.0900000000000016,-0.17642875370774094,-0.36758099238861097,-1.1827108683566108,-0.12100763563877978,-0.2826844844217433,-0.9515495745212728,0.23935361151229068,0.05910191874375739,-0.5552017733022825,0.9808598546975772,0.14933245359221753,-0.04387403813085444,0.11698332151989373
210,3.100000000000002,-0.35680473069362295,-0.3539607232483681,-1.18049418619133,-0.1211434766387276,-0.28158729636955376,-0.9518574795110837,0.3065095377734527,0.022372191876249625,-0.4316106634547031,0.9816473607727358,0.14850017671932805,-0.04493061664050362,0.11087591602205057
211,3.110000000000002,-0.5751498455795714,-0.34979851924553407,-1.217233956133928,-0.12113950759270935,-0.27860976949909516,-0.9527332917694902,0.3568164365626089,-0.019092031151523862,-0.2936384926245385,0.9825556389823401,0.14667853893582683,-0.04602467569342646,0.10462767296650122
212,3.120000000000002,-0.785288069820165,-0.3650387452582833,-1.2668095679137792,-0.12112801290124102,-0.2736014191906444,-0.9541840245822526,0.3804992472159247,-0.06049852235188493,-0.15346703682767168,0.9835971698487743,0.14379217962717047,-0.047230241946120646,0.09810193367435738
213,3.1300000000000017,-0.924164395273077,-0.32593110919392015,-1.2977558688044988,-0.12102250378428957,-0.2668824948185014,-0.9560971580505165,0.38081714023942576,-0.07617022978924747,-0.0291274373656428,0.9847340883900149,0.14000432554118594,-0.048460604242155134,0.09133614356644909
214,3.140000000000002,-0.9186014136547755,-0.16947443945673768,-1.2906362236451496,-0.120051247031601,-0.25952769930328673,-0.9582412530735875,0.36574785560314876,-0.046345121010286094,0.06251874083462426,0.9858848448581965,0.1358433502859483,-0.04923352988674078,0.0845369352995923
215,3.150000000000002,-0.7988454214370014,0.042689812287214135,-1.2082764837476747,-0.11745065584151504,-0.2526974686948075,-0.9603867419458778,0.3242996983455267,0.018997842136901415,0.11423653262205072,0.9869602974181027,0.13190062829592833,-0.04906215340872388,0.0780899585060163
216,3.160000000000002,-0.6217651895000599,0.24270915174101715,-1.0453818820745455,-0.11324360757275108,-0.2471899062079272,-0.9623237382732849,0.266406237386589,0.08918064917653992,0.14215593743181038,0.9878831698304348,0.12862261182296048,-0.047884812615560844,0.07242321524906645
217,3.1700000000000017,-0.47272528664808033,0.40433031858180934,-0.8259168995503027,-0.10782226770442528,-0.24296010504511964,-0.9640221159623429,0.22896890241406628,0.13862451622395525,0.161245255900364,0.9886361200294089,0.12602757104003323,-0.04587687598594707,0.06787767612359674
218,3.180000000000002,-0.34089439478035044,0.5119617953447607,-0.6055405767144829,-0.10163773374022354,-0.23978385918715886,-0.965488052225614,0.2196747723205544,0.1715569572044138,0.17745463513294496,0.9892304063329671,0.12402223912779507,-0.04327944329174856,0.06454456020162233
219,3.190000000000002,-0.2212709692510535,0.5581844313720473,-0.3832733927461981,-0.09526912912674114,-0.23753935015429228,-0.966691730868264,0.22915297076128055,0.19273643164341006,0.20221883127209467,0.9896744195003145,0.12255616505174072,-0.04040786381539815,0.062369245321758714
220,3.200000000000002,-0.11754328730269882,0.5813022840789415,-0.1518290096549188,-0.08912257617118681,-0.2361360892629922,-0.9676216993576443,0.24786060199600007,0.21256963220745717,0.2383164350875585,0.9899720683328678,0.12158749045296184,-0.037475400402695216,0.061368961714782
221,3.2100000000000017,-0.05988856940361933,0.5519775921211162,0.061710704949953635,-0.08349068239497752,-0.23531221268195504,-0.9683249750600678,0.28734751077503184,0.23206999107808812,0.28753770147285396,0.990142583747524,0.12097887343367662,-0.03464877129872986,0.06148342680611106
222,3.220000000000002,-0.045760518468033695,0.4334850404787012,0.255795429226838,-0.0790397027236796,-0.23464221823977727,-0.9688617941478309,0.3381526594642049,0.22726262599107935,0.36442999385238506,0.9902099989566754,0.12052132250747552,-0.03229516419458154,0.06256941148093312
223,3.230000000000002,-0.07752230567225407,0.25113255056950734,0.43603779929800957,-0.07648970068893228,-0.2336605501387016,-0.9693045196311145,0.3847690137297118,0.18317947969419984,0.49545616729578656,0.9901978790707326,0.11999309995189406,-0.03080772519520325,0.06449752909721423
224,3.240000000000002,-0.12413737582472245,0.07677241558166345,0.5955126305318158,-0.07606166010407148,-0.23214045906939443,-0.9697035808355111,0.4268277038825212,0.12692589159701587,0.6426471174408139,0.9901225424707043,0.11928420287605648,-0.030321509203220413,0.06714308986248066
225,3.2500000000000018,-0.16714208915246645,-0.03287908746200921,0.7364427163203436,-0.07740695686493367,-0.23014715857964582,-0.9700718451144282,0.45698597815214975,0.09344449407204461,0.778310585990878,0.9899869130792741,0.11841968839305177,-0.030670751130390833,0.07042991241697773
226,3.260000000000002,-0.16526317846544478,-0.07711040912386194,0.8728195360747589,-0.07980892792088816,-0.22784352430973914,-0.9704205599789023,0.4666113009993468,0.09004161170895367,0.9056165536085629,0.9897878901316265,0.11746332384189909,-0.03149338253608608,0.07434921369724493
227,3.2700000000000022,-0.11739148405994401,-0.0732077342787073,1.0119567611773883,-0.0826857207053614,-0.22563881175051045,-0.9706947048008732,0.4549072748758102,0.08291207833695981,0.9952920040551594,0.9895008145207881,0.11660840113092662,-0.03247895297136599,0.07894413824891558
228,3.280000000000002,0.010047875618554719,-0.02631184659173704,1.1455352972290374,-0.08560058443578158,-0.22414260081888154,-0.9707888962402743,0.43130083753680454,0.06729002828177387,1.0200643587404474,0.9890867223984275,0.11615170942663725,-0.03337961747028983,0.08424607926638061
229,3.290000000000002,0.20348269242566192,0.058704564631098514,1.273324592479051,-0.08815898592908929,-0.2241023228357628,-0.970569529860557,0.4043936858349468,0.061692921368355,0.9798113174871126,0.9885002090503012,0.11645591024191397,-0.033958706993948484,0.09025654522751927
230,3.300000000000002,0.3660968542577397,0.1886523541638501,1.436555293076692,-0.0900031982535536,-0.22570271322247668,-0.9700291663286589,0.37246908074352425,0.06853090602583874,0.8715900604087893,0.9877177817357614,0.11759618158655066,-0.03400405472374668,0.09705867215994615
231,3.3100000000000023,0.4217024731315969,0.36469906645599615,1.6693815004900048,-0.09083428638632446,-0.2281975265257795,-0.969367725234345,0.33303188018120483,0.08847850474187355,0.6791464678845792,0.9867424843203195,0.1191777776954852,-0.033350486162702676,0.10493980943763075
232,3.320000000000002,0.4080030442622577,0.4962806110220338,1.9006329148130487,-0.09071118539032456,-0.23065359613861747,-0.9687978919062054,0.3009121854843537,0.1135599543779198,0.461719454147392,0.9855806531957803,0.12072111914263735,-0.032042727470876796,0.11408323320238771
233,3.330000000000002,0.29705515617089917,0.5735159050228832,2.13135359792311,-0.09017494687042668,-0.23232150895344794,-0.9684496819321116,0.2832552753571741,0.11797994615372731,0.30905320211617293,0.9842426510331369,0.12186038758285671,-0.030406432852004093,0.12438768047985063
234,3.340000000000002,0.17310986703018436,0.6044027954140827,2.41614392151846,-0.08973900887525614,-0.2325106873292323,-0.9684449565693694,0.2570282086891835,0.1049357999932953,0.18226437911370863,0.9827083913514845,0.12227390478625187,-0.028742440986426098,0.13594991021770386
235,3.3500000000000023,0.04507430487364088,0.6673082110339891,2.67898121883177,-0.08947649997550251,-0.23126413478663244,-0.9687674393513642,0.2397521034105793,0.12634188489624057,0.06180416160021715,0.9809092610356933,0.12199091316432285,-0.027092085479229713,0.14889489761388044
236,3.360000000000002,-0.017072762747618583,0.7407981849735511,2.7724470444551708,-0.08895739626139022,-0.22891043394237562,-0.9693736659405102,0.25816484146408125,0.1786178215194659,-0.027720091318202578,0.9788618169796658,0.12112852573336948,-0.025304066659326826,0.16273015807159577
237,3.370000000000002,-0.04289027925029015,0.8100962234223252,2.792387025013942,-0.08775880087772546,-0.22613553595845914,-0.9701336042445945,0.2688081538586829,0.2105273122720188,-0.10814579868599847,0.9766136899192488,0.11997166175973434,-0.023214122793471133,0.17679438068263495
238,3.380000000000002,-0.06678194394848355,0.8545045442838535,2.830054705423153,-0.08596274022749453,-0.22318682735673728,-0.970976630115092,0.2447599746945029,0.1963106217404855,-0.20625593764683592,0.9741491224817278,0.1186383565812835,-0.02086227073648006,0.19100772936339142
239,3.3900000000000023,-0.19551868133732947,0.8338572190425755,2.7554102399783336,-0.0838991021931213,-0.2196120491558099,-0.9719711386482935,0.24924281981091162,0.14646356580435407,-0.3445702916728288,0.9715294087484347,0.11692188462148502,-0.018495436782420414,0.20513049840481987
240,3.400000000000002,-0.4272387687030865,0.727062405937411,2.5766046618863245,-0.08205693792557144,-0.21438881327627313,-0.9732919150357394,0.2713550507219868,0.04893774384815172,-0.49684661039000416,0.9689533664703239,0.11435779046935445,-0.016561436430623105,0.21849997762120352
241,3.410000000000002,-0.6581413597202153,0.5902988607957814,2.451742193148595,-0.08093793376636997,-0.20703198585964055,-0.974974035277989,0.261773687052324,-0.05057735347315666,-0.6176318241543916,0.9664971120673129,0.11078209628451696,-0.015407578896567369,0.23095739154327125
242,3.420000000000002,-0.829215916102934,0.4893244943459461,2.374805482832007,-0.08059909064253887,-0.1977979479139914,-0.9769141475166444,0.23926924178334646,-0.10405841284551334,-0.7149197053473737,0.964084357456965,0.10636394732989465,-0.01501981051084278,0.24283980266774244
243,3.4300000000000024,-0.9379576835906042,0.4060271458349495,2.276781071027675,-0.08068510344500299,-0.1872241846381368,-0.9789859095224133,0.21639106948431097,-0.10992188952878483,-0.7946418443171331,0.9616874931556183,0.10134982387160645,-0.015170464939122063,0.2542141309232622
244,3.440000000000002,-0.921517713279532,0.3380317265994387,2.1626784427188506,-0.08106605586182085,-0.17621925350850262,-0.9809946497490948,0.16732348623174614,-0.09321833603749413,-0.8446548833540398,0.9593008080319932,0.09618224100421863,-0.015696078719856562,0.26498367932574146
245,3.450000000000002,-0.7495178231767845,0.31442460627728924,2.0544302915625536,-0.08148511131028678,-0.166220395385616,-0.9827065710048514,0.08939722707310818,-0.07823746596525132,-0.8630820408135741,0.9568786812895198,0.09153215397725178,-0.016266663188419597,0.27516453211149083
246,3.460000000000002,-0.4640362764503484,0.34718753318691664,1.9380784745354385,-0.08146401286560519,-0.15857900482701262,-0.9839748606827161,0.0021845686806533093,-0.058701527155837846,-0.8639793997069591,0.9543889165495791,0.08798030529350831,-0.016430886609736347,0.2847982260130405
247,3.4700000000000024,-0.11736537123072577,0.4108820792666656,1.8268140200580962,-0.08062440619182266,-0.15419718921510406,-0.984743751972816,-0.07541738916848803,-0.01603088724081854,-0.8493891125910873,0.9518278999202898,0.08588758958116548,-0.015835100262304024,0.29390155402475415
248,3.480000000000002,0.193438933061474,0.45173036729564664,1.7264166803856686,-0.0790127372560917,-0.1532063887198267,-0.9850299950648156,-0.1354653078527218,0.038522415635194894,-0.8127321147128863,0.9491982937696859,0.08530022478274533,-0.014433550414531253,0.30252553751034184
249,3.490000000000002,0.40521614139150863,0.4417941811190799,1.610187620362024,-0.07705038062570388,-0.154934386890248,-0.9849144697635526,-0.17407465304751887,0.07063881154316518,-0.7630551891387185,0.9465406148430183,0.0859396349071601,-0.012493192288805108,0.31065047950717056
250,3.500000000000002,0.4854990314975281,0.38049712965243204,1.437943808472353,-0.07505199664623957,-0.15818968918738194,-0.9845505225367237,-0.19074868010908402,0.06641075412250959,-0.6943074092625517,0.943977874874521,0.08727150148815925,-0.010343611888331945,0.3180707901418373
251,3.5100000000000025,0.4792421683060578,0.28310859427592167,1.2024618568480956,-0.07359699000831312,-0.16195544367900672,-0.9840480114916245,-0.19289189274689894,0.020573931855364477,-0.5979117509480802,0.9416665482619939,0.08890143548205275,-0.008442339246783908,0.3244678419636226
252,3.5200000000000022,0.4137557695744897,0.19655487262180302,0.9555452292812432,-0.07286535074105122,-0.16556382465304395,-0.9835021660181263,-0.19474297352931022,-0.04477266496315828,-0.4778295438814705,0.9397195473132297,0.09054808459675784,-0.0070030137807243625,0.3296552898393898
253,3.530000000000002,0.3190740905940055,0.1311697632098145,0.7596075917470362,-0.07261282618991728,-0.16853371264361305,-0.9830168267000812,-0.2058512484194617,-0.09221286624667141,-0.35509602049205263,0.938147539929718,0.09195214280150235,-0.005987055184933527,0.3337425759245309
254,3.5400000000000023,0.24267628725930473,0.10826359821062562,0.6397552443660125,-0.0725946201497967,-0.1707620839183745,-0.9826339318839497,-0.23166730507768885,-0.09803175941781289,-0.2450122391486358,0.9368608581935061,0.09303194675728828,-0.005272480959123324,0.3370553099652981
255,3.5500000000000025,0.19358265792851054,0.12943297867732323,0.5895382018867336,-0.07245053756991494,-0.17244113017443688,-0.9823514748029316,-0.26988826920345516,-0.07484083689767311,-0.14143356567290635,0.9357312873742736,0.09382253179986652,-0.004624927585891974,0.33997156803735284
256,3.5600000000000023,0.15758037885121573,0.14635344758851265,0.5837999255825987,-0.07204725264933652,-0.1737303624684249,-0.9821540325805453,-0.30970312929718646,-0.03780528517703541,-0.027900410033354875,0.9346562204798656,0.0943788488550739,-0.003929473354195629,0.34277231082296156
257,3.570000000000002,0.12432489297538185,0.13844044679916503,0.5840828352557419,-0.07160703718792626,-0.1746932583647492,-0.9820155144013036,-0.34520434025992225,-0.0012984514982429425,0.08828329378237851,0.9335873157655921,0.09477039299965637,-0.0032702672304920125,0.3455728538261912
258,3.5800000000000023,0.08812676706137096,0.10768723742809491,0.5431116422736798,-0.07135825214983894,-0.17533012107096158,-0.9819201963243326,-0.37411439943954017,0.027155642964451443,0.18739597728523977,0.9325556599812281,0.09503786502141148,-0.002765732093524328,0.3482790068925099
259,3.5900000000000025,0.04946474622644739,0.04810521890710627,0.4369307974141,-0.07141957074631927,-0.17563583907828703,-0.9818611427882648,-0.3944259373367291,0.055679313503308736,0.27212255554598885,0.9316606132507183,0.09520067945160676,-0.0025008719983948646,0.35062486663988135
260,3.6000000000000023,0.02528437750604301,-0.03628003532728971,0.26971344946050807,-0.0719409783876788,-0.17573377733507492,-0.9818054840086013,-0.41215644935219703,0.08709111677732764,0.34366082793147157,0.9310181352432664,0.0953451539618632,-0.002557856861010093,0.35228902602890266
261,3.610000000000002,0.0214171935484124,-0.14398294160296482,0.06997194544609692,-0.07307044962602527,-0.1758157525692535,-0.9817072529271145,-0.43226442590570674,0.1130597663120901,0.40699539570732624,0.9307098028765228,0.09558924829019409,-0.0029966209287882782,0.35303382244013043
262,3.6200000000000023,0.052568908667285974,-0.2633059566446281,-0.12034126149417974,-0.07496791562154484,-0.17616152569537527,-0.9815018085333017,-0.45581247255918333,0.12783328977936928,0.4718336754239981,0.9307401946999694,0.09609360808785584,-0.0038478903835435494,0.35280823055703453
263,3.6300000000000026,0.12202942049907639,-0.37386165357203227,-0.3087940337493632,-0.07762718863999746,-0.1771524802253056,-0.9811160524352014,-0.4751073235253702,0.12444498723663354,0.5417559456841671,0.9310712956119715,0.09703576243137253,-0.005037601188640061,0.35165871648892866
264,3.6400000000000023,0.14107720390157022,-0.477244616795482,-0.5394375811209224,-0.08092171694028676,-0.1787867742578864,-0.9805525531122531,-0.47861120369504434,0.08720127076062102,0.6197526386715511,0.9317367611184239,0.09838758777245149,-0.006521396807774435,0.34948729259626016
265,3.650000000000002,0.07656577007961385,-0.5797215169063885,-0.789856100132871,-0.08485306108463461,-0.18041894831701596,-0.9799205766721363,-0.4671512314286844,0.032891676004807156,0.7083772515586153,0.9328206520852849,0.09983492791765489,-0.008438756889784389,0.3461247444356027
266,3.6600000000000024,-0.036598374823365504,-0.672465276426983,-1.015218740625674,-0.08933662996809832,-0.18139350677640442,-0.9793417101005458,-0.4444790346645,-0.003240743721663322,0.8149939870078441,0.9343379472670154,0.10104040628496008,-0.010868778151061678,0.3415805014250444
267,3.6700000000000026,-0.14617995752034108,-0.7503330418378474,-1.194166082895403,-0.09429803445946973,-0.1815031124831213,-0.9788556256018768,-0.426266969063707,-0.01766703048210149,0.9160648226179031,0.9362182571472499,0.10188015381186351,-0.013793824786708443,0.336027228222498
268,3.6800000000000024,-0.21587756960588078,-0.8313769730792584,-1.3201006392163526,-0.09976019260830539,-0.1808988664417572,-0.9784251561796172,-0.4304705450700218,-0.01127973673385232,0.9718122161803067,0.9383490390399307,0.10241890003101484,-0.017169921449915186,0.32970056805488657
269,3.690000000000002,-0.18225118962789952,-0.9249845559997933,-1.4034820844603144,-0.10590816982256303,-0.1802812691135558,-0.977891693743658,-0.4421327666235914,0.032179959148258254,0.9530149529113129,0.9405943878191196,0.10301389167951047,-0.02094185734317388,0.3228237904036177
270,3.7000000000000024,-0.04985541096191558,-0.9965110456196399,-1.498288917810413,-0.11271740779926596,-0.18070527903978864,-0.9770507761780347,-0.4304919203410208,0.1082458842508019,0.8736382060282754,0.9428547196689614,0.10415955601624266,-0.02492160586082315,0.31549316623168
271,3.7100000000000026,0.0759327116339216,-1.0011959859356803,-1.6779143511561465,-0.11964192067683171,-0.18271200183943395,-0.9758528824101125,-0.39513933846198745,0.17104274383082457,0.7662715526886583,0.9451739490796058,0.10601641820326775,-0.028802320934826885,0.3074978486125783
272,3.7200000000000024,0.1548414884139448,-0.9207534992211918,-1.9174333307235427,-0.1257502903271514,-0.18606336812982321,-0.9744514874281772,-0.37031817129199235,0.18503962857701947,0.6665489662590864,0.9476848772121172,0.10831112058533081,-0.032235198879735964,0.2984898162404039
273,3.730000000000002,0.24918194597455806,-0.7783620202015127,-2.107897442498904,-0.13024379934136462,-0.1906102881677571,-0.9729821345295904,-0.4017905781749872,0.14043205841977635,0.5726514839404393,0.9503947168653653,0.11085804224070023,-0.03487821662569511,0.2884670520006165
274,3.7400000000000024,0.38073758867735896,-0.6431988394581146,-2.158423623824519,-0.1330133106327006,-0.19649672407918548,-0.9714343719229304,-0.5013876435197446,0.07012367152920278,0.4223021083412632,0.9531268052123277,0.11375105339557272,-0.03661670095643292,0.2779161542140167
275,3.7500000000000027,0.47141152199629455,-0.5713643237486556,-2.02057567265095,-0.13465710346428472,-0.2034746396239571,-0.9697687224102328,-0.587277694049229,0.08964945252822479,0.11520866466349547,0.9556354730963583,0.11701202552830653,-0.037694091352189756,0.2676178892508423
276,3.7600000000000025,0.5565633164459893,-0.6128363423248859,-1.7137097289763668,-0.13644735254886953,-0.2109704811603669,-0.9679139869732489,-0.5348187323738655,0.25992031535587473,-0.3285379481276803,0.9576850931402553,0.12058646533947424,-0.03870771374068499,0.25841320026164194
277,3.7700000000000022,0.5726961118780862,-0.7008461497818954,-1.4574438306622715,-0.13937142605101369,-0.21869913150006703,-0.9657780317250952,-0.32512869021119406,0.4498789390149723,-0.6870180628483632,0.9592105611311419,0.12448041557727435,-0.040137098940203314,0.25058090401974
278,3.7800000000000025,0.373127209582423,-0.8095678683879954,-1.3959003177038614,-0.14351219596912443,-0.2253876334610607,-0.9636337272001649,-0.10467913837297267,0.502604275642697,-0.8093784677560815,0.9605005573878908,0.1280335779470495,-0.0422672886101079,0.24339848370952022
279,3.7900000000000027,0.1270467250525167,-0.9077419103446687,-1.3980246244899095,-0.14862398066904495,-0.22976336578871023,-0.9618258852190757,-0.04813980378628745,0.45019978021825374,-0.7684330206415608,0.9618310016157283,0.13053528119443383,-0.04521035893109754,0.23617925831595185
280,3.8000000000000025,0.019377823266885853,-0.9639213838992571,-1.4520123092055806,-0.15435527091033804,-0.2325371155337107,-0.960255343717498,-0.09434191297812816,0.3750521384666284,-0.6714972031400419,0.9632140217566448,0.13227058053199092,-0.04871269945250186,0.22876207256624415
281,3.8100000000000023,-0.11101187389528454,-1.0153554040079973,-1.6970585207731905,-0.1602211892065219,-0.23462939083518294,-0.9587849023913185,-0.06730697854476815,0.2904823052186146,-0.5921529685368687,0.9647404480397552,0.13359520985094003,-0.0524960745139566,0.2205650923714911
282,3.8200000000000025,-0.38035226831486146,-1.0649991278527597,-2.015843664316619,-0.16584697858796216,-0.2353542044487523,-0.9576510844307026,0.004528255885890054,0.20671694534066343,-0.5566168795050767,0.9666198298481179,0.13406208942137132,-0.05654636519578646,0.21081551358505485
283,3.8300000000000027,-0.6672271904309797,-1.0909956005946884,-2.1561166091074844,-0.17127150265765592,-0.23384258771329405,-0.9570657729754862,0.00676697931321588,0.11480472454655283,-0.5575574305037575,0.968809912551617,0.13323331279993983,-0.060913573325619794,0.1997659618794363
284,3.8400000000000025,-0.8400454535867681,-1.0853973688016119,-2.0740352516631892,-0.17680028080288537,-0.23019869451525846,-0.956941652259732,-0.044348826353978354,0.008014327084416538,-0.59162052678851,0.9710343068234993,0.13124519315633046,-0.06555017694902551,0.18849740582789978
285,3.8500000000000023,-0.794537942495528,-1.0077466532241863,-1.9122383486153667,-0.1823512980542199,-0.22579151019788904,-0.956950380317147,-0.07632625656091102,-0.04397620842710158,-0.6489222302516938,0.973045528130001,0.12883335209856644,-0.07014514443682983,0.1778498979281402
286,3.8600000000000025,-0.5407757027052439,-0.8360287189500512,-1.7930969676662467,-0.18710020054129126,-0.2227167118385818,-0.9567577802823726,-0.0684302083118894,0.0065904251576156606,-0.7100966486357979,0.9747446980020965,0.12700426040855559,-0.07407789694618437,0.16801377746784996
287,3.8700000000000028,-0.22845644249350672,-0.623970629527397,-1.7181084909507287,-0.1902193775797319,-0.22233144538539334,-0.9562341213936155,-0.038460457335475096,0.0957185038034605,-0.7605461728270193,0.9761471655754012,0.12638568373280698,-0.07686598241030415,0.15885079956388848
288,3.8800000000000026,0.020795742829542344,-0.4300745824269804,-1.637980142191987,-0.1915915472999896,-0.22455087399755422,-0.9554405438548864,0.00026747263491735604,0.14855694073086734,-0.7707440750083993,0.9773004071579279,0.12695222238935058,-0.07850005278970107,0.15028882985519856
289,3.8900000000000023,0.1318192009705684,-0.2834671295341677,-1.5451536063070606,-0.19161476794070356,-0.22825860352174548,-0.954556110900836,0.05675016576579759,0.1479014002493609,-0.712830595141891,0.9782660522277495,0.1281993960099699,-0.07928620598432044,0.14233305407778588
290,3.9000000000000026,0.08148732850955948,-0.20354751016101955,-1.454611564496675,-0.19064210818559596,-0.2320766171160041,-0.9538303280966091,0.12732806750913947,0.10553901324852782,-0.5978241666957361,0.9791338447538118,0.12946660496098225,-0.07951681540290319,0.13490348455630785
291,3.910000000000003,-0.07458797752842429,-0.17543155792776552,-1.3942106208203606,-0.18917214736337676,-0.23481049377184138,-0.95345497955379,0.20114704483870152,0.04424399391057281,-0.45897650969603326,0.9799870572123771,0.1301777262410245,-0.07953775547676507,0.12783052958002333
292,3.9200000000000026,-0.30230555102977996,-0.17271008339607719,-1.4024433028973298,-0.18757711638367144,-0.23565413571142765,-0.9535623998644865,0.2798764099686055,-0.024223737146718775,-0.3170592869182342,0.9809035948102227,0.12992639812545545,-0.07961015578962694,0.12081646438910407
293,3.9300000000000024,-0.5541315570737879,-0.17925056255484795,-1.4683480389979944,-0.18590722795073844,-0.23422434418812557,-0.9542404594439121,0.35116066640103455,-0.09944985297840062,-0.17852161195102156,0.9819490851020151,0.1284894831322575,-0.07980701728829052,0.11349752720357316
294,3.9400000000000026,-0.7469961786273432,-0.1626767777834429,-1.530485803108352,-0.1841078950026323,-0.23071575806220165,-0.9554413980536047,0.3902464081666282,-0.161246091755035,-0.048122072069155905,0.9831187528842361,0.12595262159947673,-0.08008087726825912,0.10574479585411721
295,3.950000000000003,-0.8250885639015939,-0.06309155876602789,-1.5239836278300907,-0.1817636927645902,-0.225898033578397,-0.9570383405710927,0.385637968184642,-0.18523690362495207,0.04870403119501344,0.9843452414433279,0.1227088820462049,-0.0801267886021667,0.09781319184401722
296,3.9600000000000026,-0.7660537011840675,0.1314742619030571,-1.424113106551419,-0.17817413320349587,-0.2208340352630537,-0.9588922824747913,0.34604278358051743,-0.1563798465631956,0.093404306583905,0.9855415364566851,0.11931482896250552,-0.07946523001960464,0.09022371268009505
297,3.9700000000000024,-0.6048087909598148,0.34942112809287385,-1.2414681662735052,-0.1729398139073719,-0.21653281840899605,-0.9608286452664254,0.2932086398446697,-0.08329502552807325,0.10811883795665755,0.9866266572166169,0.1163219207724332,-0.07779378228588665,0.08350003394643629
298,3.9800000000000026,-0.39783108054976346,0.5293047302962157,-0.9905176976797696,-0.16628114009356484,-0.21358327194314863,-0.962661721692599,0.25330045529900264,-0.003598017468054819,0.11397161465192136,0.9875398871789375,0.11408351358206656,-0.07517278600932219,0.07803856750692176
299,3.990000000000003,-0.1724044793893547,0.6515576559568376,-0.7139796541634258,-0.15874378767015063,-0.21220545765152368,-0.964237118041129,0.2461484535740921,0.061476964269133426,0.1311358640587772,0.9882462066486083,0.11275363702484283,-0.07186550217203315,0.07406357442279053
300,4.000000000000003,0.0406452816571824,0.7257135998980397,-0.45867830920203295,-0.15083827321335277,-0.2124775078148015,-0.9654452259473696,0.2683975649609293,0.11224379035115589,0.17444208128768857,0.9887385459084861,0.11238132661126603,-0.06814729059184904,0.071539561106204
301,4.0100000000000025,0.19869229825059948,0.7620464615564596,-0.21322962526577816,-0.142926403158328,-0.21414439506491126,-0.9662801679725824,0.2957632535224555,0.1483863395750996,0.21318954079130578,0.989036165303383,0.1128277061445117,-0.06423153506973814,0.07033910989161797
302,4.020000000000003,0.2966479102221196,0.7338742893533011,0.03325589316058061,-0.13547156296703522,-0.21664919208676645,-0.9667968281466698,0.3224248662040583,0.17619789904591013,0.23251062012729914,0.9891621601838403,0.11380813943825747,-0.060377458101493135,0.07040365245774602
303,4.030000000000003,0.3346299417280692,0.6235084144052965,0.24500702819592346,-0.12917811897187104,-0.2194295458665121,-0.9670337394137757,0.3671922870089167,0.18821787942094265,0.2714581513959013,0.989135897817977,0.11504233092566643,-0.05697045459409017,0.07159889852227913
304,4.040000000000003,0.2883840959623275,0.4509621117003776,0.3881423048416948,-0.12466283457870506,-0.22194081910769206,-0.9670559628516369,0.4308464559113357,0.16360663584357774,0.3679155817460741,0.9889946474710755,0.1162502605836844,-0.05437363132227732,0.07359504840342898
305,4.0500000000000025,0.14042269284998912,0.24167811031546635,0.4517249216525004,-0.1222297728786739,-0.22346577127146325,-0.9670172822039669,0.49585734296322737,0.11330118181913204,0.5210814100109112,0.9888063359303555,0.1170541399389678,-0.05281493024397786,0.07595486076762901
306,4.060000000000002,-0.03020292659432871,0.01747225633160332,0.462279273472343,-0.12199219807879244,-0.22339073668919532,-0.9670646311982114,0.5515368702635128,0.06472872788458522,0.6927926780923175,0.9886344031939569,0.11713189831451082,-0.05241907472347145,0.07831348334467618
307,4.070000000000003,-0.10942053379161551,-0.18227339779479657,0.4836398127470627,-0.12386708651929612,-0.22203012721132398,-0.9671383468691718,0.5912996404555371,0.0375001566977459,0.8470812246142928,0.9884717613729682,0.11664263870305758,-0.053148768577009176,0.08057008196717669
308,4.080000000000003,-0.08469756698512482,-0.28293361761856195,0.565852212572171,-0.1273290111150165,-0.2203621758372413,-0.9670693021746758,0.6091812691559223,0.04850683301540433,0.9535965941744424,0.9882550229775686,0.11608235754136259,-0.05467498136549673,0.08297636135611845
309,4.0900000000000025,0.012927353598715607,-0.2727178554254335,0.6905961422921147,-0.1314374354676913,-0.21916347469300138,-0.9667921748322406,0.6049884969458852,0.11283263262974608,0.9728987206837787,0.9879348714351439,0.1158295437735277,-0.056450684672042374,0.08589598400021821
310,4.100000000000003,0.16574354243528816,-0.23304148720842857,0.822673274125904,-0.13552383346935917,-0.21896296578372054,-0.9662734194269871,0.5824615914904443,0.21021706447523805,0.8929966265970023,0.9874820716673475,0.11613675165712092,-0.058093397980996025,0.0895084605137143
311,4.110000000000003,0.36801372058401766,-0.1670130659433623,0.9710482502740326,-0.1394668332751644,-0.22030143022124438,-0.9654071416668268,0.5429592740479092,0.27741980566581276,0.7552213310195355,0.9868545283348136,0.11728099908482786,-0.05950206664875483,0.09389171410193069
312,4.120000000000003,0.5250172536243513,0.011235864317025154,1.1534897030860551,-0.14265629798651985,-0.22315306843118113,-0.9642858419683589,0.4960694652747003,0.2898071380611833,0.5768334158579148,0.9860485796724352,0.11922691360111037,-0.06033842754308008,0.09920804477615258
313,4.130000000000003,0.6220807942763174,0.2627398964085586,1.3823198290407206,-0.14417757961827976,-0.2268945571410446,-0.9631859812836177,0.43737247922335043,0.2767987481508174,0.357243016794924,0.9850930548790687,0.12161431204968119,-0.06012623302035062,0.10569539432933328
314,4.140000000000002,0.6301623647566845,0.4601836954701088,1.6867497096307331,-0.1441362503189508,-0.23081465261268969,-0.9622607133382955,0.3383042757340593,0.2447506103077071,0.16490458624208376,0.9839709401165195,0.12408696695301824,-0.05890663107048754,0.1136301118855983
315,4.150000000000003,0.4142441934777863,0.6020292870031001,2.110765317659294,-0.1433663729142524,-0.23325780140820288,-0.9617882255995218,0.21621494064822894,0.19953490557488476,-0.02137012192604186,0.982665606268395,0.12585745513739113,-0.057137409303010214,0.12341741799995881
316,4.160000000000003,0.07730725452137194,0.6802501547911479,2.5958855334144117,-0.1426280090542251,-0.23228186692433242,-0.9621327402377651,0.13353992492754693,0.19487576703693218,-0.249711277725786,0.981159122238354,0.12599816386881063,-0.05529107186838892,0.13545575929657863
317,4.170000000000003,-0.23015375757183926,0.6583850263068478,2.9867037032890433,-0.14254734493450177,-0.22748939627891787,-0.9632843154562769,0.13768573175887897,0.22731028708148188,-0.3955530176917548,0.9793911981854247,0.12434848814759247,-0.05378967097772757,0.14959282507872046
318,4.180000000000003,-0.3939863829598971,0.5620893934232181,3.157667588295258,-0.14353204946686615,-0.2199751931420189,-0.9648786384376469,0.23642690105393122,0.2516630756853623,-0.40152296718927627,0.977321029663003,0.12147303726156057,-0.052937150365918645,0.16498904446892199
319,4.190000000000003,-0.4373439266456511,0.44780682719595327,3.0651187652677296,-0.1453999815963391,-0.2114427358381366,-0.9665044724471931,0.35965377538225557,0.24825226720861465,-0.3553997235973882,0.9750062903775911,0.11818357318921,-0.05270422102095109,0.18044111928581782
320,4.200000000000003,-0.5362682687605149,0.34250204745233404,2.7956909499837974,-0.14766262762600782,-0.20249207870560723,-0.968075099219122,0.40914967751890885,0.1891598711725975,-0.36721219549292733,0.9726405028618437,0.1146993314237765,-0.05294414174820507,0.194840866342363
321,4.210000000000003,-0.7209771566923618,0.2421237476211005,2.527951638040928,-0.15007946418097484,-0.19246667246716914,-0.9697429442174497,0.3642516495500664,0.08958342684863793,-0.47733014143736996,0.9704001735588276,0.11065575239308942,-0.0536529845856282,0.2077479420904273
322,4.220000000000002,-0.8806986173196174,0.16639099154463702,2.3528296446871746,-0.15267864202755735,-0.18097922130556868,-0.9715437143591974,0.26467723306428476,-0.013633487166672356,-0.6092103122462745,0.9682919110174114,0.10588616747006264,-0.054858038839725544,0.219435713866825
323,4.230000000000003,-0.9573774998738697,0.16150724883937312,2.260453611655761,-0.15512125431778687,-0.16843564877789668,-0.9734088725870229,0.17207064157793298,-0.09179072465002933,-0.6958866300119649,0.9662267870862042,0.10058767861207113,-0.0563019404902342,0.2303956346891854
324,4.240000000000003,-0.8980540877941777,0.1830468483873412,2.263955976801742,-0.15708713534072846,-0.15575776896731588,-0.9752058267416649,0.09348110064366028,-0.12457736481496187,-0.7450305052143742,0.9640788758454929,0.09520445802283026,-0.05767599909763654,0.24109363095336753
325,4.250000000000003,-0.696811295051029,0.23814747516493348,2.357165317017393,-0.15849725496495182,-0.1442554566858433,-0.9767513160109307,-0.006130166438200718,-0.11696391934640345,-0.7847301228177767,0.9616690104329352,0.09039471426056947,-0.0587261886645202,0.2520643009969276
326,4.260000000000003,-0.39253470883770325,0.34016437683676265,2.4226433728864456,-0.15901470262482653,-0.13506618602157283,-0.9779871120257949,-0.10947176926862107,-0.08136989397195851,-0.8125674901579071,0.9589103120129058,0.08666755223372832,-0.059103763282269565,0.2635343469465488
327,4.270000000000003,-0.05590899387287797,0.4554173719906777,2.375697454481079,-0.15825629637831953,-0.12905790630206693,-0.9789253329068432,-0.18724858075039735,-0.02553368230722156,-0.8042147453391599,0.9558865407810854,0.0843429392174237,-0.058504394862533296,0.2751553886753954
328,4.280000000000003,0.22142895615601568,0.5409844323338073,2.2646753988260047,-0.15624259407435487,-0.1262606566012389,-0.9796145133125096,-0.24530707691036696,0.02052148672528914,-0.7470848771695919,0.9527408380326376,0.08337257260225354,-0.05692738620929825,0.28646406043626493
329,4.290000000000003,0.4043876857409672,0.563442333100381,2.148454709081397,-0.1534790149007673,-0.12595245649333964,-0.9800907899823772,-0.2868462710996886,0.03258720455177733,-0.657414446476498,0.9495500567172533,0.08343843526540251,-0.05469129867347683,0.2972749811422629
330,4.3000000000000025,0.4943473153591447,0.5337854405448799,2.0031208375212266,-0.1504025445889217,-0.1271903640941013,-0.9804073047677345,-0.30199537502578827,0.014623846264046992,-0.5592039360590421,0.9463812736162168,0.0841277899017349,-0.052124759301527455,0.3074774548567558
331,4.310000000000003,0.5083492764424603,0.4868934026893737,1.787777016238576,-0.14735769830362297,-0.12924224310781426,-0.980601477138593,-0.2946641330145555,-0.017491960520889208,-0.4462929807101048,0.9433587709627942,0.08512389953894772,-0.04951300023843686,0.3167908019172515
332,4.320000000000003,0.4625156974709699,0.45779228568337554,1.5341876340528822,-0.14472086804216383,-0.1315774787647905,-0.9806837112504637,-0.28616431392634295,-0.05007500701519807,-0.3279650287170644,0.9406088594650194,0.08622391867828522,-0.04713991662020993,0.32493584859457847
333,4.330000000000003,0.3791860247730662,0.4576554299262895,1.2995870447120041,-0.14202770086133099,-0.13366586244414327,-0.9807950581325972,-0.29475103673257114,-0.07036828818410189,-0.21403171426294956,0.9382148558355905,0.08710528276106676,-0.04487651886091591,0.33187460492472104
334,4.340000000000003,0.2669603640596016,0.4755858054684154,1.1118240617758404,-0.1389984876672912,-0.13514449356307448,-0.9810263901389737,-0.3162778291243639,-0.07751423487631402,-0.11278456799507838,0.9361665801578319,0.08756316937241324,-0.042642798532319295,0.3377843599996312
335,4.350000000000003,0.14908626182410029,0.49286641885594223,0.9763545907929962,-0.13559709221002852,-0.13573134273161705,-0.9814211276184313,-0.3425022697515743,-0.07671128082131201,-0.02978663067258272,0.9344086159583878,0.0874736051552286,-0.04045647205725146,0.34290763181441375
336,4.360000000000003,0.06302307240056992,0.5098056908962753,0.8907664321535181,-0.13188286655805634,-0.13550691709361307,-0.9819578423273257,-0.3690319820020248,-0.06398781568271796,0.04082993977172504,0.9328586104647789,0.08690060723925612,-0.03831716274618242,0.34748973322415067
337,4.370000000000003,0.012735744760503789,0.5142290720051311,0.8379576182434809,-0.1279601344565067,-0.13472807801990982,-0.9825837112556675,-0.38778592480505586,-0.03092377018030324,0.11388150551788384,0.9314317232310457,0.08599680953302997,-0.0362148222971332,0.3517424904943349
338,4.380000000000003,-0.01040458955918595,0.500063597811179,0.7842879793609229,-0.124010842991041,-0.13370628061286174,-0.9832295318556602,-0.40012526459993764,0.021624064618774703,0.19952906942279708,0.9300849297485061,0.08494803386480901,-0.03417544738051182,0.3557434855105858
339,4.390000000000003,-0.02025069060765902,0.45826775859799596,0.7025702395994994,-0.12022887853124617,-0.13262312005023869,-0.9838460510034899,-0.41514157121990297,0.07933737421022978,0.2914752670800559,0.9288386987515971,0.08387510827064248,-0.032264785881658625,0.3594148320495433
340,4.400000000000003,-0.00946810554359997,0.3933172115784084,0.5736902002283203,-0.11681563241141299,-0.13169951275654887,-0.9843816049401521,-0.4321161852862778,0.12753209290505163,0.38105037915408674,0.9277580237210838,0.08291606227052076,-0.030552605967256917,0.3625660540146634
341,4.410000000000003,0.03620549385219558,0.30490745747089637,0.3922010757954729,-0.11391222291260526,-0.1312315617105711,-0.984784721698024,-0.44751837220541696,0.16395146629438467,0.46688374364518587,0.9269287295643363,0.08223291401241692,-0.02906855289709065,0.3649585153036435
342,4.4200000000000035,0.12729449668249398,0.19861389275068247,0.16846893866632345,-0.11165147739207822,-0.13166770626113394,-0.9849855698405381,-0.4574884952557412,0.18900585367217312,0.5364475754453132,0.9264234640603365,0.08205918883535222,-0.02780696370038934,0.3663771890746221
343,4.430000000000003,0.2564933277477319,0.08607310944798048,-0.0783905574407105,-0.11020457922931323,-0.13346261015817867,-0.9849064543208744,-0.4557696104385733,0.2004802720441949,0.5816526776177985,0.9262845945721582,0.08264056665584879,-0.026773929057175558,0.36667435251660974
344,4.440000000000003,0.37912924220459937,-0.02414787243568657,-0.35470835799907774,-0.10958798857556748,-0.13684345435866,-0.9845101668284487,-0.4397311904136523,0.1908957501831852,0.6166676696327105,0.9265486626827181,0.0840877965009296,-0.02594687958928813,0.36573463603368783
345,4.450000000000003,0.41260953904741554,-0.1436414117138477,-0.644084064070893,-0.10969217691386554,-0.14135818532192845,-0.9838600346730556,-0.4158064897305909,0.15369991218695295,0.6553214299288955,0.9272776824157618,0.08616787369837474,-0.025376900438471697,0.36343317180008805
346,4.460000000000003,0.3746649306490079,-0.2815950252101574,-0.8915657898471622,-0.11068182771903648,-0.14609407060137408,-0.9830569481451609,-0.3932373849742896,0.10213877924551028,0.7060208060836148,0.9284734158402458,0.08848402298989759,-0.025316583752726936,0.3598070038865647
347,4.470000000000003,0.31613921096439845,-0.39584339518358347,-1.0769432180822518,-0.1125625003960071,-0.15060413840396994,-0.9821624597315421,-0.3719209034757104,0.06088388518429409,0.7701055208576589,0.9300396599120975,0.09082955297600372,-0.02583671170050938,0.35510716639908196
348,4.480000000000003,0.23174862020871087,-0.492850735070517,-1.2055114229071335,-0.11518389392245423,-0.15461870743178474,-0.9812345317479454,-0.3633034957630107,0.03247916485540298,0.8299206477365337,0.9318681612000649,0.09304921856802481,-0.0268946601351913,0.3496157324005657
349,4.490000000000003,0.15634485640047222,-0.6354684570687698,-1.2887372638137273,-0.11872368608696571,-0.15793318162148415,-0.9802834383568222,-0.36764330933518297,0.03463620892773196,0.8455548462192242,0.9338642286629287,0.09507337822995174,-0.028591432011990384,0.34355556160137624
350,4.5000000000000036,0.15659194531286916,-0.8087699948552709,-1.3686222761942968,-0.12370253451487953,-0.16104885507314903,-0.979158381292714,-0.3499852894770365,0.08771697253910404,0.8080287581023029,0.9359385381010118,0.09722153795526382,-0.03107774272886983,0.3370282708676596
351,4.510000000000003,0.2024607641654623,-0.9615758317139272,-1.5076587355344742,-0.13008449897903687,-0.1645977910534277,-0.977738190760573,-0.29092773386461374,0.16178629044479748,0.7220655201300652,0.9380946859837669,0.0997682614188476,-0.03425174589437449,0.32990148520298207
352,4.520000000000003,0.2782293714886804,-1.0152216639727216,-1.7152619369585338,-0.13711739449934945,-0.16908416609397398,-0.9760093171221649,-0.2239350600225175,0.22326142419112474,0.6120803226220268,0.9404154022818453,0.10280173607081595,-0.03772036086174915,0.32188140531923864
353,4.530000000000003,0.32280899518126205,-0.9033965975534447,-1.9252712510339287,-0.14346442666642356,-0.17463410615247574,-0.9741196203092735,-0.21108339876752963,0.2410154798117202,0.5198110659279509,0.9429542066010372,0.10614897925882516,-0.040858474141954516,0.31285489938738065
354,4.540000000000003,0.31298926046501857,-0.6856740885437556,-2.089422339610654,-0.1476541565405432,-0.18065539399898858,-0.9723958684274723,-0.2844782137217557,0.17910889320523785,0.41679315969939923,0.9457096511315748,0.10930206233070128,-0.0430503747411697,0.3030013450300848
355,4.550000000000003,0.31986666629110644,-0.4996723850170151,-2.1750648936802435,-0.14938395951198935,-0.18686849441529446,-0.9709564164851668,-0.4191640698676072,0.07698710284793274,0.27453116740827993,0.948595692196403,0.11211689815707365,-0.04416016761704752,0.2926134827066709
356,4.560000000000003,0.42783712795563084,-0.4957249620087294,-2.0764233772454577,-0.15000980866174124,-0.19362540791993618,-0.9695335691124974,-0.530022166255969,0.04191998303778877,0.05363705453603518,0.9513569381926548,0.11502752214623077,-0.04471859148374537,0.2822562576534465
357,4.570000000000003,0.5099744901304534,-0.5587238418150359,-1.8110943763966676,-0.15128028692705553,-0.2011748663110499,-0.9677968675738959,-0.5161663373370813,0.14063240498984203,-0.3181579381970497,0.9536642033814491,0.11846768041331163,-0.04543497218832818,0.27278096074034325
358,4.580000000000004,0.5089168203880962,-0.5963393680970749,-1.6635020487021401,-0.153419967580711,-0.2087923959799337,-0.9658453800280302,-0.33474753177502137,0.31014487514832423,-0.7417750532465643,0.9555334890637548,0.12211569251096245,-0.04650471671792984,0.26432188902848397
359,4.590000000000003,0.3588366381868111,-0.59699635455379,-1.667995562128988,-0.15562994698007923,-0.2156286329174429,-0.9639903319955747,-0.11384110435972469,0.42654572644141014,-0.9222503966804964,0.9572826109278173,0.1253953976609469,-0.047742509665445375,0.2561109026254145
360,4.600000000000003,0.1474069929623874,-0.6445339345978734,-1.6423910072122452,-0.157920480364076,-0.22063857463175793,-0.9624842114705824,-0.06283028771246231,0.41469834513252524,-0.8274453156366786,0.9590643806168512,0.12776830428529237,-0.049314440553857905,0.24784179550707086
361,4.610000000000003,0.00015541449671117868,-0.7598527188741665,-1.6991173965899455,-0.16098273336683228,-0.22397510215175528,-0.9612055283209371,-0.09797134853107531,0.32712048639074365,-0.6661678314434444,0.9608594408454898,0.12938558882591852,-0.051527369726512735,0.23945297985131958
362,4.620000000000003,-0.18025600519120405,-0.8606455671200319,-2.009588538522661,-0.16468603755056865,-0.2261627285889581,-0.9600658465365871,-0.05831061782367515,0.21786698363407614,-0.5032984759993668,0.9628532041907846,0.13042548982978025,-0.05435649971183014,0.23005609807219318
363,4.6300000000000034,-0.4192859561305885,-0.8660541567568659,-2.424710473598318,-0.16801481156806156,-0.2269896746808085,-0.959294367161045,-0.00042082160541383174,0.1297096501963669,-0.4081953823139018,0.9652920623106542,0.13058320391514205,-0.0574394599063699,0.2187008029245167
364,4.640000000000003,-0.6457189560282007,-0.7839022904182829,-2.6341410988349336,-0.17020534881491017,-0.22616224912737,-0.9591035618344068,-0.01999005603823736,0.0630529059356173,-0.40020145803457546,0.968098332989436,0.12962686918989183,-0.06036050835786994,0.20568649035917588
365,4.650000000000003,-0.803443157454745,-0.6846471552993496,-2.5553321777367,-0.17139721434263672,-0.22360312260390097,-0.9594906857736277,-0.07411058931474086,-0.006617581426595924,-0.45124653476788423,0.9709397531308439,0.12761923093487545,-0.06297620395346366,0.19233957726042297
366,4.660000000000004,-0.7791567127364872,-0.5870716438991976,-2.326318931514601,-0.17212196509765798,-0.2200482474553441,-0.9601829275416421,-0.09433704674903665,-0.040156393542068854,-0.5375546808723437,0.9735228914929623,0.12507291975996437,-0.06529860297512137,0.1797871099706679
367,4.6700000000000035,-0.5224922148478077,-0.41843935303740476,-2.1130814375455667,-0.17217862184817756,-0.2174644069920652,-0.960761920330026,-0.06531238258715971,-0.00949379989239237,-0.636028060744787,0.9756978887976633,0.1230062780860875,-0.06699434715879969,0.16845683604546088
368,4.680000000000003,-0.16753201471711965,-0.16673359545118155,-1.993871281553999,-0.17058136605338992,-0.21765051953655437,-0.9610033335880201,-0.007402928153457592,0.05783180572057266,-0.7267327353071619,0.9774824568930278,0.12225100506382808,-0.06747534846131238,0.1581621309536287
369,4.690000000000003,0.12211991351781418,0.045001602169657144,-1.8944343418400982,-0.16690479913318718,-0.22076015536162624,-0.9609372676783381,0.052884139258203254,0.13119277718671665,-0.7718802953952422,0.9789665213377212,0.12286268569923821,-0.0665983268392597,0.14859806516672286
370,4.700000000000003,0.3006839368680032,0.1953937448159413,-1.7051841256429217,-0.16178223989206955,-0.22581122528842162,-0.960638685996155,0.09871504144918547,0.18564852483892613,-0.7403394168765226,0.9801714655463629,0.12443686525516012,-0.06476793106684163,0.1399090160871334
371,4.7100000000000035,0.3012830065358231,0.2695342740867929,-1.4820890832875002,-0.15606635336999522,-0.2311974663860374,-0.9603037672740647,0.15276528608101234,0.19392183840913813,-0.6577137499111393,0.9811344013186132,0.12625577430893856,-0.06250204798099904,0.13236601317721386
372,4.720000000000003,0.17097963967634494,0.25430035928033673,-1.3396880447803545,-0.1504031130324684,-0.23554811118390637,-0.960151541137744,0.23254748657424812,0.15384527327260047,-0.5375144690852592,0.9819680654125374,0.12765154261082828,-0.06023849479208003,0.12573411173586596
373,4.730000000000003,-0.0278943144637865,0.16854247178028536,-1.3170737338660792,-0.1452752668100899,-0.23815307433323973,-0.9602996381909552,0.31172532254066776,0.07500972269932359,-0.3728086668318431,0.9827941294644409,0.12824945369318866,-0.05832638404291861,0.11941410400156316
374,4.740000000000004,-0.24525316410685755,0.08008844640785952,-1.3755590666013877,-0.14092779276889134,-0.23873112863029247,-0.9608041501966013,0.3718561572849502,-0.023090795497417917,-0.2029322059051265,0.9836971044998986,0.12787951322620192,-0.056959921808642386,0.11285296644527099
375,4.7500000000000036,-0.44425622541197035,0.054368716003035625,-1.387201476992343,-0.13707158752940005,-0.2372716717256309,-0.9617225442713213,0.3939553387357085,-0.09481864348516086,-0.05948426031167628,0.9846961312043078,0.12650553864497677,-0.0559856057792918,0.10596590481134596
376,4.760000000000003,-0.5585380793371126,0.13995750564509082,-1.2926019375231257,-0.13304681563917242,-0.234201215961542,-0.963038579581187,0.36786868340003065,-0.09772504078548808,0.03076524269573769,0.9857300446994031,0.12433164112183946,-0.054965921115630104,0.09925094318637098
377,4.770000000000003,-0.5756782045420791,0.28760297448403793,-1.1274543409446038,-0.1282197336452403,-0.2302430450725049,-0.9646457919994733,0.31709639614200924,-0.04740087971909182,0.05691565034594454,0.9867240454042598,0.12172487631620971,-0.053467609500620336,0.0932482918955597
378,4.780000000000003,-0.5312062677487606,0.40942474817828395,-0.9271797563067983,-0.12249016096543991,-0.22612740761768169,-0.9663622478972427,0.26862392393317464,0.007299263002053495,0.0479732963122372,0.9876203309147648,0.11907212820470257,-0.051373804800644615,0.08823468046672399
379,4.790000000000004,-0.4654537867856298,0.46729570257808295,-0.7075786108827176,-0.11639021009456423,-0.2222591530188029,-0.9680125839598117,0.24529299999387558,0.0416167312693225,0.057516985833983895,0.9883799395506621,0.11661158527707459,-0.048929957825995685,0.08432398539541458
380,4.800000000000003,-0.4008319759162721,0.4910556979848898,-0.4733230674992907,-0.110452809633329,-0.21870607091290348,-0.9695168814396532,0.25428999047189244,0.05719383561368424,0.09353787852723719,0.9889908778038696,0.11439872798204474,-0.046404338076337495,0.08158029720842253
381,4.810000000000003,-0.3476409326659903,0.46856492891074125,-0.2551424456685432,-0.10499930131605173,-0.21542935369848737,-0.9708562213148842,0.27216250981448764,0.0844301895997155,0.1459644678694184,0.989460380751623,0.11241651891113802,-0.04397227962628161,0.07997728174139145
382,4.820000000000004,-0.3042860017814466,0.3997335031616649,-0.06318049604328249,-0.10043899951009631,-0.2123685434504813,-0.9720129987394075,0.29367474579778,0.12509317980617268,0.2104302737822388,0.989801010025629,0.11063570168468408,-0.04186476171229822,0.07937568080909226
383,4.830000000000004,-0.29521937349904376,0.2983999721196292,0.09711853342381097,-0.09709245306277547,-0.20936701482083164,-0.9730040049033712,0.3236824743031135,0.15635021358776524,0.30764983480554936,0.99003297558803,0.10897547486596557,-0.04027297773702832,0.07960342293671718
384,4.840000000000003,-0.3449454416372939,0.17776885275177817,0.24305455669094905,-0.09513319797478907,-0.20592010625041574,-0.9739326577212661,0.35734794650087565,0.1633417843088461,0.4221922216047907,0.9901930726772399,0.1071774563551314,-0.03932228456622652,0.08052285917274805
385,4.850000000000003,-0.4319958280661413,0.03174518344270213,0.3641123643777938,-0.09471639817073212,-0.20178167208494457,-0.9748386507562322,0.3905384088546932,0.1536871178646748,0.551882047870438,0.990298707880836,0.10511909594138798,-0.03911608831618566,0.08202128689825335
386,4.860000000000003,-0.5010031979665525,-0.1486619392386651,0.43481352697139747,-0.09606825785397097,-0.1967803435009654,-0.9757278504616758,0.42870839777934394,0.13319270462502814,0.7020959182590911,0.9903657607990828,0.10271930910404663,-0.03979980619188582,0.08390069972097164
387,4.870000000000004,-0.4966667494478141,-0.2981798456565339,0.47560673560090666,-0.09918884074794736,-0.19141971121154255,-0.9764815699595226,0.46218950008630455,0.10018168481642992,0.8370490771090768,0.9903812538486118,0.10023042360712596,-0.041379167682463934,0.08593904221009471
388,4.8800000000000034,-0.37066063373949737,-0.40513228208098695,0.52921267865041,-0.10356656859796617,-0.18654457745885,-0.9769707904087277,0.47874709271105437,0.08411922635873677,0.9000464208830373,0.9903108564698535,0.0980626896922477,-0.043562012817978515,0.0881442352710466
389,4.890000000000003,-0.08847449411324551,-0.4761884298777577,0.6429699645093011,-0.10893611415087974,-0.18361011296713503,-0.9769428018208908,0.4821125015010848,0.10817705662120047,0.8869579372159239,0.9900682484080289,0.096954760495645,-0.04612764942321681,0.09074897857628798
390,4.900000000000004,0.2900318709441954,-0.49112530274886496,0.812947119334701,-0.11505343248709704,-0.1837202275938604,-0.9762200386566381,0.47549750802351,0.14499902625261132,0.8358420070080033,0.9895702252339328,0.09747671122825156,-0.04886080921815187,0.09412430116575488
391,4.910000000000004,0.6318824309249274,-0.37799353816586373,0.9762765406126008,-0.12113661141933187,-0.1872981931669129,-0.9748034859533333,0.46125186422514686,0.15657596863443413,0.7321767594534052,0.988790529148159,0.09982085270004246,-0.05131480631734923,0.09845266342897002
392,4.9200000000000035,0.6632713928171776,-0.047076816255384624,1.1905495394942045,-0.125305512474699,-0.19235996469567548,-0.9732905888487895,0.4142522526751793,0.11364797255306161,0.5856194007930638,0.9878567384094198,0.10289186172306306,-0.05260682304473053,0.10383248225637166
393,4.930000000000003,0.540758571204823,0.21214586351014614,1.5419705817087996,-0.12696366842228457,-0.19659135873072273,-0.9722302348267676,0.31830806649229043,0.04150304713232262,0.43440974588791864,0.9868351483368226,0.10549765101836728,-0.05248740501751041,0.11075499487072352
394,4.940000000000003,0.4134351839935054,0.22848724771341772,1.936092544011768,-0.12821570404479532,-0.19892875050454809,-0.9715903330577641,0.19838296858749951,-0.0637974140783187,0.3895611169561338,0.9856402073837198,0.10722654600250467,-0.05203089300532795,0.11959115428101807
395,4.950000000000004,0.3505466938708087,0.21975195092099667,2.217580983605804,-0.13023164489207967,-0.19989407489804087,-0.9711240290792985,0.11311001552867764,-0.1728417168625412,0.2749613069447338,0.9841948309501989,0.10840181411012283,-0.051836137167146336,0.13005675618625945
396,4.9600000000000035,0.3013319854473252,0.39884456631006926,2.544284306506741,-0.13205161353901204,-0.19995685359233326,-0.9708653999151414,0.07093111133282935,-0.1100209396299558,-0.03240686890025003,0.9824817505644498,0.10919087059292683,-0.05142563481551688,0.14195923956432543
397,4.970000000000003,0.29785200570087605,0.5600489519207676,2.966414005329291,-0.13283050643331226,-0.1991891072338307,-0.9709168839783213,0.07927668968302731,0.12517694981047967,-0.31070135457176956,0.9803918670001606,0.10958399555566233,-0.05032699739776545,0.15581488982255598
398,4.980000000000004,0.23606179972717764,0.5671561363067921,3.2874434007563096,-0.13348208497840813,-0.19768148669605098,-0.9711354815245747,0.16955188658176687,0.268683950399627,-0.3948107624752209,0.9778148132763437,0.10968179261311485,-0.049011269041236254,0.17156214988233426
399,4.990000000000004,0.13480495462681047,0.5003415295823023,3.3449368879445815,-0.13486660256890648,-0.1949893205132476,-0.9714883325502526,0.241973230792901,0.19227454323099163,-0.40157125143245676,0.974843101069489,0.1092908921220266,-0.04807594179815477,0.18818787148945873
400,5.0000000000000036,0.02567063141900078,0.4308665403416684,3.0682128836804434,-0.13654851842756444,-0.19146359971054805,-0.9719543922580267,0.28717198932587273,0.07407852431607542,-0.5312934757531308,0.9717468478551771,0.10848738308854666,-0.047468144640713195,0.20415197594626083
401,5.010000000000003,-0.17467246872900444,0.29999952451123313,2.6831351972241912,-0.1383904786036223,-0.18683486965387086,-0.9725941227216239,0.32639933169039137,0.01799257711840681,-0.7022082414257385,0.9688392915553038,0.10707786702384084,-0.04729792827477271,0.21827161704928152
402,5.020000000000003,-0.40367053328919955,0.17728083201900058,2.4202766280310164,-0.1407647651618226,-0.1804871033734412,-0.9734513624479819,0.33606346071217186,-0.02673907885404647,-0.7703898808683975,0.9661942658776465,0.10481728497696406,-0.047826091199061664,0.23063120070181672
403,5.030000000000004,-0.613798138770833,0.13222141227621403,2.304022388037143,-0.14346042607137138,-0.17218446682390162,-0.9745609804521855,0.29565403213120417,-0.10332896564615501,-0.7545165874033288,0.9637139500339397,0.10161557443595454,-0.048921996209768344,0.24193620595743276
404,5.040000000000004,-0.7424186910798628,0.13521608419900516,2.308509348438068,-0.1460098302244985,-0.16216390658638277,-0.9759004752016041,0.1985743418679664,-0.1651314970427452,-0.7339487988780692,0.9612429262913311,0.09757896672983674,-0.05027638447445592,0.2529033263404649
405,5.050000000000003,-0.7220686436110264,0.14061937117454357,2.342540040631771,-0.1482929668088181,-0.1514944108702342,-0.9772702887931717,0.10450751799540312,-0.1519436229353183,-0.7440693828793494,0.9586274618588165,0.09324400140944533,-0.051673743287068676,0.26394473937827406
406,5.060000000000004,-0.5223567441656122,0.142074096034262,2.321939435270045,-0.1503095238375302,-0.14177439460564792,-0.9784204358868923,0.039266878612414284,-0.09474274155523893,-0.7736505608485309,0.9558086022348525,0.08938873357593514,-0.052908967550521276,0.27502564137065033
407,5.070000000000004,-0.15876066483262086,0.19213111629781596,2.202678650101056,-0.15182318325628652,-0.13495289900982915,-0.9791513738331913,-0.0025918629725316714,-0.0226557354071667,-0.7754478902895764,0.9528267490750565,0.0868967159474776,-0.053602933487113244,0.285825670850414
408,5.080000000000004,0.2542132398508129,0.30519293215446835,2.0127976564955317,-0.152174812783837,-0.13218843579683479,-0.9794738763490386,-0.04109087065579537,0.05373011860210678,-0.7336962342290955,0.9498053762912996,0.08618179430560491,-0.053251914864894515,0.2959841390443583
409,5.090000000000003,0.6130927491984592,0.40354214516067805,1.8358009546636014,-0.1511154459960286,-0.13356894734042302,-0.979450557047635,-0.0948753410928532,0.1164637714751377,-0.6574799754187929,0.9468257765699373,0.08720165035098967,-0.05167753792017705,0.3053617014806179
410,5.100000000000003,0.8279985155988437,0.46204619857950024,1.7146249527733113,-0.14889656192721334,-0.13803142266706325,-0.9791715621394844,-0.1552523404911233,0.14885848339147556,-0.5643147415695436,0.9438878834117759,0.08945903977972791,-0.049103998459226125,0.31410329120448816
411,5.110000000000004,0.872523775166893,0.4665689571215867,1.6289953230750884,-0.14645414832768222,-0.1439349149076156,-0.9786896104250354,-0.19981457117254509,0.13728643623857903,-0.4571960897000648,0.940958860545726,0.09230999970501629,-0.04619341007546285,0.3223979652087293
412,5.120000000000004,0.801235094324214,0.4472952854163905,1.520883699642025,-0.14418458283990485,-0.14987380560345093,-0.9781349218765226,-0.2261545723844086,0.09653253838652164,-0.32904862388393863,0.938097274168116,0.09514369796852445,-0.043358198851095285,0.330211629365702
413,5.1300000000000034,0.6800152579796067,0.42019014287939577,1.3752927480447106,-0.14211346744482664,-0.1550242674824767,-0.9776351852058179,-0.2502539037047299,0.030908941787964453,-0.19417818302354772,0.9354144045820304,0.0975688969925,-0.0407730470515755,0.3373668909427631
414,5.140000000000004,0.521373715053867,0.4096535495658898,1.2281580361877955,-0.14003695410245398,-0.15906717169732354,-0.9772854076849445,-0.26217470654898495,-0.017112649465843184,-0.06491134035982482,0.9329877604521288,0.09940251738973159,-0.0384214694407125,0.34376659565627365
415,5.150000000000004,0.41386967132000785,0.38744310412529304,1.1041520558629576,-0.13796045068918245,-0.16196471933629378,-0.9771049008189131,-0.25833982780258347,-0.01194934833758711,0.05321701037433099,0.9308158349912247,0.10063836272284926,-0.03632212875986954,0.34947570802604383
416,5.160000000000004,0.35370283174199674,0.38673264568972404,1.0047106602571394,-0.13587285484921624,-0.16423067789507215,-0.9770192226440507,-0.24911879667868625,0.029197527709963346,0.1528651024884499,0.9288385899114238,0.10153104152381284,-0.03437566288942235,0.35463730893548384
417,5.1700000000000035,0.309372458784407,0.3829410395699252,0.916322467536799,-0.13364543288985187,-0.16617725148830415,-0.9769972726027604,-0.26072249077579623,0.07225463048875333,0.2486812347047116,0.9270215873676974,0.10221265349368105,-0.032461877397501754,0.3593449462462355
418,5.180000000000003,0.228662662221998,0.3291822150919802,0.8196488739076565,-0.1315319632338255,-0.16767531021817153,-0.9770282015000553,-0.29977774570373517,0.11352867755631182,0.33591721567421484,0.9253726049278881,0.10267205331560451,-0.030728256164719057,0.3635915665714507
419,5.190000000000004,0.15032779441839483,0.23595320923325142,0.6958163984404551,-0.12997218314266204,-0.1684991777551642,-0.9770952597613584,-0.33986824730041465,0.15770220372133786,0.41879304886910873,0.9239344514291817,0.10288710208667749,-0.029437107166266137,0.36727648160418686
420,5.200000000000004,0.10903961723092623,0.15342839658032376,0.5256144109393466,-0.12900881256396643,-0.16890876093672053,-0.977152237617068,-0.37171732138465086,0.2069628265501216,0.5139946218649131,0.9227740795720237,0.1029896593653275,-0.028582708047724975,0.3702212219907066
421,5.2100000000000035,0.10607855740754844,0.09288605797011822,0.3180675351759433,-0.1283174311669978,-0.16932021142653012,-0.9771720560617734,-0.4140062248762031,0.23984048113903553,0.591046479191927,0.9219659319391802,0.10311322725566917,-0.02795710996622129,0.37224293368687955
422,5.220000000000004,0.14698759354348637,0.03859111360183492,0.10486857889422288,-0.12797966970544883,-0.17024300498101194,-0.9770560325962168,-0.45984539872628905,0.2503099163940455,0.6448203471806434,0.9215208655605556,0.1035139343731124,-0.027510588200957236,0.37326589918196057
423,5.230000000000004,0.18885488492532398,-0.00989683954956326,-0.12639656790612314,-0.12781080246688753,-0.1719148222803859,-0.9767853113103859,-0.4853364461927756,0.23723625807573823,0.6937317480321459,0.9214518192094476,0.10426890415168694,-0.02711646006950412,0.3732550497458653
