time,seconds_elapsed,rotationRateX,rotationRateY,rotationRateZ,gravityX,gravityY,gravityZ,accelerationX,accelerationY,accelerationZ,quaternionW,quaternionX,quaternionY,quaternionZ
1681239678377310500,0.133310546875,0.2715373635292053,-0.25305694341659546,-0.07521441578865051,-0.00018004349840339273,-0.3428303897380829,-0.9393973350524902,0.05509641766548157,0.09511914849281311,-0.07483911514282227,0.9847328722335069,0.17407278554789266,-0.00009141743094061376,-1.491016546056229e-17
1681239678387286800,0.143286865234375,0.2899493873119354,-0.2919553220272064,-0.2625371813774109,-0.0021523425821214914,-0.3455965518951416,-0.9383807182312012,0.07312096655368805,0.14151018857955933,-0.09918636083602905,0.9844741926065013,0.17552203481699463,-0.0012821746075364342,-0.0010602457871004291
1681239678397262600,0.1532626953125,0.12820766866207123,-0.33236876130104065,-0.41164880990982056,-0.00391397625207901,-0.34759417176246643,-0.9376369118690491,0.06171426177024841,0.12760818004608154,-0.11854594945907593,0.9842811573614967,0.17656483494232475,-0.0025306529414833683,-0.0030237390791310863
1681239678407238400,0.16323828125,-0.01609146036207676,-0.35949277877807617,-0.48826396465301514,-0.005615620873868465,-0.3480997085571289,-0.9374406933784485,0.05461158975958824,0.04397675395011902,-0.09699833393096924,0.9842203413241636,0.17681861532831497,-0.003850149326358652,-0.005551365427774103
1681239678417214200,0.173214111328125,-0.09756195545196533,-0.36884424090385437,-0.45895886421203613,-0.007387809455394745,-0.3475697934627533,-0.937624990940094,0.059343986213207245,-0.03420504927635193,-0.071011483669281,0.9842826879004953,0.17655995158266516,-0.00375289005265882,-7.47225996288142e-18
1681239678427189000,0.18318896484375,-0.3059428632259369,-0.4211260974407196,-0.08128827810287476,-0.010084480047225952,-0.34584754705429077,-0.9382365345954895,0.05847010016441345,-0.03324174880981445,-0.06956076622009277,0.9844363698516511,0.1756476000663302,-0.00544595118270582,-0.0018158659446555492
1681239678437165000,0.1931650390625,-0.46406251192092896,-0.3578048050403595,0.16719061136245728,-0.014015067368745804,-0.3421517610549927,-0.9395402073860168,0.055122241377830505,-0.01749780774116516,-0.08528584241867065,0.9847673728619794,0.17370834270355706,-0.007437845311877222,-0.001824975723106803
1681239678447141000,0.20314111328125,-0.5112201571464539,-0.26136907935142517,0.10346756130456924,-0.017398271709680557,-0.3375212550163269,-0.9411571025848389,0.033709920942783356,-0.05398869514465332,-0.08969616889953613,0.9851784087033921,0.1712865970883264,-0.009074781941987763,-0.0014078330978637686
1681239678457117200,0.2131171875,-0.5565481185913086,-0.22763444483280182,0.06194793060421944,-0.019944854080677032,-0.3324655592441559,-0.9429044723510742,-0.02273397333920002,-0.05963948369026184,-0.09965229034423828,0.9856219256676743,0.16864459822277675,-0.010332716313363115,-0.001255448970368532
1681239678467093000,0.223093017578125,-0.5038753151893616,-0.20490969717502594,0.025110287591814995,-0.022180145606398582,-0.3274219036102295,-0.9446178674697876,-0.02573244646191597,0.07386666536331177,-0.1347430944442749,0.9860565159991117,0.1660117016698707,-0.011453185414862866,-0.0012253069220082306
1681239678477069000,0.233069091796875,-0.48142004013061523,-0.19071605801582336,-0.07033097743988037,-0.023976054042577744,-0.32284802198410034,-0.946147084236145,0.03058311715722084,0.114886075258255,-0.16098487377166748,0.9864436648823895,0.16362340537234496,-0.012403460152458448,-0.0015113234810007323
1681239678487044000,0.243044189453125,-0.4632660448551178,-0.22282952070236206,-0.17989397048950195,-0.02551751583814621,-0.31836533546447754,-0.9476245641708374,0.023671211674809456,0.11067801713943481,-0.1928631067276001,0.9868165145317797,0.16127798341181132,-0.013308622884840934,-0.0023215250579270244
1681239678497020000,0.25302001953125,-0.3879057765007019,-0.25842639803886414,-0.22974275052547455,-0.027179889380931854,-0.31437423825263977,-0.9489099383354187,0.0006143432110548019,0.14031729102134705,-0.2256353497505188,0.9871383587710886,0.15918315159609303,-0.014343932283528935,-0.0035776446534517632
1681239678506996200,0.262996337890625,-0.3383624851703644,-0.2790917158126831,-0.23658254742622375,-0.02903902903199196,-0.31101131439208984,-0.9499624967575073,0.011460907757282257,0.1632300317287445,-0.22516262531280518,0.9873989015414835,0.15741225655371888,-0.015496551098933636,-0.004966341006405082
1681239678516972000,0.272971923828125,-0.3543558120727539,-0.3096376657485962,-0.26375052332878113,-0.031061813235282898,-0.3079031705856323,-0.9509105086326599,0.024134326726198196,0.1753806471824646,-0.2057667374610901,0.9876303426902826,0.1557704249264542,-0.016742677467634165,-0.006449684323856863
1681239678526948000,0.282947998046875,-0.42218494415283203,-0.267027884721756,-0.2994493842124939,-0.03305676952004433,-0.30420392751693726,-0.9520332217216492,0.014929335564374924,0.15207388997077942,-0.16130906343460083,0.9879027051849582,0.15381796699826963,-0.017984252568578295,-0.008050465039815739
1681239678536924200,0.292924072265625,-0.35411879420280457,-0.16281279921531677,-0.3535912036895752,-0.034133072942495346,-0.3005729913711548,-0.953147828578949,-0.019165877252817154,0.11221855878829956,-0.09871679544448853,0.9881679763896701,0.151897824437592,-0.01879179717973725,-0.00989425835380546
1681239678546899200,0.302899169921875,-0.30023491382598877,-0.07557907700538635,-0.25382381677627563,-0.03432063013315201,-0.2976018786430359,-0.9540729522705078,-0.07082768529653549,0.09032654762268066,-0.05933952331542969,0.988384085206024,0.15032634031087994,-0.01911838909577968,-0.011548188214422698
1681239678556875000,0.312875,-0.25125768780708313,0.02275632694363594,-0.1350553333759308,-0.03411044925451279,-0.29501858353614807,-0.9548824429512024,-0.09894619137048721,0.09636446833610535,-0.05575293302536011,0.9885773193774485,0.14897191508295393,-0.019134813282750705,-0.0124924066006594
1681239678566851000,0.32285107421875,-0.30129876732826233,0.08529774099588394,-0.19629418849945068,-0.03311794623732567,-0.29251185059547424,-0.9556882381439209,-0.09989291429519653,0.09211823344230652,-0.0547640323638916,0.9887712647782699,0.14766593327735988,-0.018725632468599658,-0.013248782319070725
1681239678576827100,0.3328271484375,-0.3815491199493408,0.09357830137014389,-0.23802804946899414,-0.031615737825632095,-0.2893310487270355,-0.9567068219184875,-0.1117100715637207,0.0860840380191803,-0.06212252378463745,0.9890136247044954,0.14601027068214226,-0.0180991436166705,-0.014330709351873642
1681239678586803000,0.342802978515625,-0.4904945194721222,0.07986515760421753,-0.2124643623828888,-0.030155638232827187,-0.28522759675979614,-0.9579852819442749,-0.09688903391361237,0.13476073741912842,-0.0671154260635376,0.9893207029816531,0.14388124501538122,-0.01747959081352141,-0.015395350656014196
1681239678596779000,0.352779052734375,-0.5101644992828369,0.06984218955039978,-0.2535565495491028,-0.028850944712758064,-0.2804274260997772,-0.9594415426254272,-0.039813604205846786,0.1585860550403595,-0.06750547885894775,0.9896705458611121,0.14139442000076288,-0.016936551021712674,-0.016522107323313422
1681239678606754000,0.362754150390625,-0.3938072919845581,0.06839529424905777,-0.28767937421798706,-0.027474643662571907,-0.27610549330711365,-0.9607345461845398,-0.012671226635575294,0.17472615838050842,-0.0717819333076477,0.989973871054981,0.1391553277881173,-0.01638649784514889,-0.01785690140050991
1681239678616729900,0.372729736328125,-0.24616441130638123,0.06160875782370567,-0.27382615208625793,-0.02610951103270054,-0.27308568358421326,-0.9616352915763855,-0.01089305430650711,0.22712627053260803,-0.0893595814704895,0.990175534637112,0.13758957479820838,-0.015857134686389406,-0.01923540501473411
1681239678626706200,0.3827060546875,-0.08075707405805588,0.06820620596408844,-0.20856350660324097,-0.024867085739970207,-0.27157682180404663,-0.9620954394340515,0.0057783424854278564,0.2816019058227539,-0.08975392580032349,0.9902678231863536,0.13680567846143127,-0.015377956309246252,-0.020428631512006808
1681239678636682000,0.392681884765625,-0.006847130134701729,0.08584628999233246,-0.08357754349708557,-0.023749563843011856,-0.27128535509109497,-0.9622058868408203,0.024497244507074356,0.30409184098243713,-0.06417649984359741,0.9902816050781066,0.1366562997835253,-0.01490310597565203,-0.021100308976215922
1681239678646658300,0.402658203125,-0.12266241014003754,0.07180798053741455,0.019188782200217247,-0.02291102148592472,-0.2707595229148865,-0.9623743295669556,0.024085944518446922,0.28215789794921875,-0.019376158714294434,0.9903224734918129,0.13639291933513253,-0.014484595662271593,-0.021180790726388083
1681239678656633300,0.41263330078125,-0.3671727478504181,0.017428353428840637,0.11374781280755997,-0.02269691973924637,-0.26838818192481995,-0.9630434513092041,0.007865380495786667,0.2439894676208496,0.0346224308013916,0.9904985327087592,0.13518040633884582,-0.01430192013473382,-0.020843040288585125
1681239678666608400,0.4226083984375,-0.09579344838857651,0.17703665792942047,0.4480418860912323,-0.022928068414330482,-0.2653764486312866,-0.9638721942901611,-0.007879430428147316,0.1954759955406189,0.09494519233703613,0.99073430667001,0.1336490800094789,-0.01420622254947788,-0.019532928109623374
1681239678676584400,0.43258447265625,0.33013850450515747,0.24888436496257782,0.2247876226902008,-0.021745311096310616,-0.2668173015117645,-0.9635017514228821,-0.016584767028689384,0.1453268826007843,0.13252335786819458,0.990679060983361,0.1344282181575506,-0.01334795313091498,-0.01748800910488776
1681239678686560500,0.442560546875,0.026428434997797012,0.09886106103658676,-0.15733018517494202,-0.020079780369997025,-0.26882049441337585,-0.9629809856414795,-0.050659969449043274,0.16539648175239563,0.10388058423995972,0.9905511884649562,0.13547428817272256,-0.01249946432440832,-0.01728349387241571
1681239678696536600,0.45253662109375,-0.379385769367218,-0.014346405863761902,-0.19948582351207733,-0.019246991723775864,-0.26704299449920654,-0.9634923934936523,-0.020868366584181786,0.10352987051010132,0.12836360931396484,0.9906629836134432,0.13455535415005832,-0.012192717581674674,-0.018248086519965734
1681239678706512400,0.462512451171875,-0.598231315612793,-0.01691688969731331,-0.13083910942077637,-0.019028348848223686,-0.2622857987880707,-0.964802622795105,0.07882754504680634,-0.008359283208847046,0.24782264232635498,0.9909774804210302,0.13210275048541217,-0.012147370063394473,-0.019103277565143153
1681239678716488400,0.472488525390625,-0.7001729011535645,0.00927593931555748,-0.10960056632757187,-0.018784310668706894,-0.25598621368408203,-0.9664978981018066,0.051560189574956894,-0.05243963003158569,0.25455331802368164,0.9913928378582211,0.12886475921966226,-0.01203825466302844,-0.019729860998867955
1681239678726463500,0.48246337890625,-0.6826139092445374,0.048059821128845215,-0.08846759051084518,-0.018276125192642212,-0.24925962090492249,-0.9682642221450806,-0.027637571096420288,-0.03203611075878143,0.24426519870758057,0.9918276871212612,0.125416351889657,-0.011773733806153971,-0.020248174507931253
1681239678736439600,0.492439453125,-0.7461891174316406,0.1829916536808014,0.16283635795116425,-0.017223993316292763,-0.2424020916223526,-0.970022976398468,-0.054126106202602386,0.033478811383247375,0.2562015652656555,0.9922729993574837,0.12191844481830379,-0.011153874776758303,-0.0201420880044016
1681239678746415400,0.502415283203125,-0.6393348574638367,0.18501432240009308,0.22323179244995117,-0.015925953164696693,-0.23561416566371918,-0.9717161655426025,-0.024845533072948456,0.05760519206523895,0.27242112159729004,0.992722272001996,0.11847395203600458,-0.010287573999755327,-0.018989213326877124
1681239678756391400,0.512391357421875,-0.7000351548194885,0.2095910906791687,0.2768767476081848,-0.014689781703054905,-0.22917737066745758,-0.9732738137245178,0.04407820850610733,0.013769105076789856,0.2923503518104553,0.9931374229684078,0.11521152921360275,-0.009454604193847171,-0.01774848718776391
1681239678766367500,0.522367431640625,-0.8063061833381653,0.3079836964607239,0.3453444838523865,-0.01285084243863821,-0.22173267602920532,-0.9750227928161621,0.027178846299648285,-0.1199420690536499,0.2922530174255371,0.9936062481007607,0.11144606392207919,-0.008268622283632886,-0.016064575440739914
1681239678776343300,0.53234326171875,-0.7520754933357239,0.36905595660209656,0.4529576003551483,-0.010426853783428669,-0.21401570737361908,-0.9767745733261108,-0.03126015514135361,-0.08990880846977234,0.31080472469329834,0.9940787076114025,0.10755039920516364,-0.006754717221897384,-0.013958979580318533
1681239678786318600,0.542318603515625,-0.6883945465087891,0.46758517622947693,0.6038213968276978,-0.007485293783247471,-0.20698946714401245,-0.9783145189285278,-0.036734677851200104,-0.030421972274780273,0.33131134510040283,0.9945015968928955,0.10401177261117,-0.004927697592446157,-0.011132933709879117
1681239678796294400,0.55229443359375,-0.6771196126937866,0.5467861294746399,0.7163842916488647,-0.0038894943427294493,-0.20029449462890625,-0.9797280430793762,-0.014955110847949982,-0.021919190883636475,0.33183979988098145,0.994890167660899,0.10064082869711831,-0.0027229622191940225,-0.007594345494793669
1681239678806270500,0.5622705078125,-0.6876425743103027,0.6246045231819153,0.8032371401786804,0.0003099909517914057,-0.19362685084342957,-0.9810752272605896,-0.01186089776456356,-0.025977596640586853,0.3387869596481323,0.9952512475249589,0.09727468049027263,-0.0001905457501521757,-0.0035429196639914394
1681239678816246500,0.57224658203125,-0.7151390910148621,0.7045596241950989,0.8976396918296814,0.005205661989748478,-0.186770960688591,-0.9823896884918213,-0.015413792803883553,-0.04896201193332672,0.3522322177886963,0.9955871113267459,0.09379667033203931,0.0027091169329501816,0.0010056958155217491
1681239678826222300,0.582222412109375,-0.6911131143569946,0.7712454795837402,0.9843407869338989,0.01071234978735447,-0.1799100935459137,-0.9836246967315674,-0.015198430977761745,-0.06568005681037903,0.37412768602371216,0.99587945111081,0.09029134328364292,0.005925377603603115,0.006033653549385493
1681239678836198400,0.592198486328125,-0.624953031539917,0.8602820038795471,1.0693072080612183,0.01687653735280037,-0.17358838021755219,-0.9846736788749695,-0.00929291546344757,-0.06974346935749054,0.388405978679657,0.9960944311583589,0.08702493500959169,0.009477422428289731,0.011515541428330256
1681239678846173400,0.60217333984375,-0.6031454801559448,0.9602040648460388,1.172194242477417,0.02389994077384472,-0.1678347885608673,-0.985525369644165,-0.0013169310986995697,-0.062328726053237915,0.40381455421447754,0.9962210983299193,0.08399909271717904,0.01347079107487082,0.01749918571730633
1681239678856149500,0.6121494140625,-0.6995624899864197,1.053086519241333,1.3102238178253174,0.03175453841686249,-0.16185180842876434,-0.9863040447235107,0.00047202780842781067,-0.05842401087284088,0.42543673515319824,0.9962781909164683,0.0807950268781548,0.01789268567117784,0.024120595066408835
1681239678866125300,0.622125244140625,-0.926522433757782,1.1295274496078491,1.4750276803970337,0.04029996693134308,-0.15442539751529694,-0.9871821999549866,0.0007461793720722198,-0.07846945524215698,0.4588466286659241,0.9962913855966861,0.0767829486838489,0.02265556446055087,0.03153773816647768
1681239678876101400,0.632101318359375,-1.2494479417800903,1.2008689641952515,1.6660633087158203,0.04942970350384712,-0.1444462090730667,-0.9882773160934448,0.007134631276130676,-0.11347304284572601,0.505580723285675,0.9962662590861275,0.07138570474634716,0.02766654988971837,0.0399015168640124
1681239678886077400,0.642077392578125,-1.630023717880249,1.2649281024932861,1.8706891536712646,0.059140898287296295,-0.1312432885169983,-0.9895845055580139,0.022798795253038406,-0.14289604127407074,0.5622316598892212,0.996172521348155,0.06424664594793537,0.03286489503973815,0.049320171025881154
1681239678896053500,0.652053466796875,-2.0649526119232178,1.339065670967102,2.090672731399536,0.06958453357219696,-0.11427506804466248,-0.9910091757774353,0.04513104259967804,-0.15510353446006775,0.6197933554649353,0.995951507604493,0.055070570589337495,0.03824448810756278,0.05987567967255537
1681239678906028500,0.662028564453125,-2.540426254272461,1.410653829574585,2.314218282699585,0.08090446889400482,-0.09315985441207886,-0.9923586845397949,0.07275153696537018,-0.15239977836608887,0.6750521659851074,0.9955143200463347,0.043640222787553015,0.04377444036297059,0.0716276604174203
1681239678916004400,0.67200439453125,-3.017698287963867,1.4858192205429077,2.527784824371338,0.09327951073646545,-0.06774192303419113,-0.9933327436447144,0.10090384632349014,-0.1482767015695572,0.7265175580978394,0.9947435919012242,0.029848254809228706,0.049423714359911414,0.0845667244598476
1681239678925980400,0.68198046875,-3.49259090423584,1.5868149995803833,2.722179412841797,0.10708273947238922,-0.03809824213385582,-0.9935199022293091,0.12871134281158447,-0.1446714848279953,0.7719165086746216,0.9934970960760915,0.013690066568700839,0.05525059131150204,0.09860672831262698
1681239678935956500,0.69195654296875,-4.014077663421631,1.7316646575927734,2.890080690383911,0.12290766090154648,-0.004179715644568205,-0.9924092888832092,0.14807318150997162,-0.13565178215503693,0.8105855584144592,0.9916102991227885,-0.00492986620521961,0.06140881430548795,0.11363782062877655
1681239678945932300,0.701932373046875,-4.552260875701904,1.8637337684631348,3.03418231010437,0.14114095270633698,0.03429859131574631,-0.9893952012062073,0.15640543401241302,-0.12626326084136963,0.8387909531593323,0.9888992490779707,-0.0262384398168097,0.0679260693894377,0.12952136885566445
1681239678955908600,0.71190869140625,-4.994580268859863,1.967687964439392,3.1678433418273926,0.16171614825725555,0.07669364660978317,-0.9838526248931885,0.16180069744586945,-0.1273375302553177,0.860210657119751,0.9851763046274348,-0.04999781764032022,0.07465862529950329,0.14612968641724072
1681239678965883400,0.72188330078125,-5.314675807952881,2.083613634109497,3.3414103984832764,0.184712752699852,0.12151545286178589,-0.975251317024231,0.1808420568704605,-0.1308538019657135,0.8635417819023132,0.9802602703703409,-0.07558926039520028,0.08161243982109069,0.16344838691141808
1681239678975859500,0.731859375,-5.573063850402832,2.219564437866211,3.5531957149505615,0.21050818264484406,0.1673930287361145,-0.963154137134552,0.20820824801921844,-0.11262920498847961,0.846546471118927,0.9739599598414338,-0.10252004737122776,0.08895266481818803,0.18160114048237014
1681239678985835500,0.74183544921875,-5.8570780754089355,2.3252499103546143,3.7624704837799072,0.2391422539949417,0.2136278599500656,-0.9471927285194397,0.23740500211715698,-0.07837392389774323,0.8234134912490845,0.9660993520074831,-0.13063034870159798,0.09664023500500954,0.2006199809133511
1681239678995811600,0.7518115234375,-6.237342357635498,2.368800640106201,3.957658529281616,0.2702511250972748,0.26028937101364136,-0.9269378185272217,0.2696353495121002,-0.05322760343551636,0.7703216671943665,0.9564844539647858,-0.16012171449191673,0.10436531082432927,0.22046828054921724
1681239679005787400,0.761787353515625,-6.710470676422119,2.3892159461975098,4.114227771759033,0.303433895111084,0.30775782465934753,-0.9017832279205322,0.3293023109436035,-0.012149274349212646,0.6943399906158447,0.9448785889148332,-0.19136292250427478,0.11175251142192956,0.2410310072341342
1681239679015763500,0.771763427734375,-7.187246322631836,2.3859620094299316,4.23573637008667,0.33838433027267456,0.35588338971138,-0.8711159825325012,0.41787177324295044,0.043439120054244995,0.6528542637825012,0.9310570401446124,-0.22448347740603736,0.11852926380999214,0.26208903920472193
1681239679025738500,0.781738525390625,-7.5735554695129395,2.4184391498565674,4.358119010925293,0.37506818771362305,0.40346214175224304,-0.8345909714698792,0.49996235966682434,0.09708717465400696,0.6344109773635864,0.9148474980830509,-0.259143940632657,0.1246953237224928,0.2834597747273801
1681239679035714300,0.79171435546875,-7.861448287963867,2.557539224624634,4.505623817443848,0.4140385091304779,0.4487042725086212,-0.7919826507568359,0.5679408311843872,0.15029475092887878,0.6081295609474182,0.8960933692481794,-0.2948416388040401,0.13067931575838898,0.30497180789684936
1681239679045690600,0.801690673828125,-8.135763168334961,2.8307669162750244,4.65430212020874,0.4560973048210144,0.49007323384284973,-0.742834746837616,0.6218903660774231,0.18908020853996277,0.5829684138298035,0.8745985457119811,-0.33133262096294586,0.13711789953738535,0.3263353315656508
1681239679055666400,0.81166650390625,-8.526712417602539,3.1759719848632812,4.833242893218994,0.5015528798103333,0.5267979502677917,-0.686242401599884,0.6529118418693542,0.18035537004470825,0.573510468006134,0.849989950053054,-0.36885411932707335,0.14431026476292472,0.34733014537783635
1681239679065642200,0.821642333984375,-8.993255615234375,3.4611053466796875,5.0380730628967285,0.5499826073646545,0.5580702424049377,-0.6213505864143372,0.6788991093635559,0.11565101146697998,0.5984014868736267,0.8217583555355925,-0.4076638216887148,0.1521016191683563,0.36795155440215166
1681239679075618600,0.83161865234375,-9.516836166381836,3.615889310836792,5.136297702789307,0.5997456312179565,0.5828169584274292,-0.5482969880104065,0.752289891242981,0.0444871187210083,0.6467466950416565,0.7896564027210317,-0.44756463798518276,0.15980428583944026,0.38806089873035854
1681239679085593300,0.84159326171875,-10.14995002746582,3.549391031265259,5.161296844482422,0.6484282612800598,0.6005885601043701,-0.46779730916023254,0.931588888168335,0.06237530708312988,0.6693048477172852,0.7535632559342905,-0.4883534437679778,0.16616938750579782,0.40748146229383636
1681239679095569400,0.8515693359375,-10.729525566101074,3.2100958824157715,5.2774810791015625,0.6943463087081909,0.6099783778190613,-0.3818502426147461,1.236348271369934,0.24515461921691895,0.6654500961303711,0.7133312255091304,-0.52929250877544,0.17007153287646404,0.4267126894400716
1681239679105545500,0.86154541015625,-10.986063957214355,2.5625205039978027,5.49494743347168,0.7369569540023804,0.6082403659820557,-0.29485267400741577,1.6482815742492676,0.5457665324211121,0.618567943572998,0.6693112043480958,-0.568578062525372,0.17115095701998256,0.4465969432158692
1681239679115521500,0.871521484375,-10.794936180114746,1.6581499576568604,5.630487442016602,0.775850236415863,0.5937878489494324,-0.21324273943901062,2.0957469940185547,0.8443225026130676,0.5251933932304382,0.6228376057427769,-0.6038842845454016,0.16941784061500034,0.4676480554668524
1681239679125497300,0.881497314453125,-10.086828231811523,0.7570786476135254,5.64539098739624,0.8107192516326904,0.567681610584259,-0.14307916164398193,2.4192306995391846,1.0694336891174316,0.4293035864830017,0.5760472977100181,-0.6333248502075548,0.16540873987073987,0.489600819177254
1681239679135473400,0.891473388671875,-9.007892608642578,0.28345993161201477,5.618648052215576,0.8422532081604004,0.5320978164672852,-0.08649525791406631,2.5006728172302246,1.2572851181030273,0.33527451753616333,0.5308006151968674,-0.6563674327112168,0.16104087731249858,0.5113690863819154
1681239679145448400,0.901448486328125,-7.707869052886963,0.16022907197475433,5.488924503326416,0.8707678914070129,0.48989930748939514,-0.0419745072722435,2.3645071983337402,1.4225761890411377,0.2758001685142517,0.48840224155265227,-0.6737658894637184,0.15827909547833835,0.5314606881674548
1681239679155424300,0.91142431640625,-6.326984882354736,0.05533067509531975,5.307034969329834,0.895965576171875,0.44404757022857666,-0.008198728784918785,2.1513214111328125,1.5030958652496338,0.22668933868408203,0.44994422820000285,-0.6862581402738926,0.15795695793851638,0.5492262392592985
1681239679165400600,0.921400634765625,-4.967774391174316,-0.1574268639087677,5.185218811035156,0.9179686903953552,0.3963654637336731,0.015102146193385124,1.996368646621704,1.4336516857147217,0.21716713905334473,0.41595330046668855,-0.6941732385183387,0.1602329182722916,0.565183014650206
1681239679175376400,0.93137646484375,-3.7170097827911377,-0.2893325984477997,5.113595008850098,0.937241792678833,0.347454309463501,0.029206590726971626,1.9042649269104004,1.2825809717178345,0.27433645725250244,0.3862743553425237,-0.6980294265442766,0.1654031894865842,0.5798178058691602
1681239679185352400,0.9413525390625,-2.6337883472442627,-0.23725873231887817,4.987667560577393,0.9536521434783936,0.2986432611942291,0.03687533363699913,1.770575761795044,1.1500108242034912,0.3273061513900757,0.360655834668846,-0.6988659656607191,0.17327443137554255,0.5928656839374092
1681239679195328500,0.95132861328125,-1.6790196895599365,-0.032743312418460846,4.737414360046387,0.9670642018318176,0.25113174319267273,0.04146525636315346,1.524604320526123,1.0549594163894653,0.32732439041137695,0.33875276297980017,-0.6978741032486491,0.18358748555702936,0.6037497702820562
1681239679205303600,0.961303466796875,-0.8267301321029663,0.24749073386192322,4.373758792877197,0.9774330854415894,0.2063237875699997,0.04533030092716217,1.214034080505371,0.9756829738616943,0.278537392616272,0.3204844647637788,-0.6959234236703152,0.19584621323855902,0.612065706165774
1681239679215279400,0.971279296875,-0.13234229385852814,0.5345435738563538,3.9359402656555176,0.9849564433097839,0.16538068652153015,0.05009784549474716,0.9222699999809265,0.9080597758293152,0.19657564163208008,0.3056892342851357,-0.6936760669058312,0.20943360901787014,0.6176609401181058
1681239679225255400,0.98125537109375,0.40397173166275024,0.7516255378723145,3.479837417602539,0.9900527596473694,0.1289341300725937,0.0563158243894577,0.6923965215682983,0.8553798198699951,0.10890638828277588,0.29404605863002453,-0.6914669986255741,0.22367677815775586,0.6207890003443279
1681239679235231500,0.9912314453125,0.7655169367790222,0.8705843091011047,3.0776174068450928,0.993253767490387,0.09688413888216019,0.0637202113866806,0.5369280576705933,0.8007140755653381,0.046204082667827606,0.28500421013977273,-0.6893655390510669,0.23798163901297625,0.6220228249724339
1681239679245207600,1.00120751953125,0.8857943415641785,0.9292822480201721,2.7107737064361572,0.9950315356254578,0.06877438724040985,0.07198633998632431,0.4368988275527954,0.7369658946990967,0.0036820024251937866,0.2778303753464007,-0.6874508741003139,0.25180243028458227,0.6219461064993642
1681239679255183400,1.011183349609375,0.8178330063819885,0.9590205550193787,2.341118574142456,0.9957420825958252,0.04432918503880501,0.0808253288269043,0.3478401303291321,0.6544622778892517,-0.0215449258685112,0.2717233753095217,-0.6859321556602578,0.26440450173862406,0.6210908167174046
1681239679265158400,1.021158447265625,0.5870016813278198,0.9907302856445312,1.955326795578003,0.9956356287002563,0.023576799780130386,0.0902998149394989,0.2397313117980957,0.5628031492233276,-0.018415682017803192,0.2662112479066295,-0.6850987445161155,0.27529914494243624,0.619662628498132
1681239679275134500,1.031134521484375,0.5547214150428772,0.9494655728340149,1.6929963827133179,0.9950557947158813,0.006068403832614422,0.09913276135921478,0.12606853246688843,0.4832351505756378,-0.021648630499839783,0.2612003792795834,-0.6846270575097932,0.28434516351166156,0.6182297707038159
1681239679285110500,1.041110595703125,0.38149505853652954,1.1653847694396973,1.3864754438400269,0.9938535690307617,-0.008696738630533218,0.11036106199026108,0.04382044076919556,0.40663066506385803,-0.05837439000606537,0.2564247510167015,-0.6852992140869553,0.29248165161169487,0.6156832362630742
1681239679295086300,1.05108642578125,0.34178951382637024,1.0640218257904053,1.1053061485290527,0.9923742413520813,-0.020607491955161095,0.12152586877346039,-0.038959383964538574,0.41681718826293945,-0.07533752918243408,0.25220787127199895,-0.686433581823776,0.29928560299287915,0.6128851394636272
1681239679305062700,1.061062744140625,0.15408167243003845,0.9776181578636169,0.8597986698150635,0.9908496737480164,-0.02997736446559429,0.13159924745559692,-0.09676092863082886,0.45610952377319336,-0.1121138334274292,0.24857489883796352,-0.6877229262014721,0.30469131407661887,0.6102548079985711
1681239679315038500,1.07103857421875,-0.041898854076862335,0.9436948299407959,0.6666558384895325,0.9892851710319519,-0.037419456988573074,0.14111801981925964,-0.10084235668182373,0.3809558153152466,-0.14236928522586823,0.24498128507554606,-0.6894126054963544,0.3086572050618651,0.6078034489469909
1681239679325013500,1.081013427734375,-0.2897888123989105,0.8844466805458069,0.48875856399536133,0.9877220988273621,-0.04334627464413643,0.1500857025384903,-0.13802140951156616,0.37589630484580994,-0.14492836594581604,0.24126560853454565,-0.6914861383582874,0.3112712240321355,0.6055971318844591
1681239679334989600,1.090989501953125,-0.5650888085365295,0.7951906323432922,0.3238900601863861,0.9862463474273682,-0.0480053573846817,0.15815718472003937,-0.1754857897758484,0.3696605861186981,-0.16296373307704926,0.23725340463185138,-0.6938982879811363,0.3123839976337527,0.603847865252238
1681239679344965400,1.10096533203125,-0.8151026368141174,0.6940171718597412,0.18941132724285126,0.9849194288253784,-0.0516311414539814,0.16512978076934814,-0.2049512267112732,0.3763991594314575,-0.1679069995880127,0.23293168659423732,-0.6965487034998576,0.3120653643578106,0.602642445808011
1681239679354941400,1.11094140625,-1.0294535160064697,0.5899609923362732,0.08109298348426819,0.9837720394134521,-0.054500091820955276,0.17094598710536957,-0.2351757287979126,0.3922533392906189,-0.14135919511318207,0.22830812953661145,-0.6993351257432905,0.31048892492978925,0.6019987358514447
1681239679364917500,1.12091748046875,-1.1981643438339233,0.5069510340690613,0.003285798942670226,0.9828077554702759,-0.05683167651295662,0.17566774785518646,-0.2785230278968811,0.40937069058418274,-0.11013124883174896,0.2234478335399731,-0.7021624483102503,0.30789895542216805,0.6018614616425111
1681239679374893300,1.130893310546875,-1.3534157276153564,0.45324844121932983,-0.06137198954820633,0.9819768071174622,-0.05879499390721321,0.1796233206987381,-0.3317083716392517,0.4238615036010742,-0.09243465960025787,0.218327202418117,-0.7050534586671916,0.3044852701299875,0.6020975833160386
1681239679384868400,1.140868408203125,-1.4819697141647339,0.41299474239349365,-0.11041836440563202,0.9812445640563965,-0.060520999133586884,0.18302012979984283,-0.38813549280166626,0.4333389699459076,-0.08444833755493164,0.2129300658624712,-0.7080109887815896,0.30038392482696885,0.6026198864125464
1681239679394844400,1.150844482421875,-1.6016970872879028,0.37753939628601074,-0.15213210880756378,0.9805962443351746,-0.06207191199064255,0.18595169484615326,-0.44197630882263184,0.43911656737327576,-0.07270097732543945,0.20727961997609198,-0.7110135073743002,0.2956951832433285,0.6033732576590674
1681239679404820500,1.160820556640625,-1.7081173658370972,0.34299978613853455,-0.17939062416553497,0.9800249338150024,-0.06354472786188126,0.18844904005527496,-0.4803759455680847,0.44415992498397827,-0.06517338752746582,0.20136319250327908,-0.7140327462697341,0.2904853769412684,0.6043411901548281
1681239679414796300,1.17079638671875,-1.809272289276123,0.3087345361709595,-0.2026277482509613,0.9795281887054443,-0.06500397622585297,0.19052338600158691,-0.5119530558586121,0.4437575936317444,-0.061128824949264526,0.19519286967274888,-0.7170340290708318,0.28482257078284046,0.6055064970768015
1681239679424772600,1.180772705078125,-1.918308973312378,0.27277469635009766,-0.23182931542396545,0.9791113138198853,-0.0664626732468605,0.19215580821037292,-0.533173143863678,0.4264785051345825,-0.058214157819747925,0.1887447872672177,-0.7200074740717799,0.2786882457357712,0.6068752321528288
1681239679434748400,1.19074853515625,-2.0230653285980225,0.2461571991443634,-0.2630029320716858,0.9787777662277222,-0.06782972067594528,0.19337329268455505,-0.5503415465354919,0.411961168050766,-0.06721365451812744,0.18205596940079058,-0.7229544915350846,0.2720725136684093,0.6084151593371239
1681239679444723500,1.200723388671875,-2.095668077468872,0.21467463672161102,-0.30625852942466736,0.9785252809524536,-0.06902921199798584,0.19422489404678345,-0.5620518922805786,0.40301355719566345,-0.08439218997955322,0.17516277681963827,-0.7258771133478871,0.26498086950507527,0.6100865197821047
1681239679454699500,1.210699462890625,-2.107712984085083,0.17602497339248657,-0.33557355403900146,0.9783661365509033,-0.06995909661054611,0.19469349086284637,-0.559680163860321,0.39530694484710693,-0.10953423380851746,0.1682560149616422,-0.7287019828044107,0.25756584604674937,0.611835931333537
1681239679464675300,1.22067529296875,-2.0776009559631348,0.12238731235265732,-0.33729180693626404,0.9783140420913696,-0.07072830945253372,0.19467729330062866,-0.5449338555335999,0.38072583079338074,-0.13037678599357605,0.16146886758982162,-0.7313095228057349,0.2500500572198657,0.613668625755352
1681239679474651400,1.2306513671875,-2.0005745887756348,0.07779225707054138,-0.3308156728744507,0.9783569574356079,-0.07142514735460281,0.19420571625232697,-0.5304811000823975,0.36241021752357483,-0.13666488230228424,0.1549099238544486,-0.7336386703155837,0.2426461672510607,0.6155485039541968
1681239679484627500,1.24062744140625,-1.8886860609054565,0.058010295033454895,-0.31283268332481384,0.9784556031227112,-0.07204028964042664,0.19348077476024628,-0.5290690660476685,0.34909409284591675,-0.14625491201877594,0.14869374346862993,-0.7357052432082494,0.23553807519646144,0.6173732729464277
1681239679494603500,1.250603515625,-1.7900274991989136,0.07421621680259705,-0.2862960994243622,0.9785441160202026,-0.07264666259288788,0.19280463457107544,-0.546018660068512,0.3375239372253418,-0.1641487181186676,0.1427842739104006,-0.7375972375010932,0.2288069796764245,0.6190397609829458
1681239679504578300,1.260578369140625,-1.6664139032363892,0.11055025458335876,-0.2463502734899521,0.9785546064376831,-0.07336019724607468,0.19248151779174805,-0.5709924101829529,0.3365437388420105,-0.18033552169799805,0.1371319501668755,-0.7394021822587433,0.22254251707989797,0.6204466550434209
1681239679514554600,1.2705546875,-1.5515996217727661,0.12584921717643738,-0.2025565654039383,0.9784794449806213,-0.0742383748292923,0.19252684712409973,-0.5849705934524536,0.3400616943836212,-0.2035437822341919,0.13176140238418038,-0.7411173823058141,0.216814323115955,0.6215910971412545
1681239679524530400,1.280530517578125,-1.4708232879638672,0.10413432866334915,-0.1598075032234192,0.9783762097358704,-0.07534989714622498,0.19262032210826874,-0.5733315944671631,0.3403339684009552,-0.22222241759300232,0.12661540346460315,-0.7426719120035945,0.21153862843636126,0.6226222304633707
1681239679534506500,1.290506591796875,-1.424938678741455,0.0518818274140358,-0.11868850886821747,0.9782891869544983,-0.07670291513204575,0.19252744317054749,-0.5462518930435181,0.35928040742874146,-0.23940253257751465,0.12160577746787529,-0.7440371992779286,0.20657291926322713,0.6236571661731649
1681239679544482600,1.300482666015625,-1.366658091545105,-0.00035900529474020004,-0.058923713862895966,0.9782808423042297,-0.07843233644962311,0.19187141954898834,-0.5138187408447266,0.3880941867828369,-0.2790907919406891,0.11668774333113269,-0.7450982559590443,0.2019017130439386,0.6248585005591996
1681239679554458400,1.310458251953125,-1.3551814556121826,-0.016567587852478027,0.02836581878364086,0.9783025979995728,-0.08083222806453705,0.19076111912727356,-0.4859779477119446,0.41486233472824097,-0.3279987871646881,0.11170989845641725,-0.7458790119359529,0.1975982330514462,0.6262109794017156
1681239679564433400,1.320433349609375,-1.3963477611541748,-0.0027167536318302155,0.12571394443511963,0.9782555103302002,-0.08417140692472458,0.18955446779727936,-0.461425244808197,0.4287605881690979,-0.3444618284702301,0.10636952406937046,-0.7465285078320663,0.19357795032670302,0.6276209882474145
1681239679574409500,1.330409423828125,-1.420769453048706,0.027169879525899887,0.2417682558298111,0.9780713319778442,-0.08858277648687363,0.18849274516105652,-0.4334089159965515,0.44061827659606934,-0.3334054946899414,0.10054262892910906,-0.7471325666732257,0.1898402050044755,0.6290030172524408
1681239679584385300,1.34038525390625,-1.4588203430175781,0.04786103963851929,0.4058557152748108,0.9777039885520935,-0.09441467374563217,0.18756549060344696,-0.3850221037864685,0.4392174780368805,-0.31004783511161804,0.0941338323189458,-0.747653716782769,0.1865386372204694,0.6303618914888056
1681239679594361600,1.350361572265625,-1.4618449211120605,0.04163084179162979,0.5434143543243408,0.9771454930305481,-0.1018134281039238,0.1866029053926468,-0.29867875576019287,0.4261084198951721,-0.28686845302581787,0.08712242391801585,-0.7480252710513031,0.18373797854618074,0.6317501105244002
1681239679604337400,1.36033740234375,-1.4234801530838013,-0.017724357545375824,0.6085299849510193,0.9765027165412903,-0.11013517528772354,0.18523631989955902,-0.17846816778182983,0.43952661752700806,-0.2616218328475952,0.07988885434571293,-0.7481522068423462,0.1813461819620266,0.6332452524443114
1681239679614313500,1.3703134765625,-1.303905963897705,-0.12457059323787689,0.5985812544822693,0.9759358167648315,-0.11856333166360855,0.1830088049173355,-0.04516488313674927,0.4851861894130707,-0.2560068368911743,0.07290643853377053,-0.7479159677912838,0.17923757062162715,0.6349648297591047
1681239679624289500,1.38028955078125,-1.056382179260254,-0.2688039541244507,0.570364773273468,0.9755746722221375,-0.1263938695192337,0.17966343462467194,0.0975303053855896,0.5732626914978027,-0.27434420585632324,0.06680393331025193,-0.7471917935577267,0.17758417341649624,0.6369502519247341
1681239679634264600,1.3902646484375,-0.778319239616394,-0.40487048029899597,0.5388811230659485,0.9754552245140076,-0.1333950310945511,0.17519378662109375,0.24909305572509766,0.6920955181121826,-0.2982102632522583,0.061941911953103064,-0.7459210947710498,0.17663128947285783,0.6391919089766757
1681239679644240400,1.400240478515625,-0.5964357256889343,-0.5166579484939575,0.47048184275627136,0.9755598902702332,-0.13949371874332428,0.16977758705615997,0.39773106575012207,0.8122079372406006,-0.30329203605651855,0.058205619250573826,-0.7442044437925593,0.17620596726178467,0.6416567066405258
1681239679654217000,1.410217041015625,-0.5899190902709961,-0.5917989611625671,0.36955296993255615,0.9758924245834351,-0.14454293251037598,0.1635279506444931,0.5252366662025452,0.9098626971244812,-0.2975611686706543,0.0552060700923169,-0.7422096969875341,0.17575192119423175,0.6443511178929592
1681239679664193300,1.420193359375,-0.7473250031471252,-0.6003554463386536,0.2346324473619461,0.976410984992981,-0.1485331952571869,0.15671345591545105,0.6103045344352722,0.9383891224861145,-0.25296592712402344,0.05230381469673463,-0.7401925670260251,0.1745614200833626,0.6472305836057655
1681239679674169000,1.430169189453125,-0.9041016697883606,-0.5352959036827087,0.08971685916185379,0.9770452976226807,-0.15136848390102386,0.14990054070949554,0.6352593898773193,0.8844617009162903,-0.16619694232940674,0.049227737585002186,-0.7384110614074894,0.17233506826417275,0.6500972089633346
1681239679684145000,1.440144775390625,-1.012510895729065,-0.4365280568599701,-0.06893669813871384,0.9777435660362244,-0.15285220742225647,0.14371250569820404,0.614892303943634,0.7657672166824341,-0.05203774571418762,0.04605939551567098,-0.7370618205679902,0.16910388573015755,0.6527036796277693
1681239679694120200,1.4501201171875,-0.8595216870307922,-0.36123937368392944,-0.17800535261631012,0.9785059094429016,-0.15288574993610382,0.13839034736156464,0.5977115631103516,0.6415179371833801,0.05751727521419525,0.04332735379048133,-0.7360926513370973,0.16541699875801189,0.6549255492217788
1681239679704096000,1.460095947265625,-0.47763827443122864,-0.2254466563463211,-0.18111006915569305,0.9791949987411499,-0.15193352103233337,0.13451093435287476,0.6012492775917053,0.571367084980011,0.13869762420654297,0.04169856139307067,-0.7354411088257657,0.1624248768512547,0.6565102285743173
1681239679714072000,1.470072021484375,0.10008195042610168,-0.11393105238676071,-0.23346751928329468,0.9797091484069824,-0.15020199120044708,0.13269966840744019,0.6086696982383728,0.5251561999320984,0.16898177564144135,0.04175591241662714,-0.7351423194132294,0.16098324365228356,0.6571959539870134
1681239679724048100,1.480048095703125,0.6018717885017395,-0.21937917172908783,-0.545246422290802,0.9805141687393188,-0.14561884105205536,0.13186028599739075,0.6256412267684937,0.4793590307235718,0.07909251749515533,0.044638825634669616,-0.734924352855123,0.16067462460852477,0.6573258419410476
1681239679734024000,1.49002392578125,0.8361539840698242,-0.46168252825737,-1.08268141746521,0.9820948839187622,-0.13655364513397217,0.12978042662143707,0.6704473495483398,0.4436214566230774,-0.18843530118465424,0.050296912572303815,-0.7343704158570119,0.1599697059700854,0.657708214687263
1681239679744000000,1.5,0.9461169838905334,-0.8119382858276367,-1.7843252420425415,0.9847452640533447,-0.12133444845676422,0.12471844255924225,0.7190816402435303,0.5041316747665405,-0.4670037031173706,0.05877824754122488,-0.733186075837023,0.15747190088482985,0.6589278183278383
1681239679753975000,1.50997509765625,1.1424461603164673,-1.0582975149154663,-2.523625373840332,0.9882642030715942,-0.0987955704331398,0.1165047362446785,0.7070635557174683,0.6378732919692993,-0.5383034944534302,0.07040442226297929,-0.7314013999564862,0.1526576528919417,0.6609015514793465
1681239679763951000,1.519951171875,1.5042210817337036,-1.019946575164795,-3.173813819885254,0.9918449521064758,-0.06904827058315277,0.10712535679340363,0.6266089081764221,0.8586753010749817,-0.4996577501296997,0.08548542946327375,-0.7295109522523421,0.14620687484594247,0.6626685046397046
1681239679773927000,1.529927001953125,1.6882526874542236,-0.604907751083374,-3.6228556632995605,0.994451105594635,-0.03352794051170349,0.09971416741609573,0.45214319229125977,1.1104474067687988,-0.3138561248779297,0.10314966608366383,-0.728450007077836,0.1386278079193713,0.6629502850057486
1681239679783903200,1.5399033203125,2.0129284858703613,-0.09074775129556656,-3.9032094478607178,0.9953089952468872,0.005732403602451086,0.09657702594995499,0.24950295686721802,1.324940800666809,-0.03975331783294678,0.12258955276065715,-0.7288092198757451,0.13086494430910872,0.6608201674273494
1681239679793879000,1.549879150390625,2.2621076107025146,0.26105934381484985,-4.01462984085083,0.994156539440155,0.04747384414076805,0.09694977849721909,0.14265388250350952,1.3118553161621094,0.040608301758766174,0.1433826560148713,-0.7302485714219381,0.12333658037764585,0.6564804845319844
1681239679803855000,1.559855224609375,2.580655097961426,0.15097996592521667,-4.218641757965088,0.991109311580658,0.09037156403064728,0.09764781594276428,0.20931476354599,0.9797730445861816,-0.07800985127687454,0.16554267015406154,-0.7315882890621793,0.1166296915136823,0.6509774435952523
1681239679813830100,1.569830078125,2.7611093521118164,0.006416237447410822,-4.358354091644287,0.9861891865730286,0.13542139530181885,0.09535079449415207,0.4544692635536194,0.6399233937263489,-0.20327617228031158,0.18907888753621535,-0.7319044707493474,0.10950452894058568,0.6454252119497557
1681239679823806000,1.579805908203125,3.4967260360717773,-0.27776461839675903,-4.273135185241699,0.9794917702674866,0.18055123090744019,0.08942573517560959,0.6778415441513062,0.30859971046447754,-0.24532485008239746,0.21425417409189393,-0.7307388745101415,0.10360291401742187,0.6398298383900899
1681239679833782000,1.589781982421875,4.252260208129883,-0.46469438076019287,-4.244658470153809,0.971187174320221,0.22534061968326569,0.07756907492876053,0.7813457250595093,0.08503834903240204,-0.2066127061843872,0.2421825416951421,-0.727177560260199,0.09998667261249355,0.6344785458491431
1681239679843758000,1.599758056640625,4.8299946784973145,-0.6335409283638,-4.184865951538086,0.961167573928833,0.26915454864501953,0.060930706560611725,0.7980028390884399,0.0771283209323883,-0.21113824844360352,0.27214192311989965,-0.7216662806695378,0.09830123395481218,0.6288667127805033
1681239679853734100,1.609734130859375,5.332503795623779,-0.6955686807632446,-4.226485252380371,0.94930100440979,0.3118595480918884,0.039637476205825806,0.6870972514152527,0.1463923454284668,-0.11005675792694092,0.30391071749772086,-0.7142679770777705,0.09818347862985934,0.6227515717547442
1681239679863710200,1.619710205078125,5.64382791519165,-0.7112107872962952,-4.167049884796143,0.9355514645576477,0.3528776168823242,0.014858610928058624,0.5694229006767273,0.1673402190208435,0.024936318397521973,0.33667423133757857,-0.7054075372609615,0.09914389357509015,0.615809316110318
1681239679873685200,1.629685302734375,5.908667087554932,-0.7966073155403137,-4.095401287078857,0.9202097058296204,0.3911893665790558,-0.013592351227998734,0.5054646134376526,0.15310683846473694,0.14663368463516235,0.3698742413760551,-0.6949781136071114,0.10104081432780841,0.6082672997200501
1681239679883661000,1.6396611328125,5.950164318084717,-0.8790209293365479,-3.964623212814331,0.9034966826438904,0.4261745810508728,-0.0454862117767334,0.5122900605201721,0.19873380661010742,0.2700039744377136,0.40290369634659623,-0.683046036169646,0.10346499968772956,0.6003429854488257
1681239679893637000,1.64963720703125,5.796879768371582,-0.9833749532699585,-3.77156400680542,0.8858351111412048,0.4571041464805603,-0.0796995759010315,0.5418382287025452,0.1609988510608673,0.372592031955719,0.43476650514235066,-0.6700198093343718,0.10594180232569289,0.5923072718423446
1681239679903613200,1.65961328125,5.470123767852783,-1.1257603168487549,-3.5511069297790527,0.8676161170005798,0.48365315794944763,-0.11542074382305145,0.5575547814369202,0.06058201193809509,0.5089754462242126,0.464757487163514,-0.6562146430834924,0.10803690016635338,0.5845604242292656
1681239679913589000,1.669589111328125,4.929542541503906,-1.2757052183151245,-3.3486263751983643,0.8489769101142883,0.5062578916549683,-0.15146319568157196,0.5508643388748169,-0.08937257528305054,0.6509443521499634,0.4922791135183555,-0.6421577564923777,0.10909545027694682,0.5774018104598323
1681239679923565000,1.67956494140625,4.273213863372803,-1.3892717361450195,-3.185100793838501,0.8298914432525635,0.5258775949478149,-0.18636777997016907,0.5086400508880615,-0.24655020236968994,0.7496002316474915,0.5169644286134958,-0.6285138350150888,0.10856550437615718,0.5709042675774688
1681239679933541000,1.689541015625,3.5738508701324463,-1.456780195236206,-3.023744583129883,0.8104344010353088,0.5433657765388489,-0.21897390484809875,0.4252833127975464,-0.3575291037559509,0.8054606914520264,0.5387124452754538,-0.6158047041432443,0.1062902485135432,0.5650449013826566
1681239679943516000,1.699515869140625,2.8641748428344727,-1.474852204322815,-2.8714559078216553,0.7907875180244446,0.5594195127487183,-0.24840426445007324,0.32931429147720337,-0.43617433309555054,0.8122470378875732,0.5575404134688259,-0.6044228768569774,0.10232718244112415,0.5597773111196289
1681239679953492200,1.7094921875,2.1718664169311523,-1.4297025203704834,-2.7609527111053467,0.7710562944412231,0.5748116970062256,-0.2739773094654083,0.23858720064163208,-0.48527318239212036,0.796575665473938,0.573618854409483,-0.5946786088732058,0.09679201107430191,0.5549324153075684
1681239679963468000,1.719468017578125,1.5754941701889038,-1.3383198976516724,-2.6698126792907715,0.7513269186019897,0.5901497006416321,-0.29534927010536194,0.16322386264801025,-0.5127418637275696,0.7760316133499146,0.5872547787737648,-0.5867199793617305,0.08991677731020638,0.5502785232010475
1681239679973444000,1.729444091796875,1.0655680894851685,-1.1915866136550903,-2.554110050201416,0.7318949103355408,0.6054877638816833,-0.3125930726528168,0.103432297706604,-0.5250586867332458,0.7519088983535767,0.5987854296929054,-0.5804755471656735,0.08216810004612098,0.5456670671669812
1681239679983420200,1.739420166015625,0.5871941447257996,-1.0261085033416748,-2.4250328540802,0.7131252884864807,0.6208160519599915,-0.32563745975494385,0.06618684530258179,-0.5303162336349487,0.7436519861221313,0.6083537244056705,-0.5759532418426481,0.07388599144839077,0.5410401264888076
1681239679993396000,1.74939599609375,0.1367017775774002,-0.8896070718765259,-2.2977166175842285,0.6951507925987244,0.6362378597259521,-0.3346141278743744,0.05085134506225586,-0.5262067914009094,0.7513469457626343,0.6160724097017272,-0.5731030607506946,0.06515997320974921,0.5364343044554049
1681239680003371000,1.75937109375,-0.3336244523525238,-0.7929420471191406,-2.1717753410339355,0.6779558658599854,0.6518709659576416,-0.33976462483406067,0.05657172203063965,-0.5281680822372437,0.7760134935379028,0.6220164048993863,-0.5718300139089522,0.05592966157820815,0.531956603687544
1681239680013347000,1.76934716796875,-0.8543701767921448,-0.7028745412826538,-2.064720630645752,0.6614682674407959,0.668039083480835,-0.34085679054260254,0.07774370908737183,-0.540552020072937,0.8210203647613525,0.6261061151518208,-0.5722388103571591,0.045982110516587446,0.5276546109658385
1681239680023323100,1.7793232421875,-1.3368746042251587,-0.5801827311515808,-1.9899193048477173,0.6456063985824585,0.6849795579910278,-0.33763203024864197,0.096230149269104,-0.5289889574050903,0.8427437543869019,0.6284040278027364,-0.5744031188041051,0.03528515622015817,0.5233778360094313
1681239680033299000,1.789298828125,-1.7045780420303345,-0.43450918793678284,-1.909250020980835,0.6304029822349548,0.7025061845779419,-0.3302685022354126,0.09579336643218994,-0.4923163652420044,0.8287121057510376,0.629154390311571,-0.5781737197648774,0.02410189096774625,0.5189403399073718
1681239680043275000,1.79927490234375,-1.8764441013336182,-0.3098311722278595,-1.7779388427734375,0.616097629070282,0.7198452353477478,-0.3197603225708008,0.08576095104217529,-0.4605373740196228,0.7886476516723633,0.628719336540529,-0.5830544191125333,0.012937719968824072,0.5143853011253228
1681239680053251000,1.8092509765625,-1.8049429655075073,-0.231863334774971,-1.61225426197052,0.6029195189476013,0.7359761595726013,-0.3079400956630707,0.08117777109146118,-0.4435567855834961,0.7186609506607056,0.6276505219586437,-0.5882382367150587,0.0023924064875219977,0.509926348695336
1681239680063226000,1.81922607421875,-1.5209240913391113,-0.1762445569038391,-1.438549518585205,0.5909914970397949,0.7501110434532166,-0.29675331711769104,0.09254121780395508,-0.44617128372192383,0.6343845129013062,0.6265849770878141,-0.5929372824655745,-0.006979777770039721,0.505735043679635
1681239680073202200,1.8292021484375,-1.0839275121688843,-0.12181492149829865,-1.2847042083740234,0.5802907943725586,0.7618823647499084,-0.2877461016178131,0.1161050796508789,-0.4566303491592407,0.5576893091201782,0.6261088012250516,-0.596580706903161,-0.014778587717506165,0.5018573249466473
1681239680083178000,1.839177978515625,-0.542698860168457,-0.06122320517897606,-1.1653990745544434,0.5706539750099182,0.7712455987930298,-0.28201812505722046,0.1363162398338318,-0.46040892601013184,0.49728915095329285,0.6267154859308335,-0.598798541328725,-0.020766302910667372,0.49823357542487123
1681239680093154300,1.849154296875,0.01214407104998827,-0.0041265785694122314,-1.050974726676941,0.5619778037071228,0.7782629728317261,-0.2801561951637268,0.1544376015663147,-0.4588356018066406,0.4597369134426117,0.6286747761996293,-0.5994204822354409,-0.02483929916994825,0.4948191550619215
1681239680103130000,1.859130126953125,0.4616795480251312,0.04010826349258423,-0.9000581502914429,0.5544063448905945,0.7830316424369812,-0.2819483280181885,0.18282198905944824,-0.45928603410720825,0.4529993236064911,0.6318128083272916,-0.5985741841154204,-0.02710697687199328,0.491718026254483
1681239680113106000,1.86910595703125,0.7559875845909119,0.09191824495792389,-0.7233394980430603,0.5482119917869568,0.7857602834701538,-0.28643348813056946,0.21559715270996094,-0.46445614099502563,0.49271705746650696,0.635659882691434,-0.596665238924607,-0.02781816819089593,0.48903282986423363
1681239680123081000,1.8790810546875,0.8572649359703064,0.18145586550235748,-0.5354700088500977,0.5436440110206604,0.7868486642837524,-0.29209625720977783,0.24416720867156982,-0.4867083430290222,0.5674716234207153,0.6396386476754973,-0.5943126926377577,-0.02728172902215601,0.4867344598182459
1681239680133057000,1.88905712890625,0.8017077445983887,0.2975395917892456,-0.3527529537677765,0.5408288240432739,0.7868166565895081,-0.29736101627349854,0.2603338360786438,-0.5265781283378601,0.651166558265686,0.6432261903959599,-0.5921593819541755,-0.025821594628534925,0.48470653810213016
1681239680143033000,1.899033203125,0.6673611402511597,0.43389371037483215,-0.1642722487449646,0.5398479104042053,0.7860507369041443,-0.30114492774009705,0.2724078893661499,-0.5632725358009338,0.7303289175033569,0.6460727501592703,-0.590650469673464,-0.02365487872520437,0.48286888161075775
1681239680153009200,1.909009033203125,0.4911845028400421,0.5742176175117493,0.044439010322093964,0.5408439040184021,0.7846987247467041,-0.3028787076473236,0.2946205139160156,-0.5930332541465759,0.7871469259262085,0.647977065341951,-0.5900223298860907,-0.020839943778030504,0.4812119036532916
1681239680162985000,1.91898486328125,0.29627305269241333,0.6808663010597229,0.27464717626571655,0.5439092516899109,0.7827692627906799,-0.3023822009563446,0.3342493176460266,-0.6112757325172424,0.815840482711792,0.6488014640211528,-0.5903428484349549,-0.017441831591427676,0.47984136013300843
1681239680172961000,1.9289609375,0.08538535982370377,0.7291074395179749,0.5152148604393005,0.549101710319519,0.780069887638092,-0.2999640107154846,0.38989365100860596,-0.6152291893959045,0.8153601288795471,0.6484723751160633,-0.5914683200627315,-0.013535948218840485,0.4790257052663259
1681239680182937000,1.93893701171875,-0.12993307411670685,0.7502129673957825,0.7728109359741211,0.5562958717346191,0.7766019105911255,-0.29567644000053406,0.44927364587783813,-0.6216641068458557,0.800238847732544,0.6469064732333585,-0.5933593607943364,-0.009298191778459754,0.47890538410405153
1681239680192912100,1.948912109375,-0.35275763273239136,0.7707920074462891,1.0372604131698608,0.5654858946800232,0.7722641825675964,-0.289540559053421,0.5015764832496643,-0.6286027431488037,0.7723286151885986,0.644053576645936,-0.5959925338771356,-0.004756501674163853,0.47954691107734765
1681239680202888000,1.958887939453125,-0.5861911177635193,0.8012018799781799,1.3221968412399292,0.5767802000045776,0.7668863534927368,-0.28144240379333496,0.5371723771095276,-0.6359049677848816,0.7428834438323975,0.6398334308663598,-0.599398680112727,0.00014999190815899162,0.48097224505870173
1681239680212864300,1.9688642578125,-0.7863881587982178,0.8317901492118835,1.6208813190460205,0.5902333855628967,0.7602289319038391,-0.27143415808677673,0.5597605109214783,-0.6389521360397339,0.7223466038703918,0.6342169108563418,-0.6035335017012983,0.005498081011899374,0.48320386229644724
1681239680222840000,1.978840087890625,-0.9472827315330505,0.859408974647522,1.9305485486984253,0.60587477684021,0.7519369125366211,-0.2598201632499695,0.5854398608207703,-0.6289969682693481,0.6999905109405518,0.6272568920223793,-0.6082428509912108,0.01142587249608936,0.48627029529468596
1681239680232815900,1.98881591796875,-1.0592725276947021,0.8967918753623962,2.2558913230895996,0.6236842274665833,0.7416506409645081,-0.2469257414340973,0.6153141856193542,-0.6116000413894653,0.6765521764755249,0.6190264357324081,-0.6133598979494533,0.018076619631175708,0.49017257505085077
1681239680242792200,1.998792236328125,-1.1318601369857788,0.939245879650116,2.5884053707122803,0.6436625123023987,0.728961706161499,-0.23305246233940125,0.6497335433959961,-0.5773962140083313,0.6578419208526611,0.6095919404657868,-0.6187217429099047,0.025635459726347898,0.4948978721521301
1681239680252767000,2.00876708984375,-1.1782852411270142,0.9817515015602112,2.903186559677124,0.6656062602996826,0.7136149406433105,-0.21845299005508423,0.6872684359550476,-0.5325848460197449,0.647652268409729,0.5990473614959086,-0.6241830903977623,0.034190306915627015,0.5003684314668508
1681239680262743000,2.018742919921875,-1.255696415901184,0.9967033267021179,3.2115063667297363,0.689184844493866,0.6955048441886902,-0.20321662724018097,0.727410614490509,-0.47612935304641724,0.631454586982727,0.5873768598761399,-0.6296727650193403,0.043633633417111385,0.5065536289706972
1681239680272719000,2.028718994140625,-1.3654917478561401,1.0070260763168335,3.5183496475219727,0.7141515016555786,0.674484133720398,-0.1872398555278778,0.7637232542037964,-0.41502368450164795,0.6126091480255127,0.5744330844016151,-0.6352027188416748,0.053829161920119196,0.5134652105295453
1681239680282695200,2.038695068359375,-1.5235862731933594,1.0429445505142212,3.8049325942993164,0.7402122616767883,0.6504619717597961,-0.17024965584278107,0.7873451113700867,-0.3549145460128784,0.5928571224212646,0.5600725917383356,-0.6408532807530247,0.06467028654036341,0.521002363149477
1681239680292671000,2.0486708984375,-1.708628535270691,1.083817481994629,4.0625996589660645,0.766952633857727,0.6234503388404846,-0.15196450054645538,0.7900083661079407,-0.2999640703201294,0.5636618733406067,0.5441961275633768,-0.6467137775133827,0.07601997671696609,0.5289922085734247
1681239680302647000,2.05864697265625,-1.881284236907959,1.1105997562408447,4.282840251922607,0.7938779592514038,0.5934706330299377,-0.13247798383235931,0.7816377878189087,-0.24802696704864502,0.527085542678833,0.5268066720545586,-0.6527380615311139,0.08771563732321576,0.5373209112971444
1681239680312622000,2.0686220703125,-2.026902437210083,1.1044113636016846,4.454647064208984,0.8204200863838196,0.560632050037384,-0.11226159334182739,0.7701409459114075,-0.18555575609207153,0.4835842251777649,0.5080704593317548,-0.6587471589683587,0.09960614546927439,0.5458894025915914
1681239680322598000,2.078597900390625,-2.191819667816162,1.1165497303009033,4.578698635101318,0.8460641503334045,0.5251578688621521,-0.09156616032123566,0.7490285038948059,-0.11484915018081665,0.42223936319351196,0.48809974130617173,-0.6646657242007853,0.11151859063157857,0.5545642804182652
1681239680332574200,2.08857421875,-2.359572172164917,1.1237198114395142,4.65337610244751,0.8703428506851196,0.48738977313041687,-0.0703868716955185,0.7107880115509033,-0.04300814867019653,0.3557872772216797,0.4669495196725297,-0.6705338410978738,0.1232514972829242,0.5631620282126962
1681239680342550000,2.098550048828125,-2.464564800262451,1.0723295211791992,4.70030403137207,0.8928786516189575,0.44759103655815125,-0.04929373785853386,0.6637161374092102,0.01914474368095398,0.2883684039115906,0.4448239855081241,-0.6761779170951193,0.13467203186514748,0.5716453704349461
1681239680352526000,2.108526123046875,-2.472095489501953,0.9789600372314453,4.734189510345459,0.9134839773178101,0.4058231711387634,-0.029234329238533974,0.6243273615837097,0.06344562768936157,0.21844327449798584,0.42204832877182374,-0.6812544001173355,0.1458604740810668,0.5800796777820205
1681239680362502100,2.118502197265625,-2.319861888885498,0.9181989431381226,4.733329772949219,0.9320164322853088,0.36225640773773193,-0.010758472606539726,0.6130122542381287,0.11702212691307068,0.14695841073989868,0.39908965794151696,-0.6855107353991786,0.15714895927172098,0.5883083583652526
1681239680372477000,2.128476806640625,-2.015002727508545,0.8390995860099792,4.672137260437012,0.9480539560317993,0.3180699348449707,0.00500464765354991,0.5961811542510986,0.17111152410507202,0.1057894229888916,0.3769562277778269,-0.6885321678327343,0.1685994594619921,0.5961556629792132
1681239680382453000,2.138452880859375,-1.6097873449325562,0.7687612175941467,4.540107250213623,0.961596667766571,0.27387452125549316,0.018013542518019676,0.5488402843475342,0.17630550265312195,0.105857253074646,0.3562046651802569,-0.690232227982974,0.1805165994415705,0.603416446890949
1681239680392429000,2.148428955078125,-1.3991979360580444,0.551798939704895,4.277682304382324,0.972527027130127,0.2310716062784195,0.028233975172042847,0.503364086151123,0.18820935487747192,0.07052087783813477,0.3371118896305915,-0.6907515813679829,0.1922998703126272,0.6101136056909143
1681239680402405000,2.158405029296875,-1.248151183128357,0.47721341252326965,4.051235198974609,0.9811166524887085,0.18999090790748596,0.03624183312058449,0.47875267267227173,0.21747975051403046,-0.011904001235961914,0.3192189553360302,-0.6904557987129253,0.20344951730368155,0.616423800704848
1681239680412381200,2.168381103515625,-0.7488303184509277,0.6479264497756958,4.034575462341309,0.9877120852470398,0.15032649040222168,0.04274148494005203,0.4591721296310425,0.22958680987358093,-0.06775069236755371,0.30288133468423867,-0.6893586798071619,0.2148379677483164,0.6220065800892093
1681239680422357000,2.17835693359375,-0.7048567533493042,0.46259307861328125,3.4789273738861084,0.9924237728118896,0.11216869205236435,0.050132304430007935,0.4321214556694031,0.26660019159317017,-0.08052778244018555,0.28786388364726057,-0.6882000048280548,0.2268191039277066,0.6261535221664147
1681239680432333000,2.1883330078125,-2.4683828353881836,-0.07024769484996796,3.0594093799591064,0.9953187108039856,0.08117658644914627,0.05245117470622063,0.4082610011100769,0.40841686725616455,-0.09357357025146484,0.2734298611606648,-0.6869427843075311,0.23309911822763313,0.6316728208769541
1681239680442308000,2.19830810546875,-2.211710214614868,-0.17514082789421082,3.430466651916504,0.9974601864814758,0.04768212139606476,0.05291139706969261,0.3702613115310669,0.30610811710357666,-0.2116485834121704,0.25422067476144766,-0.6862749355488761,0.2355470456721624,0.6394655336989112
1681239680452284200,2.2082841796875,0.5132002234458923,0.4503927230834961,3.1915359497070312,0.9984340071678162,0.013484591618180275,0.054295193403959274,0.3726445436477661,0.2800029218196869,0.029002554714679718,0.24058765779103872,-0.683529361809684,0.24481668329713396,0.6441817207355897
1681239680462260000,2.218260009765625,0.8496224284172058,0.65311199426651,2.2595982551574707,0.9981404542922974,-0.013269845396280289,0.05949388071894646,0.43230992555618286,0.8109687566757202,0.01870739459991455,0.2338779732667853,-0.680838369681338,0.25730537112784657,0.6446348940699841
1681239680472236000,2.228236083984375,0.16966694593429565,0.919399082660675,1.8356263637542725,0.9971706867218018,-0.032964788377285004,0.06755809485912323,0.21428561210632324,0.8230343461036682,-0.37535834312438965,0.2281194172838628,-0.6801810306670304,0.26670735416608926,0.6435701586254982
1681239680482212000,2.238212158203125,-0.4619866609573364,0.897515594959259,1.885799527168274,0.9957181215286255,-0.051619939506053925,0.07668758183717728,0.023858964443206787,0.5741418600082397,-0.009670965373516083,0.22041063238655006,-0.6807877190338808,0.27362724897702684,0.6427094585471743
1681239680492188000,2.24818798828125,-1.2304067611694336,0.8550530672073364,1.7671184539794922,0.9938874840736389,-0.07059348374605179,0.0848788246512413,0.09807723760604858,0.3300996720790863,0.04767429828643799,0.21044767449570037,-0.6819608757096007,0.27815243486534585,0.6428626832975715
1681239680502163200,2.2581630859375,-1.8610491752624512,0.8041512966156006,1.5008950233459473,0.9918601512908936,-0.08818790316581726,0.09185023605823517,0.16265040636062622,0.2599560618400574,-0.09473418444395065,0.19869681173640044,-0.6839469273283297,0.2795384013914116,0.6438901584236811
1681239680512139000,2.268138916015625,-2.0206785202026367,0.800768256187439,1.2743165493011475,0.9897809028625488,-0.1037169024348259,0.09785955399274826,0.1161760687828064,0.3229398727416992,-0.19524109363555908,0.18640817885930092,-0.6864818336638702,0.27869780995566884,0.6452303256175457
1681239680522115000,2.278114990234375,-1.8750066757202148,0.8625223636627197,1.1186678409576416,0.9876279830932617,-0.11747372150421143,0.10388019680976868,0.05856043100357056,0.45023733377456665,-0.3448011875152588,0.17469438873786539,-0.6892584877276433,0.27724147571985847,0.6461747867871914
1681239680532091100,2.288091064453125,-1.6819074153900146,0.9466757774353027,0.9834673404693604,0.9853566288948059,-0.12974774837493896,0.11062467843294144,0.007120788097381592,0.5627768635749817,-0.49975430965423584,0.16391947676654078,-0.692233054027511,0.2759089284826529,0.6463884891576448
1681239680542067000,2.29806689453125,-1.55239999294281,0.9616366624832153,0.8541026711463928,0.9830232262611389,-0.14059728384017944,0.1178891584277153,-0.04416513442993164,0.6294277906417847,-0.5609128475189209,0.15407265013796942,-0.6953452326727617,0.2746626768870283,0.6460008464094176
1681239680552043000,2.30804296875,-1.5185068845748901,0.8904826641082764,0.7638807892799377,0.9807223081588745,-0.15036703646183014,0.12479332089424133,-0.08249855041503906,0.603766679763794,-0.534857988357544,0.14487306723509819,-0.6983839389363109,0.2732334816275048,0.6454572758723135
1681239680562019000,2.31801904296875,-1.5106736421585083,0.7963273525238037,0.7030869722366333,0.9785131812095642,-0.15945716202259064,0.13071054220199585,-0.10032415390014648,0.5044430494308472,-0.4604225158691406,0.13608456907126848,-0.7011677960083601,0.27151241372146256,0.645078036387745
1681239680571994000,2.327994140625,-1.4520173072814941,0.6982614398002625,0.6563766002655029,0.9764059782028198,-0.16807207465171814,0.13558390736579895,-0.10639572143554688,0.43655043840408325,-0.3638097047805786,0.12767344322512691,-0.7036364177599466,0.26960664888813346,0.6449088865023317
1681239680581970000,2.337969970703125,-1.2779169082641602,0.5921320915222168,0.6123042106628418,0.9744333028793335,-0.17611822485923767,0.13950541615486145,-0.11836963891983032,0.4450543522834778,-0.2722874879837036,0.11994743186436688,-0.7057103490107474,0.2678163818736372,0.6448719014296959
1681239680591946200,2.3479462890625,-1.0449365377426147,0.5138964056968689,0.5916714072227478,0.9725760221481323,-0.1835993379354477,0.14278268814086914,-0.12635421752929688,0.5157526731491089,-0.23036827147006989,0.11318831799742386,-0.7073567327532965,0.26652916395735,0.6448231864133566
1681239680601922000,2.357922119140625,-0.8663974404335022,0.45196250081062317,0.5843615531921387,0.9707924723625183,-0.19062687456607819,0.14568263292312622,-0.1322152018547058,0.6148058772087097,-0.2228768914937973,0.10730150225968851,-0.708660062258046,0.26578606545029126,0.6447054513048728
1681239680611898000,2.367898193359375,-0.7808688282966614,0.43185707926750183,0.5823081135749817,0.9690111875534058,-0.1974724382162094,0.14839883148670197,-0.1316545009613037,0.6947410106658936,-0.2487100064754486,0.1019518490023627,-0.7097390639755545,0.26546162599914225,0.6445203955433443
1681239680621874200,2.377874267578125,-0.847248375415802,0.35591837763786316,0.6021132469177246,0.9672315716743469,-0.2043769657611847,0.15064233541488647,-0.1209181547164917,0.7007300853729248,-0.27277374267578125,0.09667395939095598,-0.7106397901067507,0.26516458151777594,0.6444633076977725
1681239680631849000,2.387848876953125,-1.0450708866119385,0.24473613500595093,0.6585628390312195,0.9654666185379028,-0.21187947690486908,0.1515960842370987,-0.09428131580352783,0.649242103099823,-0.2724151611328125,0.09090919182219974,-0.7112162421121174,0.2645174784136734,0.644932172625261
1681239680641825000,2.397824951171875,-1.2579318284988403,0.1490442156791687,0.6933450698852539,0.9637100696563721,-0.22014452517032623,0.15099360048770905,-0.05070054531097412,0.59999680519104,-0.28176140785217285,0.08436311968794746,-0.7114633671441005,0.26328060040989704,0.6460541672534736
1681239680651801000,2.407801025390625,-1.3838930130004883,0.06742733716964722,0.7264044880867004,0.9619532823562622,-0.22896800935268402,0.14906200766563416,-0.027886569499969482,0.5783026814460754,-0.28208816051483154,0.0772134328196388,-0.7114168846573632,0.26156647328878896,0.6476936483520785
1681239680661777000,2.41777685546875,-1.4105498790740967,0.053580764681100845,0.7521572113037109,0.9601431488990784,-0.2381453514099121,0.14632853865623474,-0.028182029724121094,0.5780043005943298,-0.31498396396636963,0.06975948295901031,-0.7111495354017728,0.2596740364081264,0.6495917073727691
1681239680671753000,2.4277529296875,-1.3295600414276123,0.09445612877607346,0.7587745189666748,0.9582007527351379,-0.2473916858434677,0.1436968296766281,-0.038645029067993164,0.5926064848899841,-0.3607226610183716,0.06232799831629977,-0.7108603165425867,0.2579263931752537,0.6513577109259455
1681239680681728800,2.437728759765625,-1.1941609382629395,0.13825128972530365,0.7342427968978882,0.9561461806297302,-0.2563503682613373,0.14166486263275146,-0.05596923828125,0.6135280728340149,-0.4120965003967285,0.05525519659417271,-0.7106584104105328,0.2565093721883325,0.6527743844197665
1681239680691703800,2.447703857421875,-1.0282750129699707,0.15364563465118408,0.6851542592048645,0.9540890455245972,-0.2646866738796234,0.14019696414470673,-0.06198394298553467,0.6411972045898438,-0.45149147510528564,0.04880073607634509,-0.7105282130723978,0.2554371595452741,0.653850202180971
1681239680701679600,2.4576796875,-0.8263536095619202,0.1477067917585373,0.6425359845161438,0.952102780342102,-0.27227628231048584,0.13916146755218506,-0.03948986530303955,0.6763290166854858,-0.4633803367614746,0.04315435097596045,-0.7103970508907241,0.2547876768737507,0.6546426160003748
1681239680711656000,2.467656005859375,-0.6131220459938049,0.13873858749866486,0.6110891103744507,0.9501782059669495,-0.2792202830314636,0.13855475187301636,0.004609942436218262,0.7055660486221313,-0.4687243700027466,0.038374194975372894,-0.7102193431324937,0.2546877712003448,0.6551717589811323
1681239680721631700,2.4776318359375,-0.36545899510383606,0.11210325360298157,0.5699602961540222,0.9483374357223511,-0.28549522161483765,0.1383788138628006,0.0528680682182312,0.7321199178695679,-0.4698913097381592,0.03454318999098293,-0.7099729681040937,0.2552014757750788,0.6554520766257633
1681239680731607800,2.48760791015625,-0.10208606719970703,0.08136429637670517,0.5156587362289429,0.9466399550437927,-0.2909516990184784,0.13863489031791687,0.08950799703598022,0.7515382766723633,-0.4703916311264038,0.03181456805038385,-0.7096397809451095,0.2563763381277077,0.6554923698595443
1681239680741584000,2.497583984375,0.13882508873939514,0.04874217510223389,0.4413217008113861,0.9451517462730408,-0.2954253554344177,0.13932564854621887,0.11776000261306763,0.7665252089500427,-0.4774298667907715,0.030245338646952457,-0.7092414527894831,0.2581460565676984,0.6553031703530129
1681239680751559700,2.5075595703125,0.36871299147605896,0.007332684472203255,0.3449617922306061,0.9439513087272644,-0.29875051975250244,0.140371173620224,0.14084172248840332,0.7854448556900024,-0.4769800901412964,0.029828078777290205,-0.708799721316547,0.2603623277275667,0.6549234408821967
1681239680761535000,2.517534912109375,0.5770824551582336,-0.061684731394052505,0.2300216406583786,0.9431409239768982,-0.3007414937019348,0.1415623426437378,0.1594896912574768,0.7939513325691223,-0.4703587293624878,0.030622742615734458,-0.7082772957566006,0.26291527527586467,0.6544319152430366
1681239680771510800,2.5275107421875,0.7329793572425842,-0.16110175848007202,0.10627555847167969,0.942825973033905,-0.3012911081314087,0.1424883008003235,0.18197566270828247,0.7833467125892639,-0.4524552822113037,0.03258581679607886,-0.7075990929173251,0.26560812067849293,0.6539832223791301
1681239680781486800,2.53748681640625,0.860548734664917,-0.25573667883872986,-0.02488032542169094,0.9430707693099976,-0.30032816529273987,0.1429000049829483,0.20399338006973267,0.7727402448654175,-0.4272627830505371,0.03562195723431373,-0.7067511110889488,0.2682403137179128,0.653667354702563
1681239680791463000,2.547462890625,0.9575591087341309,-0.35788199305534363,-0.16216737031936646,0.9438678026199341,-0.29790619015693665,0.1427069753408432,0.22844958305358887,0.7768795490264893,-0.4070807695388794,0.039654014578376834,-0.7057248920007126,0.2707505629065322,0.6535089625915883
1681239680801438700,2.557438720703125,1.010818600654602,-0.4874274730682373,-0.3166951537132263,0.945262610912323,-0.29398372769355774,0.14160442352294922,0.24521267414093018,0.7791216373443604,-0.3868589401245117,0.044583173245565634,-0.7044880634831677,0.2729446446041878,0.653613029601705
1681239680811414800,2.567414794921875,0.9845196008682251,-0.6256362795829773,-0.4705628454685211,0.947283923625946,-0.28858453035354614,0.13918393850326538,0.25626838207244873,0.7821452617645264,-0.37949466705322266,0.05026323885721671,-0.7029822693767653,0.274604986364033,0.654126633131585
1681239680821389800,2.577389892578125,0.8437249064445496,-0.7481078505516052,-0.6298872232437134,0.9498897194862366,-0.2818325161933899,0.13520227372646332,0.2576296329498291,0.7744320034980774,-0.389459490776062,0.05634826899373815,-0.7012520461336083,0.2754028106140127,0.6551515983341923
1681239680831366000,2.587365966796875,0.5919373631477356,-0.8695907592773438,-0.8129935264587402,0.9530502557754517,-0.27374812960624695,0.1294487565755844,0.2361128330230713,0.7461907863616943,-0.38973331451416016,0.062454842870824395,-0.6993941214644157,0.27490405745428215,0.6567913907652182
1681239680841341700,2.597341796875,0.31213024258613586,-1.0444504022598267,-1.0312329530715942,0.9568091034889221,-0.26410865783691406,0.12150249630212784,0.1838921308517456,0.6975040435791016,-0.34916365146636963,0.06847523089611952,-0.6973892964312511,0.27276256304774954,0.659211524028789
1681239680851317800,2.60731787109375,-0.006619163788855076,-1.2094711065292358,-1.2702678442001343,0.961184561252594,-0.2526216208934784,0.11093423515558243,0.12044984102249146,0.6477022171020508,-0.2776060104370117,0.0744593845293359,-0.6951505595090954,0.2687616382743847,0.6625621735968059
1681239680861293800,2.6172939453125,-0.2506459355354309,-1.3117241859436035,-1.526718020439148,0.9659854173660278,-0.23914602398872375,0.09839305281639099,0.07393151521682739,0.6182811260223389,-0.19723951816558838,0.08036624307257896,-0.6928726775355126,0.2629143952157989,0.6665918300222428
1681239680871270000,2.627269775390625,-0.37263596057891846,-1.3708583116531372,-1.7962232828140259,0.9710866808891296,-0.22323714196681976,0.08459042012691498,0.045713067054748535,0.6168986558914185,-0.14072751998901367,0.08660818058640576,-0.6906615305340311,0.25550314798664214,0.6709722036234315
1681239680881246000,2.637245849609375,-0.39395323395729065,-1.3715596199035645,-2.0800232887268066,0.9763128757476807,-0.20460128784179688,0.07036488503217697,0.03909832239151001,0.6209526062011719,-0.12622737884521484,0.09354181202671312,-0.6886491441637472,0.24687000246349416,0.6753276142784658
1681239680891220700,2.647220703125,-0.3174927830696106,-1.4187183380126953,-2.3975749015808105,0.9815314412117004,-0.18289875984191895,0.05607328191399574,0.059926748275756836,0.6276771426200867,-0.12608063220977783,0.10156774119495444,-0.686834363302101,0.2372660907118017,0.6794464123492947
1681239680901196800,2.65719677734375,-0.14671704173088074,-1.5096914768218994,-2.740912437438965,0.9866268634796143,-0.15769360959529877,0.04123157635331154,0.09732687473297119,0.6159608364105225,-0.12333905696868896,0.11122591226212068,-0.6849463582867091,0.2268573862703748,0.6833834708075863
1681239680911172900,2.6671728515625,0.08039692789316177,-1.522742509841919,-3.0598413944244385,0.9913030862808228,-0.12897908687591553,0.02612661011517048,0.16407710313796997,0.5748103260993958,-0.11038565635681152,0.12273779075102104,-0.6829683645504848,0.2159109039698356,0.6869294975167047
1681239680921148700,2.677148681640625,0.3209275007247925,-1.4800752401351929,-3.370258092880249,0.9952218532562256,-0.09696874767541885,0.01143093965947628,0.2579367756843567,0.5270071625709534,-0.09706330299377441,0.1360732276066791,-0.6810542380878793,0.20464748844752548,0.6897598644332584
1681239680931125000,2.687125,0.5340591669082642,-1.4643778800964355,-3.6721689701080322,0.9980878233909607,-0.06174493581056595,-0.002917385892942548,0.3455096483230591,0.47809621691703796,-0.06142890453338623,0.15120209439597082,-0.6791664874825798,0.193065246318356,0.6918068698109603
1681239680941100800,2.697100830078125,0.6788989305496216,-1.4635862112045288,-3.9478561878204346,0.9995755553245544,-0.02338184416294098,-0.017383113503456116,0.42615997791290283,0.4245658814907074,0.0006747227162122726,0.1679628555202727,-0.6771737353598679,0.18095351797657516,0.6931667212329936
1681239680951076900,2.707076904296875,0.770033597946167,-1.4614999294281006,-4.179801940917969,0.9993406534194946,0.01716497167944908,-0.031996045261621475,0.5001558065414429,0.38101309537887573,0.07847428321838379,0.1858224481491749,-0.6750133139626039,0.1684013182170017,0.6938790117565335
1681239680961052000,2.717052001953125,0.8202570676803589,-1.4610275030136108,-4.368851184844971,0.9971259236335754,0.05952075868844986,-0.04687737300992012,0.5620935559272766,0.34756845235824585,0.14306879043579102,0.20451340377427452,-0.6726303775489229,0.15533733740849262,0.6939834959663731
1681239680971028000,2.727028076171875,0.8329104781150818,-1.452786922454834,-4.51502799987793,0.9927202463150024,0.10323121398687363,-0.06204761192202568,0.6067976355552673,0.3078252673149109,0.18602526187896729,0.22376433515581115,-0.6699877201226179,0.14174854253526953,0.693508007154625
1681239680981003800,2.737003662109375,0.8213384747505188,-1.4187339544296265,-4.618351459503174,0.9859946370124817,0.14779330790042877,-0.07727649062871933,0.6370674967765808,0.25329917669296265,0.21687912940979004,0.24330075902500362,-0.667125753156798,0.12769097552640418,0.6924181721790449
1681239680990979800,2.746979736328125,0.7963205575942993,-1.3430947065353394,-4.6960296630859375,0.9769050478935242,0.19275391101837158,-0.09220734983682632,0.6469351649284363,0.18798333406448364,0.24542081356048584,0.2628994689068797,-0.6641298254017015,0.11326032732055351,0.6906427403670461
1681239681000956000,2.756955810546875,0.7654159069061279,-1.2208564281463623,-4.7368011474609375,0.9654923677444458,0.2377365678548813,-0.10632821172475815,0.6404340863227844,0.12737567722797394,0.27348822355270386,0.2823945933945589,-0.6611472136401141,0.09859136231773921,0.6880532981053011
1681239681010931700,2.766931640625,0.7493554949760437,-1.06771719455719,-4.745894908905029,0.9518942832946777,0.2822751998901367,-0.11923901736736298,0.6224617958068848,0.0720033049583435,0.30116957426071167,0.30164799108277707,-0.6582869210582765,0.08389767138342882,0.6845640575163745
1681239681020907000,2.776906982421875,0.7424174547195435,-0.9109344482421875,-4.7261152267456055,0.936280369758606,0.32598552107810974,-0.13081462681293488,0.5956562757492065,0.015200942754745483,0.3268900513648987,0.32060084927209664,-0.6555760618816406,0.06937374087413584,0.6801634890905061
1681239681030882800,2.7868828125,0.7321317195892334,-0.7747937440872192,-4.6748833656311035,0.9188463687896729,0.36850181221961975,-0.14116525650024414,0.5714794993400574,-0.038759469985961914,0.34427499771118164,0.3391640868916782,-0.6529756449297636,0.05513783883061134,0.6749446394463484
1681239681040858600,2.796858642578125,0.7123854756355286,-0.6587070822715759,-4.609301567077637,0.8997816443443298,0.40957924723625183,-0.1504579782485962,0.5571121573448181,-0.0887327790260315,0.3505464196205139,0.3572525162376028,-0.6504394012867618,0.04122617035978284,0.6690287484904556
1681239681050835000,2.8068349609375,0.7168141603469849,-0.57978355884552,-4.526584148406982,0.8792517185211182,0.44904133677482605,-0.15899063646793365,0.5530906915664673,-0.1423550546169281,0.34549880027770996,0.37484412020519237,-0.647872869962278,0.027666384530040607,0.6625609593301007
1681239681060810800,2.816810791015625,0.7300399541854858,-0.5223868489265442,-4.416088581085205,0.8574746251106262,0.4866202473640442,-0.1671467423439026,0.5553824305534363,-0.19772565364837646,0.3359242081642151,0.39194776194015296,-0.6451467595005688,0.01457010953453137,0.655705971482681
1681239681070786800,2.826786865234375,0.732906699180603,-0.47542837262153625,-4.298556327819824,0.8346900343894958,0.5221626162528992,-0.17503882944583893,0.5591850280761719,-0.25601887702941895,0.33344030380249023,0.4084975713343887,-0.6422435101428582,0.0019637065241822045,0.6485746513879557
1681239681080763000,2.836762939453125,0.7304039001464844,-0.4299783408641815,-4.177371978759766,0.8110910654067993,0.5556594729423523,-0.18268470466136932,0.5454152822494507,-0.30649876594543457,0.339072048664093,0.4244630634576584,-0.6391824829403026,-0.010168565318230708,0.6412280311640076
1681239681090738000,2.846738037109375,0.7268506288528442,-0.3704533874988556,-4.051474094390869,0.7868787050247192,0.5871185064315796,-0.19003580510616302,0.5090349316596985,-0.35388803482055664,0.3491697311401367,0.4398375612037883,-0.6360082881930588,-0.021807140427301842,0.6336882004518319
1681239681100713700,2.856713623046875,0.737845778465271,-0.2825906276702881,-3.9090662002563477,0.7623387575149536,0.6164737939834595,-0.19697590172290802,0.4559686779975891,-0.396167516708374,0.3600160479545593,0.45462428498181445,-0.6327986029010583,-0.0328325227937957,0.6259429848706285
1681239681110689800,2.866689697265625,0.7648425102233887,-0.18448789417743683,-3.755765676498413,0.7377779483795166,0.6436607241630554,-0.2034316211938858,0.4045254588127136,-0.42800837755203247,0.37227004766464233,0.4688318579852238,-0.6296233281116225,-0.04311214116939116,0.6179906455826847
1681239681120665900,2.876665771484375,0.8078057169914246,-0.07995428144931793,-3.5953471660614014,0.713437557220459,0.6686486005783081,-0.20956075191497803,0.36183398962020874,-0.44959354400634766,0.3851436376571655,0.48252381594390137,-0.626466098603045,-0.05253428483502604,0.6098778893989649
1681239681130642000,2.886641845703125,0.8633908033370972,0.0312521830201149,-3.433229923248291,0.6895372271537781,0.6914780139923096,-0.21539835631847382,0.3434217572212219,-0.4683488607406616,0.39327001571655273,0.49574117980107035,-0.623359149077971,-0.061026173467486323,0.6016143177682644
1681239681140617700,2.89661767578125,0.9214298725128174,0.12647376954555511,-3.263411283493042,0.6662594079971313,0.7121869921684265,-0.22110654413700104,0.34304845333099365,-0.4820844531059265,0.39861202239990234,0.5085196196532201,-0.6202801536774369,-0.06855113976924503,0.5932630593726465
1681239681150593800,2.90659375,0.9734172224998474,0.18145622313022614,-3.0825278759002686,0.6437680721282959,0.7308034300804138,-0.226911723613739,0.3612215518951416,-0.4987325668334961,0.409345805644989,0.5208285254960947,-0.6171677152242364,-0.07515416345377923,0.5849730226932165
1681239681160568800,2.91656884765625,0.9955901503562927,0.2198595404624939,-2.8890693187713623,0.6222078800201416,0.7474013566970825,-0.23291347920894623,0.3952482342720032,-0.522379994392395,0.41986408829689026,0.5325899374137675,-0.6139971046114999,-0.08093709195373772,0.5768923409374055
1681239681170545000,2.926544921875,0.9872879385948181,0.24882221221923828,-2.689634323120117,0.6017410159111023,0.7621086835861206,-0.23895245790481567,0.423909068107605,-0.5520103573799133,0.4312742054462433,0.5436966099305341,-0.6108420186525771,-0.08599884434907447,0.5690960472835507
1681239681180520700,2.936520751953125,0.9466686248779297,0.2781345546245575,-2.4738070964813232,0.582568883895874,0.7750296592712402,-0.24483183026313782,0.440471887588501,-0.5873618721961975,0.4413040280342102,0.5540388838484502,-0.6077925395908176,-0.09040083641647575,0.561655500940689
1681239681190497000,2.9464970703125,0.8858240842819214,0.31059935688972473,-2.2447476387023926,0.5649049282073975,0.7862774729728699,-0.2503001391887665,0.44176316261291504,-0.6239850521087646,0.4486643671989441,0.5635218465377637,-0.604964291652972,-0.0941707848091233,0.5546108559288038
1681239681200472800,2.956472900390625,0.8153006434440613,0.3532882332801819,-1.9980700016021729,0.5489938259124756,0.7959232330322266,-0.255170613527298,0.4343588948249817,-0.6532992720603943,0.4573343098163605,0.5720744810396866,-0.6024535699659197,-0.09728506906289669,0.5480110754578357
1681239681210448600,2.96644873046875,0.7397518754005432,0.3901413083076477,-1.7485402822494507,0.5350015759468079,0.8040569424629211,-0.25935640931129456,0.4299185276031494,-0.6733502149581909,0.46556371450424194,0.57968089267702,-0.6003147049388571,-0.09971986267392513,0.5418932352543462
1681239681220424000,2.976423828125,0.6619670391082764,0.42161375284194946,-1.4771937131881714,0.5230630040168762,0.810748279094696,-0.26285380125045776,0.430092453956604,-0.6908143162727356,0.47136518359184265,0.5863167842931803,-0.5985605830523325,-0.10148067717508655,0.5363389019751245
1681239681230399700,2.986399658203125,0.594161868095398,0.4537610411643982,-1.1960089206695557,0.5133605003356934,0.8160105347633362,-0.2656833231449127,0.43663644790649414,-0.7017833590507507,0.4754611551761627,0.5919746526963525,-0.5972014350650959,-0.10251238865437148,0.5314203203269326
1681239681240375800,2.996375732421875,0.5409116744995117,0.48466065526008606,-0.912868320941925,0.5060024261474609,0.8198676109313965,-0.2679153084754944,0.44451332092285156,-0.7045417428016663,0.4787155091762543,0.5966804324931869,-0.5962218409905858,-0.10277094475233962,0.5271907006946654
1681239681250351900,3.006351806640625,0.5033825039863586,0.5240137577056885,-0.6178954243659973,0.5010602474212646,0.8223240375518799,-0.2696695923805237,0.44992852210998535,-0.6992619633674622,0.4749460816383362,0.6005019144278954,-0.5955867422950624,-0.10218430628222851,0.5236718459991613
1681239681260328000,3.016327880859375,0.48716703057289124,0.5534470081329346,-0.30643391609191895,0.49871039390563965,0.8233041167259216,-0.2710317075252533,0.44971492886543274,-0.6925363540649414,0.4690297245979309,0.6034480014880296,-0.5952752093718039,-0.10065573941300042,0.5209283090754537
1681239681270303700,3.0263037109375,0.48976951837539673,0.5777034163475037,0.016015809029340744,0.49905094504356384,0.8227112293243408,-0.2722027003765106,0.45024409890174866,-0.6838868260383606,0.4638988971710205,0.6055483784669304,-0.5952067907250327,-0.09811993847334914,0.5190495920289822
1681239681280279800,3.03627978515625,0.49364176392555237,0.6057428121566772,0.34859535098075867,0.5021370649337769,0.820469856262207,-0.27329033613204956,0.4595786929130554,-0.6751604676246643,0.45612114667892456,0.6068261307573809,-0.5953315152475233,-0.09452627273693404,0.5180803006831326
1681239681290254800,3.0462548828125,0.4752126634120941,0.6332288980484009,0.6797987818717957,0.5080307722091675,0.8165537118911743,-0.27412521839141846,0.4712477922439575,-0.6623179316520691,0.44915878772735596,0.6072255293421293,-0.595702823811865,-0.08986397218291466,0.518015161933093
1681239681300230700,3.056230712890625,0.4236069917678833,0.6564987897872925,1.0155783891677856,0.5166947841644287,0.8109821081161499,-0.2744712233543396,0.4888746738433838,-0.6480793356895447,0.4531211256980896,0.6066495404893937,-0.5963825033174873,-0.08421574988114205,0.5188563526752827
1681239681310207000,3.06620703125,0.3204893171787262,0.6737883687019348,1.3436036109924316,0.528063178062439,0.8038070797920227,-0.27394041419029236,0.509503960609436,-0.63737952709198,0.46623164415359497,0.6049500633689555,-0.5974874291029558,-0.07770817269775261,0.520581935924004
1681239681320182800,3.076182861328125,0.18444517254829407,0.6914526224136353,1.677623987197876,0.5421468615531921,0.7950183153152466,-0.2720707952976227,0.5295389294624329,-0.6270038485527039,0.4861210584640503,0.601932324021181,-0.5991690044976566,-0.07043516180533325,0.5231756626440018
1681239681330158600,3.08615869140625,0.020225465297698975,0.7077452540397644,2.023512840270996,0.5587195754051208,0.784551739692688,-0.2689068019390106,0.5477409362792969,-0.615591287612915,0.508347749710083,0.5975767118401533,-0.6013657183349178,-0.06249691621886053,0.5266454104648279
1681239681340135000,3.096135009765625,-0.17751583456993103,0.7298271059989929,2.3688151836395264,0.5777498483657837,0.7722829580307007,-0.26416686177253723,0.5673002004623413,-0.6042226552963257,0.5212164521217346,0.5917344095921401,-0.6041582120813572,-0.0539390680038073,0.5309743838952321
1681239681350110700,3.10611083984375,-0.3986886143684387,0.736473023891449,2.6963393688201904,0.5990466475486755,0.7581364512443542,-0.2576277554035187,0.5821819305419922,-0.5891149640083313,0.5320113897323608,0.5842854988124686,-0.6075954690204163,-0.04487620441438756,0.5361195991184873
1681239681360085800,3.116085693359375,-0.6280719637870789,0.728404700756073,3.0148422718048096,0.6223011612892151,0.7420207262039185,-0.24929216504096985,0.5882396101951599,-0.5710460543632507,0.5391634106636047,0.5751766400961833,-0.6116352578002422,-0.03544332835069944,0.5420497788065961
1681239681370061800,3.126061767578125,-0.8309671878814697,0.7382166981697083,3.2983736991882324,0.6472210884094238,0.7237765789031982,-0.23927482962608337,0.5862841606140137,-0.5500705242156982,0.5381487011909485,0.5644357345101214,-0.6162011433779577,-0.025665841496348617,0.5486800208879631
1681239681380038000,3.136037841796875,-1.0120192766189575,0.7691200375556946,3.533832550048828,0.6733586192131042,0.7033782005310059,-0.22769977152347565,0.5684626698493958,-0.5219512581825256,0.5187612175941467,0.5522274146181607,-0.6212154379962845,-0.0155400762778415,0.5557829799648334
1681239681390014000,3.146013916015625,-1.1632200479507446,0.7926558256149292,3.715449571609497,0.7001643180847168,0.6809034943580627,-0.214803546667099,0.5344701409339905,-0.48693370819091797,0.4883172810077667,0.5387433746265256,-0.626555444531682,-0.00514791524496977,0.5631673375433301
1681239681399989800,3.15598974609375,-1.3019616603851318,0.8265306949615479,3.8579065799713135,0.7271360158920288,0.6564737558364868,-0.20078681409358978,0.4908052086830139,-0.44626879692077637,0.4496729373931885,0.5241448906242276,-0.632121303248678,0.005408130872615776,0.5706711115122057
1681239681409965800,3.1659658203125,-1.4357119798660278,0.8918596506118774,3.973257303237915,0.7539640069007874,0.6301392316818237,-0.185641348361969,0.43995988368988037,-0.400753915309906,0.4129056930541992,0.5085253862384744,-0.6379023733814352,0.016121131258318246,0.5781198278534826
1681239681419940600,3.175940673828125,-1.588430404663086,0.9606112837791443,4.049679279327393,0.7803075313568115,0.6020686626434326,-0.16921420395374298,0.3919641375541687,-0.3579280972480774,0.3719577193260193,0.4919269697360282,-0.6439484992556712,0.02689291558283258,0.5853331842470832
1681239681429917000,3.1859169921875,-1.7542909383773804,1.0209568738937378,4.103439807891846,0.8058207631111145,0.5724396109580994,-0.15154360234737396,0.36194950342178345,-0.3190065026283264,0.33223819732666016,0.47437498418864993,-0.6502445638497291,0.037552692693631526,0.592233073496287
1681239681439892700,3.195892822265625,-1.8933178186416626,1.0292507410049438,4.133771896362305,0.8302062749862671,0.5413711667060852,-0.13294610381126404,0.3579803705215454,-0.2862900495529175,0.2987328767776489,0.45593358163683023,-0.6566790241313899,0.04795421036473896,0.59883016757403
1681239681449868800,3.205868896484375,-1.8140047788619995,0.8942963480949402,4.135936260223389,0.8531302213668823,0.5089033842086792,-0.11482945829629898,0.37981027364730835,-0.258857786655426,0.2653268873691559,0.43703754178611187,-0.6627266855027658,0.058125831383354795,0.6053203464667362
1681239681459844900,3.215844970703125,-1.2691994905471802,0.5626689195632935,4.073436737060547,0.8741037249565125,0.47515586018562317,-0.10084300488233566,0.4337117075920105,-0.22025790810585022,0.20193250477313995,0.4191299403872649,-0.6669905261195306,0.06857212890201088,0.6121694590713793
1681239681469820700,3.225820556640625,-0.47276487946510315,0.4217711091041565,4.008674144744873,0.8930614590644836,0.4403114914894104,-0.09255717694759369,0.5152026414871216,-0.15762722492218018,0.08930706977844238,0.4035780777272016,-0.6687796008622607,0.08034462015760832,0.6191956273492556
1681239681479797000,3.235796875,0.3747914433479309,0.44857287406921387,3.860302209854126,0.9101337194442749,0.40478092432022095,-0.0883670523762703,0.5990519523620605,-0.03046765923500061,-0.052166394889354706,0.3909411596282643,-0.6685297568218407,0.09425730273313605,0.6255784316991333
1681239681489771800,3.245771728515625,0.9444035291671753,0.5391634106636047,3.569668769836426,0.9251589179039001,0.3696693480014801,-0.08617065101861954,0.6164516806602478,0.15962743759155273,-0.16822391748428345,0.3811394886096535,-0.6669480783537375,0.10997698019022663,0.6307280714847687
1681239681499747800,3.255747802734375,0.9508276581764221,0.6030347943305969,3.209007740020752,0.937680184841156,0.3371641933917999,-0.08412002772092819,0.5722837448120117,0.2912689745426178,-0.2190568447113037,0.3732709845059805,-0.6649762269781786,0.12548547129022994,0.6346091668168874
1681239681509724000,3.265723876953125,0.5802809000015259,0.5238786935806274,2.837923526763916,0.9478996992111206,0.30803725123405457,-0.08123554289340973,0.4997168779373169,0.29900312423706055,-0.19900739192962646,0.3658780998462892,-0.6633581269279339,0.13906194912568084,0.6377703193216361
1681239681519699700,3.27569970703125,-0.07359283417463303,0.39461657404899597,2.521810531616211,0.9561633467674255,0.2823581099510193,-0.07762564718723297,0.4311200976371765,0.22933009266853333,-0.13801157474517822,0.3578773291936242,-0.6624216287570643,0.14961538592746598,0.6408874528638862
1681239681529675800,3.28567578125,-0.8331080675125122,0.2803725302219391,2.249772787094116,0.962877094745636,0.25983598828315735,-0.07316392660140991,0.39570438861846924,0.15009132027626038,-0.05493360757827759,0.3484588931429397,-0.6624809718282415,0.1566429030313331,0.6443278482159791
1681239681539651800,3.29565185546875,-1.4477717876434326,0.21618634462356567,1.985107660293579,0.9683343172073364,0.24024523794651031,-0.06790085881948471,0.36392563581466675,0.13257268071174622,0.027388758957386017,0.33761693441212837,-0.6635797261940107,0.16034811729342865,0.6480471169506681
1681239681549628000,3.3056279296875,-1.8394794464111328,0.11334295570850372,1.7510101795196533,0.9727343916893005,0.22318299114704132,-0.06306443363428116,0.3160839080810547,0.1585308164358139,0.07270795851945877,0.3259025365829332,-0.6651710254581212,0.16129256190408958,0.6521654137660526
1681239681559602700,3.315602783203125,-1.9870386123657227,0.32600677013397217,1.5683561563491821,0.9764662384986877,0.20820435881614685,-0.05625561252236366,0.26228803396224976,0.19757255911827087,0.06515145301818848,0.31387758504005264,-0.6678032792504864,0.1609688576288594,0.6554454097628617
1681239681569579000,3.3255791015625,-1.8909786939620972,0.28229308128356934,1.3900959491729736,0.9796079993247986,0.1947416514158249,-0.049434635788202286,0.20406198501586914,0.24747326970100403,0.0105552077293396,0.3022539413337089,-0.6705878674794777,0.1599831082039431,0.6583007281167872
1681239681579554800,3.335554931640625,-1.8681766986846924,0.19199435412883759,1.3235453367233276,0.9822567701339722,0.18236692249774933,-0.04374994710087776,0.1653110384941101,0.3282684087753296,-0.07594001293182373,0.29136070604532954,-0.6730088829968138,0.1586948950223709,0.6610476288782124
1681239681589530600,3.345530517578125,-1.8293230533599854,0.21730706095695496,1.3072885274887085,0.984653890132904,0.1701292097568512,-0.03889479115605354,0.13314396142959595,0.32053235173225403,-0.14680469036102295,0.28060257274570194,-0.6751507879320581,0.15723872825373206,0.6638596235110974
1681239681599507000,3.3555068359375,-1.6902557611465454,0.3059871196746826,1.2677650451660156,0.9868522882461548,0.158157616853714,-0.03330005332827568,0.06907123327255249,0.3298489451408386,-0.17322766780853271,0.2702276755648721,-0.6774748121234297,0.15613408198841774,0.6660533797940515
1681239681609482800,3.365482666015625,-1.6254420280456543,0.2705386281013489,1.2874287366867065,0.9888726472854614,0.14612805843353271,-0.027882667258381844,-0.0176202654838562,0.3058067262172699,-0.21827208995819092,0.26015955370551475,-0.6796582805348825,0.15531673398586038,0.6680256935550524
1681239681619458800,3.375458740234375,-1.572556972503662,0.2603573799133301,1.3415391445159912,0.9907748103141785,0.13353830575942993,-0.023086359724402428,-0.08402121067047119,0.3228367865085602,-0.2212374210357666,0.25014577478063105,-0.6815407665230072,0.1547869608319025,0.6700525130848725
1681239681629433900,3.385433837890625,-1.522943377494812,0.32502174377441406,1.3625909090042114,0.9925528168678284,0.12043996900320053,-0.018246013671159744,-0.13186568021774292,0.3656744956970215,-0.17322129011154175,0.24010943125412806,-0.6833618521810945,0.15457545849423746,0.6719154612959748
1681239681639409700,3.39540966796875,-1.478162407875061,0.41651013493537903,1.3660780191421509,0.9941614270210266,0.10713394731283188,-0.012856213375926018,-0.2041834592819214,0.37229716777801514,-0.14122700691223145,0.23011616166576498,-0.6853162551963626,0.15463998146514943,0.6734052322424585
1681239681649386000,3.405385986328125,-1.412750244140625,0.50910484790802,1.3721445798873901,0.9955785870552063,0.09368317574262619,-0.006811369210481644,-0.2802314758300781,0.38023948669433594,-0.11028462648391724,0.22020321671371196,-0.6874396907083608,0.1549870542587475,0.6744746718114983
1681239681659361300,3.415361328125,-1.3435008525848389,0.6081459522247314,1.3908966779708862,0.9967950582504272,0.07999731600284576,-0.00005483029599417932,-0.334105908870697,0.38719624280929565,-0.08168655633926392,0.2103835274362673,-0.6897332151110884,0.15569417723654513,0.675104551339633
1681239681669337300,3.42533740234375,-1.2820714712142944,0.6969410181045532,1.4229116439819336,0.9977971315383911,0.06592464447021484,0.007419837638735771,-0.37276649475097656,0.39371582865715027,-0.06444191932678223,0.20060260621669337,-0.6921866270997168,0.15680431110140408,0.6753138337557112
1681239681679313400,3.4353134765625,-1.210060954093933,0.771377444267273,1.4568400382995605,0.9985572695732117,0.051413681358098984,0.015493606217205524,-0.39653706550598145,0.39232712984085083,-0.04979538917541504,0.19084862217837353,-0.6947542387403616,0.15831408951010995,0.6751518430471429
1681239681689289200,3.445289306640625,-1.1179898977279663,0.809760332107544,1.4790914058685303,0.9990461468696594,0.03651905432343483,0.023937717080116272,-0.4106215238571167,0.3815717101097107,-0.04276704788208008,0.18121953782922293,-0.6973454871893574,0.160243970372781,0.6746781107470946
1681239681699264300,3.45526416015625,-1.0141661167144775,0.7671798467636108,1.4650533199310303,0.9992510080337524,0.021500827744603157,0.032168906182050705,-0.41268807649612427,0.3656908869743347,-0.05147135630249977,0.17188499090585693,-0.6997723459298152,0.16249036214009607,0.6740704348652867
1681239681709240300,3.465240234375,-0.8831132650375366,0.6739882826805115,1.4180850982666016,0.9991960525512695,0.006748806219547987,0.03951570764183998,-0.3965502977371216,0.36190348863601685,-0.09563755989074707,0.16312491383875005,-0.7018145782985176,0.16496712498195973,0.673522313166134
1681239681719216400,3.47521630859375,-0.7908280491828918,0.5978953838348389,1.3592989444732666,0.9989203214645386,-0.007494896650314331,0.045843299478292465,-0.3701668977737427,0.38377660512924194,-0.17177414894104004,0.15499477486686036,-0.7034539696173222,0.1675534618828863,0.6730934510802712
1681239681729192200,3.485192138671875,-0.7318740487098694,0.5268645882606506,1.2878023386001587,0.9984570741653442,-0.021099533885717392,0.051363665610551834,-0.3453351855278015,0.4255337119102478,-0.22424578666687012,0.14739165330324827,-0.7048044251009912,0.17009572315923088,0.6727509330782887
1681239681739168500,3.49516845703125,-0.729447603225708,0.46024399995803833,1.2304316759109497,0.9978432059288025,-0.03407791256904602,0.05610194057226181,-0.33124786615371704,0.46613049507141113,-0.24601280689239502,0.14016834837117403,-0.7059097197099654,0.1724599612828697,0.6725338199354305
1681239681749144300,3.505144287109375,-0.7858985662460327,0.41169247031211853,1.194008231163025,0.9970970153808594,-0.0466596819460392,0.060168664902448654,-0.3140679597854614,0.4954511523246765,-0.24553239345550537,0.13302948689244515,-0.7068427105714948,0.17452138714091872,0.6724721059177424
1681239681759120100,3.5151201171875,-0.8513577580451965,0.40014952421188354,1.1651400327682495,0.9961996674537659,-0.05917498469352722,0.0639096349477768,-0.28767311573028564,0.5182508826255798,-0.2151700258255005,0.1257202508962308,-0.7077227862332034,0.17630449146853402,0.6724875712292148
1681239681769095400,3.525095458984375,-0.9108610153198242,0.41479477286338806,1.149688482284546,0.9951577186584473,-0.07145500183105469,0.06749162822961807,-0.2537027597427368,0.5372142195701599,-0.17466938495635986,0.11827934119337122,-0.7086240317253212,0.1777576881990685,0.6725058522457728
1681239681779071200,3.5350712890625,-0.9229099154472351,0.4146568477153778,1.139991044998169,0.9939764142036438,-0.08351802080869675,0.07095947116613388,-0.2017555832862854,0.5637273788452148,-0.14603270590305328,0.11078609388867972,-0.7095380142494118,0.17898475510923184,0.672492781232924
1681239681789047300,3.54504736328125,-0.9173124432563782,0.38412490487098694,1.1349924802780151,0.9926669597625732,-0.09548293054103851,0.07412969321012497,-0.13513833284378052,0.6001520752906799,-0.14969122409820557,0.10333303016413813,-0.7103618019609547,0.1801414913546594,0.6725008295963829
1681239681799023400,3.5550234375,-0.9231594204902649,0.32524481415748596,1.1170566082000732,0.9912537932395935,-0.10735633224248886,0.0767478495836258,-0.06171905994415283,0.6378281116485596,-0.18209457397460938,0.09596514696906053,-0.7110019671609865,0.18124604069030742,0.6726192326830706
1681239681808999400,3.56499951171875,-0.970488429069519,0.24142181873321533,1.0828335285186768,0.9897876381874084,-0.11898614466190338,0.07850272953510284,0.009861350059509277,0.6707134246826172,-0.23049557209014893,0.0886524057852741,-0.711396093856304,0.18211799346942315,0.6729705622129297
1681239681818975200,3.574975341796875,-1.0367159843444824,0.168914332985878,1.0387591123580933,0.9883061051368713,-0.13025708496570587,0.07927117496728897,0.05547124147415161,0.6927875876426697,-0.27899348735809326,0.08134060993221166,-0.7115407247228036,0.1826071825187246,0.6736082056643479
1681239681828951300,3.584951416015625,-1.136028528213501,0.12928378582000732,0.9894741177558899,0.9868147969245911,-0.14112259447574615,0.07925200462341309,0.08052217960357666,0.69553542137146,-0.3108956813812256,0.07394834658261809,-0.7115282318928761,0.18262961608661643,0.6744669130971191
1681239681838926300,3.59492626953125,-1.2789027690887451,0.11234422028064728,0.9158494472503662,0.9853280186653137,-0.15146085619926453,0.07866449654102325,0.09214073419570923,0.6908285021781921,-0.31091856956481934,0.06634598060195485,-0.7114838318439566,0.18199726840055924,0.675474551105144
1681239681848902100,3.604902099609375,-1.4118564128875732,0.10056053102016449,0.8204403519630432,0.9838879704475403,-0.1610557585954666,0.07762306928634644,0.10302597284317017,0.6953727602958679,-0.28418123722076416,0.05852615501008729,-0.7114823791096729,0.18056676809988784,0.6765819046357746
1681239681858878500,3.61487841796875,-1.5023000240325928,0.06455512344837189,0.7179815769195557,0.9825524091720581,-0.16973309218883514,0.07603465765714645,0.13216304779052734,0.7119846343994141,-0.25302135944366455,0.05066866527182193,-0.7114723067106848,0.17839418575536076,0.6778017782099164
1681239681868854300,3.624854248046875,-1.5126243829727173,0.03046916238963604,0.6065387725830078,0.9813708066940308,-0.1773555725812912,0.07386478781700134,0.1831645369529724,0.7267024517059326,-0.22248542308807373,0.043018116255945524,-0.7113956839710411,0.17563762428942692,0.679129493867014
1681239681878830300,3.634830322265625,-1.443173885345459,0.025459490716457367,0.4827321171760559,0.9803714156150818,-0.18375957012176514,0.07144524157047272,0.2357388138771057,0.7508066892623901,-0.21374881267547607,0.03588497838070332,-0.7113024056750362,0.17254421735085923,0.6804334467285096
1681239681888806400,3.644806396484375,-1.3083547353744507,0.029909366741776466,0.3394855260848999,0.9795851111412048,-0.18875467777252197,0.06917233765125275,0.27577078342437744,0.7758975625038147,-0.22250795364379883,0.029566842800535106,-0.7112770096609458,0.16932568024571856,0.6815714809739548
1681239681898782200,3.6547822265625,-1.1371318101882935,0.01946764439344406,0.19055701792240143,0.9790648818016052,-0.19217272102832794,0.06709528714418411,0.29550182819366455,0.7955204248428345,-0.23111200332641602,0.024292314255787158,-0.7113090471327489,0.16609360100982767,0.6825410878811315
1681239681908757200,3.66475732421875,-0.9298231601715088,0.020552029833197594,0.056988008320331573,0.9788197875022888,-0.19403408467769623,0.06528851389884949,0.3023233413696289,0.8096498847007751,-0.2501487731933594,0.020193356276991564,-0.7113901198319452,0.162998019452925,0.683335892688564
1681239681918733300,3.6747333984375,-0.7617130279541016,0.04678203538060188,-0.06183158978819847,0.9788084030151367,-0.19452159106731415,0.0639975517988205,0.30383020639419556,0.8106561899185181,-0.2778494358062744,0.017199665284298858,-0.7115915143709638,0.16011336990493386,0.683889979290282
1681239681928709400,3.68470947265625,-0.6592168211936951,0.03565699979662895,-0.19682076573371887,0.9790342450141907,-0.1936870962381363,0.06306478381156921,0.29399120807647705,0.7950512170791626,-0.28300511837005615,0.015093125621304639,-0.7119069896222787,0.15722858708887175,0.6842804618046372
1681239681938685400,3.694685546875,-0.5487076044082642,-0.011449525132775307,-0.31772589683532715,0.9795357584953308,-0.1914738416671753,0.06202610954642296,0.26809900999069214,0.7729405164718628,-0.27679359912872314,0.01384439777691437,-0.7121988369652326,0.15422669027994493,0.684686198351956
1681239681948661200,3.7046611328125,-0.43645504117012024,-0.05800803005695343,-0.40878716111183167,0.9802599549293518,-0.1881515234708786,0.06073940917849541,0.24077880382537842,0.73200523853302,-0.2825716733932495,0.013394885178832486,-0.7123895685333956,0.15123097228314533,0.6851648116519843
1681239681958637300,3.71463720703125,-0.3148505985736847,-0.12180058658123016,-0.5370727181434631,0.9812003970146179,-0.18369679152965546,0.05917193740606308,0.2028510570526123,0.6612663269042969,-0.2531874179840088,0.013762418975367771,-0.7124677988386117,0.1482417071673202,0.6857292707933755
1681239681968613400,3.72461328125,-0.1880214512348175,-0.19267162680625916,-0.7179242372512817,0.9824373722076416,-0.17762884497642517,0.05713837221264839,0.14501923322677612,0.5913556218147278,-0.19256019592285156,0.015153673361494504,-0.7123988279516551,0.1451106363170954,0.6864409349006968
1681239681978588400,3.73458837890625,-0.03712141141295433,-0.21569198369979858,-0.9513002634048462,0.984016478061676,-0.16941185295581818,0.05487482622265816,0.0678480863571167,0.5614100694656372,-0.15205812454223633,0.01780415579198531,-0.7122878004781714,0.1417162752579674,0.6872013039883152
1681239681988564200,3.744564208984375,0.07365453243255615,-0.1365085244178772,-1.2484426498413086,0.9859279990196228,-0.15850885212421417,0.05311385169625282,-0.0036892294883728027,0.581818163394928,-0.1439495086669922,0.021807855242031847,-0.7124318435059432,0.13783248813308105,0.6877263605581029
1681239681998540300,3.754540283203125,0.11140750348567963,-0.055959366261959076,-1.5993009805679321,0.9881453514099121,-0.14432480931282043,0.052339307963848114,-0.047059476375579834,0.6309123039245605,-0.1421220302581787,0.027148070388643926,-0.7130671690685846,0.13305963765184103,0.6878178857859297
1681239682008516400,3.764516357421875,0.040365755558013916,-0.08926064521074295,-1.9546929597854614,0.9905949234962463,-0.1266471892595291,0.05178939551115036,-0.024637341499328613,0.6720878481864929,-0.11741745471954346,0.03360911898872902,-0.7139844722961738,0.12696798929163736,0.6877322939773689
1681239682018492200,3.7744921875,-0.0873195007443428,-0.19405683875083923,-2.283538579940796,0.9931333065032959,-0.10559603571891785,0.050354715436697006,0.07330340147018433,0.678426206111908,-0.053360700607299805,0.040928518308675645,-0.7148058709431729,0.11928925110193783,0.6878571539660547
1681239682028468500,3.784468505859375,-0.28893139958381653,-0.2742771804332733,-2.598792552947998,0.9955343008041382,-0.0813940092921257,0.04781920462846756,0.1896159052848816,0.6449315547943115,0.02278316766023636,0.04882610073973082,-0.7154266638618622,0.10988307765562447,0.6882633872176415
1681239682038444300,3.7944443359375,-0.5617997050285339,-0.31898364424705505,-2.927314519882202,0.9975437521934509,-0.05403571575880051,0.04457353428006172,0.25993311405181885,0.5724835395812988,0.07397198677062988,0.05697195392327512,-0.715958262337139,0.09844050818958543,0.6888160161520479
1681239682048419300,3.80441943359375,-0.6937549114227295,-0.4148917496204376,-3.269622325897217,0.9989003539085388,-0.023287514224648476,0.04069272428750992,0.28221237659454346,0.48863476514816284,0.08421564102172852,0.06556771416179161,-0.716323627531765,0.08501072353142582,0.6894596088736561
1681239682058395400,3.8143955078125,-0.689231276512146,-0.47650665044784546,-3.571751356124878,0.9992886185646057,0.010985072702169418,0.03607974573969841,0.29337501525878906,0.3911449909210205,0.056113842874765396,0.07518157987253955,-0.716330485277344,0.07007501845705814,0.6901506729521327
1681239682068371200,3.82437109375,-0.551082968711853,-0.4086384177207947,-3.8037796020507812,0.9983512759208679,0.04783427342772484,0.03172500431537628,0.3311622142791748,0.3055744767189026,0.03169047459959984,0.08588865990502385,-0.7161690829148206,0.05444581746505943,0.6904784978769608
1681239682078347300,3.83434716796875,-0.2777422368526459,-0.2794623374938965,-3.993650436401367,0.9958309531211853,0.08662958443164825,0.02856457605957985,0.3924136161804199,0.27608704566955566,0.04484546184539795,0.09793591974527584,-0.7160810442429247,0.03886162741136369,0.6900190127090104
1681239682088323300,3.8443232421875,0.04013482481241226,-0.19165556132793427,-4.140166282653809,0.9915522933006287,0.12699958682060242,0.026365330442786217,0.45885658264160156,0.2667686343193054,0.029558060690760612,0.11156668422490133,-0.7159728614864569,0.023780811601065193,0.6887453623032589
1681239682098299400,3.85429931640625,0.28911668062210083,-0.14484357833862305,-4.264482021331787,0.9853926301002502,0.16853195428848267,0.024465864524245262,0.5243425965309143,0.23965585231781006,0.0017334260046482086,0.12662340521096963,-0.7156447563335782,0.009247423148236341,0.686828708803573
1681239682108275500,3.864275390625,0.49387073516845703,-0.10682521015405655,-4.37687873840332,0.9772367477416992,0.2109571248292923,0.022479349747300148,0.5868348479270935,0.19950424134731293,-0.008181929588317871,0.1428148165452997,-0.7149933364559696,-0.00491972642601717,0.6843713776087897
1681239682118250500,3.87425048828125,0.6782695651054382,-0.0688868835568428,-4.488864898681641,0.9669601917266846,0.25412145256996155,0.02025569975376129,0.6309249401092529,0.14623859524726868,0.005134940147399902,0.16001916945543784,-0.7139848927133579,-0.01879953972505322,0.6813706754187977
1681239682128226300,3.884226318359375,0.8335021734237671,-0.03422274813055992,-4.565804481506348,0.9544932246208191,0.2977091372013092,0.017658114433288574,0.6549274325370789,0.07443740963935852,0.027828333899378777,0.17807482573524683,-0.7125864097061305,-0.032398542751570183,0.6778349743651876
1681239682138202400,3.894202392578125,0.9573357105255127,-0.004273638129234314,-4.597051620483398,0.9398743510246277,0.34120801091194153,0.014602760784327984,0.6670286655426025,-0.0032564401626586914,0.05409228801727295,0.19671888678896485,-0.7107845517424273,-0.04568042846790074,0.6737954350956
1681239682148178400,3.904178466796875,1.068760633468628,0.044751428067684174,-4.590043067932129,0.9232384562492371,0.3840671479701996,0.011100406758487225,0.6627448201179504,-0.07379499077796936,0.0895160436630249,0.21570924971103053,-0.7086063618056923,-0.058542527917915664,0.6692677411641493
1681239682158154200,3.914154296875,1.178749442100525,0.1332772970199585,-4.561048984527588,0.9047343134880066,0.4259131848812103,0.007327955681830645,0.6392719745635986,-0.1362709105014801,0.12467575073242188,0.23492699796955083,-0.7061465682778718,-0.07085902939909318,0.6641877024333429
1681239682168130300,3.92413037109375,1.301318645477295,0.25156623125076294,-4.520023822784424,0.884502649307251,0.46652182936668396,0.0035147815942764282,0.6010014414787292,-0.190719336271286,0.14692163467407227,0.25434611689679343,-0.7035277095401962,-0.08249941031701984,0.6584455977556798
1681239682178106400,3.9341064453125,1.420627474784851,0.36258381605148315,-4.455015182495117,0.8627265095710754,0.5056705474853516,-0.0004082283703610301,0.5594841837882996,-0.2299290895462036,0.15533065795898438,0.2739312096458834,-0.70077147843203,-0.09335534711227425,0.6520473580606381
1681239682188082200,3.944082275390625,1.5081288814544678,0.44368597865104675,-4.388010025024414,0.8395884037017822,0.5432029962539673,-0.0046336231753230095,0.534297525882721,-0.2629755139350891,0.1678873896598816,0.29355424826394766,-0.697837289744482,-0.10347127827054427,0.6450911237468273
1681239682198057500,3.954057373046875,1.5876367092132568,0.5110957026481628,-4.305853843688965,0.8152759671211243,0.5789967775344849,-0.009366889484226704,0.5147563219070435,-0.29828083515167236,0.18028056621551514,0.3131099614871275,-0.6946742112188987,-0.11289063448349515,0.6376876699228802
1681239682208033300,3.964033203125,1.6486891508102417,0.575400173664093,-4.213049411773682,0.790007472038269,0.6129215955734253,-0.014660952612757683,0.4877481460571289,-0.34339046478271484,0.18050867319107056,0.33249683565957544,-0.6912868713973638,-0.12162230520658257,0.6299017061363961
1681239682218009300,3.97400927734375,1.6930887699127197,0.6394550800323486,-4.106472969055176,0.7640033960342407,0.6448881030082703,-0.02044147066771984,0.4518625736236572,-0.3937743306159973,0.17725598812103271,0.3516208627168593,-0.6877236638526776,-0.12967431147207056,0.6217582821374468
1681239682227985400,3.9839853515625,1.7410796880722046,0.6878371834754944,-3.992152690887451,0.7374899983406067,0.6748276352882385,-0.026763400062918663,0.4195230007171631,-0.4375839829444885,0.17504829168319702,0.3704146628629492,-0.6839855643221949,-0.13704761116598094,0.6133308563803638
1681239682237961200,3.993961181640625,1.7911443710327148,0.7175122499465942,-3.86856746673584,0.710676372051239,0.7027052640914917,-0.033830877393484116,0.39016902446746826,-0.4827955961227417,0.17720246315002441,0.3888653169057959,-0.6800197979387446,-0.1437276465130473,0.6047307486691851
1681239682247937500,4.0039375,1.8463290929794312,0.7470221519470215,-3.7296183109283447,0.6838173270225525,0.7284600734710693,-0.04171392321586609,0.3609977960586548,-0.5273339152336121,0.1771051287651062,0.40693154756054406,-0.6758244682261865,-0.14968074570702236,0.5960401136189989
1681239682257913300,4.013913330078125,1.890807867050171,0.7714465260505676,-3.5729787349700928,0.6571877598762512,0.752037525177002,-0.050435300916433334,0.3341757655143738,-0.5677419304847717,0.17560309171676636,0.424565880648631,-0.6714153262990212,-0.15486706961961816,0.5873341366390016
1681239682267888400,4.023888427734375,1.9252070188522339,0.7952908277511597,-3.4114506244659424,0.6310379505157471,0.7734341621398926,-0.059919100254774094,0.3123518228530884,-0.6042143702507019,0.174268439412117,0.4417021806627434,-0.6668342214106913,-0.15928770130333297,0.5786696301991427
1681239682277864200,4.0338642578125,1.952225923538208,0.7990296483039856,-3.2439675331115723,0.6055388450622559,0.7927179932594299,-0.07014898955821991,0.30003976821899414,-0.6351405382156372,0.1743970513343811,0.45831093936909845,-0.6620902163553067,-0.1629786799472713,0.5701101308707839
1681239682287840300,4.04384033203125,1.9605849981307983,0.782328724861145,-3.069990873336792,0.5808871984481812,0.8099325895309448,-0.08111085742712021,0.3019405007362366,-0.6607170701026917,0.17766845226287842,0.47431423793530014,-0.6571810449788749,-0.16600495639133633,0.5617662292842363
1681239682297816300,4.05381640625,1.9593613147735596,0.7544246315956116,-2.871397018432617,0.5573096871376038,0.825107991695404,-0.09275109320878983,0.31222766637802124,-0.6806073188781738,0.18740135431289673,0.4896271737572338,-0.6521213927781058,-0.16841063111177595,0.5537515928486547
1681239682307792400,4.06379248046875,1.942284107208252,0.7330579161643982,-2.6538965702056885,0.5351136326789856,0.8382434844970703,-0.10488767921924591,0.3227660655975342,-0.7008838057518005,0.20223872363567352,0.5041544422542933,-0.6469912391987991,-0.17017196510102253,0.5461430293737461
1681239682317768400,4.0737685546875,1.9063283205032349,0.7179386615753174,-2.4128599166870117,0.5145857334136963,0.849376380443573,-0.11730819195508957,0.3343827724456787,-0.7189138531684875,0.21630722284317017,0.5178255207015262,-0.641887039382438,-0.1712510764276529,0.5389905211297252
1681239682327744300,4.083744140625,1.8383476734161377,0.6897834539413452,-2.1580088138580322,0.49596840143203735,0.8585955500602722,-0.12972670793533325,0.35289329290390015,-0.733168363571167,0.23972731828689575,0.5305179237773677,-0.6369127007704484,-0.1716940777936588,0.5323665034450883
1681239682337719600,4.093719482421875,1.7359791994094849,0.6442995667457581,-1.8815422058105469,0.4794948697090149,0.8660008907318115,-0.14187026023864746,0.3769046664237976,-0.7466772198677063,0.27337050437927246,0.5420833262168228,-0.6321588180135781,-0.17158116971597792,0.5263846893017469
1681239682347695400,4.1036953125,1.6034966707229614,0.6078097820281982,-1.5928641557693481,0.4653373956680298,0.871737003326416,-0.15341292321681976,0.40444403886795044,-0.7564111948013306,0.3043528199195862,0.5524104993860783,-0.6277420747448743,-0.17097785251898318,0.521103612665179
1681239682357671200,4.113671142578125,1.4424505233764648,0.5956995487213135,-1.2833561897277832,0.45374712347984314,0.8759211897850037,-0.16393782198429108,0.42663928866386414,-0.7643184661865234,0.3369572162628174,0.5613982995976528,-0.6238422770848754,-0.16985848078766744,0.5165277064909289
1681239682367647500,4.1236474609375,1.2869094610214233,0.5748211145401001,-0.9643694758415222,0.44486987590789795,0.8786746263504028,-0.17326772212982178,0.44038406014442444,-0.7721072435379028,0.3632396459579468,0.5690243331802802,-0.6205446731353518,-0.16819763532494755,0.5126842565694002
1681239682377623300,4.133623291015625,1.1196773052215576,0.5707219839096069,-0.6220659613609314,0.438896119594574,0.8800517320632935,-0.18132556974887848,0.45241549611091614,-0.7760021686553955,0.3914695978164673,0.5752509742500226,-0.6178962919367973,-0.16595598656527716,0.5096557463343299
1681239682387599000,4.14359912109375,0.9568712115287781,0.6000984311103821,-0.2504463791847229,0.4361448287963867,0.8800466060638428,-0.1878710240125656,0.4680757522583008,-0.772426426410675,0.4187212586402893,0.5800256519840536,-0.6160361362849769,-0.16298456238579015,0.5074501679934512
1681239682397575400,4.153575439453125,0.8069407939910889,0.6122815608978271,0.1217477023601532,0.43675366044044495,0.8786437511444092,-0.19295363128185272,0.48416000604629517,-0.7607850432395935,0.4371248185634613,0.5833754725222426,-0.6149659386581464,-0.15918568113233852,0.5061123488539434
1681239682407551200,4.16355126953125,0.648504912853241,0.6118767857551575,0.4973341226577759,0.4407028555870056,0.8758513927459717,-0.19663523137569427,0.49446263909339905,-0.7526213526725769,0.4402723014354706,0.5852915466409346,-0.6146401556526407,-0.1545958034379677,0.5057187382926676
1681239682417526300,4.1735263671875,0.5111372470855713,0.6242218613624573,0.875999927520752,0.44804948568344116,0.87160724401474,-0.19887766242027283,0.5039616227149963,-0.743967592716217,0.43326789140701294,0.5857515125442438,-0.6150671480177172,-0.14917631684098506,0.5062943030929304
1681239682427502300,4.18350244140625,0.3814097046852112,0.6417669057846069,1.2606300115585327,0.45859700441360474,0.8658783435821533,-0.1998579204082489,0.5042325854301453,-0.7318605780601501,0.4136945903301239,0.5848705666548796,-0.6161562808454278,-0.14290724157559742,0.5077944483226859
1681239682437478400,4.193478515625,0.2810649871826172,0.6421825885772705,1.6424013376235962,0.4723932147026062,0.858463704586029,-0.19971103966236115,0.5049322247505188,-0.7197614312171936,0.38943880796432495,0.5826405960722459,-0.6178392874886136,-0.13571696675450395,0.5102796575861072
