,seconds_elapsed,rotationRateX,rotationRateY,rotationRateZ,gravityX,gravityY,gravityZ,accelerationX,accelerationY,accelerationZ,quaternionW,quaternionX,quaternionY,quaternionZ
0,6.92677,-1.6767693758010864,0.6588216423988342,0.2622325718402862,0.9889419078826904,-0.0991732329130172,0.1102667152881622,-0.2130019068717956,0.151571899652481,-0.1445989608764648,0.6519663477639482,-0.0837577913878202,0.7403499102730705,0.1407359901219707
1,6.93677,-2.1564151864000416,0.6116476195668744,0.2765847746536814,0.9879630972893191,-0.10396956299841023,0.11453841962984017,-0.19060315129305355,0.1622719675493596,-0.12798040914673162,0.6486236604381314,-0.08940019373985629,0.7411319417548634,0.1483833807943145
2,6.94677,-2.585770364953182,0.5749468503332834,0.31699179169536934,0.9869485432359326,-0.10969713075498656,0.11789449519378971,-0.1740134896415558,0.19800458891695194,-0.11568985656625562,0.6450793920232266,-0.09641983099196205,0.741383974862291,0.15787617548895935
3,6.95677,-3.033010529495077,0.523005785758115,0.3912766766618146,0.9858850279250656,-0.11657065015128915,0.12017416564770245,-0.1550981398063233,0.23780873174867107,-0.10965533423424657,0.6413277933269391,-0.10456719815454404,0.7410483010011528,0.16914834597425293
4,6.96677,-3.468871287218015,0.45602902790426436,0.4799277702070713,0.9847529906801317,-0.12486533054743507,0.1211213282602934,-0.13102248217559395,0.271212282986086,-0.11089760138958386,0.6373295306869089,-0.11376570611431609,0.7400121452477281,0.1823468676335938
5,6.97677,-3.794331273967956,0.34555586209358924,0.5714127426674739,0.9835630510875141,-0.13453573228683566,0.12043250917348311,-0.10468681588530308,0.30622997558506304,-0.12149394496799197,0.6331453886673014,-0.12373578747439501,0.7381771516560189,0.19725699661095678
6,6.98677,-4.0029162652251955,0.19570826056192425,0.6632094204205558,0.9823493228970794,-0.14539748151952178,0.11768241215982173,-0.07758010618819854,0.344221082871066,-0.14086574654225492,0.6289574923177288,-0.13402752564030376,0.7354436467800487,0.21347173431808136
7,6.99677,-4.0080857888777635,0.08654273092774468,0.7692762558928077,0.9810593434695007,-0.15729313892271762,0.11304974808802168,-0.050890685332766555,0.4006524714928958,-0.1779117792911705,0.6247984994391851,-0.1440814876763752,0.7319595216391991,0.23043436574651607
8,7.00677,-3.8648109613543524,0.07759022487469187,0.885923888712553,0.9795777689477326,-0.16994426049211683,0.10744539333091169,-0.02272292006433234,0.49847665847916023,-0.24112858701010784,0.6205383195609593,-0.15336952331157938,0.7281481587354773,0.24740022285274058
9,7.01677,-3.71269308282438,0.09210325532363638,1.0018791816971022,0.9777767573878042,-0.18333344451020486,0.101680277938651,0.0036748964348918747,0.5928245975206875,-0.28264211271559525,0.6159790742652336,-0.1617014344646845,0.7243562535785695,0.264057541831737
10,7.02677,-3.6078350371472854,0.0473571714547281,1.0953328419382846,0.9756870144508052,-0.19727791594689717,0.0954609321504031,0.03057479830077439,0.6620676299809948,-0.27682720649925857,0.6112364232741787,-0.16920640921853283,0.7204851171811484,0.2804562385136612
11,7.03677,-3.4961967658065403,-0.020245004255186952,1.1707939426731062,0.9733432916482084,-0.21164923635861113,0.088334211873927,0.06540927047710246,0.7131040644793304,-0.24859371722682602,0.6064685634290683,-0.17596523101093445,0.7163815453950207,0.29668914628312376
12,7.04677,-3.264934209794473,-0.08537582373945657,1.2585544088696567,0.9707139485804591,-0.2263721594676115,0.08040459768266874,0.10360513036515231,0.7468368359927446,-0.21045239495901938,0.6017602044198805,-0.18177546789374033,0.7121511815752406,0.3125348575170353
13,7.05677,-2.8837765425973454,-0.14470469314470938,1.3262621660189138,0.967768736250326,-0.24129305649243782,0.07207970437993742,0.14394582849912507,0.77175175597766,-0.18113764567582638,0.5972569157615775,-0.1862300405135902,0.7080662278917063,0.3274756888664601
14,7.06677,-2.357525214771506,-0.1957809200433399,1.337475062426057,0.9645599969862746,-0.25600084426796305,0.06389008097775234,0.1849609727071918,0.797101114979372,-0.17511338641420054,0.593165150950099,-0.18903703840897051,0.7044216129142284,0.34089141126666134
15,7.07677,-1.8094456543508295,-0.17258485827994047,1.3021362944109993,0.9611939001321426,-0.26999778820969317,0.05658760712339468,0.21630301647446729,0.8368895562021893,-0.19315336902781666,0.5895678729141568,-0.19020770980849877,0.7015088927931674,0.35229737000711
16,7.08677,-1.3669492614580134,-0.09450377533871188,1.2259565680637572,0.9577666095112953,-0.2829928919832616,0.050928752394748575,0.2240590758145247,0.8785038207458999,-0.23382174423567487,0.5862769596352821,-0.19017972911557693,0.699496954973478,0.3616810156789929
17,7.09677,-1.046417243682623,-0.03507956315617295,1.108296175342108,0.9544249787635084,-0.2947426251861633,0.04686470724772829,0.2091977824224704,0.892808662147157,-0.26800440517817814,0.5832221932669155,-0.18949588530455902,0.69822891367774,0.36934842365301196
18,7.10677,-0.7871278037932499,-0.012161514787656452,0.954459947255738,0.9513509141241223,-0.304961957101179,0.04390045426714096,0.18028859533832278,0.8771256223048619,-0.26468980689457344,0.5805226247618777,-0.1885249924771876,0.6974299303115569,0.37555622009021006
19,7.11677,-0.5267344112045119,0.015730108334140052,0.7950131130999808,0.9486522810346115,-0.313535541415124,0.04186457095787197,0.17364849226137663,0.8614776434266693,-0.2432025228864556,0.5782535846650715,-0.1873919625852887,0.697005369317736,0.3803814729052285
20,7.12677,-0.24683544226252946,0.07791911671610731,0.6189570113082924,0.9463924748643977,-0.3203963342402497,0.04107006835497557,0.1873174575277076,0.8718750706773202,-0.22559431382139555,0.5763793777283761,-0.18613782062539516,0.6970564326095141,0.3837339281630221
21,7.13677,0.05126880181651228,0.14148271350356223,0.4250020342211352,0.9446652227143326,-0.325362289001644,0.04179277551506151,0.20481359527135673,0.8944262697400165,-0.22136608163898866,0.5749019727369191,-0.18481797340554212,0.6976665218545777,0.38547558735848614
22,7.14677,0.3672296626927801,0.214163078354898,0.2270458472551235,0.9435287510469119,-0.32833705152651543,0.04413222941803597,0.21570022666148916,0.9140316391683229,-0.23549154230094393,0.5738563659426447,-0.18342182402442275,0.6988721807752224,0.38551608389584524
23,7.15677,0.688859660723478,0.28481770571200077,0.028735924237394225,0.9430010520898161,-0.32927336181866845,0.048235718466001776,0.23084434961294178,0.9204750565293688,-0.2558709052449044,0.5732246725132049,-0.18194292004289675,0.7007241145818067,0.38379043647606603
24,7.16677,1.0077011503551077,0.309187644812563,-0.18524046116167497,0.9431145724524368,-0.32807759790979546,0.05382970703938394,0.25838628538927877,0.9201166548500207,-0.2668517032050055,0.573098454238028,-0.18037185125242963,0.7031218675501045,0.38031850030380443
25,7.17677,1.3821091689698897,0.29789374686079906,-0.41987259340365635,0.9439374951706145,-0.3245131470689783,0.06056986016076506,0.296912522996258,0.9277339263825731,-0.27372935852796015,0.573666175650265,-0.17862573858400013,0.705958186430647,0.3749926940439398
26,7.18677,1.955789057852703,0.26590099875612055,-0.5647002691370225,0.9453803098545135,-0.31866287869508664,0.068580315751176,0.35266302407924077,0.9386895484978695,-0.2687266480613742,0.5750744527474092,-0.17617294204451914,0.709402333337687,0.3674158375138447
27,7.19677,2.473060881876059,0.2737907987602721,-0.6207971295397781,0.9470744946398953,-0.311360065500761,0.07807256289574226,0.41717108683471543,0.9496898595640829,-0.2701403355887264,0.577167555039214,-0.17236348258292608,0.7136698314907527,0.3575393571409434
28,7.20677,2.812879099394615,0.344384859180241,-0.6390168976266729,0.9487656130538877,-0.3031329297928679,0.0891182640131581,0.4712635911055122,0.9560696965678765,-0.28113048505375743,0.5794308153358337,-0.1675210257845606,0.718674356744575,0.34596505905322283
29,7.21677,2.8877640866978806,0.21633467567721162,-0.8604342795335091,0.9506548760520293,-0.2934680462941378,0.10058620154366799,0.4526080111816953,0.9140097168272456,-0.3040118013454734,0.5819581304730823,-0.1622937916044417,0.7238454199831663,0.33319835542465776
30,7.22677,2.524571300735506,-0.17923940599088295,-1.441541923345259,0.9539031901388031,-0.2797495623677207,0.10856298872870335,0.35858744394673864,0.7913883606713993,-0.32754031507975057,0.5859290899056929,-0.15853941410026928,0.7274245956798369,0.3199897550839251
31,7.23677,2.2163092755278284,-0.35697710032166574,-1.9953800178272645,0.9589313513118002,-0.2604863417810989,0.11208737211098935,0.215766700488615,0.7420630279134318,-0.3370703354965007,0.5915914805051519,-0.1574983518320805,0.7288606859146973,0.30653142736852673
32,7.24677,2.3377896500450586,-0.2560184320080017,-2.265513523055685,0.9646385856065902,-0.23724951250403467,0.1146365913476696,0.053948876675949935,0.8288956804977061,-0.26252995184238065,0.5977479832466458,-0.15815398062841893,0.7295927026930962,0.2921660921243251
33,7.25677,2.6505575605041263,-0.24850362653515287,-2.445532511513722,0.9702243998883773,-0.2114597745552251,0.11789053541425686,-0.0516936580073233,0.9070406662924773,-0.19914180088892502,0.6039624286702332,-0.15896406601480345,0.7305310726051436,0.27615414342163386
34,7.26677,3.138339934761915,-0.4320686151910024,-2.527456508408872,0.9755654652266533,-0.18372337075242212,0.12024928223552296,-0.0807130909172622,0.8584823116445864,-0.08589237231225524,0.6108307073148365,-0.15890416936806306,0.7313507329839233,0.2583236775213755
35,7.27677,3.663555647564044,-0.5935353340066843,-2.6311525971311553,0.9805481787962769,-0.15438833894171639,0.12091832283761933,-0.024615459399309453,0.706918490721865,0.010321923012885266,0.618639490872576,-0.15717528812953077,0.7319526557482244,0.2383047890858208
36,7.28677,3.755751411960284,-0.7222738381665695,-2.8332578726697735,0.9851367684831552,-0.12297406297999965,0.11960626394703151,0.0932997919042689,0.5081313891852092,-0.0552277478572997,0.6270877327306136,-0.1548022729783348,0.7320103064317925,0.21660776681188595
37,7.29677,3.569376432889942,-0.8885423221220481,-2.892568743872016,0.9891507018619533,-0.09022537534514408,0.11558153994944825,0.15891564134581496,0.3945185001606766,-0.07906465354548206,0.6358054166279313,-0.15295169186661464,0.7310239590262828,0.19473491279091523
38,7.30677,3.5633461816988303,-1.1190506819410975,-2.8910765972838153,0.9924105057364024,-0.057592133248130846,0.10823917765803769,0.16904909097013512,0.3550821095416343,0.059306408863300235,0.6448358706653343,-0.15121420197294172,0.7288709110091751,0.1732787868674183
39,7.31677,3.613461851349561,-1.321589449160051,-2.977699946010488,0.9948780812295488,-0.02469502306119221,0.0975150547937015,0.23066845905208397,0.2625339334467872,0.10157483558838042,0.6543840203640647,-0.14923117020143353,0.7255934797975937,0.15159087975678387
40,7.32677,3.6266941341381664,-1.4900588693062862,-3.025633859697413,0.9963941471155375,0.008590869921888768,0.08377098669976729,0.30570319179326,0.16034104430319307,0.06141343446815333,0.6642809516978854,-0.14721068050983172,0.721257193761164,0.12961107125453508
41,7.33677,3.614165009547175,-1.680985002451524,-3.0405803180056568,0.9968251035728748,0.0416487830690281,0.06699976381278208,0.35029021723703535,0.17009728407122252,0.06722205232024382,0.6744506323793626,-0.14506210289063684,0.7158583576228202,0.10756296941300042
42,7.34677,3.391244349171831,-1.8664035406395556,-3.050638730172036,0.9960662307033722,0.07417755423200434,0.047171691550678914,0.4002473813904222,0.16527374070317608,0.08312769511610739,0.6848297714317497,-0.1431447612939731,0.709288710678678,0.08589888853973045
43,7.35677,2.943689986006219,-2.020507450426542,-3.043172883378514,0.9939942639575736,0.10598601652580654,0.024727591495426426,0.4383419531531565,0.07227194953080097,0.09813051520859437,0.695207219634711,-0.14229542916186025,0.7015050336925923,0.06545701127965939
44,7.36677,2.4063334448780247,-2.1318994541550516,-3.040496926944729,0.9905197723465972,0.1368870355890161,0.0005706292759933515,0.437210310670686,-0.03842957879471731,0.16708142407218604,0.7053284366560114,-0.14305501988752156,0.6926849358542492,0.046840148795776776
45,7.37677,1.8850195576094446,-2.1839092682300754,-3.034538030962805,0.9856319083978905,0.1667812771182713,-0.02412096015689512,0.4264294265543141,-0.1332754619936284,0.24378412811458683,0.7149274521081058,-0.14551678049819622,0.6831942308114013,0.030201269400626344
46,7.38677,1.4304214665781294,-2.1885770124840866,-3.0033975017177545,0.9793426721221252,0.1959347563912871,-0.04865166983787779,0.4098422943830988,-0.1980643935263594,0.29641323097744926,0.7239253880322858,-0.14959261756898054,0.673264015473107,0.015325425941122038
47,7.39677,1.0997636552784729,-2.174378620266362,-2.986233737672999,0.9717074895190996,0.2244561008024367,-0.07261721778809818,0.3824930633349933,-0.22334774163942367,0.3294477981321525,0.7323148231469466,-0.15493138905351175,0.6630792846830347,0.0018444527612300832
48,7.40677,0.8231470672433056,-2.144854540869703,-2.9983454180765086,0.9627241915284099,0.2526504268683877,-0.09591826413536832,0.35822374741026286,-0.22498665216560745,0.32890168753034377,0.7401538879239279,-0.16128577928822233,0.6526964956988147,-0.010656459660963707
49,7.41677,0.5653481713369912,-2.0560164656848476,-3.0155020227962486,0.9524537909376335,0.2807120620195543,-0.11790926296508379,0.3276958681094043,-0.2177902011149936,0.30048059863652443,0.7472881900584901,-0.16863143528687086,0.6423335027150605,-0.02233383977199272
50,7.42677,0.37622456321406955,-1.962708482653737,-3.0912796993929184,0.9408661134574655,0.3090312457461582,-0.13834317191339088,0.2999329847000829,-0.20504326498331635,0.26356646719767274,0.7536779227025575,-0.17687815123855513,0.6320795325334383,-0.033559598198565084
51,7.43677,0.20141172792477752,-1.8545454154847718,-3.1526204894995145,0.9279293020873454,0.33781963067647436,-0.1571364504656914,0.2773802114223959,-0.1894247853697304,0.2272192736178646,0.7593217197171773,-0.1859658957072359,0.6219560035687242,-0.04454946213097881
52,7.44677,0.051445347199858125,-1.7175764022721742,-3.227108603500508,0.9137179142894418,0.36699810303850555,-0.17405311645112878,0.2591590531472198,-0.18564008014754055,0.21730099622155874,0.7641623697752262,-0.1957689357264773,0.6120680567515319,-0.055395980694009486
53,7.45677,-0.05777636533280712,-1.617604313111803,-3.348231616550591,0.8981271966392753,0.39680617353980374,-0.1891234685193481,0.26032088903576617,-0.1725727220982091,0.22592608476874845,0.768213737534433,-0.20628962588976846,0.6023792943449178,-0.06629669930343442
54,7.46677,-0.08546416012825668,-1.4931917629883227,-3.43296956625578,0.8810624752355195,0.42718174810314785,-0.2027283051198941,0.27673715719707215,-0.1447960655214625,0.22774831430081482,0.7715844363734539,-0.21728518732143964,0.5927907996935043,-0.07750625573946951
55,7.47677,-0.15299659656313336,-1.314912837894938,-3.430077235100174,0.8629287071039217,0.45739552127743727,-0.2144778050163623,0.3037848305458899,-0.09962177059539119,0.22471902284855985,0.774160490702301,-0.22842162523221432,0.5835776733769308,-0.08888462748573145
56,7.48677,-0.27327047788764486,-1.1745713463839291,-3.404678936196256,0.8440613681630381,0.48703301765842694,-0.22409410071452887,0.3314430381298837,-0.06828500167216162,0.22783437465011397,0.7758988077149969,-0.23971597091062502,0.5748624976448218,-0.10007566835808057
57,7.49677,-0.4269609427205276,-1.0854157614965256,-3.3916782597058077,0.8244329787720215,0.5161893083970281,-0.2317708789040256,0.3567590192066012,-0.09134404764136167,0.26780016398799167,0.7769016297556166,-0.25136232281286913,0.5664876086682605,-0.11089335678010039
58,7.50677,-0.5749348044134068,-0.9798151273743244,-3.355305310899307,0.8040838348910723,0.5448775240370857,-0.23752772768701264,0.38788697059697097,-0.163342350627158,0.3139300908066431,0.777204651569807,-0.26341999757829637,0.5584107777676939,-0.12126667044008581
59,7.51677,-0.6271222098524687,-0.8497528211670378,-3.2844145228587887,0.783315557877003,0.5727272215629036,-0.24138753679404276,0.42096148523067545,-0.24138234611375675,0.3513623791718772,0.7768231547211899,-0.2755862334237994,0.5507598624492288,-0.1312571101735607
60,7.52677,-0.5608183673898911,-0.7057749522645216,-3.200960831285428,0.7624112011376771,0.5992656058638843,-0.24389701994745,0.445830492411165,-0.3081594663906964,0.3771126229335412,0.7759021175131365,-0.28732584093003133,0.5435770684908992,-0.141112516903281
61,7.53677,-0.3984346182359607,-0.5234183527728918,-3.104730775542134,0.7416018571902302,0.6241784361784585,-0.24558941173245968,0.4591018467112722,-0.36774461847818346,0.3813004640507011,0.774558218611105,-0.29817240750319196,0.5369197105292737,-0.15113375731668716
62,7.54677,-0.19207668002330522,-0.3281586637201817,-2.9938728927801583,0.7211485168438609,0.6472363344209037,-0.24683467032786166,0.46636796747084386,-0.41462437098389704,0.37935357464211117,0.7728636471703885,-0.30779806163192364,0.5308773786370224,-0.16150852749316508
63,7.55677,-0.0073549784623972506,-0.15879917225525736,-2.872505773433031,0.7012410211281291,0.6683574164649487,-0.24792707731630306,0.4741953605735807,-0.45490385512056825,0.3830879739785906,0.7709041672924302,-0.31612382689857765,0.5254452306316809,-0.1722081166297959
64,7.56677,0.12993839046408487,-0.04190245596988325,-2.737005915714715,0.6819674034570964,0.6876127862959479,-0.24905333657317927,0.4959669955256811,-0.4952886097394614,0.40997152761917094,0.7687746699500073,-0.3233027008908774,0.5205201148340158,-0.18302311180266456
65,7.57677,0.2174361924964592,0.05074750316721303,-2.5854312108655266,0.6634270178903491,0.7051009273865165,-0.25025145979639285,0.5285549216534435,-0.5374010168284745,0.4504618129570804,0.766542190707527,-0.32952811284210254,0.5160228620527889,-0.19371274283487633
66,7.58677,0.2737892019953481,0.14214139988443641,-2.4219209733306615,0.645798707545462,0.7208913480756749,-0.25139281674945657,0.5552673594725408,-0.5753590327061777,0.49032545486227186,0.76421591286506,-0.3349266337599756,0.5119797322523556,-0.204100744134637
67,7.59677,0.3105349714881408,0.23626283342574358,-2.244721430522052,0.629275704806704,0.7350497834539282,-0.2523147138392054,0.567263213585526,-0.6026560908120426,0.5202894920246364,0.7617845852310003,-0.33957118104682465,0.5084592468468973,-0.21407776221098773
68,7.60677,0.36266266653946183,0.31391472535956916,-2.0403503425068474,0.6140733639946315,0.7475387708828969,-0.2530992387013955,0.5680384945550286,-0.6205479105628887,0.54142323273329,0.7593169555824633,-0.3434307108007524,0.5054736823898036,-0.22355378823284325
69,7.61677,0.45979425925719314,0.36569556681893567,-1.8054152950895423,0.6004444802211466,0.758198601797182,-0.2541081426530556,0.5716821545430888,-0.629448955187127,0.5556619916267733,0.7569688147205463,-0.34634795303323684,0.502979014626411,-0.2324702315361846
70,7.62677,0.6080868041123799,0.3809923937034694,-1.5638080408336203,0.5885423261868052,0.7668752698228254,-0.25592624527213903,0.580887140985114,-0.6309364208858405,0.5549110025007306,0.7549547038394214,-0.3481320267978505,0.5008396737935326,-0.24082746215123516
71,7.63677,0.758826969956683,0.37316079579093575,-1.3146518746963145,0.5784163610047515,0.7735131022806566,-0.2590304324004475,0.5900129785726065,-0.6143626787789581,0.5390635628471763,0.7534504122803539,-0.34867759836109063,0.49890710888125966,-0.24863717693930246
72,7.64677,0.7910102666816266,0.4005204713707499,-1.035792027479848,0.5702810011360253,0.7782306602983723,-0.2629220759487604,0.5909436044717851,-0.5876976621933137,0.5147979652572083,0.7523795682077346,-0.34816981083133397,0.49730918041836736,-0.25569651770410495
73,7.65677,0.6790858174793375,0.4165736380469828,-0.7310086014119136,0.5644786189949244,0.7812836991298031,-0.2663761371960652,0.5800789963314831,-0.5812704514374261,0.5121284011447527,0.7515064055830041,-0.34704306465249957,0.4963595355432999,-0.26157825788891365
74,7.66677,0.4719104013886864,0.3689404210606779,-0.4250449169408627,0.5610254769940719,0.7829848687303523,-0.2686716758518683,0.5628560034215974,-0.6166600642694744,0.5344374940594958,0.7507635153480156,-0.34577528235991295,0.4960881331080246,-0.26587370220242396
75,7.67677,0.20948777484879938,0.2911642122477557,-0.10109444422106106,0.5598532588143139,0.7835349729598389,-0.269512513478704,0.5530844053580403,-0.6889701087897505,0.5619469395706553,0.7501887322001106,-0.3447014469914606,0.4964115534826045,-0.26827779113746886
76,7.68677,-0.06499563973791957,0.2925033188178944,0.26798394481925064,0.5612746897097826,0.7828840632349039,-0.2684384942090924,0.5435371890777443,-0.7565502221155114,0.5915387178305208,0.7497055531427794,-0.3438554172408077,0.49753740790457823,-0.2686271130282832
77,7.69677,-0.2087472655092182,0.36273745336437796,0.665657285158548,0.5658643987426144,0.780603021481282,-0.26541326385340125,0.5180114569116918,-0.7932597912084616,0.6325060223355607,0.7492634095977356,-0.34279060631692343,0.4997861045409041,-0.2670388324057771
78,7.70677,-0.2574714050034848,0.3991592628193967,1.0615096503903838,0.573712928334116,0.7762221306419019,-0.26135881492493285,0.4867987349237191,-0.8038425313978556,0.634313601663111,0.7490459268778683,-0.340956140445897,0.50305698260183,-0.2638307508017101
79,7.71677,-0.3653092252671721,0.3948866711699785,1.505503566319856,0.5846881657180378,0.769567107870087,-0.2566391146459577,0.4696632020947608,-0.7858631731251835,0.5770483221018046,0.749182775657239,-0.3383390555644685,0.507151146251473,-0.25891799247833214
80,7.72677,-0.5412833830057088,0.3902375839542615,1.952873605989358,0.5989291685864262,0.760433904541075,-0.2509100767213175,0.46622852311972907,-0.7650464296583667,0.5368856643457068,0.749643817822927,-0.3350946711112751,0.5121032367317595,-0.25194758399105166
81,7.73677,-0.8977896916315643,0.4027611711684224,2.4168134734623496,0.6164056483426834,0.7488770110874796,-0.24315230076126507,0.4597625566510886,-0.7736413830601131,0.5112863966192248,0.7501399159957416,-0.3316276220886327,0.5181099655246925,-0.24258149700631032
82,7.74677,-1.3924202795016094,0.4155456231782384,2.9232512200826846,0.637176361742725,0.7348277481523801,-0.23212065628094086,0.4254142769641808,-0.8100086963744447,0.4900275244296697,0.7503364021857072,-0.32845591115112494,0.5253993920723391,-0.2302638876348429
83,7.75677,-1.9090890356529622,0.43623068856584074,3.4542671449288154,0.6612929349468187,0.7177917166546471,-0.21736868068650897,0.369847900101827,-0.876163624519415,0.5075874239306979,0.7500510406659693,-0.3257299968968708,0.5340414177768217,-0.2146065663331428
84,7.76677,-2.3550383396176224,0.490014679791635,3.942387813324358,0.6884538641304105,0.6972093265567336,-0.19911538915165786,0.3192266081376139,-0.9703292339802292,0.5407914441005474,0.7491267856631926,-0.32329153983214054,0.543972311836953,-0.19569607978952577
85,7.77677,-2.6532398907466037,0.5538485869438752,4.3366617348324565,0.717836880234927,0.6727655550920885,-0.17820121564214142,0.274283751056102,-1.028380685959538,0.56307158698992,0.7474647358180935,-0.32082897159254214,0.5549291055958387,-0.17410366370078525
86,7.78677,-2.7516149959786866,0.597216869004366,4.640025009458126,0.7483942400890721,0.6443330892135778,-0.15606481640525205,0.2453341924727877,-0.9868263797075465,0.5619687792841218,0.7451472675636818,-0.3178916626560394,0.5664704576468638,-0.15064142156408272
87,7.79677,-2.660001934140286,0.602393723522231,4.883867046741676,0.7792095166063493,0.6118477395988043,-0.1343783142415435,0.2581015051689055,-0.8560415490548974,0.5505302342096086,0.7424206471651259,-0.31392999658043025,0.5781294326371735,-0.12609493512489717
88,7.80677,-2.4548489734102033,0.5712717240860643,5.088373086274991,0.8095682793035013,0.5753755960308807,-0.11444864862622955,0.3215210322850392,-0.6708963172064437,0.5330106821946943,0.7395344978252283,-0.3085184090334828,0.5895465733830841,-0.10104287345615254
89,7.81677,-2.217430203128026,0.5232678582701229,5.258136925579109,0.8388942278844977,0.5351614154009796,-0.09691531882077718,0.41753304128449825,-0.478671629763731,0.5104919444086018,0.7366165629853579,-0.30149583127932245,0.6005111143289974,-0.0758237457558251
90,7.82677,-1.9997350480262295,0.4615400630734247,5.388529206788883,0.8666826793121865,0.49160289045040895,-0.08186840872768725,0.5217846722757118,-0.31852801546354464,0.48653818515865144,0.7336684833118837,-0.29295023062662023,0.6109130512229286,-0.050594981229783315
91,7.83677,-1.8011343983598984,0.40407953169487015,5.499307057105879,0.8925168878370117,0.4451123705128984,-0.06915900915356467,0.6189125193217341,-0.20064207214883817,0.4674448163430841,0.7306349993103262,-0.28304738032210225,0.62070178853702,-0.025430535725218924
92,7.84677,-1.6258881871864894,0.4009927454598606,5.6036185466194866,0.9161254070840179,0.3959598448580718,-0.05833292078168892,0.6996680609113829,-0.1150350189784938,0.44857838661790816,0.727366065288111,-0.2718985864687495,0.6299738613406084,-0.00038111958351182574
93,7.85677,-1.4642320380829228,0.4779040253669115,5.673041173394747,0.9372463465592287,0.3444782945638513,-0.04856288163198481,0.7678856647999787,-0.04786708272017191,0.43058639836697005,0.7235898893680358,-0.2596285845920298,0.6389599172701216,0.024412271766408575
94,7.86677,-1.3474044708785495,0.621381464948741,5.673932385126748,0.9555522765560125,0.2913034999164879,-0.03888618058948676,0.834429998419535,0.002329022999465292,0.42433319095753025,0.7190055019937657,-0.2465072175374587,0.6478789412572645,0.04872001722770885
95,7.87677,-1.3173101489784649,0.7392330119595938,5.591766642416041,0.9707064302775962,0.23740882286232132,-0.028756546219551635,0.921946989063834,0.03684963214170403,0.43692380974304496,0.7134657111629059,-0.23307240422777487,0.6567010372559176,0.0724300817875071
96,7.88677,-1.3829265949488205,0.772128560444803,5.442679094846044,0.9825431008362504,0.18372145516247015,-0.01847314324592594,1.0448868641707036,0.07146470407552652,0.46537250781898387,0.7070994850997393,-0.21990185549031846,0.6651080326797167,0.0956472288304175
97,7.89677,-1.5420842162111201,0.7639904801198051,5.2598794403285325,0.9911090669227368,0.13091604381839905,-0.008554335495414853,1.1892195061768376,0.1304569332855658,0.494404023706742,0.7000796181449837,-0.20749206730259803,0.6727835164928305,0.1185969356813064
98,7.90677,-1.721560972333721,0.796317955229396,5.082964458670961,0.9966232931833009,0.07926004480067067,0.0009924631184866912,1.3006249679109567,0.22520730707177739,0.49940713955075283,0.6923863499282239,-0.19609897889083147,0.6797170013480577,0.14143540862731527
99,7.91677,-1.8488431567441592,0.8676011996340276,4.886306939094608,0.9993037254545255,0.029304947440069968,0.010262908650452188,1.3147351452495653,0.3489537986867105,0.46395254287141985,0.6840249496501445,-0.18585013348613638,0.6859805893375718,0.16394876066688907
100,7.92677,-1.840805415034608,0.9640579271280384,4.6281092633911785,0.9994428228145741,-0.01860231076202097,0.019507004135621737,1.212000745007916,0.4771570307100865,0.38432572306679863,0.6750312041856739,-0.17654856242217395,0.6917840448208697,0.18570967960386647
101,7.93677,-1.646066015116591,1.1032025169757373,4.299870463161859,0.9973787678724239,-0.06365690903369899,0.029031088872048364,1.0328010814055646,0.588063087507839,0.2675198591207926,0.6655859141794478,-0.16793057491660637,0.6973501169706671,0.20591754917175312
102,7.94677,-1.2415102349655873,1.2966392258102215,3.9193226867465265,0.9935239497967183,-0.10515675026815478,0.03946284158264614,0.8168540541862082,0.6717874869271971,0.11602792744488952,0.6558642971163733,-0.15963900085877125,0.7030133541831294,0.2237197427010084
103,7.95677,-0.7160299683876418,1.4399845680518994,3.573787954771182,0.9882737220364645,-0.14274179057416503,0.051773220011774965,0.5809578484522934,0.7271360701790204,-0.05740534222228969,0.6459588965896326,-0.15119533108944677,0.7092280488286694,0.23834072349380464
104,7.96677,-0.14837845583614473,1.6523518273908764,3.226419558294721,0.9819423003690566,-0.17648469604174435,0.06641573112527137,0.3453585329918568,0.7585255404636851,-0.24118429332973448,0.6359620598228553,-0.142350426307044,0.7161834989523475,0.24962364625490754
105,7.97677,0.2799754994195528,1.8056988922616835,2.8848180989543892,0.974804550014559,-0.20630527096891527,0.08359310303645848,0.14465618973561745,0.7703603543046899,-0.39441747517710213,0.6258813235206213,-0.1333177004511111,0.723876057476219,0.25778033876288303
106,7.98677,0.538430968666998,1.8651576186790106,2.5660292077450095,0.9671262142682328,-0.23236975624558281,0.10241715328823059,-0.016927942236048932,0.7256681929086694,-0.5252313422877868,0.6158928854578347,-0.1245058620344161,0.7319028703026033,0.2635267439066526
107,7.99677,0.6611112508240542,1.8540832081204512,2.2686982440738515,0.959157627454299,-0.2549735685836124,0.12185063257724751,-0.11292233957558923,0.6768804213202259,-0.589736066312024,0.6061915808892802,-0.116235484714066,0.7398597646467588,0.2675599275216155
108,8.00677,0.7123918637380112,1.8066320580788078,1.993368097034447,0.9511195520745407,-0.2744151342816015,0.14118348828295085,-0.16121561937764067,0.6233392232837559,-0.595446474527242,0.5968992479877361,-0.10871223568880767,0.747498713506505,0.27037715354162684
109,8.01677,0.7682758440626137,1.7666290271351335,1.743903637788245,0.943155884585079,-0.2909914293944373,0.1601925111516545,-0.19185807854770634,0.5797470077485511,-0.5696532352785066,0.5880459920159231,-0.10193762376020216,0.7547768575407057,0.2721975711724566
110,8.02677,0.8394980011326674,1.777006992598965,1.5003757658855548,0.9353163364334863,-0.3048794929941047,0.17923125505452034,-0.22244447805932055,0.5602313451722962,-0.5350774971800801,0.5795117411336287,-0.09585274095593288,0.761848303789362,0.27301527210744486
111,8.03677,0.8667626663321716,1.7899018129639146,1.229691008006878,0.9277015474883412,-0.31601276013126695,0.1985173220850014,-0.2582457192403588,0.5548698416177961,-0.5020903372846814,0.5712136408950536,-0.09058894145924466,0.7687910406801575,0.27284397445673514
112,8.04677,0.8293784148297683,1.792618618834637,0.9485771888770627,0.920485014133204,-0.32430646459312173,0.217821739254898,-0.2956098022666802,0.5634745297571527,-0.456244830952929,0.5631803972429847,-0.08641828754574823,0.775520828448323,0.27185477085510673
113,8.05677,0.7384985561539698,1.772527801229427,0.6962388927633365,0.913747726512325,-0.3300394889449042,0.23677458339549168,-0.3171077856137757,0.5938734328080473,-0.4002157393111146,0.5554508950318146,-0.08344690823772838,0.7819308513164835,0.27032502950110415
114,8.06677,0.5928346954473898,1.7326406729777706,0.494699621157152,0.9074709686926408,-0.3337993061709679,0.2549648760112876,-0.3096944439510651,0.6272787909675092,-0.33348298237778445,0.5480447983110041,-0.08164120139387285,0.7879154894215018,0.2686148858153945
115,8.07677,0.4013864194134358,1.6797625220924104,0.3622327830674652,0.9015391831626498,-0.33635836790570844,0.272087852893425,-0.2799394900179962,0.6584141059954798,-0.2690775709426215,0.5409181671586085,-0.08089193482086246,0.7934074151384045,0.26712176414060723
116,8.08677,0.22051990245393202,1.6178026404359118,0.27348727981201115,0.895840115953394,-0.33837208162646565,0.2879661542031035,-0.23595375620877293,0.6835191515864246,-0.22097453258687808,0.5340477827501883,-0.08098979819676162,0.7983855462349102,0.26608482962234176
117,8.09677,0.01799919988816065,1.5458495852108383,0.20854305411055327,0.8903487128394801,-0.3401740721950597,0.30252045580909026,-0.18521923202873875,0.6729705838488242,-0.19288603149854394,0.527440316206712,-0.08179818005022213,0.8028484892262693,0.26559056603311804
118,8.10677,-0.25061881596112645,1.4585116589517302,0.169123612638731,0.8850486102542624,-0.34222435810752583,0.3154965591508548,-0.12810935580880672,0.6367798304603925,-0.1968328517927312,0.5210828027125277,-0.08332590091754258,0.8067229744225445,0.2659259940627592
119,8.11677,-0.5462808285132771,1.3449957456318355,0.14939606872527694,0.8799659411143193,-0.34497087426046424,0.32654277613787286,-0.07386666142305812,0.6071735195407906,-0.20520731559946248,0.5150067193181833,-0.08556536534359653,0.8099056105183431,0.267374131238725
120,8.12677,-0.8422395473668917,1.2242209616667035,0.1349166998313408,0.8751609734546347,-0.34863426555665233,0.3354530553287726,-0.03174233168461145,0.5752546756441167,-0.22113899699471112,0.5092631564057739,-0.08845027906061388,0.8123423773680563,0.2700296911095808
121,8.13677,-1.1317436430506906,1.124918162738936,0.12476671714619567,0.8706265346048558,-0.35330265226033775,0.3423029677251509,-0.006600679388527363,0.5368671157491822,-0.2556462885459602,0.5038008741120072,-0.09195642184629979,0.814058980346868,0.27390355909741687
122,8.14677,-1.3917250794409923,1.0465689470726138,0.12175480540461865,0.8663694398705503,-0.3588637552875649,0.34728547069362725,0.013543481609003427,0.5101157466520936,-0.30184992150549944,0.49856176402488434,-0.09608214165648855,0.8151114970282336,0.27889363744038864
123,8.15677,-1.624499972118721,0.961705069918845,0.1340675432741755,0.8623775971203337,-0.3652719820366089,0.35052458476072723,0.05004118498407388,0.5039836045201648,-0.34901888739752623,0.493524920392033,-0.10070844740620925,0.8155459582467018,0.28488061259422015
124,8.16677,-1.8619418417946196,0.862818463036154,0.1574529478707761,0.8586208301736515,-0.3726632780308115,0.3519604283226394,0.11046793650996516,0.5121589812812868,-0.39224849240288195,0.4886826149601042,-0.10570337117974185,0.815353503077584,0.29187718411020347
125,8.17677,-2.133284009549177,0.7497629587170402,0.1879254099174591,0.8551187656061182,-0.3811811639030793,0.35135667707901364,0.1878604821940958,0.527402434315216,-0.4212353359908962,0.4840483739218072,-0.11103606287870327,0.814458391006707,0.2999968088914023
126,8.18677,-2.4317716218098013,0.6303662406846068,0.21931420930090145,0.8519090564887559,-0.3909105770341636,0.34843942186099225,0.2705100045026617,0.5424022113817402,-0.4273345720538684,0.47962384105857664,-0.11675039074656934,0.8127610510642784,0.3093789643117754
127,8.19677,-2.751418644244683,0.5095983397035141,0.25655722386727503,0.8489925257269408,-0.4018937785217145,0.34300296934129765,0.34818191362383155,0.5599743064773638,-0.41112601640077684,0.4753814436014516,-0.12286691357969917,0.8101818091527064,0.32012309631796854
128,8.20677,-3.0549558123671203,0.4012348865583422,0.2993349298628101,0.8463131393972493,-0.4141019427828264,0.3349883562745657,0.4129175107512115,0.5877780215537501,-0.3820883830862947,0.47125619611104713,-0.12935543453185266,0.8066897993363097,0.3322416754427084
129,8.21677,-3.3169896029851884,0.3199395680073384,0.3469117699306702,0.8437623511375494,-0.42735643674271095,0.3245927236359186,0.45290134575379687,0.6329947174484056,-0.345422761679851,0.4671437155320647,-0.13613936366028404,0.8023386329474601,0.34559385717382085
130,8.22677,-3.4816113007512994,0.2691395005878776,0.37942578802891075,0.8412441324824753,-0.4412809454279125,0.3122478215236558,0.46335845776782375,0.6960108880561929,-0.2997173855946003,0.4629497910434909,-0.1431191247718207,0.7972603564114998,0.3598673756400953
131,8.23677,-3.5197337087196163,0.25561101521936996,0.38806878892422575,0.838722585137013,-0.4552412472822511,0.29869392521454985,0.4505732368083297,0.7730876283422962,-0.2557416644414193,0.45863657946260966,-0.15015199783490724,0.7916968916887376,0.37450833797196137
132,8.24677,-3.4673019224989248,0.26836545323719224,0.37179857438871233,0.83620452682433,-0.46864305851932714,0.2847069846599142,0.433197813648178,0.8508276471938538,-0.22548370406405474,0.4541978151679184,-0.15712839057681155,0.7859050331221427,0.3889781477479579
133,8.25677,-3.3673406922698623,0.291201447333704,0.33107724311769116,0.8337589035218331,-0.481089626132313,0.2707929591216101,0.42775136192214597,0.9248594078074993,-0.2102185852670406,0.4496646306785018,-0.16402984530980555,0.7800470131037995,0.40294160615842967
134,8.26677,-3.24387752281396,0.3075514203874065,0.24801116997210426,0.831555173829582,-0.4922395459917367,0.2572076696048503,0.4387697177962147,0.9893216340817141,-0.2062084731998949,0.4451356706765924,-0.1709143994777779,0.7741928080437439,0.4161872367413259
135,8.27677,-3.100903840863314,0.31971782046753144,0.13676965720452544,0.8298243121145544,-0.5017786016798229,0.24404785508387133,0.45104867256025283,1.02615586678971,-0.2105041726105357,0.44075728657414653,-0.17787284192706862,0.7683536376191527,0.42857391318729193
136,8.28677,-2.9209723999405655,0.32640328921787926,0.03403732813585214,0.8286418597486178,-0.5096281037835447,0.23149738289875688,0.44549262345038504,1.0310243266650243,-0.2150719188511339,0.43660780234000723,-0.18487600088327316,0.762595728877206,0.43999655007733485
137,8.29677,-2.674205506346099,0.28212542708869587,-0.04364185541388315,0.8279918893805731,-0.5158826714292286,0.21968367678765163,0.42234843905548186,1.0143465364850464,-0.22481208035820566,0.432822293278966,-0.19168480914328648,0.757022620521046,0.45033418184255175
138,8.30677,-2.3345592964538366,0.17763152596497653,-0.07765752980219871,0.827831818138522,-0.5207218081468332,0.20860382224711713,0.3971710654771789,0.9862728186780804,-0.2645055186048037,0.4296474921314499,-0.19788057666499836,0.7517533850023459,0.45943983731431504
139,8.31677,-1.8810955144697055,0.03636497855677136,-0.07778798814724136,0.8280215279227429,-0.5243791267806506,0.19845884072497555,0.3604188478171532,0.9396020944046104,-0.3544359923146092,0.42730810831946026,-0.20295685170682362,0.7470142388146811,0.4670850870909052
140,8.32677,-1.3952799556793347,-0.11090579856743964,-0.1434791252254084,0.8286533160082692,-0.5266800549039523,0.18954496697974918,0.296163204885439,0.8553190670084126,-0.5065538910466769,0.4260364295199124,-0.20673858807907353,0.7429850444427296,0.4729859882754044
141,8.33677,-1.1030232599775718,-0.20325804982122897,-0.33896975934233375,0.8301930120578158,-0.5270128612198335,0.18172395456745152,0.1998324971560588,0.7620746473142069,-0.711573844442837,0.42591865022858655,-0.2098412855272058,0.7394754107225927,0.4772094476229607
142,8.34677,-1.1905707641779808,-0.2632909516373035,-0.6547737485675644,0.8331923775405445,-0.5249130612117281,0.17387559209799583,0.08179775207662407,0.7143240261013709,-0.9031099996678231,0.4267740604550919,-0.21348157951601715,0.7357679944008397,0.480544865446172
143,8.35677,-1.5181196065860294,-0.3573340937290091,-1.0777539257011954,0.8382244317244679,-0.5199572655109672,0.16423953389582416,-0.02531389308667646,0.6923546682808951,-0.9636083907784256,0.4285307851602002,-0.2187937212216906,0.7309113831597508,0.48398061042746754
144,8.36677,-1.7831015536144794,-0.48987439826048373,-1.52462087459024,0.845613993502628,-0.5115790209269104,0.1521142530620687,-0.08826819732363203,0.6330245588749422,-0.7999416374803973,0.4314012990398004,-0.226070606619311,0.724514491054195,0.48767790666589544
145,8.37677,-1.9494073064770399,-0.6026032759508394,-1.9364808481198788,0.8551685534456656,-0.49952413681317,0.13798157686904056,-0.08853099252874981,0.5363686566723354,-0.48373658885831117,0.43547497392504286,-0.23502190320692837,0.7167406193966308,0.491287063200171
146,8.38677,-2.0285644718308897,-0.6844247181609141,-2.356528822239151,0.866524394790477,-0.48366252857263803,0.12262600794051191,-0.02233989265258017,0.47717637214549546,-0.19179376190712955,0.4406551222810111,-0.24543007900152156,0.7078331779700602,0.4944698486960855
147,8.39677,-1.99443752929914,-0.7620744253229512,-2.9095542903094174,0.8797431338319447,-0.46305602083174047,0.10672998363170728,0.07544155913847836,0.47940424586840813,-0.04538746529412159,0.447168739385056,-0.25732397766113246,0.6979157650854505,0.49665051013755274
148,8.40677,-1.8174068625215618,-0.7947298251048597,-3.6231591076328478,0.8951338750181452,-0.43598805398803514,0.09112725151106765,0.15957868481212278,0.48028582172359696,-0.06199642516943023,0.4554642261683455,-0.2709744967883665,0.6870640426578714,0.49695817279097476
149,8.41677,-1.4476907702460513,-0.7465930053355674,-4.372777219378452,0.9124916267888081,-0.4011604468745885,0.07718386388151258,0.2233528633812492,0.4752105432371402,-0.18647562170194726,0.46575021770526165,-0.2864615428328868,0.6756029964819635,0.49441824104001614
150,8.42677,-0.9468694219968831,-0.6831465287559936,-4.98728732547263,0.9307841073327427,-0.35873779677367335,0.0659955797493519,0.2992748160984828,0.484363959892762,-0.3307470656122663,0.4779159559873309,-0.3032390728807298,0.6640380836911792,0.4884087624650593
151,8.43677,-0.5520962355818106,-0.731612484308643,-5.412157393428354,0.9486040972394844,-0.31019396766220647,0.0569142737769364,0.41824919783964265,0.4771606654070873,-0.42249025999037687,0.49168700722791825,-0.3204681671042262,0.6524245024733321,0.47928270677547097
152,8.44677,-0.45414840998375017,-0.8920870938748559,-5.708001151586928,0.9647824075339765,-0.25716910331103526,0.04780877225746786,0.5829768507328164,0.4180269248298473,-0.45120443249033515,0.5066818348778679,-0.33774753186599094,0.64009559842209,0.46827676167668875
153,8.45677,-0.5894183092242162,-1.0788684562035638,-5.931519775498922,0.9785128315481202,-0.20074078260154318,0.037054589891577436,0.7580241105412934,0.3268747770432691,-0.4359891254968409,0.5223789768602224,-0.3552423638388465,0.6262642208774956,0.4566217529906875
154,8.46677,-0.7629679657838799,-1.227833845977288,-6.078522455369596,0.9891474160012985,-0.14175886213857009,0.024511646236448886,0.9041297079300807,0.24438500849964823,-0.39295673834384337,0.5382712981842813,-0.37303283980051505,0.6107090228361802,0.44488090289348614
155,8.47677,-0.8713149635937993,-1.3010333922631552,-6.149543956864697,0.996185440658782,-0.08110899107409056,0.010987687296399658,1.008200366042514,0.18782626890026435,-0.36167610961746405,0.5539615339087227,-0.39092599739775846,0.5937384964025493,0.4330648983899551
156,8.48677,-0.8874565531372982,-1.3125123134662229,-6.164358599259811,0.9993434657863126,-0.019610664994676928,-0.0025592536677240063,1.0559777106655763,0.15224389372222563,-0.3498969060275047,0.5691946071999543,-0.4086363884660447,0.5758374418261929,0.42096379155148855
157,8.49677,-0.829403035108355,-1.2929743166248977,-6.1206727892384745,0.9985416426278673,0.04198650970307899,-0.015548421383051104,1.0256742175367213,0.12398818562976088,-0.3436941771796432,0.583871721752381,-0.42585183327837917,0.557432376777509,0.40838971141492114
158,8.50677,-0.7446338325265608,-1.2398276561645296,-6.006001618975043,0.9938440447151687,0.10300450664547221,-0.027768154100515675,0.9276054775164436,0.09054404175503353,-0.33451397982087483,0.5979496471480599,-0.4423371362384936,0.5388071415552214,0.3952909405970468
159,8.51677,-0.6607802527239496,-1.1456414211178636,-5.8304446987645955,0.985542708239445,0.16240360649395497,-0.038865097376352985,0.7918455498284958,0.04869472609860384,-0.31199341418786464,0.6112041736958964,-0.4579250139610136,0.5203307849631597,0.3818152989460079
160,8.52677,-0.5920494356075264,-1.028985144142215,-5.626189221439104,0.9741457161040523,0.21894649470734592,-0.048402567401056994,0.6534514161211215,0.005047793133193418,-0.2770843057039336,0.6233224470216007,-0.47247921890670136,0.5024386748350333,0.36823418730183205
161,8.53677,-0.5558481752441272,-0.8925887889883724,-5.425218472231261,0.9600623602601281,0.2727680168992518,-0.05633622297794124,0.5417392298075444,-0.0300072554713836,-0.22228910510745029,0.6343396544521777,-0.4861911845073184,0.48512014729662867,0.35455953437908205
162,8.54677,-0.5469098001767385,-0.7330046975241209,-5.246446205788087,0.9436647678304381,0.3239428580918836,-0.06245924023715029,0.4657534079256904,-0.045497762332598904,-0.14473593565144494,0.6442140031476107,-0.4992672024461187,0.4684034830288908,0.3408130091053986
163,8.55677,-0.5029666872753531,-0.5705800139721401,-5.09143154661664,0.9252416450717914,0.37263612663271495,-0.06673261859999438,0.4142552006400448,-0.03976650877925689,-0.052610844135063076,0.6530210270940038,-0.5117992809891121,0.45233039776262535,0.3269057277184938
164,8.56677,-0.3558163827668359,-0.42503781912405475,-4.941185839906326,0.9050449096758,0.4188934896493625,-0.06959522001008796,0.3779414450123945,-0.025955373365373895,0.03387043907332286,0.6610353694542606,-0.5235969259919526,0.43699792020912137,0.31267649068034087
165,8.57677,-0.06835971167585744,-0.3144418116746837,-4.785550515860701,0.8833408011709104,0.46259162900358164,-0.07196059858336287,0.35895887177372443,-0.02086366068470247,0.09062944286157633,0.668683176714255,-0.5342276136378536,0.42255537818994315,0.2979521976236725
166,8.58677,0.3424093429848293,-0.23301911022504945,-4.628886484081385,0.8603895886626303,0.5035803515938909,-0.07506868227393272,0.359423286321302,-0.03207350039291755,0.09016936423165506,0.6764670948089283,-0.5431665385865255,0.4091244954165443,0.28258150565943296
167,8.59677,0.7949764966970723,-0.1264749336280716,-4.458285442034622,0.836497712089923,0.5417231608590626,-0.07966128803589353,0.3611335025580648,-0.06793577205766105,0.025386671799699154,0.6846451313649181,-0.5501316150777732,0.39684419921974823,0.26647625105112
168,8.60677,1.2370207733724161,-0.008710767418819383,-4.294082486601367,0.8119689157275662,0.5769643160907192,-0.08597268808720038,0.3426989165203596,-0.1373126942720701,-0.06111085612089802,0.6932495730834458,-0.5550929629367387,0.3858198234529477,0.2496019416036157
169,8.61677,1.607293834672647,0.06859212440021059,-4.1477324273870275,0.7869561395692737,0.6094428338242738,-0.09422414939915637,0.30434137217072366,-0.22912534654422684,-0.11080742307490098,0.7022543636616091,-0.5581859927179637,0.3758913047251405,0.23206626691842233
170,8.62677,1.8650052172505012,0.0934915962866632,-4.001670033043255,0.7615807424981826,0.6392941020480959,-0.10449834036323405,0.2586594118240136,-0.31942658268160584,-0.1113434846467043,0.7115293173496303,-0.5596843358891428,0.3667227400602217,0.21419029123105432
171,8.63677,2.0298921621494457,0.1026705871948655,-3.8490200053587236,0.7360465914779037,0.666558098160384,-0.1165377147483902,0.21733259187395318,-0.39056935494620804,-0.07337827725353988,0.7208547082229343,-0.5599082068707576,0.3580741162820381,0.19631909896604363
172,8.64677,2.152944961944488,0.12528480049860066,-3.69489093924008,0.7105684832920823,0.6912823367237294,-0.12995975397363355,0.1843364325104395,-0.4420996697580183,-0.01977478902334596,0.7300553858806507,-0.5590981169917145,0.3498770244438356,0.17862002679614924
173,8.65677,2.2706502353083966,0.18284210262195563,-3.5404432549405103,0.685357604286213,0.7135206691646553,-0.14444908734107295,0.15618038987743493,-0.47866863225414896,0.03662167493417529,0.7390436670365476,-0.5573666322684744,0.34220435649148534,0.16108047215989377
174,8.66677,2.3928959688857767,0.2715142118284017,-3.3825151113199747,0.6606500687930713,0.733294277455293,-0.15980472217720365,0.1374838570993247,-0.4944570779287555,0.09197114646215782,0.7477847624773094,-0.5547376158286667,0.3351879563553002,0.1436299961983207
175,8.67677,2.5018199839432826,0.35078707321073305,-3.2121860490524994,0.6366922679237115,0.750597585300723,-0.17597298398680497,0.13717481127972175,-0.4889400383667655,0.14019560033053496,0.7562721806087211,-0.5512142287838775,0.32888303851041967,0.1262959311810758
176,8.68677,2.5716791076290435,0.400391124560846,-3.0207565051682943,0.6137383511306731,0.7654264093979894,-0.19290465727346925,0.16050475088534794,-0.4808304903915781,0.18102909619733398,0.7644800561052978,-0.5468589504919477,0.3232346321148369,0.10926687637407458
177,8.69677,2.583124373800387,0.4286384524697403,-2.8190182634380347,0.5920263420175409,0.7778502946741102,-0.21034154478002773,0.20125413168335132,-0.4865775858314434,0.21727190243329192,0.7723253707995876,-0.5418345713912639,0.31817004531308224,0.09277788821603387
178,8.70677,2.549376207430897,0.4456783940858547,-2.618427613412326,0.5716845065250704,0.7880619126426877,-0.2279222000220411,0.24524537135925795,-0.5059416158868987,0.24973206196893116,0.7797207383761181,-0.5363485931952432,0.313618878633854,0.07698972799979784
179,8.71677,2.4976740449876838,0.46229234390936574,-2.4229409946289056,0.5527643096933873,0.7962854146240332,-0.2453906322290209,0.2767186229214344,-0.5303658268270429,0.2760667206924957,0.78663380554557,-0.5305489557699197,0.30953247616205404,0.06197079019608123
180,8.72677,2.452900293742368,0.48965266496724386,-2.224223576600297,0.5353733279514765,0.8026616071494754,-0.26261422670980783,0.28942702371437373,-0.5531932691368859,0.29111856982234857,0.7930785576664391,-0.524479181623009,0.3059451578562629,0.0477276495170723
181,8.73677,2.4277564423431026,0.5212545462817084,-2.0156534386264657,0.5196580756914628,0.8072501804347209,-0.27960279876397925,0.29115224181250593,-0.5704838888656433,0.29565513018370165,0.7991112441322715,-0.5180985384116588,0.30291944359561945,0.034251423376567884
182,8.74677,2.42035986439981,0.529250445317771,-1.8020472950414186,0.5057044358007031,0.8100721882532788,-0.29653694631043165,0.2968204159842001,-0.5802765454719806,0.29667453928925325,0.8048349065149647,-0.5113274172179151,0.30043735377636843,0.021575000282241834
183,8.75677,2.398993895938376,0.5080128477340999,-1.591776049820108,0.49348005289338476,0.8112125655839291,-0.31354414510859796,0.31198390542884463,-0.587478962278859,0.2948831437635389,0.8103323045308726,-0.5041638707996875,0.2983834241082023,0.00978354955392614
184,8.76677,2.335257123134841,0.47556244380411067,-1.3846104306954925,0.48290129784751695,0.8108749355069255,-0.3304490165936717,0.32575013727752683,-0.5948305386170213,0.2953113065818887,0.815592668041864,-0.49674430819815735,0.29665843536803077,-0.0010441340297955449
185,8.77677,2.2384392228450087,0.4443100508504695,-1.1863161347713926,0.47384365971223896,0.8093175025202966,-0.34697977791956036,0.32352657757942543,-0.6047763844801598,0.30405993358842015,0.8205759758448268,-0.4892416134980386,0.29519236641574687,-0.0108767688263742
186,8.78677,2.1271849204217137,0.41426215774138553,-0.9891871176836935,0.46638098996170596,0.8067201104266466,-0.3627972937831364,0.3032637644601487,-0.6218129116574374,0.3169618244451924,0.8252218960579044,-0.4817969583782164,0.29404003283562485,-0.019658723655219052
187,8.79677,2.011576483932836,0.39159053844262937,-0.7912555028765438,0.460642406559141,0.8031986021731238,-0.3776513921113521,0.271972394421118,-0.6380256317132861,0.33386075073047816,0.8294945580147616,-0.4744883654701883,0.29329540001311666,-0.027351138841665613
188,8.80677,1.8849386112938655,0.3978385676354423,-0.5920317201200198,0.4565819904773945,0.798885330245497,-0.39149016765749883,0.23676672200122997,-0.6450370306773922,0.3553366778590714,0.833412189112696,-0.4673370703776166,0.2929825455940215,-0.03401134386807317
189,8.81677,1.7422358968575378,0.4311032730965066,-0.3904922018898203,0.4542954799429167,0.7939081020284965,-0.40408410572213305,0.20337979398446265,-0.6446622804345709,0.3794394980465909,0.836933960403365,-0.46039864268716746,0.2932227516239815,-0.03968166442872629
190,8.82677,1.5863004839313508,0.47321551773191245,-0.1885250383667379,0.4538341638654008,0.7884020306785039,-0.41523785179788986,0.17870146019034774,-0.6418229001443948,0.40910044734952195,0.8400259920178463,-0.45374077306109334,0.2940912651012252,-0.044374913551821604
191,8.83677,1.4191254467687822,0.5150314065104545,0.019238076128532122,0.45521725200374996,0.7824767260892096,-0.42482714731546584,0.16690942344224197,-0.6402054558567346,0.4423185698086472,0.8426740843359606,-0.44742327472655286,0.2956158722048596,-0.04806418811921197
192,8.84677,1.2421366299991845,0.5574068523612636,0.2347914843811225,0.45849128821941,0.7761898854409461,-0.43276767109889225,0.1715514438758297,-0.6371206018696696,0.46921478729807786,0.8448737245331036,-0.441483171760266,0.29782382579177924,-0.05069732387024252
193,8.85677,1.0449413466898787,0.5923946220190601,0.44902255077373515,0.46363693213732377,0.7696197950931603,-0.43897507547092324,0.19215299938001107,-0.6323955617599928,0.4919602153481352,0.8466163989559563,-0.43597850121478865,0.3007089224408491,-0.05222507740340774
194,8.86677,0.8173809892304437,0.6178536305287663,0.6652505700380524,0.47056863039821045,0.762894799465136,-0.4433142183398336,0.2194799928946191,-0.6263564648844577,0.5135132236957665,0.8478749792350346,-0.43102041343141756,0.3042290913904045,-0.05258337900622326
195,8.87677,0.5659316019834336,0.6455631277309771,0.8904469825905218,0.479275515250927,0.7561112288394654,-0.44559625055593255,0.24328696695173746,-0.6189334719013774,0.5271763602246251,0.8486020322113312,-0.42672113950607915,0.3083863141510017,-0.051692846586578814
196,8.88677,0.301148927951629,0.673035522710851,1.117974399277999,0.48977337474836086,0.7492945875312127,-0.44568520463555633,0.2582026250800235,-0.6162285051430546,0.528213990124876,0.848758170773529,-0.42314502295065526,0.3132036991126656,-0.04949845560574017
197,8.89677,0.02157077562937723,0.7014003652896411,1.3504778020557482,0.5020377673391422,0.7424379005046332,-0.4434933772355375,0.265119366835967,-0.6155178018544224,0.5162319613281392,0.8483098979424933,-0.4203387647721368,0.31868293853434576,-0.04596142101395884
198,8.90677,-0.2702384730690904,0.7322297383184441,1.5918035037863836,0.5160667036472515,0.7354853160951602,-0.43893084479786787,0.2704422838733059,-0.6083385924009093,0.5003160594501691,0.8472151024328336,-0.4183390115359752,0.32483216439964513,-0.041030862739525206
199,8.91677,-0.5737055003019799,0.7591466760348289,1.8360029531820534,0.5318586685822045,0.7283196611656493,-0.43194601048001824,0.27963158089543905,-0.5972429119234746,0.4962339011036876,0.8454340493351826,-0.41716057578263466,0.33164921261699754,-0.03464628991852529
200,8.92677,-0.8819536009606479,0.7805672395215909,2.080364099976049,0.5493316683336978,0.7208204982474565,-0.422523381579997,0.2971548646143192,-0.5846946837962642,0.503101458864866,0.8429261099948601,-0.41682220216591154,0.33909091057378715,-0.026767758134747743
201,8.93677,-1.1839483185809776,0.8054641545657294,2.3285338739330745,0.568426039415064,0.7127794769701711,-0.4107051896463157,0.3231412071416388,-0.5685343751359604,0.5081550826311495,0.8396556316745238,-0.4172897142205481,0.34712993287704696,-0.01737678643684259
202,8.94677,-1.5018268501308811,0.8349934676028316,2.5813611825725826,0.5891232474627092,0.7039574424920932,-0.3964611300140342,0.3578038608963108,-0.5504954465404954,0.5117051130917437,0.835553515165446,-0.41853967739017756,0.35577151206319907,-0.006449127146253619
203,8.95677,-1.866647973783909,0.8553738288065901,2.8324995753202753,0.6113246612277979,0.6941981883353122,-0.37964709664860863,0.40188752260570254,-0.5327799468637252,0.5279887960150906,0.830502435132928,-0.4206545018519023,0.3649689420033583,0.006083821120530501
204,8.96677,-2.2765717229609415,0.87295729976908,3.078993043518886,0.6348779384894768,0.6833925912515697,-0.3600212782520728,0.448794132004658,-0.5142506977403907,0.5698118600895066,0.8243357459812574,-0.4237973357237557,0.3746429597024068,0.020316539962275795
205,8.97677,-2.681657009414853,0.8889492610914521,3.326751651274962,0.6596523258403194,0.6712698827788296,-0.33750781220572007,0.4913590955101179,-0.49005730088496646,0.6269178080312543,0.8169146176096127,-0.42801488731590664,0.3847303963889515,0.03629553533299847
206,8.98677,-3.028683041178257,0.8819057238577841,3.5725458851404914,0.6854606411173867,0.6573146709706765,-0.3125461478698364,0.5303886922408844,-0.4575190329041097,0.6786493346592335,0.8082399234336037,-0.43310029701231734,0.3951155657862261,0.05398582998637781
207,8.99677,-3.271946140295181,0.8501494278885736,3.8040963989154384,0.7120071519789081,0.6409454977436225,-0.2859978732119477,0.5652498232148192,-0.4144246020014982,0.7093595084010844,0.7984413191141333,-0.43866636484648974,0.4056318514968732,0.07324269345553175
208,9.00677,-3.3752688642377966,0.8315088166264206,4.014152638369599,0.7389820692342032,0.6216252163287357,-0.25886646790309337,0.5880558007821483,-0.3517851842486366,0.7058149775323062,0.7877213527616022,-0.44419110253260774,0.4162041864081593,0.09374230604911832
209,9.01677,-3.3443992780279688,0.8477402920191042,4.195458274603425,0.7660974529567733,0.598969218951948,-0.23200021788456968,0.5913897979220405,-0.2704708609473241,0.6631455150947569,0.776286633987246,-0.4491348197066558,0.42690018035581084,0.11501918211966644
210,9.02677,-3.229967303699657,0.8781938527175496,4.341985939160877,0.7930075751159191,0.5728749221638886,-0.20596494337196095,0.5813071211764509,-0.1837860137565195,0.591366233597892,0.7643036102882863,-0.4531235505565285,0.4377939186520808,0.13663204329458117
211,9.03677,-3.0888620138458838,0.9029115457023783,4.44576625090602,0.8192747800798496,0.5435439714456277,-0.18110850318859573,0.5805729097182329,-0.10428994767819125,0.5131804789499259,0.7518970730911447,-0.4560173304437439,0.4488450928536496,0.1582709512868451
212,9.04677,-2.9629809129860734,0.9155630134232131,4.5073686359284695,0.8444482448246786,0.5113947624131508,-0.15755828772290387,0.6041569601921155,-0.04130754961744656,0.44177121113794027,0.739128156520226,-0.4578859759927346,0.4599243230018428,0.17975934599426857
213,9.05677,-2.864910698089881,0.9123940049203375,4.5389633387738835,0.8681558377287311,0.47690241471528805,-0.13531055071326645,0.6475718950475522,-0.0010996660463701742,0.382153539184221,0.7260108540240199,-0.45889930812411034,0.4708786955222282,0.20101888130304718
214,9.06677,-2.762532675213734,0.8956912166720415,4.550667567891697,0.8901440469231404,0.44044246026754896,-0.11443345020350085,0.6953318749167385,0.02525369464117348,0.335487312015977,0.7125868231695742,-0.45915570321860294,0.4815926509543753,0.2219980949391386
215,9.07677,-2.7127523695605453,0.8841183538575518,4.52435599668877,0.9102287798243752,0.402382883401242,-0.09497319901608328,0.7351235590562105,0.055577903488405814,0.29187112668313975,0.6989047651557696,-0.4587321429977053,0.4919879258636155,0.24262625346789962
216,9.08677,-2.67770543837004,0.8142719770096909,4.480347294903476,0.9281557622917693,0.36339073394466354,-0.07713652784391664,0.7616128557554758,0.09818033742964813,0.24461370902977367,0.6849978823476216,-0.45796352931122336,0.5016772058854322,0.26304745495618137
217,9.09677,-2.641528181786766,0.799593195199069,4.419433325978546,0.9439722601245151,0.32361707758398167,-0.060531294459515946,0.7746775396659882,0.15176903282328216,0.18697994241857469,0.670806277043899,-0.4568650566174817,0.510869012374598,0.28308484310752874
218,9.10677,-2.424439788260294,0.7643032231441671,4.325763187547084,0.9576649441236402,0.2833424511263198,-0.04594523531162951,0.7752206505086536,0.2023759889417685,0.13753915313354437,0.6567586269018024,-0.4550580113579306,0.5195495213569185,0.3024940684409638
219,9.11677,-2.1261126686898133,0.6926291449946207,4.166197819362825,0.969132370513861,0.24333625699813002,-0.03335881262116098,0.7664207580017152,0.26510005520554075,0.1080208562867532,0.6431753857655038,-0.4524390040893041,0.5278256835124463,0.3207560783798324
220,9.12677,-1.9285688585455627,0.6993712710212795,3.9122577376424066,0.9784135856118936,0.20450846052433294,-0.02190750057808393,0.7313416668009335,0.34094243905856403,0.09588922019712223,0.6300764956550766,-0.44929553119483695,0.535875110225703,0.33742186719192324
221,9.13677,-1.8088422576456067,0.7289711524359564,3.6121898180283676,0.985571858649049,0.16783750103862896,-0.01143965665859363,0.653265331394891,0.42604554820555324,0.07455620181302786,0.6174966278286591,-0.4461728427338993,0.543318571340609,0.3526015087012049
222,9.14677,-1.759142077802657,0.757707078750781,3.2997056387286534,0.9908631925715221,0.1337621944114638,-0.001378872499924356,0.5473277631742103,0.4442356672583626,0.050752192728582494,0.605274402219806,-0.44351604734802613,0.5500840629471976,0.3664055979655613
223,9.15677,-1.591589550241736,0.7463055671140371,2.977238393385007,0.9945762390060938,0.10251025168563618,0.008118434751467663,0.42687913020148843,0.42172130636597893,0.04740128450323377,0.5936103651725652,-0.4412833139666126,0.5561644209351426,0.3788167070688049
224,9.16677,-1.2843409364183347,0.7472730637637623,2.643469797832105,0.9969963115676758,0.07429902041612747,0.016820891748305457,0.3114619345279395,0.43226383773191956,0.018652109356980105,0.5829449040440287,-0.4391023495802902,0.5617748094204081,0.3895071884979035
225,9.17677,-0.8753856142477782,0.8136435103492909,2.2904888133637544,0.9983834679031974,0.04940888255772522,0.02524189663832034,0.2088844495270336,0.46043281317632584,-0.05066463737610752,0.5735201950149278,-0.43678767138087793,0.567299181892862,0.39802119636721756
226,9.18677,-0.45808052207640404,0.9428572955022284,1.9273154228033915,0.9989579293092589,0.02811248663774424,0.03428477656867481,0.10589883450777868,0.50251194478855,-0.13460150047461955,0.5653389752703649,-0.43441413213085533,0.5730764344211687,0.404016655143667
227,9.19677,-0.1708822102755253,1.0592386912461738,1.5798156959916163,0.998913383286318,0.010445012883147408,0.04440255607307384,0.0006578901622633915,0.5158115904655791,-0.20531303927037664,0.5582170786187418,-0.43225321754474855,0.5790926814678615,0.4076513757054148
228,9.20677,-0.036276422044343545,1.0981958878423654,1.2628076259608307,0.9984301259708931,-0.00381443909321305,0.05525008477139669,-0.09122142909364367,0.4763425556089699,-0.2325439841972154,0.5519474300420844,-0.4305930126126244,0.5849838432342905,0.40953643715375
229,9.21677,-0.021747115819300472,1.0737870223237316,0.989765900341655,0.997671508961833,-0.015076576101138078,0.06611477873149153,-0.15076338743597686,0.40334192883960146,-0.22057954593370294,0.5463936945666783,-0.4295719207637643,0.5903548913681015,0.4103532074658588
230,9.22677,-0.09610504403986501,1.0321624233913946,0.7582030488909555,0.9967561223952,-0.023848600438008988,0.07659899802734915,-0.17822669821439954,0.33038475821712615,-0.19533087589113962,0.5413607872080084,-0.42928719577279834,0.5949853006714589,0.4106375790678797
231,9.23677,-0.21724990306693692,1.0015950027882017,0.548184676677848,0.9957530941011435,-0.030505592594373045,0.08667606586208712,-0.19143703821722902,0.2841442457195774,-0.16686418988212026,0.5366521162373141,-0.4298340582161712,0.5988134441704869,0.4106840196085455
232,9.24677,-0.3841158469596801,0.9840643264674892,0.34987060111965207,0.9946982468248438,-0.03526365332941591,0.09646190134930764,-0.2071590902678644,0.2663889602600593,-0.14225802802143409,0.5321055687027685,-0.4313165703017702,0.6018258320104652,0.4106431674782988
233,9.25677,-0.6025211372907379,0.9687067513473826,0.1686741596294431,0.9936162620311698,-0.03834934216451243,0.10598551450416703,-0.22685258647732726,0.26757547874491716,-0.121896712490364,0.5275679948363856,-0.43383579099034647,0.6039671431456152,0.41069969060639744
234,9.26677,-0.8700773719012511,0.9509553009993102,0.016987270570826413,0.9925198615822032,-0.040081211212453574,0.11522611614797793,-0.24054642728279207,0.28026667485339185,-0.09669192243705578,0.5228807031837702,-0.43745200571032833,0.6051813651582787,0.41106828594659783
235,9.27677,-1.1876657788224176,0.9263400113151096,-0.09481590204740148,0.9914109791230444,-0.04091548082039999,0.12414202405426743,-0.23875513492364836,0.2950644272680071,-0.06760671469909485,0.5178596782522974,-0.4421762708117527,0.6054291658720925,0.41199930209038793
236,9.28677,-1.5246876370749824,0.8826012470967731,-0.1702105924997789,0.9903036390085017,-0.041345618213942344,0.13256256329264082,-0.2229938448238618,0.30514465739175506,-0.04024882120335463,0.5123735797536165,-0.4479386064058088,0.6046672637254673,0.4137427193083554
237,9.29677,-1.8538892257031163,0.8237574662841167,-0.21777207710247687,0.9892214101793646,-0.04174107251002069,0.14030328574540243,-0.1987460912293849,0.307559516089824,-0.022522607415215112,0.5063838770774537,-0.45459597698152177,0.6028937512781496,0.4164276269401512
238,9.30677,-2.189358485033752,0.7666900821823406,-0.24633903195570678,0.9881774266152051,-0.04235724311299185,0.14730860212851837,-0.17288005712559482,0.30460674229778995,-0.021332761841962374,0.49984465142006107,-0.46203831150147523,0.6001313387551084,0.4201018562238515
239,9.31677,-2.533840647353135,0.7107096474723614,-0.2554692086116618,0.9871764347892369,-0.04343208825052586,0.15358035518054003,-0.15096132965259765,0.3081162415798649,-0.0308505767268182,0.49266214534023295,-0.47020439662597063,0.5963859603243423,0.4248217944746498
240,9.32677,-2.8783889805752603,0.6535654075024206,-0.2474129317795138,0.9862227130889637,-0.045193217022983456,0.15910467468615086,-0.13258471713344266,0.3180117065461728,-0.04466734153980837,0.4847485699700527,-0.47901543508304095,0.5916671580132582,0.43062771023033214
241,9.33677,-3.2121244789540864,0.5991543501958341,-0.22596187784988625,0.9853214165781758,-0.04779399212775604,0.16386028348748966,-0.11277007286386864,0.3228734049774418,-0.06044861768361564,0.47604347542923575,-0.4883826810762601,0.5859872294458448,0.4375148724909458
242,9.34677,-3.505187040604073,0.5561106660766237,-0.18501724002444167,0.9844665964797674,-0.051353096395109175,0.16787271795483538,-0.0886343570301942,0.3274202016242343,-0.07540496420316939,0.4665180185863195,-0.4981742512531711,0.5794161076115196,0.44540338904852456
243,9.35677,-3.724717278505118,0.533618529049016,-0.12256717329776562,0.9836279710233453,-0.05597553438803155,0.17127200551117092,-0.06212436536029886,0.3415290736509352,-0.08533810479375455,0.4561889864091556,-0.5081893739957235,0.5721373224808981,0.45410173442986523
244,9.36677,-3.8487491388462445,0.5243267455379206,-0.04329043937947244,0.9827655201086966,-0.06170318074158342,0.1742227310693615,-0.034646968020020145,0.36732430012514916,-0.08746744617288077,0.44514834756779104,-0.5181833252056827,0.5644097931603907,0.46333480276078354
245,9.37677,-3.867113265919791,0.5235624871986929,0.049372385900800064,0.981844171916538,-0.06850394516637105,0.17684821546440968,-0.008120588549815106,0.4042002969531888,-0.09251001556334251,0.4335703847857022,-0.5278930658674589,0.5565211704598549,0.4727974037146068
246,9.38677,-3.7892004842321856,0.5293392483009384,0.14716696305198174,0.9808312411302685,-0.07629502745773771,0.17925273778877288,0.016794725543857674,0.44839872849881557,-0.1093179643686787,0.4216683487518126,-0.5370821849671891,0.5487582325068884,0.48219672204366126
247,9.39677,-3.6350628097314854,0.5359283267710377,0.242076117656236,0.9797091295626312,-0.0849108958511279,0.1814924239131028,0.044001540694248636,0.4956797596497003,-0.13785304866085524,0.4096798544998385,-0.5455771958971953,0.5413529050547723,0.4912864087658691
248,9.40677,-3.4312376243009695,0.5370305835481017,0.3248632254710081,0.9784714161469553,-0.09414379020597662,0.1835962588619394,0.07318477237831238,0.542724174425485,-0.1723704811299155,0.39781750924777387,-0.5532882241947324,0.5344590191799805,0.49989267235231766
249,9.41677,-3.2153191324933026,0.5311145394939866,0.3900419912264839,0.9771276417250477,-0.10377188633007624,0.18555018334380322,0.10064931423453614,0.5834838190788694,-0.20317521522444845,0.38624211875113035,-0.5602081498736724,0.52813114057182,0.5079329498070267
250,9.42677,-3.0152588601410097,0.521434070543817,0.4539966504217182,0.9756877447857982,-0.11368640994218794,0.18730609734057616,0.12271662928570767,0.6170279331542308,-0.23239202375405915,0.37501395979939767,-0.566378390716158,0.5223531923807739,0.5154311347696793
251,9.43677,-2.861796565563939,0.5219901153433426,0.5313152808749434,0.9741231868566498,-0.12400070723412199,0.18889222471692482,0.14078807723439865,0.6405874174129333,-0.2692524461832325,0.3640377857787247,-0.5718727492431949,0.5171025151187009,0.5224849662925206
252,9.44677,-2.771681138566748,0.5348208630155008,0.6016682195282445,0.9723857873730428,-0.1348599886601614,0.1903890691355901,0.15440602941319573,0.6483782838724835,-0.2966507006390528,0.35311187500777436,-0.5768416415290035,0.5122865998309953,0.529224254290278
253,9.45677,-2.731471556997757,0.5378946156257404,0.650041725217637,0.9704773483842116,-0.14620990887197896,0.1917376562052748,0.1618137207547871,0.645456539872885,-0.3019115122080063,0.34210644252509376,-0.5814536660319457,0.5077113069236711,0.5357752389536043
254,9.46677,-2.707645008087717,0.5199232183463572,0.6921686524813108,0.9684393044494541,-0.15793859629172732,0.19273270427356562,0.17129967638105706,0.636854404084054,-0.29806655362827844,0.3310275937829304,-0.5857606686077819,0.5032314450816684,0.5422316252788213
255,9.47677,-2.669287561506622,0.48245302466941603,0.7283108145331,0.9663067183350212,-0.16999728072694978,0.19317338897654382,0.19273466356338495,0.6262480703748876,-0.2927581931026415,0.31993825682973165,-0.5897201421405379,0.49880735814463323,0.5486473410252837
256,9.48677,-2.59318391782049,0.4487124216803353,0.7477209084328389,0.9641079491256389,-0.18221899118506213,0.19301713689717534,0.2194894858380086,0.6222923258716131,-0.29032136811038933,0.3089591879265076,-0.5933041925787049,0.4944608118164142,0.5549758338181735
257,9.49677,-2.472265537568267,0.435648856485627,0.7487348890890374,0.961844831629417,-0.19432884657413854,0.19249817158392152,0.2415802442712999,0.6306999997155357,-0.2976792259246879,0.29823535281330193,-0.5965424242944874,0.4902856016104445,0.5610452264420894
258,9.50677,-2.307150353604907,0.41522222340108467,0.7163646838125933,0.9595529302159456,-0.20598048138112562,0.19182879919815987,0.2641561082433995,0.6492166437754611,-0.3123971390465694,0.2879689333165585,-0.5994635287505017,0.4863667283572468,0.5666821954219451
259,9.51677,-2.1033293119855787,0.33134692826699036,0.63465921710951,0.9574025881300942,-0.2166917481765813,0.1907851210692826,0.31033108089878547,0.6822894986826016,-0.3295427164541992,0.278499534861604,-0.6020246907625739,0.48265341288190405,0.571856731854935
260,9.52677,-1.8719725180975626,0.19176781566718268,0.5122983688468731,0.9556377046426006,-0.2259532178596696,0.18889850912166278,0.3937684609793049,0.7363657008404915,-0.3588563195685053,0.2702262320368167,-0.6041287998866848,0.4790341732204916,0.576636302024391
261,9.53677,-1.6646223519567693,0.06244496316379314,0.35480120837279416,0.9544097162985141,-0.233415034443884,0.1860281195520157,0.48639464239505625,0.7961337527320107,-0.4009066073310659,0.26333635515115944,-0.6058031058770276,0.47540823964642615,0.5810561493900281
262,9.54677,-1.537018522010808,-0.028604665033963226,0.15177848858897744,0.9537823743356107,-0.23880184595230428,0.1823858038261586,0.5325312250621421,0.8426496632997216,-0.43469474389357865,0.2577169336114811,-0.6073143497023128,0.4715484301397525,0.585131813140278
263,9.55677,-1.4689107357247728,-0.09701085623981592,-0.11524752003182206,0.9538524416275487,-0.24170721046423096,0.17815098935510024,0.4933333435210772,0.864704472038191,-0.4481911898121443,0.2532437733013316,-0.6089907968413285,0.4671186331254519,0.5888847280378479
264,9.56677,-1.3962212821760573,-0.14380480696763953,-0.4572500788655108,0.9547605468526553,-0.24150481561410791,0.17349832778226476,0.37722075323060544,0.8507089698391102,-0.4395266736678093,0.2500052493210556,-0.6110864861293617,0.46185923957783326,0.59223655254526
265,9.57677,-1.2632383001822158,-0.1499727117667831,-0.8717507101265232,0.9566088151305113,-0.23744314916232426,0.16883993263399186,0.2199421285776586,0.8040593231715654,-0.4118827856695019,0.24823699994850573,-0.6138188477067139,0.45566913730621894,0.5949426035201151
266,9.58677,-1.0004516897903926,-0.11977486047263994,-1.332680229873434,0.9594077637938306,-0.22877339999949323,0.16482911221966937,0.06407047301784397,0.7562149728220049,-0.39305811988307043,0.2483337949335806,-0.6173073563143651,0.44869901058859174,0.5965863559292387
267,9.59677,-0.6378630526101556,-0.0797871020430489,-1.8043471748294275,0.9630500235687797,-0.2149989673784884,0.16201365446561813,-0.05101472711461836,0.7243631891031648,-0.415032164736447,0.2507087467548905,-0.6215225472230808,0.4412466961454208,0.5967711470603256
268,9.60677,-0.29286190969063397,-0.06391535676992836,-2.25444408252483,0.9673290435199274,-0.1960999501210132,0.16035996762431684,-0.09859304263817767,0.6923646982348338,-0.4712155850371958,0.2554937323079885,-0.6263354562024579,0.43343230237364905,0.5954282515992882
269,9.61677,-0.05544359652804076,-0.09992163283797718,-2.671875652569773,0.971984711166789,-0.17242470150745173,0.1592558867328872,-0.07307155995564779,0.6514039106702999,-0.5261651279420895,0.2624764638777623,-0.6316036640258547,0.4250658940798161,0.5928426042945361
270,9.62677,0.05781514920355438,-0.17423410724103522,-3.0618093478366517,0.9767269797558069,-0.144424504740977,0.15792738004994117,5.1418103769643175e-05,0.5895260138975555,-0.5532376137924838,0.27127413290050123,-0.6372223143235569,0.4157914869095276,0.5894262866318067
271,9.63677,0.066941479506084,-0.2777382493944857,-3.420114645070157,0.9812253604573097,-0.11252947649370132,0.155807404474148,0.08471280175342102,0.5057141045969458,-0.5554367798113748,0.2814868155853732,-0.6431274740698699,0.40528383051307,0.5855183279455818
272,9.64677,0.011265322122239081,-0.4069889091691466,-3.7510198249772873,0.9851309373795819,-0.0771524110428141,0.1524923677678082,0.16290574717163078,0.42190013512224717,-0.5442541147963457,0.29277163942726087,-0.6492405155549134,0.3933046377892071,0.5813809224782377
273,9.65677,-0.04535344106905697,-0.5549210764842241,-4.058566963646121,0.9880903511184826,-0.038591726304537624,0.14772749697037185,0.2400044581611252,0.3603395298953249,-0.5292895626830424,0.304960065070299,-0.6554297007040251,0.3797655655276077,0.5771447143122145
274,9.66677,-0.053110730792082776,-0.6924550353620296,-4.326575103809787,0.9897204842022699,0.0028602942178649407,0.14151900480784416,0.3255394610294062,0.3269108681074763,-0.5228444499529068,0.3180188696815575,-0.6615228033340036,0.3648081999756288,0.5727648984749247
275,9.67677,0.002613459347630291,-0.8050714822557811,-4.550521822011632,0.9896295046635961,0.04681213168142055,0.13407535543549662,0.42591194348574496,0.3061205272641669,-0.5214920329914576,0.33193907274804296,-0.667348079063599,0.34873496806978843,0.5680915564070733
276,9.68677,0.10254201485323877,-0.8970404365536263,-4.742464974843855,0.9874679728064514,0.09287798820446388,0.12557818598787565,0.5334256579630627,0.28726849872445026,-0.5127973364248009,0.3467178922660709,-0.6727567427053647,0.3318360338856819,0.5629744412205486
277,9.69677,0.23152085457675614,-0.9781816983749254,-4.90071153735223,0.9829457268195146,0.14067128047390093,0.1160943853831356,0.6335276398398056,0.260755786585928,-0.4877326032751417,0.36232645264143104,-0.6776235743664778,0.3143221491250494,0.5573223049942703
278,9.70677,0.3812060021592778,-1.0621076617275984,-5.015592091124846,0.9758607553490452,0.1896653395670664,0.10554119942975022,0.7186935877362424,0.2157294831958595,-0.44873797400582044,0.37869240097861945,-0.6817993265191556,0.2963849980276616,0.5511360063695413
279,9.71677,0.5567896222662319,-1.1668120462250045,-5.046556274956831,0.9661245670646972,0.23920116384353923,0.09369923130016793,0.7830734398286773,0.1528481330258753,-0.4014746907227469,0.39573682856083103,-0.6850943464896677,0.27824421987808184,0.5444872305928046
280,9.72677,1.1163516449143307,-0.9541181609853397,-5.055747108874906,0.9535281878805768,0.2891237996152727,0.08098357307237523,0.8237271504250241,0.08100727861453849,-0.35605209088489814,0.41384231000855004,-0.6873957688650906,0.26059754781095107,0.5367980431810675
281,9.73677,1.5229751830266498,-1.1287754560748056,-5.058328931902854,0.938209962265927,0.33866087065610806,0.06652880843211484,0.8401845461916956,0.015962944274419598,-0.33050958705516714,0.4335826504492789,-0.6881099020003598,0.2443665778411917,0.5278552176046447
282,9.74677,1.4475715124194801,-1.415294179395566,-4.919320434539873,0.9207829618488402,0.3861795999309417,0.048955266690287116,0.8492228656970314,-0.02338769829911326,-0.3539115013324361,0.45349946230663346,-0.6872576737054269,0.2282439432203124,0.5193853090921237
283,9.75677,1.2019167368253947,-1.3884918346255117,-4.880943120395162,0.9011857318499523,0.4316517811816945,0.03059598112933336,0.8477528202309677,-0.17993863302133342,-0.2572120355007901,0.47220319145776013,-0.6859984723517801,0.21127801554957892,0.5115077858320894
284,9.76677,1.3675367051263738,-1.447562244668122,-4.940277138276332,0.8790503176086256,0.4759277425068827,0.012367519278200047,0.8316799276787429,-0.3208903665224453,-0.13545077616934476,0.49055425395656466,-0.6843865270517091,0.19425691137177195,0.5030726870505927
285,9.77677,1.4405212399979537,-1.5319497940060802,-4.790630931219437,0.8549142448892567,0.5181392020545187,-0.00749719444351213,0.8267686572448195,-0.29829892643698086,-0.11769792889744612,0.5089737790481995,-0.681653637883028,0.1775891141167046,0.4945758960194223
286,9.78677,1.2728499520613445,-1.5347559287639603,-4.556223464393151,0.829633973713344,0.5571437710119416,-0.027579979836181108,0.820457045715643,-0.2947922220421738,-0.12136921639682921,0.5263064350645965,-0.6783615713385267,0.16116821070850668,0.48653554009193856
287,9.79677,1.2530851821053215,-1.543130031512598,-4.390023728455093,0.803354704520183,0.59319374891614,-0.047313716794926686,0.7995606610031741,-0.3763670204987122,-0.05566378747896404,0.54249931028949,-0.6747387017576209,0.14495346889336358,0.47883638817382584
288,9.80677,1.4297077286783266,-1.5206881340257983,-4.201975901992374,0.7762504557428714,0.6264202965717315,-0.06751439713209784,0.7716199286126042,-0.4354820916275893,-0.010901757081484711,0.5582309541318266,-0.6704018315366145,0.1294204409974366,0.47124354068636426
289,9.81677,1.612955930258613,-1.4949896695342695,-4.014245576084748,0.7487276652596485,0.6565545340398034,-0.0888651958217938,0.7400104549559786,-0.45037577137546875,-0.026081010534025846,0.5738901313328562,-0.66504479799691,0.11503923519781069,0.4637005492664003
290,9.82677,1.531553124482836,-1.5171857303159089,-3.8288629208839233,0.7209373505855405,0.6838244021186539,-0.11054247541558261,0.6929148287066356,-0.4711183785578274,-0.006774013606291512,0.5889819503652846,-0.6591013573137906,0.10132614463790485,0.4564140215260144
291,9.83677,1.3419695623554482,-1.5585481684515006,-3.6102802100902416,0.6931521571460606,0.7084441136230891,-0.1314300256497545,0.64048625850073,-0.510587335573396,0.04092344501486707,0.6028754649193185,-0.6530940183443944,0.08778856903147979,0.4496761783397898
292,9.84677,1.1433701835666872,-1.5868510173115193,-3.3420921110562305,0.6658946722129495,0.7303684863691859,-0.15106186981813488,0.599683134222017,-0.5567184293005148,0.08781362853963712,0.6153345219852295,-0.6472100926119224,0.07445712873262733,0.44368564202346533
293,9.85677,0.9476193718355542,-1.5917357461887363,-3.064589897071881,0.6396401830917604,0.7496396249130791,-0.16918176426668918,0.5566386124849231,-0.6202571090541767,0.13242274591522646,0.6263155791224635,-0.6415497136285466,0.06149710634727876,0.4385102747222815
294,9.86677,0.7635357256058002,-1.5779160499733764,-2.819999878630485,0.6145326834048067,0.766589589382113,-0.18561546732031436,0.5124364008411197,-0.664359430005,0.1614847914807091,0.6359066623998724,-0.6362053589412946,0.04895929486324718,0.4340611294415535
295,9.87677,0.6117376239365561,-1.553315515530087,-2.5833712041399552,0.5905914291736147,0.7815724768585071,-0.20036153777450516,0.46627124151760296,-0.6782128168246397,0.17984325952129657,0.6442599828422609,-0.6312095643169001,0.036863348396871706,0.43022531620113336
296,9.88677,0.49771683964695557,-1.5222666660138977,-2.3402166337512162,0.5679967599174605,0.7947121613002518,-0.21364259939470354,0.4198920584942066,-0.677138226008742,0.20342223226503675,0.651522654273952,-0.6265033068512015,0.025319010632268525,0.4269984465821539
297,9.89677,0.3866313217052083,-1.4862328450584823,-2.104096110875989,0.5469070998744943,0.806139685436743,-0.22559131472238772,0.3816693138634512,-0.67923910613143,0.23071560720851303,0.657789694499642,-0.6220686172690943,0.014396718189681496,0.4243818028661894
298,9.90677,0.28175352337303683,-1.4461484234631106,-1.8935919412252422,0.5273032555772554,0.8161103217987389,-0.23621896106594198,0.34171308182072324,-0.6860095053875185,0.2626428514633112,0.6631373196455793,-0.6179396571589352,0.0040620691155355965,0.4223178669174096
299,9.91677,0.18326199571350738,-1.3881327841838031,-1.6937679545801996,0.5091561352025954,0.8248557839027534,-0.2455160288144268,0.2940409569081437,-0.694303265947803,0.2945723547782252,0.6676429758148861,-0.614156292643536,-0.0056969827113476585,0.42072170677896575
300,9.92677,0.09464313031388832,-1.3214569918811023,-1.493856445094488,0.49254424743012787,0.8325094741439037,-0.2534806501415522,0.2460095640869242,-0.7021425690588384,0.31617902180479807,0.6713604478861267,-0.610754612762445,-0.014831825645843393,0.41953882362427936
301,9.93677,0.022583376063540238,-1.260400811107581,-1.2872376114877462,0.4775888193226647,0.8391175958880479,-0.2602531331875295,0.2079311069126052,-0.7110248631810435,0.3325571725820201,0.6743403026559598,-0.6077130533113113,-0.023295510893988153,0.41879599584190463
302,9.94677,-0.023275211253845535,-1.2086036910331832,-1.074054713945789,0.4643743067209182,0.844692394278017,-0.26609557582889093,0.18057895520611694,-0.7219513386062736,0.3426730825266425,0.6766542999415552,-0.6049583224478897,-0.031059075532509806,0.41855214215151615
303,9.95677,-0.038113574348513424,-1.151831568340643,-0.8611109822358716,0.4529778426860657,0.849216125724197,-0.2713131540264997,0.16059481412380086,-0.7342438436380687,0.3433106128869799,0.6783997671448017,-0.6023988790106442,-0.038059562665491285,0.41884358630370616
304,9.96677,-0.0317237248308589,-1.0792818228542198,-0.6554560024217642,0.4433664630718311,0.85267863406183,-0.27630042912014163,0.14229878564885193,-0.7436458913874591,0.3401210559893014,0.679738697462735,-0.5999044501567214,-0.04422876479615712,0.4196487737159137
305,9.97677,-0.021405263242955753,-0.997173721609957,-0.4563530758295362,0.4356562448294191,0.8551630856804624,-0.2808640843766227,0.12832032046856365,-0.7444682743978734,0.33442281971345716,0.6806499711054992,-0.5975886737788839,-0.04949492471075338,0.4208885386965889
306,9.98677,-0.020075742354493425,-0.9226394738730407,-0.24803659617384816,0.4298990198336129,0.8567335467037148,-0.284931077463081,0.12067755080563486,-0.7407885304323022,0.33182266014439643,0.6811128959144664,-0.5955079900123851,-0.053856795724890764,0.4225519276550917
307,9.99677,-0.04558911269780393,-0.860202953785004,-0.021176108666837723,0.4261685843957667,0.857400725333807,-0.2885133975206417,0.12469135852150709,-0.7404804916666694,0.33615867716573283,0.6810701228213981,-0.5936749323325403,-0.05736422032248489,0.42473416918075196
308,10.00677,-0.09514786959309467,-0.8029626414372258,0.21898171026899252,0.42459101490959034,0.8571784726069553,-0.2914887568610019,0.13829778715526722,-0.7457295954523262,0.34893087561642305,0.6804186881319984,-0.5921549996572204,-0.0600539870697098,0.4275194679630524
309,10.01677,-0.17973631537870605,-0.7462263117176912,0.46379450210205797,0.4252285527227253,0.8561254053466864,-0.29364722671548904,0.15363981927306258,-0.7501981973365666,0.3643707788482998,0.6790564736125603,-0.5910451743454553,-0.06197753233216908,0.4309326949525573
310,10.02677,-0.29808888782642956,-0.6802614602101659,0.7222326678277513,0.42818783577200237,0.8542955734254747,-0.29467101358876674,0.16453839548443414,-0.7501499340306123,0.375061927457287,0.6768526430779166,-0.5904868312950154,-0.0631630528803098,0.43497304040922946
311,10.03677,-0.4351656757673087,-0.6129919895367085,0.9845021907170898,0.4335614275336318,0.8516905687552137,-0.294345637505804,0.16981285688933342,-0.7471639124880307,0.38681904735469796,0.6737031384779971,-0.5905750807394597,-0.06362570448180867,0.43964795298227355
312,10.04677,-0.577442171533037,-0.5518419745562653,1.236208313281298,0.44129134464151953,0.8483085193763813,-0.2926059849784637,0.17413904753220613,-0.7423300627208343,0.39625990701370734,0.6695681249623814,-0.5913331257851155,-0.06341882266814507,0.4449408157797581
313,10.05677,-0.7090754300663185,-0.4818105161842896,1.4823738441649004,0.45126920394718745,0.844109456275891,-0.2894968835912279,0.17992655763961746,-0.7320350359494526,0.39819539448849794,0.6644630783763064,-0.5927360869000464,-0.06256856672708365,0.45080493570162355
314,10.06677,-0.8489349538158172,-0.3962230609390531,1.7541711560411757,0.46359245006596206,0.8389434240373254,-0.28498179543048086,0.1850664189760862,-0.7142011241102746,0.3994423505283885,0.658354685197281,-0.5948002942919953,-0.060993344348714,0.4572136927277905
315,10.07677,-1.0152704935174162,-0.2963203258094663,2.067082603659219,0.47855580041652546,0.832564351036581,-0.27885252120427073,0.19574966534130916,-0.7000630648993685,0.40735185266801444,0.6510833440560485,-0.5976108450035283,-0.05858368795612517,0.46421590526424633
316,10.08677,-1.1839095236759054,-0.1994142105110424,2.4093269593256763,0.4963903214768002,0.8246793002940723,-0.270944717222709,0.2285151281006617,-0.6905921669745839,0.4305974513132445,0.64248276763913,-0.6012228038487915,-0.05526058614369406,0.4718708337500787
317,10.09677,-1.296226555476084,-0.1456740254744163,2.7737377181848206,0.5171595639956919,0.8148540920577244,-0.2616042213655887,0.2927671897753239,-0.6819305453409121,0.46511687822444725,0.6325208210277679,-0.6054708103068789,-0.05094700229193291,0.4802981436573284
318,10.10677,-1.381771222588862,-0.15675857831895756,3.1730077484840997,0.5408134255871416,0.8025504783440817,-0.25154603012525206,0.38711249480347587,-0.6653393829431373,0.49962468116697323,0.6212016437982765,-0.6100293798638212,-0.0456241731447337,0.48973413227618184
319,10.11677,-1.4425902744220767,-0.19417426569936364,3.5769408728146006,0.5672142442416801,0.7873090885230538,-0.24127500459089674,0.5018259151636502,-0.6276690373261153,0.5339274184832399,0.6084694837241372,-0.6146577110534596,-0.03932862401570556,0.5003495709863707
320,10.12677,-1.4468864935691064,-0.19383246843559498,3.948813339131399,0.5960470908630247,0.7687997091847474,-0.23115639057148696,0.6031285591521416,-0.560024404673951,0.5654292127044157,0.5944339055939576,-0.6191817662861822,-0.03196222519719091,0.5120193976518225
321,10.13677,-1.4325228408828685,-0.14344882811152854,4.269245835431662,0.6268159740346119,0.7468899014941219,-0.22129849536079507,0.6541656944239589,-0.4865395046275818,0.5812732612592506,0.5792803588372809,-0.6235263422790978,-0.023416799511859744,0.5244166564087722
322,10.14677,-1.430209944327902,-0.057722188463355445,4.531857026935556,0.6589285955910563,0.7216483084897939,-0.21145267178437446,0.6518710368450128,-0.4194098587212566,0.584287491513853,0.5631030034578832,-0.6277455295764681,-0.01372679919554401,0.5371817013277421
323,10.15677,-1.440310493744738,0.05489709996846982,4.735104122789238,0.6917297693618283,0.693270654218906,-0.201310429753925,0.6105520581143549,-0.34784735015332174,0.5815170841638784,0.5459726016153476,-0.631910949184094,-0.0030304875129166294,0.549988178326817
324,10.16677,-1.4292483365307593,0.19996732196130815,4.88647577325583,0.724595131520734,0.6619841653191153,-0.19065614606112788,0.5463876304166794,-0.2822895568284524,0.5655056104709743,0.5280159235814555,-0.6360590465661473,0.008565188731239412,0.5625319189033934
325,10.17677,-1.326570520870951,0.38065400777716896,5.004596090750858,0.7570278063262537,0.6278952164140883,-0.17956210519912796,0.48099073225331157,-0.22574685727948138,0.5379780426687565,0.5095100674185267,-0.6401092770976512,0.021155935471154012,0.5745394363706812
326,10.18677,-1.1686892501051438,0.5327310120624947,5.118842827591515,0.7886872558811319,0.5909310619071458,-0.16833026639285223,0.4366358972826462,-0.1783430504551595,0.4956153536218199,0.4907712523478802,-0.6438748353496404,0.03497540449592092,0.5858551733666494
327,10.19677,-1.1030848847604062,0.763504855007572,5.251767523297667,0.819424860993636,0.5509176167957931,-0.15673205625712344,0.4297384532208084,-0.1387135054138996,0.44234951952131446,0.47155236792223604,-0.6473804198793582,0.04990999732059252,0.5965910231508172
328,10.20677,-1.1184899670502246,0.7592211401340283,5.165714961700049,0.8482694138586934,0.5091303134385216,-0.1440772812125967,0.4622558585607457,-0.11993741800605236,0.38159667221664795,0.4519727028441288,-0.6508897672649075,0.06527822665303798,0.6063647413974784
329,10.21677,-1.0695881244745469,0.9513804280879787,5.213448439106051,0.8748433886879096,0.46589173450483373,-0.1308772489831703,0.5292287241139996,-0.155764067937002,0.3018510608237612,0.43216237207991487,-0.6542040462233188,0.08084256256629342,0.6153005477242833
330,10.22677,-1.1892258545646381,0.9860691262702944,5.432278787427493,0.8997862791684229,0.41980112000021647,-0.11682995039059013,0.6396533288977077,-0.09460906799877261,0.23354666942647564,0.4116012222800378,-0.657333241517775,0.09721292504086741,0.623631328804367
331,10.23677,-1.341666129315688,0.6779469602607214,5.441739205013381,0.9221487575622814,0.37174004828736673,-0.10469526885476951,0.7592853795032948,0.09776369351368992,0.13883497838536973,0.38996181786591644,-0.6594843592391578,0.1126677085736518,0.6326009935288478
332,10.24677,-0.9371019347619587,0.9216480065360381,5.37923129615674,0.9417562161929142,0.3222162604811618,-0.09372150305355421,0.8370535299517828,0.11282086082314008,0.10570886001815843,0.36817146932624106,-0.6608204175214101,0.1281233868875005,0.6412646881621462
333,10.25677,-0.5399182679144843,1.209720210138146,5.017201740976314,0.9583092654098742,0.2733628698833037,-0.08036115200083527,0.9081645129239421,0.0743865299151299,0.12746477362551284,0.6574601596609975,-0.27892244720561443,0.5468399627916231,0.13286836832587778
334,10.26677,-0.6097497277485039,0.9377731787253565,4.6490334978059895,0.9712348099946467,0.22735092362945256,-0.06808508333006036,0.9248490047179426,0.23560152967822143,0.0001048025949474396,0.7306037312637264,-0.16857672305438043,0.6614369470531999,0.014322183665846708
335,10.27677,-0.853580133921444,0.8312223028655282,4.3802055834582445,0.981077046478892,0.183875045774876,-0.05790084182519147,0.8908251769529882,0.3910567625624874,0.006765554045875158,0.726528309950297,-0.156388720547545,0.668253684095575,0.03243088135660799
336,10.28677,-1.1668580625585154,0.7958226816588985,4.153876584734221,0.988491816655769,0.14227345548829476,-0.04848251906342518,0.8391604438996372,0.3583997547484613,0.18802115797103505,0.7222308460683706,-0.14580926803646796,0.6741486645504499,0.05067380955009962
337,10.29677,-1.1402185169174839,0.754531549177616,3.8706367924510787,0.9937791335579821,0.10286842804895663,-0.039579506831288074,0.7146551434789582,0.31171368067394467,0.2566976236025583,0.7176628214868149,-0.1365566461129796,0.6793715515539759,0.06853352379251217
338,10.30677,-1.1374122632713017,0.7718179906498993,3.49406939286136,0.9971966736971529,0.06647712797582542,-0.03110771598960049,0.5427284808639194,0.37309635299583827,0.26374604926346557,0.7129214112178461,-0.12834264758023617,0.6840767257823622,0.08515693628186667
339,10.31677,-0.7646947839156684,0.8641221713597933,3.0849517395834667,0.9990905667922065,0.03381578295239511,-0.02247876487106876,0.3448468463457183,0.4362457759191709,0.2059152829743035,0.7080070250698706,-0.12080881805522455,0.6885885907744612,0.09965533866190901
340,10.32677,-0.33147797776362686,1.0434951436228168,2.654392798986395,0.9998371819922136,0.005176089343884718,-0.012863492045639037,0.15732168945559036,0.5152001578232339,0.12003125093973137,0.7028941428724025,-0.11330287927064776,0.6933386684553033,0.11112869702725563
341,10.33677,-0.027215897596529065,1.215782662923402,2.2414286218355146,0.9997587455260142,-0.019341786893168657,-0.0014709597378391726,0.0056221218370096915,0.5443788352749452,-0.014050471862511335,0.6974229466668924,-0.10600872114874746,0.6985802858767629,0.11967616608391428
342,10.34677,0.0480892822876761,1.263902425923066,1.8420688690957958,0.9991058993834919,-0.03979741167786658,0.01101543393590192,-0.1009702156544708,0.5410218520376412,-0.12685292523039382,0.6918010867440981,-0.09952457424990441,0.7039831031816233,0.12606887644490317
343,10.35677,-0.08886525084718991,1.2296229402857122,1.4728695234480758,0.9981043193909888,-0.05636962654610238,0.023452003532830737,-0.15688834026937726,0.48190315128446704,-0.18803040320684755,0.686330324437533,-0.09449488745354384,0.7090766140207574,0.1312124173594832
344,10.36677,-0.3809758476505599,1.1965326216901044,1.1754772503527136,0.9969213111705992,-0.06964871642909815,0.035393311285848356,-0.1631143380008447,0.4136560354954023,-0.22062615123627827,0.6810305461017072,-0.09137738796847382,0.7136825071928882,0.13599063887824706
345,10.37677,-0.7481019549841152,1.1552875419874535,0.9200374423264264,0.9956558161969576,-0.08034584587682336,0.046693142613820446,-0.1608018682866676,0.3516509949052945,-0.1955284822411324,0.6758363038363595,-0.09034632214047857,0.7177616206773368,0.14103537715434525
346,10.38677,-1.119530032116658,1.1011830516389063,0.6926254174831181,0.9943891931261651,-0.08888852630724046,0.05712977241739105,-0.1589015768394166,0.3013850179285918,-0.1469412139927693,0.6707696450674402,-0.0913931852257307,0.7212560110682976,0.14661125525130406
347,10.39677,-1.443551679021701,1.050966273806745,0.48608278653486325,0.9931826713264185,-0.09555391736211465,0.0666273086361996,-0.1432306209590672,0.2784679887580223,-0.10757799531775306,0.6658464318344763,-0.09435733206948284,0.7241599887312239,0.15272824561190199
348,10.40677,-1.6659837235793626,0.9928069095381384,0.3116511702758199,0.9920717553463771,-0.10061932602420798,0.0752054573482776,-0.11970015302528464,0.28274883454197675,-0.07830444564481957,0.6610850319048907,-0.09889627494632061,0.7265110463685048,0.15923120854095485
349,10.41677,-1.801606782909698,0.9681043346416397,0.16833005470224327,0.9910513908112057,-0.10438120505539188,0.0831341736021437,-0.09284340425619514,0.30803103550805067,-0.06684289985140812,0.6564448987242092,-0.10453681464980782,0.7284462621087422,0.16584312452091166
350,10.42677,-1.9678582367881041,0.923386651033032,0.05605967277207645,0.9901098590626398,-0.10713770241601377,0.09052972527228996,-0.06492880917059918,0.33740276808384057,-0.0664062515559261,0.6518808786566109,-0.11107676168309845,0.7300139438203829,0.1725612095024348
351,10.43677,-2.208317147529347,0.8470405618287136,-0.03353585775490162,0.9892693380826161,-0.10919962674981765,0.09703483764441168,-0.04560408698649634,0.35532626176316773,-0.06388184102301826,0.6474428561733261,-0.11858081556547606,0.7310594375718572,0.17969616866587565
352,10.44677,-2.570207784933364,0.7595583009313689,-0.08124974377928043,0.9885339971403444,-0.11099940340550814,0.10235076567309381,-0.023902238542931248,0.3628475164052567,-0.07715199448079774,0.6430961362097365,-0.1272156098407321,0.7314240302272034,0.18772443311989703
353,10.45677,-3.042459583753512,0.6687567274409503,-0.10596771928200653,0.9878925542947418,-0.11301324638132028,0.1062718882426035,-0.0046520279965680325,0.34540591723732966,-0.08198359297295058,0.638720018061042,-0.13721011883920414,0.7309551507176909,0.19719446964314793
354,10.46677,-3.577059240204927,0.562420590630611,-0.1277097290595775,0.9873637053223294,-0.11542582316307988,0.10857447128301513,0.004554757597770041,0.3211973137812276,-0.06274725798667713,0.6342213986332218,-0.14877824885383423,0.7294748875209509,0.20846057056964806
355,10.47677,-4.071169726853794,0.4440150740096781,-0.1443394198408483,0.9869783483285117,-0.11824023411995785,0.10905072041417109,0.009815253817697808,0.3170553074181328,-0.03618223263428737,0.6295640436564853,-0.1619130810572478,0.726832400090841,0.2215800661732786
356,10.48677,-4.436658389884258,0.3472633132563208,-0.13526360853763142,0.9867212810218084,-0.1214710453241931,0.10781560307387852,0.008261063229196581,0.3346982893274682,-0.020124373711408128,0.6246931361817311,-0.1762419990639944,0.72306135965209,0.23626087836856793
357,10.49677,-4.654041709989516,0.29967412121218123,-0.10472420356317794,0.9865272890255902,-0.12514723077288034,0.10535251756212068,-0.00794116676749291,0.3721253853763834,-0.022730530482885695,0.6194985675678302,-0.19123163844739807,0.7183837191576707,0.2520115731923628
358,10.50677,-4.73205201222576,0.2923704619698639,-0.09177756468259304,0.9863444700024265,-0.12908204872605955,0.10226985498188838,-0.03718394385983752,0.42946910287314305,-0.039231401305346206,0.6138959093680789,-0.20645813462860615,0.7130760345716434,0.2682533330782627
359,10.51677,-4.701751435557289,0.2985304328756716,-0.07629569126703402,0.986157999991647,-0.13301428534349935,0.09897617604561386,-0.07111203111795047,0.4891477893121462,-0.06820362435265873,0.6079122985866751,-0.22159083514546377,0.7073567038079025,0.28446074121531606
360,10.52677,-4.588337771825664,0.3093751259019554,-0.04876125369673662,0.985949113235781,-0.13690877896170447,0.09569288526281886,-0.09940992375167622,0.5284737470034984,-0.09424545109763927,0.6016145420404124,-0.23632279665760655,0.7014040526593907,0.3002973582986038
361,10.53677,-4.389308762049829,0.31286040609498666,-0.01381268858150261,0.9857045653269494,-0.1408033669738413,0.09250805656481093,-0.11016497519756105,0.552077251241053,-0.11237493598690393,0.5951187983866898,-0.250363936964393,0.6953735966439297,0.31551099434369145
362,10.54677,-4.109415556867654,0.3026476680012412,0.04141315858722468,0.9854076231084353,-0.14480346583335746,0.08944691027506382,-0.10935812138068766,0.5679756761006826,-0.12776955266922396,0.5885743524905166,-0.2634081867019824,0.68943159088952,0.3298906517746386
363,10.55677,-3.760017342936482,0.30197536178135626,0.12035420064983249,0.9850250336979038,-0.1490590265122643,0.08662691172649468,-0.10086512090316184,0.5822213069176178,-0.14937316519835048,0.5821026778177534,-0.2751750599815678,0.6837931001047298,0.3432464327668907
364,10.56677,-3.3694558256058222,0.3062244339679735,0.21299141911911446,0.9845153729763101,-0.15373018746721764,0.08422310596021547,-0.0927271825517719,0.5974959276005009,-0.17530317833114042,0.5757812578378937,-0.28547263769654385,0.6786769638753457,0.3554482811267784
365,10.57677,-2.9654599525965963,0.3088687564925484,0.30851284032152176,0.9838526270386697,-0.1589277740297638,0.08229600402216786,-0.08286786669726301,0.615514876911291,-0.20022290523396186,0.5696854628809231,-0.29421806783104515,0.6742205998209475,0.3664603981845125
366,10.58677,-2.569288651080799,0.3122185310799508,0.4053007051431168,0.9830223168814622,-0.16468584443506584,0.08088014120688808,-0.0703718992225155,0.6313341945758536,-0.2152617075733654,0.5638638963364977,-0.3014349592878381,0.6704999233158904,0.37630221451347523
367,10.59677,-2.2010358577966374,0.296744987147488,0.495552449922615,0.9820194298577279,-0.17103027044343838,0.0798854608617937,-0.0544650954885831,0.6453339910984479,-0.2180185458324094,0.5583598496769028,-0.30719404543503726,0.667510497424602,0.3850716418212816
368,10.60677,-1.8630477030413322,0.2792120251455808,0.5762166955875268,0.9808558018135023,-0.17790304867695672,0.07916438132284533,-0.03620693285557993,0.6587756067986886,-0.21549869393745744,0.5532214117828727,-0.31160987204590757,0.6651909622418974,0.3928801178282242
369,10.61677,-1.5528154249166146,0.2771571384682149,0.6541826461776643,0.9795214690154008,-0.185267523960685,0.07878673283170959,-0.01891151976696597,0.6757779153726624,-0.2156265794366472,0.5484100814969789,-0.3148235849232526,0.6635346463194799,0.3998069760104406
370,10.62677,-1.2537118695152767,0.3050881193126521,0.7258931526795614,0.9779870925908082,-0.19312824835453113,0.07896680923606328,-0.004637688705304106,0.6936646380682638,-0.21666868784135837,0.543845453135868,-0.3169499722308882,0.6625900924938094,0.40588521445489356
371,10.63677,-0.9886065625682388,0.36238647903466253,0.7784497253229979,0.9762363204946253,-0.2013715746560742,0.08002834286187557,0.012560899212265058,0.7079694330038213,-0.21094285222251885,0.5394242381464459,-0.3181710234185111,0.6624056488271686,0.41109930074386863
372,10.64677,-0.7766378860311034,0.40998110105717367,0.8129101378409748,0.9742860514168566,-0.20983892031720397,0.08201517181506832,0.05363744182189314,0.7218653570904943,-0.2079728069700312,0.535089716594434,-0.3187071057854513,0.6628976636783372,0.41553308489139523
373,10.65677,-0.610340032417384,0.41306748633920193,0.8304675763694488,0.9721848416404865,-0.2183951516418356,0.08457049385537742,0.12385441280731577,0.7337722962786208,-0.20189293109787929,0.5309056534946187,-0.3186887759864566,0.6638694206344714,0.41934588558640695
374,10.66677,-0.4986005446805993,0.4015926918606426,0.8370388313474376,0.9699760112957794,-0.22696668894435693,0.08731695243785598,0.2082027517031258,0.7370057860979311,-0.19560180039318636,0.5269153082869978,-0.3182336508376852,0.6651207692425608,0.42272820730841354
375,10.67677,-0.43154969015835853,0.3786084048450438,0.8010996711666084,0.9677297347001568,-0.23534031209499853,0.09003463603796107,0.2888270655712284,0.7450761852040337,-0.1863187085052246,0.523136047862967,-0.31754001801339343,0.666472380503493,0.4258040668965141
376,10.68677,-0.37139078414234633,0.33262373239970716,0.7101425385178827,0.9655945151468703,-0.24302776748595695,0.09251225596536201,0.3445773225361314,0.7636913032773515,-0.18285762440165826,0.5196939526528698,-0.31682307397852744,0.6677417722866285,0.42855613215284
377,10.69677,-0.30296230318390577,0.2551401479044579,0.5719735081217572,0.9637386300868267,-0.24953951975204844,0.09451726752645646,0.37736678916460253,0.7862197628412647,-0.20150112375686435,0.5167972365744589,-0.31618394602408345,0.6687945984542225,0.43088370204470205
378,10.70677,-0.22386108461587512,0.13201586468842963,0.3933236530622759,0.9623347031952003,-0.254451138075717,0.09572903103709089,0.38866284506549936,0.8020846381366233,-0.23379360584268832,0.5146812733551394,-0.3156700375023828,0.6694900170502863,0.43270997234329284
379,10.71677,-0.09999576012243244,0.007270724019573779,0.1679967603626639,0.9615491931509981,-0.25732738059024807,0.0959431131630238,0.36483519968129774,0.8186537575580524,-0.27170367906377774,0.5135844491208331,-0.3152964906515586,0.6697459701876951,0.4338885079886656
380,10.72677,0.07799620099636659,-0.03372371602103721,-0.11673942648273913,0.9614953274695011,-0.2576118621807034,0.09572361196315927,0.2975229779659557,0.8338662891334051,-0.32039285091651876,0.513563606411093,-0.31519927111282137,0.6697098074386214,0.4340399458635805
381,10.73677,0.2963822216216951,0.021065502831429807,-0.47168063750117517,0.962252132411757,-0.2546310024154577,0.0960888669687653,0.18468141812210287,0.8309927730199005,-0.36157904012721465,0.5145201164671371,-0.31568200147432335,0.6696187591112768,0.4326943786548617
382,10.74677,0.5519466753524978,0.10504334740248884,-0.8655517719813561,0.963873874681087,-0.24776948375428542,0.09773913186607555,0.048415653455280344,0.8010944254365701,-0.37923591987509747,0.5164230457766729,-0.3169736708316426,0.669624601656278,0.4294607328596709
383,10.75677,0.8494234261452944,0.16124759519332887,-1.2583046885210705,0.9663190625179577,-0.2367921928880716,0.10072716434412514,-0.05016782288129738,0.7520113286507951,-0.3875825743084625,0.5193571979015281,-0.31901849247984315,0.6697689400839133,0.42414808516718294
384,10.76677,1.1666842812104323,0.15858156682679983,-1.6054663872360306,0.9694406502746656,-0.2218538527675489,0.10462293783970458,-0.05892792095143057,0.6977179076515153,-0.384221280904881,0.5234460810037475,-0.321537414985826,0.6700184006467931,0.41675779843376204
385,10.77677,1.4539978205144357,0.09901839764622172,-1.9153265369446828,0.9730484794237724,-0.2033214826858025,0.10866610625575447,0.011314020443699932,0.6468120172032963,-0.36579474541579654,0.5287589209443961,-0.3242713824487248,0.6702093395751044,0.40751947935263366
386,10.78677,1.730522964420853,0.006568846849585933,-2.194734978259915,0.9769498195186304,-0.18147753434922267,0.1122398246622743,0.12322448312784746,0.5935667235218064,-0.33879710795768037,0.5353166826902562,-0.3270410982121956,0.6701965962815983,0.3966159097565091
387,10.79677,1.9483418761460427,-0.10453056202839278,-2.4560246848598073,0.9809367077457745,-0.15659083887602707,0.11487639673929805,0.2280420908763544,0.5296427901203302,-0.3199572155268008,0.5430516846868577,-0.3297735119465167,0.6698410966865244,0.38424134366976015
388,10.80677,2.0635787387417093,-0.2574248841086252,-2.72592674805185,0.9848411718357043,-0.12877118861729353,0.11597839319789377,0.30698365403016387,0.4438343886183933,-0.2937414870525449,0.5518802922018886,-0.3326062354890527,0.6688510034071599,0.3707031591236195
389,10.81677,2.113842563674198,-0.43841802805520735,-2.9873534884060486,0.9884843166081445,-0.09812411881534397,0.11491942981330183,0.36971044532370934,0.37884591051655575,-0.2585098442182088,0.561734703994158,-0.33570690256683716,0.6669030489970791,0.35633425010975955
390,10.82677,2.114391636323973,-0.6224530780090808,-3.2110544872298017,0.9916170729996321,-0.06497315286345524,0.11136128936202694,0.4290476067198442,0.35035922806135317,-0.2263531765332556,0.5724997290193725,-0.3391053414688662,0.6638424745220585,0.3413816668209553
391,10.83677,2.047307377024721,-0.807413784903341,-3.3914915531801344,0.993957852420208,-0.029880269812962497,0.1052387946549226,0.4914815615940687,0.3367471620267563,-0.19446564729132124,0.5839404105486051,-0.3428278618390447,0.6596108199932693,0.32614651012756685
392,10.84677,1.9194444448073695,-0.9909114799945151,-3.563062163996584,0.99526536514368,0.006767419875448929,0.0965164827814674,0.5489514302054961,0.3242705308717128,-0.1566560932141925,0.5958698161701088,-0.34697132573341555,0.6541148464912521,0.31089941575225416
393,10.85677,1.7234623784748455,-1.1692639722286573,-3.7251308054954566,0.9953061204077149,0.044754546831717035,0.08527341584494655,0.6000042020015425,0.3018263847317318,-0.12981824512809872,0.6081158191824524,-0.3517084947854225,0.647250902440951,0.29586606469311794
394,10.86677,1.457855209686568,-1.329417970356674,-3.8824485824603054,0.9938362047759269,0.08390615467177326,0.07178477161994438,0.647336363417123,0.2572398352594956,-0.12402135270475395,0.6204698750649689,-0.35725182678098905,0.6389505911205822,0.2812548547069672
395,10.87677,1.1392167849772004,-1.4696131028338306,-4.05065655309311,0.9905961144162451,0.12420542373076836,0.05649662060316578,0.6916947952660454,0.18653971390112475,-0.11087381594832275,0.6327248441913595,-0.36384848893198074,0.6291700852602461,0.26719359796132885
396,10.88677,0.7684340195467888,-1.5862307958281707,-4.22245273306286,0.9853173649926632,0.16568378377284965,0.03992707693148324,0.7235752135625183,0.098269934687848,-0.08700118132586643,0.6446846727930239,-0.37172688360398815,0.617877617988311,0.25377482702538934
397,10.89677,0.37677024295082556,-1.6693009759600326,-4.377239549353572,0.977732460376743,0.20836802989469075,0.022678013933328987,0.7334318594445242,0.004871140551100675,-0.0631924394975241,0.6561615426434088,-0.3810548605785573,0.6050815363465015,0.24103657232246833
398,10.90677,0.0344630078099441,-1.7093405274730133,-4.510282106145388,0.9675112865766002,0.2525545507651527,0.005084838937259119,0.7214322253991021,-0.08186582019952401,-0.033981956127376256,0.6671671344709356,-0.3918398266067145,0.5907525833143984,0.2287635925596278
399,10.91677,-0.2513111310712086,-1.686629859223271,-4.610043381107274,0.9548700553359533,0.29663704149348247,-0.011095718537190517,0.6895475472559304,-0.15266447928028748,-0.014433218718250623,0.6770629808036259,-0.4036623719532861,0.5757537034656999,0.21707842037301847
400,10.92677,-0.43577319747971166,-1.6183888038176553,-4.68025546557168,0.9397226109688981,0.340817892196023,-0.025726563791530842,0.6512586532303843,-0.19983510601946425,-0.006556282786193123,0.6859914488447743,-0.41630822944779056,0.5601846765388979,0.20559665517571882
401,10.93677,-0.5360149918540869,-1.5156031513993642,-4.723714367502102,0.9221206135894754,0.38484419061695746,-0.038605113426551124,0.6209670532565423,-0.22723314439793504,-0.0010146888473205867,0.694012070033774,-0.42942922239823783,0.5443075459996738,0.1940148407165356
402,10.94677,-0.5498440281033903,-1.3832149832160108,-4.730643251093295,0.9022242942365993,0.42829181583984427,-0.049646407457450616,0.6088150183918951,-0.24173023270322577,-0.005121070578669366,0.7011750828272258,-0.44266322555520093,0.5284028845743507,0.18212404315728467
403,10.95677,-0.49940825745675615,-1.275602408545138,-4.702790150064757,0.8802615175140533,0.4706970904763939,-0.05914306823639201,0.6119015645040277,-0.2480992529211482,-0.012880424147804588,0.7076145118646973,-0.4556442516707858,0.5126418758489829,0.16984164072329366
404,10.96677,-0.4189943797051241,-1.1782222213418885,-4.641817980932426,0.8565086344517109,0.5116139345008943,-0.06756829282366847,0.630619820040301,-0.25663462819182986,-0.01564741010824081,0.7134827164724584,-0.46808027210710723,0.49709481636437175,0.15722553784825039
405,10.97677,-0.3360651109783763,-1.0764985107377205,-4.552660726773308,0.8312547742601318,0.5507305921113939,-0.07510509229725848,0.6527632179236564,-0.2687463067303827,-0.01752786475369232,0.7188277639848566,-0.4798368517479473,0.4818633789810865,0.14433657905231254
406,10.98677,-0.27167223799054263,-0.992950804112422,-4.450165544846936,0.8047948002113336,0.5878284823554066,-0.08185578619173119,0.6710168334757061,-0.2938380339518325,-0.013156279379309061,0.7236556659269527,-0.4909004892011657,0.46698895228254317,0.13131899747921932
407,10.99677,-0.21643197154699345,-0.9461773522063417,-4.33603657981519,0.7773482302444733,0.6228307828946696,-0.08806961398375562,0.6767803356113654,-0.3329966861791873,0.007004748316009557,0.7280299755854218,-0.5012868462822544,0.45240243100265315,0.11832943019764895
408,11.00677,-0.1427819771378209,-0.9022138364704646,-4.207585896524942,0.7491708042286644,0.6556368824682401,-0.09399794374086741,0.6648983288537725,-0.3765473018681324,0.04133109276117496,0.7320311752536197,-0.5109474013379313,0.43809398686471773,0.10547362655513133
409,11.01677,-0.03136422029379694,-0.8521401919261862,-4.0519668389543115,0.7205865320994381,0.6861078599115302,-0.09985427638553243,0.6345599628463403,-0.41883323545036866,0.07850707299544979,0.7357435272129476,-0.5197522377424191,0.42417486728250164,0.0927616022992892
410,11.02677,0.11932163016060696,-0.7957538128362964,-3.869460250020034,0.6919761942226514,0.7140763914843344,-0.10597393128807585,0.5925575057232113,-0.454159116036005,0.10572079455888472,0.7392900187687603,-0.5275185786725773,0.4107703641853065,0.08021065375334013
411,11.03677,0.301579874800574,-0.7511190613452928,-3.6649304872244883,0.6637182002159495,0.7394180219840131,-0.11274787312815829,0.5453990666213703,-0.48652613376195575,0.1333273874559921,0.7428087905567801,-0.5340815752261384,0.39796883078092027,0.06786721453992595
412,11.04677,0.5054309655857636,-0.6982889446545494,-3.4465525441732248,0.6361518428063242,0.7620873463073291,-0.1204678611766578,0.5022409731535695,-0.5174170523497073,0.15877225705869633,0.7464044872187361,-0.539343770135056,0.385838832989829,0.055782173379423816
413,11.05677,0.7215654197744978,-0.6419700831533205,-3.2142328142581036,0.6095719785206105,0.7820889332304927,-0.12939388991007664,0.4666876166187911,-0.5443236409195604,0.18209925686036038,0.7501744645650681,-0.5432194196053136,0.3744512955403826,0.04396637050233129
414,11.06677,0.9285838212094679,-0.6026091008433393,-2.9785000550603193,0.5842250161730157,0.7994788931074416,-0.13965238981783046,0.4379786934396464,-0.5685511038037483,0.2059954555290678,0.754168085139639,-0.545711549119353,0.36382877868604563,0.032481000580081805
415,11.07677,1.102561790456927,-0.574950253892635,-2.7350481714357078,0.5603005862688808,0.8143607247556401,-0.15123329989366496,0.41665015152350776,-0.5906784320791949,0.2281351401852061,0.7583899369204923,-0.5469116508380094,0.3539351956568645,0.021447496911354037
416,11.08677,1.2160900503527932,-0.5604693984750801,-2.4878255170975625,0.5379771985318501,0.8268698306066403,-0.16389481070008816,0.39930911520937057,-0.6116350284140157,0.24778786089733448,0.7627743674162043,-0.5470036716549169,0.34473037358770653,0.011037150443097993
417,11.09677,1.26635807007526,-0.5507356509301856,-2.2491511853585964,0.5173114490759945,0.8372480257588685,-0.17720502339639968,0.37943284840749913,-0.6300157718197255,0.2699417173037992,0.7672027767120497,-0.5462527731078148,0.3361622973329427,0.001375169476092366
418,11.10677,1.2805022321240183,-0.5511471504897396,-2.020222659891154,0.49832371553600247,0.8457465051798293,-0.19074978678296028,0.35292113871211683,-0.6523325313198083,0.2940486911301771,0.7715694128060099,-0.544899656329325,0.328191034228624,-0.00745140869753769
419,11.11677,1.2532552819613567,-0.543103083412085,-1.7919427009666626,0.4810433057833518,0.8525792507031641,-0.20422024043168965,0.3221278104149465,-0.6760744196231073,0.3132909537095986,0.7758050084527623,-0.5431167137194242,0.32080224437307053,-0.015389563370424325
420,11.12677,1.2003116417136477,-0.5264754618217758,-1.5766999206701062,0.4654895896444191,0.8579640410349157,-0.21729247358524723,0.28949751004750746,-0.69331296076194,0.32753732089207327,0.7798348453083749,-0.5410558865513997,0.3140257303414177,-0.022443847005370977
421,11.13677,1.120001251280935,-0.5015864757859647,-1.367275901406204,0.451654090731944,0.8621251101786165,-0.22966795395115394,0.2540646009234308,-0.7043860883059812,0.33993120432565066,0.7835907877183621,-0.5388659059020959,0.30787882108091963,-0.028622947977585893
422,11.14677,1.0242439629955045,-0.4601157868555264,-1.1581323156224503,0.4395894110035042,0.8652290757562695,-0.24111847243082446,0.21928315236485507,-0.7169494224947153,0.34918345522185634,0.7870243279567228,-0.5366438519683758,0.3024135060033402,-0.03393694241201882
423,11.15677,0.9187668265450102,-0.3941642321011374,-0.9432167218414579,0.4294087066541738,0.8674017225815556,-0.25143731834047667,0.18724866635864104,-0.7350482391296455,0.35408229551842973,0.790091023653877,-0.5344556913820291,0.29772178268722493,-0.038399686304397614
424,11.16677,0.8058107867400787,-0.31439794187023035,-0.723653405837809,0.42120373408802986,0.8687370188272061,-0.2605419348612566,0.1621795477920702,-0.7496883113515168,0.361624575868109,0.7927819270843817,-0.532319440325181,0.29387902740350846,-0.04204260822265318
425,11.17677,0.6800740564958195,-0.22840163953164827,-0.50770270523459,0.4149549745232059,0.8693277963444406,-0.2684784148926896,0.1490614537915074,-0.7598208920729622,0.36785006691327066,0.7951241967576449,-0.530233632877009,0.2908831158988943,-0.04490608885883043
426,11.18677,0.5378045062910469,-0.1437202153029293,-0.2684171198215792,0.4110414425042964,0.86927775170443,-0.2745921994028151,0.14853951096368412,-0.7661403109329987,0.37352783915585813,0.79693242248107,-0.5284031647630091,0.2889531798287908,-0.046849533148920694
427,11.19677,0.402714789804977,-0.06564812998756578,-0.022254078651595982,0.4094740134884588,0.8685665043663812,-0.2791470448100605,0.15787739422964236,-0.7704317976525105,0.3857190858429153,0.7983016348052293,-0.526750696430143,0.2880280092093607,-0.04783330986430111
428,11.20677,0.27006588007115473,0.01714646507756272,0.24692511119445948,0.41036243642183434,0.8671631354984807,-0.28218863002716316,0.17539443535249494,-0.7724952139789549,0.3934874249995994,0.7992554547112338,-0.5252492866021398,0.2881298352689608,-0.047802251419727895
429,11.21677,0.14339264694419843,0.11771613004036253,0.5424558628791168,0.4139552320302005,0.8649525055675023,-0.28371996767174723,0.19526289307182465,-0.7700336369757792,0.3957430680347013,0.7997996066675604,-0.5238361641087038,0.28937085284028413,-0.04669591933308746
430,11.22677,0.013200660688301613,0.23541050122184387,0.8550709394399538,0.4204829497380183,0.8618128160912578,-0.28367221943794485,0.21841986258745405,-0.7608510643731841,0.3959545274654216,0.7999109435129148,-0.5224632469584234,0.29188286143636105,-0.04447904898392044
431,11.23677,-0.12271302583264314,0.36789846813857024,1.1952655304057418,0.4301388390391794,0.8576064191569518,-0.281932205870623,0.24851489733823243,-0.7462057421016174,0.3921474321428751,0.7995483122472153,-0.5211099757300857,0.2957658283028578,-0.041084091823847486
432,11.24677,-0.25144756323083467,0.5149815430550495,1.5717655357944909,0.4431772360369152,0.8521037985423053,-0.2783924121724479,0.287896337979983,-0.7308509917021998,0.40117412467283053,0.7986664770310715,-0.5197199475725153,0.30115347664037545,-0.03642728663428566
433,11.25677,-0.32894109877371924,0.642397058576656,1.974909387961073,0.4598066110447245,0.8449123741950144,-0.2732825731498588,0.34495434220299753,-0.7084289434583253,0.4129703049438654,0.7973168111150483,-0.5180951392386004,0.30811302950988306,-0.03041796964185116
434,11.26677,-0.28421568939658826,0.7308644587355684,2.415087299980582,0.4801026289227485,0.8354565614139379,-0.2673707600612099,0.421837695239441,-0.6770721718390403,0.4208415935330154,0.7957102785247179,-0.5158407089057926,0.3165741059186641,-0.022968998638220578
435,11.27677,-0.08045199274887571,0.7937987782435787,2.885293087484826,0.5040803037934432,0.8229160928061032,-0.2620557189889779,0.5187150402222234,-0.6336462570350001,0.4226748378240298,0.7942450252298375,-0.5122605182668989,0.3264284202981472,-0.014097251789150236
436,11.28677,0.17733029843841086,0.8688215477551415,3.377083340677462,0.5317523303990449,0.8065653168559397,-0.2581412167530695,0.6372667138005048,-0.5703121362558218,0.4194939184783984,0.793126973489574,-0.5068306626834062,0.3377033930475725,-0.0038705886798256844
437,11.29677,0.43628839773349704,0.9535614426874066,3.8467021371029197,0.562868177085803,0.7859854561468977,-0.2556018979475128,0.7637118255906941,-0.4797142014353184,0.4231872381109894,0.7922979954761925,-0.499399904346358,0.3504096731771455,0.0076302270279071235
438,11.30677,0.6577323600962999,1.0533580686241897,4.282637229095752,0.5968837178917473,0.7609859465700868,-0.2540359938027697,0.8718743680339854,-0.389760728818801,0.4402748175702962,0.7915799699407559,-0.49002064583642463,0.364480446499883,0.020271987551102624
439,11.31677,0.7939749780980663,1.182469045395978,4.706589637819994,0.6332756029061161,0.7314518442579768,-0.2526252411706678,0.9526914053857459,-0.32990181346792,0.45652612756491834,0.790662373055662,-0.47890145947027274,0.37989574792482844,0.03399065114500688
440,11.32677,0.8040646028136593,1.3410996530637018,5.106045961740099,0.6715219011054309,0.6973759928478096,-0.25015639680468993,1.0018625682984037,-0.28097918808967,0.47441166610532653,0.7891007399593699,-0.46644664937494135,0.3966423639570047,0.04884305142752682
441,11.33677,0.6954447184333316,1.5417632607317586,5.460388059722031,0.7109387463629647,0.6589394276946519,-0.24533853106821762,1.0218852261937748,-0.2195235318706069,0.5024308164218549,0.7864165518074977,-0.4531525595204434,0.4146750911116281,0.06482979438591409
442,11.34677,0.5069784590607124,1.7555842286902337,5.769313121025986,0.7507562566673466,0.616386261870724,-0.23713221831779982,1.0212264971136669,-0.16066299602098189,0.523148419420692,0.7822008498109783,-0.43946341695934676,0.43390592757163204,0.08190864856823436
443,11.35677,0.34635605272111764,1.9214382845308031,6.013541465144687,0.7900137347373509,0.5699361580580334,-0.2254463674331645,1.0068733045823943,-0.1399359155937591,0.5383975285115752,0.7763410280083844,-0.42555664289052714,0.4540309256629971,0.09997901197609185
444,11.36677,0.25446714103538104,2.0617244315045973,6.143034082252802,0.8275527201689151,0.5200201391212453,-0.21093627668595033,0.988421260219249,-0.1479884817975587,0.5368102376019653,0.7690037683407513,-0.41136233329515604,0.47463313760360487,0.11864759371763799
445,11.37677,0.22018575166002496,2.173946097806141,6.1470095597215275,0.8622353709209393,0.467540065278733,-0.19418280492153026,0.9735749806343915,-0.12973474966974907,0.4903428918916027,0.7603997193009995,-0.39690209975486324,0.4953180319988536,0.1373268827812492
446,11.38677,0.25946540859529005,2.208217260115097,6.061910780347978,0.8932249775547164,0.413454586890382,-0.17593746758646103,0.9604578036518852,-0.03949069870082593,0.415379258419614,0.7508339825398466,-0.3821731598580785,0.5156911332820258,0.15553780381097496
447,11.39677,0.31931103488357115,2.1750551435616083,5.915108982521398,0.9200390589526041,0.3586047258307503,-0.15711891522030993,0.9600725596253674,0.08560805999773922,0.3140308131080661,0.740676690973329,-0.3671442987797189,0.5353587688413248,0.17301135543944135
