seconds_elapsed,rotationRateX,rotationRateY,rotationRateZ,gravityX,gravityY,gravityZ,accelerationX,accelerationY,accelerationZ,quaternionW,quaternionX,quaternionY,quaternionZ
12.0,-2.3357710279847588,2.1917602202876916,4.36714337539526,0.4517720695285572,0.7873747681771103,-0.41755277573812477,0.4413392600476129,-1.2375166229624137,0.6763239921730634,0.8355039614347167,-0.4317266039306787,0.3234328580333338,-0.10257467777309658
12.01,-2.7527831220055443,2.4823396031238394,4.802279593883591,0.49648184953476915,0.77632628608535,-0.38764990577579167,0.5347364579503047,-1.1028935667429796,0.6903750757712598,0.8285926336439431,-0.4333836769973367,0.3439276163868252,-0.08471662544467133
12.02,-2.8667284712994885,1.9762638732839637,5.448278161710242,0.5452211020501999,0.7590606401508571,-0.35335331418446064,0.6104469334957571,-1.030929335041516,0.7229268286990391,0.8200873164251649,-0.4353015621456089,0.3655509913030866,-0.06228068004641471
12.03,-2.8805710232085966,1.2991678058197564,5.906055599516865,0.5930316359457092,0.73635618245972,-0.3226065680416599,0.9295941522187068,-0.8228515278525466,0.7581713967246922,0.8120961439320935,-0.4361099306016524,0.3851301717962627,-0.03708340326897658
12.04,-2.804935284424256,0.5760335792172451,6.272953105842448,0.6403450001344656,0.708778631823065,-0.2949759209342658,1.4006198399784524,-0.4993407594530006,0.7827900781675299,0.8045197945841255,-0.43579155792635865,0.40318561467931896,-0.009559358900462906
12.049999999999999,-2.517011108227006,0.5022263174605636,6.97356192463728,0.6888431400063536,0.6695577009000909,-0.2743336721045304,1.7653273489000485,0.05377116959935635,0.6896584662535793,0.7976098542053579,-0.43184152102740797,0.41978093432755764,0.022480340922313758
12.059999999999999,-2.941940157350927,0.6739431600598539,6.875116781436119,0.7348182262620162,0.6278151047761064,-0.2520275373242728,2.043671961572209,0.7095050222099041,0.48790172271374704,0.7889372952379101,-0.42841361397819344,0.43623234206054556,0.05459590046140175
12.069999999999999,-3.833500897149709,0.9667751329683448,6.24054976554892,0.7782075632183302,0.5848196940513306,-0.22786340542967787,2.2193054569450115,1.346077796796481,0.22898221061377744,0.7786468210342264,-0.4259219799644892,0.45236394437892236,0.08659834149410563
12.079999999999998,-4.474394262322865,0.7668511671241736,5.752904459493903,0.8128976710642802,0.5467938540470807,-0.1963946867035236,1.9514254092310845,1.0605708419485094,0.151342375579842,0.7642134415356286,-0.42934740095374246,0.46623102690816176,0.11690369457379698
12.089999999999998,-4.995834809542466,0.5714917458551301,5.204390562454182,0.843176548313448,0.5098652905236798,-0.16587091723961123,1.980742926452469,0.869533188734969,0.21088699463232277,0.7486972557788024,-0.43480675369623567,0.4774259571567669,0.14744096566078396
12.099999999999998,-5.4123576829846005,0.38484628947750815,4.609689464763341,0.8696726522707551,0.4742274518753802,-0.13615557475981793,2.2055247695826297,0.7745641957679814,0.35150400570093165,0.7323258300562014,-0.44198780216988537,0.48636790394637625,0.1779074901813646
12.109999999999998,-5.6016460995917035,0.25948216594058104,3.980528143533767,0.888802399792737,0.4443323076551541,-0.10799699714762764,2.262618287157609,1.0056947449151905,0.3123940485600071,0.7149656974794092,-0.452314164022541,0.4912777194388086,0.20574701040140433
12.119999999999997,-5.388099609410759,0.13119217437918218,3.3809550577986895,0.9048577349543099,0.4166621420894628,-0.082961988755475,2.1456396490803185,1.248053593139875,0.1841847099118089,0.6980763625308546,-0.4626988466476542,0.4943369701790085,0.2317309502275578
12.129999999999997,-4.884758511222252,0.003139448012522559,2.7963680276884078,0.9183021173921386,0.3911039386238745,-0.06065930086465904,1.9051462898424845,1.4876204576823202,-3.561346427650991e-05,0.6817242670977355,-0.47305187274242183,0.49586551960514785,0.255969158056059
12.139999999999997,-4.423843023089116,-0.09589109780002546,2.1314348854036917,0.9271754133437822,0.371580399913691,-0.0439769388157879,1.7039589367574204,1.5927453594852903,-0.07573767763660838,0.6677568433261355,-0.4824962793541771,0.4951439977576567,0.27536579268817807
12.149999999999997,-4.169859225334729,-0.17405905541343625,1.5657179920741742,0.9337806731135763,0.35637655458555245,-0.029564136480882568,1.3728208182646422,1.6103516907988318,-0.08374872646147298,0.6550815603156321,-0.49205738741786537,0.49299325044641734,0.29232699026245124
12.159999999999997,-4.084700547684156,-0.2324139547411127,1.089728140404601,0.9385619729679381,0.34466521687333185,-0.01691075394962443,0.9595456939585635,1.559095375326388,-0.037815226785561644,0.6433942839224077,-0.5017693895504164,0.4896515335166348,0.30735681522064096
12.169999999999996,-4.189273725532924,-0.23380258160913983,0.823702795611254,0.9416217096857109,0.336484807073269,-0.005088929760053356,0.7507541765327992,1.4620044877571783,0.05282275831283895,0.6319948888387319,-0.512342935686688,0.484661478145674,0.32090674297003013
12.179999999999996,-4.194903760168881,-0.2710507366352502,0.6705251838520927,0.9441643123798925,0.32926416946716874,0.0065750797153004146,0.4309188029481837,1.2993852514501023,0.147529080020299,0.6204731710494242,-0.5232294484870122,0.4789911151966697,0.3340169739851285
12.189999999999996,-4.1116202857018065,-0.33968857923655194,0.6078085269910578,0.9462988627136013,0.32277928026430325,0.017927524696849592,0.038770644378301945,1.096164573734502,0.23616766969316202,0.608915058175001,-0.5342677698366501,0.4727677317896617,0.34674962458132635
12.199999999999996,-3.834135859950716,-0.466081974930308,0.6009898369408148,0.9482754601049936,0.3162612112808487,0.026402626615399605,-0.15574553888396184,1.0408982731102683,0.1857113061375434,0.5982290402459012,-0.5439625595902441,0.4660913098649993,0.35888464887051197
12.209999999999996,-3.5069109790123343,-0.5500404113451491,0.6362028293802475,0.9503937335748404,0.3092044623409589,0.03312401949875714,-0.3885182861567709,0.9976054008187639,0.07998099475961279,0.5882001746920006,-0.5524595152746617,0.4596738245155301,0.3705974991464426
12.219999999999995,-3.1474271583209954,-0.608442020575874,0.6942040089713597,0.9526240338651898,0.30172533480026653,0.03826606509510444,-0.6435456862838134,0.9681424480698185,-0.06518602411867865,0.578775096996916,-0.55990172714166,0.453472946532409,0.3819324076602184
12.229999999999995,-2.9079917962117725,-0.8028159024653432,0.5743752702000411,0.9548565279019336,0.29429884065567646,0.0400898193534404,-0.7625666496668859,1.013388733722479,-0.13826438067064972,0.5707979922050985,-0.565487396988768,0.4474786883670298,0.3925070687720023
12.239999999999995,-2.642940135548119,-0.9661859766967692,0.44678855315662097,0.9566973303615652,0.28833782949664144,0.03969616168550853,-0.9769622653914408,1.059100993508631,-0.19800160152605878,0.5639229918737582,-0.5704134065843794,0.4409547689685586,0.40258518961643813
12.249999999999995,-2.352454868773091,-1.0979167232908187,0.31520995987846995,0.9582037797588032,0.2836303913807814,0.03737261930502132,-1.2609318965352985,1.1026041934466853,-0.24467593922628225,0.558026782725061,-0.574730147512519,0.4340136130062806,0.41220551057682375
12.259999999999994,-1.9710798232247175,-1.1028755819319693,0.22873449488526348,0.9593880457598629,0.28017960939490233,0.03249954798661896,-1.3916308688926244,1.0954684644542614,-0.24759812519869834,0.5537812592336048,-0.5776005443207234,0.4273196592227465,0.4207529829791354
12.269999999999994,-1.5343818792091077,-1.051302648419455,0.001697086603076936,0.9600362200393413,0.27852283168301356,0.027172027848512408,-1.5470067570806239,1.1080129019154354,-0.26500342264051086,0.5507440840750322,-0.5799202598411453,0.42102027970334205,0.42787190789703045
12.279999999999994,-1.0516288534992606,-0.9525051100265592,-0.3516606654543958,0.9601433769476353,0.27867410752650335,0.021426426215730286,-1.7185116134940712,1.1344414346478804,-0.29345862172680187,0.5488634882928316,-0.5817663839182616,0.4150404741274234,0.433630309903222
12.289999999999994,-0.5706653198680744,-0.8518073712185248,-0.9131577167672347,0.9581026997636474,0.2859573692046528,0.01478671937971051,-1.7883334691835822,1.103112644819052,-0.2984305644276916,0.5503871409012518,-0.5832837952794245,0.4088444830330234,0.43552001551050495
12.299999999999994,-0.21330913184776296,-0.6882364999293494,-1.3542381799626426,0.9548744969603571,0.2966760455702405,0.00859887081167492,-1.8110631428076616,1.0445854414427163,-0.2760071723791112,0.5532303482227948,-0.5849982494826254,0.4025588227077285,0.4354616805127781
12.309999999999993,0.04145278273768086,-0.4722366463205495,-1.6932234576481604,0.9505550066826916,0.3105094957972222,0.002855859373489195,-1.7918262539091425,0.964045268131509,-0.22995172520287335,0.5572643791754424,-0.5868973729543724,0.3962034303387537,0.433619023283679
12.319999999999993,0.3864889661300121,-0.2954676984927237,-2.0612949484431025,0.9442098324391749,0.3290465555003751,-0.001305824585451067,-1.7281129888738558,0.9187526939650282,-0.17942453592407145,0.5629524966606668,-0.5892310615368824,0.3900420603896386,0.42861352697708965
12.329999999999993,0.8475088157972841,-0.12515420751064565,-2.4033719936943867,0.9365396869405465,0.3500492722998545,-0.005582056938056339,-1.6277258824713718,0.9076735270073747,-0.1253073120075363,0.5699866425488109,-0.5912976348864961,0.38413230117125974,0.42170275920257383
12.339999999999993,1.406914372801981,0.04184740413973218,-2.723971780168017,0.9276209065917149,0.37333859934148433,-0.009975750343132951,-1.496675705470315,0.9259855574047618,-0.06952953706366881,0.5782823925699452,-0.5931006356265693,0.3784743489338221,0.4129956389065694
12.349999999999993,1.8408708346878528,0.28955908387478857,-3.0922122072386284,0.9158869312567585,0.4006065200365183,-0.01493689377173513,-1.4204979623724736,0.919860532029204,-0.06481198288685237,0.5892038679506495,-0.5939324863719094,0.37385154934391873,0.4002113665229813
12.359999999999992,2.06178506988121,0.5888343012424015,-3.352412225391648,0.9025723696184925,0.4294405466201113,-0.01890372945785832,-1.3295832060252284,0.9112096592809196,-0.013264245072162895,0.6004212036710663,-0.5949954672065896,0.36948465732574404,0.3856746807558555
12.369999999999992,2.088837853047677,0.9274458314584113,-3.515845066539348,0.8877711988274984,0.4597166242491628,-0.021933715063999243,-1.2251962688273892,0.900329389155041,0.08074606339568645,0.6118920499348917,-0.5962833753863458,0.3653471918101146,0.36951423304319414
12.379999999999992,2.058778479671628,0.9411172782667302,-3.7193666354743153,0.8703878455372575,0.49116940472931203,-0.02326512605852196,-1.1140903594522662,0.8918555946763904,0.18055017045809005,0.6227404296536767,-0.5982856208627628,0.36112464280446804,0.35158326408828955
12.389999999999992,2.1911183534478758,0.892101953807811,-3.840873999287095,0.8513870258975808,0.5231498279973373,-0.026278575605680525,-0.8725033154621893,0.9824062985191013,0.29015367424497757,0.6339495918050801,-0.5999217103491743,0.35628476384270574,0.3331623675543313
12.399999999999991,2.4769672378835046,0.7918933922420452,-3.880793921308362,0.830877118602849,0.5555692163870803,-0.03090915852106618,-0.5120051931330959,1.1649998791638965,0.4068463514701461,0.645505281891041,-0.6011777606722695,0.3508993995498054,0.31426898817956817
12.409999999999991,2.938719747870627,1.1457620634813916,-3.568818526896339,0.8098993971495148,0.5846887515446595,-0.03912112092681072,-0.29681548572982364,1.3538017510479605,0.3934092802892254,0.6578075916626618,-0.5998405121813576,0.3473089759702007,0.29423791708901936
12.419999999999991,3.185575257834469,1.3244366516700952,-3.255245752973748,0.7902819191901473,0.6105419737790105,-0.04720505218248883,0.07928255107847751,1.6127685744925129,0.3635050341331236,0.6695376619548337,-0.5974056665644302,0.3456844808198664,0.2739419105570724
12.42999999999999,3.2265555791516234,1.3275042604115237,-2.9490506380741905,0.7719290259752649,0.6332900606906224,-0.05524416506898785,0.6078371439639877,1.935972566637902,0.31880487445863775,0.6807345926040461,-0.5939157223843228,0.3458923098812004,0.2534086425747306
12.43999999999999,3.162700475780004,0.34120214324702536,-3.6786432094750907,0.749753540326519,0.6572433959734821,-0.07227832588494597,1.017476131421799,1.9463952066488617,0.3801005451689839,0.6934066713050601,-0.5894736516183825,0.3411164287781442,0.2346721213050366
12.44999999999999,3.063229538142526,-0.13189676234502756,-4.359204424078588,0.7227400116404735,0.6840891302421518,-0.09200261244655997,1.5778760036198316,1.7455510941087895,0.4797313500838156,0.7067408459794983,-0.5855365427002612,0.33328763945646483,0.21495225539514468
12.45999999999999,2.9289529650155623,-0.10187388288698412,-4.991068730148072,0.6909735208742399,0.713771476397898,-0.11435921234840492,2.284329021343086,1.3382374482250456,0.6165292422884091,0.7207215111762757,-0.5820966950163623,0.32246455549107367,0.1942631283046639
12.46999999999999,2.844074967136781,0.08477527236585017,-5.265227471825583,0.6523019709721789,0.7448988906862243,-0.13482900920342467,2.084895627409368,1.2191856304676487,0.5388035973575211,0.7334873566418216,-0.580020564874974,0.3099693836805789,0.17042094506777122
12.47999999999999,2.8832124283138234,0.15729737489931894,-5.2465959113111875,0.612748580632097,0.7738493678398265,-0.15583898752322836,1.850620355955331,1.1309263036904222,0.473817081789753,0.7457427302746289,-0.5774682028792747,0.29753959773172445,0.1463668012008509
12.48999999999999,3.0471550624671404,0.11496567884707154,-4.93330959896954,0.5723077344115743,0.8006090454130683,-0.1773925871114143,1.5812813385469755,1.0736555503733853,0.42165081666363025,0.7574843814580778,-0.5744365764482656,0.28517561401296565,0.12209934696685096
12.49999999999999,3.4725478106763346,-0.008196769139255725,-4.797166787016676,0.5328678507684338,0.8202521476033291,-0.20464779348937165,1.8270272315968725,1.109987988755827,0.46056315015555976,0.769560240736777,-0.568236687327805,0.27329895081514083,0.09874944643217361
12.50999999999999,3.5634010879736406,0.03793295214843474,-4.427259565825275,0.49534072587724265,0.8362128876572528,-0.23292818307709734,1.9370939135048466,1.0246015739192373,0.49250703889085473,0.7812399088714987,-0.5610231695326903,0.2621076231986646,0.0764191414392932
12.519999999999989,3.307120675860946,0.2594656997102818,-3.814815822524263,0.4597856459823233,0.8484035836569128,-0.2622392027386511,1.9042884487641167,0.81292178745615,0.5167836394662636,0.792508345404515,-0.552778051608197,0.2516222173117903,0.05513807713789395
12.529999999999989,2.7772574764517888,0.38455686552501944,-3.4279438051908766,0.430972785592547,0.8554391737541743,-0.28593241624649457,1.776252733281846,0.6228369998730734,0.5287606494870907,0.8008879644269996,-0.5453159002347782,0.24414734438147623,0.03651608758838081
12.539999999999988,2.1995249604417175,0.5187296790906668,-3.116177744267041,0.40424767962953584,0.8619557014675668,-0.30527278098926464,1.5937278312965024,0.24111849563118132,0.5378085320162953,0.8075460096125218,-0.5393885405898725,0.2374817423284215,0.01914434528334026
12.549999999999988,1.5743909544798556,0.6637427439583082,-2.8813200056304895,0.3796545526541767,0.8679854939901801,-0.3200629952110368,1.3545540698731653,-0.34426878699053975,0.5439006095584566,0.8124127526786212,-0.5350804571187254,0.23163760912272582,0.003066500493600334
12.559999999999988,1.742070044135124,0.8055046620494976,-2.787112620861432,0.3580352485025289,0.8727980807376342,-0.3312417851077951,1.2601250653378397,-0.4879700384562318,0.5704950373761938,0.8156898646355238,-0.5316700175937988,0.2273564320285623,-0.012139170303534702
12.569999999999988,1.767825414129548,0.8559151509188624,-2.5820132516142773,0.33761380636591326,0.8764326366353894,-0.34296395798003493,1.107561700471631,-0.6039931107354842,0.5428038618592401,0.81892595144917,-0.5277628460331208,0.22353775172737603,-0.0270589460198187
12.579999999999988,1.6227524628697823,0.8067982787531275,-2.2531607181816096,0.3184379100452314,0.8788075949587424,-0.3553518774551707,0.8886795737649789,-0.6988102580939599,0.4555129531852694,0.8221495928370378,-0.5232958973127573,0.22019155642229496,-0.04168474398267949
12.589999999999987,1.5136271130231618,0.7085978829695104,-1.815491772488836,0.3040887079571716,0.8790819677094117,-0.3668419057956936,0.8130218200401029,-0.7930255909796993,0.4750730490368074,0.8249357326287429,-0.5188004022286589,0.21774238093759526,-0.05320378759751972
12.599999999999987,1.3769699190836733,0.7668628622030941,-1.5004665199930305,0.29223270555104264,0.8787358643829463,-0.3772793631386998,0.6996689955806032,-1.0312115368070236,0.49586168484546006,0.8273785278232946,-0.5144404831244561,0.21610742848331507,-0.063572595665334
12.609999999999987,1.2084465181227042,1.0017729828655972,-1.3259206822953213,0.2830305490889136,0.8777551071903409,-0.3865637284393649,0.5399898145520772,-1.43065795949703,0.514960857718685,0.8294493375725331,-0.510233224421127,0.21535864975975144,-0.07274229898747746
12.619999999999987,1.1433935281622363,1.4226128513526788,-1.4404536381476465,0.275773351730122,0.877184204840461,-0.39299995664008286,0.422579469061389,-1.4870054205895675,0.5337184711901388,0.8303686335218858,-0.5064472261402742,0.2168009972332229,-0.08324533530147223
12.629999999999987,1.0856722376029022,1.7331668989227869,-1.3947985947348156,0.2696986147459415,0.8766153836412923,-0.3984809280429056,0.2696048673069415,-1.5245078341532328,0.547109351225113,0.8308416381080739,-0.5026528100632374,0.2192860589687267,-0.09422779541603181
12.639999999999986,1.0324931920524014,1.909845577826237,-1.1539766646743375,0.26491109162434173,0.876033537617827,-0.4029700548647225,0.07412446611388934,-1.5532372943066903,0.5543388158189336,0.8308445189532601,-0.49883286135095967,0.22288829983389521,-0.10571165693382288
12.649999999999986,0.9863097485833523,1.81034485365946,-0.5329773745261508,0.26618857660890266,0.8738106396387496,-0.40692338048607735,0.06527315483780524,-1.5641455606458934,0.5596955365887837,0.8308711102605587,-0.49440249336256215,0.22820827712567004,-0.11435469583233232
12.659999999999986,0.9518800199409639,1.7162667621747343,-0.10358355071105774,0.27030738188039233,0.8706811059891911,-0.41086249138461195,0.07457542247575652,-1.612947114197542,0.5507177653464849,0.8310804865951359,-0.4896280294484342,0.2340947375724134,-0.12134096134192664
12.669999999999986,0.931011309079583,1.6416330761920643,0.081415707708833,0.277497953659481,0.866557516121336,-0.4148100922569531,0.09652375584926606,-1.7073742694224592,0.524887068742472,0.8315047695489494,-0.48447570508777976,0.2405696231359991,-0.12650324418706935
12.679999999999986,0.6775095074202189,1.4094926212267591,0.3015254711192633,0.2854859251604494,0.8628608155330751,-0.4170440464750095,0.07153059402207668,-1.7880376714524788,0.505539885329929,0.831608099830577,-0.4801481609843648,0.24679121408288826,-0.13016600411758936
12.689999999999985,0.3897081820256544,1.2285298112830914,0.5578941791673051,0.2946415638744824,0.8594083681070372,-0.41778664811517796,0.06743062439030992,-1.8520122777566985,0.5012977164783494,0.8314934535732379,-0.47651667739541526,0.25301428600456755,-0.13233211630737396
12.699999999999985,0.07359950232356854,1.11873634566465,0.8562744533437627,0.3051692338272163,0.8562280103769748,-0.41681674208567016,0.09139005273087696,-1.896512943673332,0.5150239215984336,0.8311325480355399,-0.4736830426890055,0.25925367896071966,-0.132767014603362
12.709999999999985,-0.2039517248411502,1.2848639990842246,1.0584625008768351,0.31903604935639346,0.8537529833395247,-0.41133635484200276,0.061726147203632745,-1.8759312355620337,0.5118928746735776,0.8296950488469839,-0.47220080684678295,0.2670661727882023,-0.13142325531977325
12.719999999999985,-0.32735350925420253,1.3986269986682283,1.2456627238302362,0.33444535866286423,0.8509591273307074,-0.4047777102528979,0.016794447085350498,-1.7998204968300073,0.4950692058645809,0.8280307198556811,-0.4707910806778095,0.27554681764236233,-0.12941753358393313
12.729999999999984,-0.26105016903775513,1.428244240091287,1.420720056732169,0.35155161722711353,0.8477193822281904,-0.3971811998679513,-0.04353144248655823,-1.6588624426278278,0.462310311731413,0.8261567661199081,-0.4693796988095389,0.28475388011634617,-0.12670712884344096
12.739999999999984,-0.3694488402806051,0.956365631630276,1.7000123029863163,0.36875745636873924,0.8435869422112161,-0.3901114525715576,-0.035030300874536846,-1.5855523291773468,0.45528104610013803,0.8247589996784672,-0.46825014163964046,0.2926653096806636,-0.12171043221170731
12.749999999999984,-0.3224364136243679,0.7836311910789981,2.169640274360291,0.388457350433197,0.8374478277364544,-0.38404680760276394,0.04911891732348804,-1.4867252221847416,0.4289719235041281,0.8238360613651847,-0.46618608496975134,0.30100556715394405,-0.11526867126911718
12.759999999999984,-0.062292853881543375,1.03428056747469,2.874994834348213,0.41134675819938993,0.8288070933043582,-0.3792288415489163,0.22477804744937604,-1.3498060052744498,0.3758998156833734,0.8234840005087853,-0.4629015717816435,0.3099986086938162,-0.10715609334897826
12.769999999999984,0.009902554813256165,1.5706237527613656,3.6186732016131264,0.4445343642289534,0.8139576629869414,-0.3729686808484778,0.24213721620516548,-1.2407890587921406,0.2509424768892493,0.8229012647706768,-0.45684550830118814,0.3235503937747881,-0.09618422416978627
12.779999999999983,0.00905743060729923,2.1112161146342467,4.310859640486784,0.4826273254344677,0.7956364486840272,-0.36450665333724835,0.2797927429797762,-1.090840795782909,0.1780013736795677,0.8216377778122845,-0.4495028300887626,0.3398282204768971,-0.08415825100560159
12.789999999999983,-0.07077320835718023,2.631203569592583,4.931695828570365,0.5262380770584995,0.7733109532262541,-0.3532761647625945,0.3587053170446796,-0.8844106293192657,0.18017936974001203,0.8194986275617749,-0.4407193650699602,0.3592792166633453,-0.07100584737251725
12.799999999999983,-0.6479930776575594,2.628199832630758,6.589576417338331,0.5807369144637914,0.740107507104086,-0.33548878342855226,0.4642345854195834,-0.8176623686989339,0.2971971903905214,0.8154245060993712,-0.43020233021388354,0.3831551167908527,-0.05089131267852053
12.809999999999983,-1.3619124269354739,2.3314820970901735,7.220648397337982,0.6366737560435026,0.7023735611941879,-0.31418294139238,0.7796455000252625,-0.8035024829961347,0.5601165633318754,0.8099228102247091,-0.42006946682200086,0.40758960235413266,-0.02756905381593828
12.819999999999983,-2.208847614587749,1.6918278707909282,6.35281572376914,0.6934176674954935,0.6596441740773578,-0.288799552391415,1.376454127080698,-0.8459232795349096,1.008565859001548,0.8026907440625957,-0.41063829127716833,0.4323171224486129,-0.000632422272361037
12.829999999999982,-4.246734237025907,0.9545658106492321,6.234671803808129,0.7356870712851691,0.6247147873813412,-0.2577402092303193,1.6198294998115508,-0.8035919477794954,1.0272030791995208,0.7920583632956046,-0.4119169627948007,0.4486872730642057,0.03037482457134985
12.839999999999982,-6.00791100258244,0.3318641598209498,6.059637938464055,0.7742903529866215,0.5907389972387675,-0.22300552445707938,1.9646844405088522,-0.44660923020359766,1.0048037359088724,0.7788140205061034,-0.4179285241960268,0.462300922301902,0.06456419546413883
12.849999999999982,-7.242820158084039,-0.11983510056089053,5.716563562702739,0.809507345729217,0.5571657062826118,-0.18382874523394643,2.4926627380627244,0.3382226884424757,0.9762440605256973,0.7623377200233661,-0.42925723988489006,0.47306906663542386,0.10269955307069463
12.859999999999982,-7.647305965817922,-0.5704743221772551,4.992653469630217,0.8363928819116121,0.5266200853444615,-0.14670977841108054,2.647208983376718,0.677979647713955,0.7639726887981564,0.7433596008129062,-0.4450256562375636,0.4779603667923537,0.14069744513270904
12.869999999999981,-7.83362170556232,-0.7442559065574079,4.567606689799222,0.8605252326988394,0.4959026553211899,-0.11161221152487574,2.6078057144777773,1.0004118428217765,0.5005810246742132,0.7233440463177838,-0.46147277456924124,0.48073845466541226,0.17823282913019542
12.879999999999981,-7.818404053326798,-0.522034053520317,4.620930485151154,0.8818281615806518,0.46453601308735426,-0.07913282307751564,2.340640202756117,1.357352184993888,0.1885193152625796,0.7021773846655684,-0.4782995181456232,0.48127580416764454,0.21512474316655333
12.889999999999981,-7.105203292116388,-0.5261775359357925,4.161300296178529,0.9005884970993528,0.4302281695395116,-0.05094285144278504,2.164952986268888,1.4209147877811485,0.07043861867838548,0.6802308835839441,-0.4925709964838929,0.4814522200567887,0.2487859992435611
12.89999999999998,-6.173792267479788,-0.45791509354362464,3.6936846495557454,0.9171319449453691,0.3968205733543632,-0.026625309491650456,1.9743875262067068,1.3654774496761721,0.0053693138599507275,0.6593519070745832,-0.5050006418300492,0.4812651260351002,0.27943966067382425
12.90999999999998,-5.025374559450996,-0.24950049299699456,3.2906543021203962,0.9307939160303137,0.3651743929637421,-0.007363702858985077,1.7483324492108738,1.1787116556831956,-0.010613934397244932,0.6401587081504091,-0.5151021937636576,0.48059721707700803,0.30615153710435394
12.91999999999998,-3.5953282215445737,-0.458650356251757,2.9697888613419403,0.9413345103621729,0.33666680766304474,0.0030528822286897163,1.58080134263888,1.2002805979921285,0.003309928016338271,0.6258585631341987,-0.5197822589493684,0.48098195953181627,0.32629285464988317
12.92999999999998,-2.2778747574025027,-0.6364191771907457,2.70877644730797,0.9506601521104521,0.30960891057959106,0.008698630575048449,1.3348951123630848,1.2763074339498368,0.08337044207551177,0.6144043121772356,-0.521522496835509,0.4820379432483682,0.34357424620604005
12.93999999999998,-1.1772261790795142,-0.6976941922879811,2.524672848584752,0.9586649752952326,0.28422389550138827,0.008593651444353985,0.9608116110360253,1.4002228754994557,0.2584815151820027,0.6064438378965145,-0.5197143146176392,0.48393475342480813,0.357618031596498
12.94999999999998,-0.5478038358958758,-0.8391722028709507,2.545132635312386,0.965433201115484,0.25993435491536604,0.0026374629051658625,0.7749081832437167,1.4646402532336824,0.35408548230660786,0.6020143523039378,-0.5142297633024733,0.48668571904199354,0.36903119871867357
12.95999999999998,-0.11662894479195132,-0.9043354828314912,2.5211541411398404,0.9716857204657054,0.2355621574102831,-0.0048623390589520215,0.5359282907714173,1.4959338542043903,0.42323365800362195,0.5985429309028174,-0.5075076777303591,0.48986851790531544,0.3796473992935363
12.96999999999998,0.09254761958726287,-0.8361571318804959,2.3906350881802823,0.9773627234496287,0.21086091845409927,-0.013691267096708348,0.17997526377657064,1.4866143270141503,0.46579920726372864,0.5959148711269209,-0.4995342961381875,0.49356642282391505,0.3895059208270849
12.979999999999979,-0.03243685666211289,-0.7334100907784364,1.8462634393521142,0.9812841488238755,0.190785936238563,-0.020967866041630766,0.013109586006212953,1.3691193645402067,0.4121563167565171,0.5936841207286052,-0.49302980603741364,0.49639883922797545,0.39747680537047353
12.989999999999979,-0.037759026592769196,-0.654432939683661,1.0135955968875987,0.9839142804429976,0.17643019191174325,-0.027476512231574258,-0.145822403847919,1.1597423476098134,0.31404782470762194,0.5924669524395306,-0.4880208922613752,0.4980900507618969,0.403382276220489
12.999999999999979,0.21570983782583517,-0.6204451789075381,-0.1966583053977322,0.9848333957579333,0.17028801143703076,-0.03307012585893432,-0.3302122473441748,0.8252402343146247,0.16423385209324556,0.5927906680032504,-0.48510754269986917,0.49813071954444466,0.40636531096490003
13.009999999999978,-0.5841533350959569,-0.8237694283951827,-0.6180238946507943,0.9835050617451708,0.17626588733743961,-0.03985525122672604,-0.3981628075464028,0.6773583719355687,0.07423594428198445,0.5951022413654968,-0.4859740621749437,0.4938497591930048,0.4071573877931571
13.019999999999978,-1.1960377479366207,-0.9550769385408653,-0.47847155948632863,0.9822713056330231,0.18144998775122814,-0.04686774048292982,-0.45637142052259955,0.6421751793371359,0.02480824022387548,0.5963268589931797,-0.48772380190439185,0.4885424572587098,0.40965044552522667
13.029999999999978,-1.2652147577243196,-0.9153049256650101,0.40914363891936945,0.9816912060025866,0.18264221322196245,-0.05399026894765839,-0.5243550451160872,0.751060367648629,0.028875601090838806,0.595322576511306,-0.4900890753622902,0.4825041992979062,0.4154276739460398
13.039999999999978,-1.1982695841179418,-0.7904416189718642,0.08076623455018223,0.9813937014943407,0.18227330863901817,-0.06018576448265919,-0.6155396177457669,0.7775523853944379,0.004060074002262843,0.594184769925062,-0.4916211611149389,0.4777058845673784,0.42073917674444267
13.049999999999978,-1.0096401399250772,-0.5721360408749036,-0.23342563408329448,0.9809531177550412,0.18304414066276997,-0.06495218344500965,-0.8117361128502303,0.8508098905462322,-0.07854913792227355,0.5931973472157933,-0.4933948647984243,0.47336747006693575,0.42495903384748546
13.059999999999977,-0.647976933166249,-0.21624183299407668,-0.22865672598782716,0.9802017114822029,0.186123564230474,-0.06752357215577323,-1.1801239121090379,1.0232408384072358,-0.2520159408240613,0.5924969588241958,-0.4957797952405513,0.4695070641226143,0.4274433484019293
13.069999999999977,-0.3078328711710883,-0.06447654143087582,-0.3937890555210467,0.9795377446444417,0.18939774007756233,-0.06802855234553179,-1.2996188921948255,1.055808330488164,-0.3138254369028206,0.5924686406033063,-0.4974007669506834,0.46752043273384686,0.42777928000194754
13.079999999999977,0.06572475376368984,0.06940278088671445,-0.8188200611542209,0.9783639465898734,0.1953399921719225,-0.06780780651268174,-1.4018404762038659,1.0286512619188073,-0.3434974341392907,0.5934271580003949,-0.4991722121167794,0.4657463087199337,0.4263082058892795
13.089999999999977,0.5032155728168942,0.22620240111073017,-1.6517644813081978,0.9762784779743661,0.20588038717998666,-0.0668698769450832,-1.5399116068251466,0.9344716388103349,-0.3467496422927929,0.5959273805573686,-0.5014083290637282,0.46384600931966047,0.4222572862795106
13.099999999999977,0.9727058745867934,0.40860071490568284,-2.245865953764673,0.9718657378540256,0.22569477957610223,-0.06537365112473116,-1.5910208821441019,0.9017126315457216,-0.3217730993372002,0.6015843813600834,-0.5044427059112936,0.4613474544046323,0.4131680722885334
13.109999999999976,1.2812757757185524,0.6070972758055723,-2.636004041536382,0.9664901343330553,0.24828149749987943,-0.06306407829940995,-1.5775173973489027,0.8754777107069703,-0.28293689755427387,0.6080394377716427,-0.5077371059996294,0.45898182611083993,0.40215778126431273
13.119999999999976,1.2918808695385886,0.8270826732033861,-2.72918571495981,0.9600592290402379,0.27316339971623843,-0.059456477698279116,-1.4732062991175219,0.8432062565293799,-0.22738802609981268,0.6150144883485158,-0.5112674511351194,0.45702750534354053,0.38915607974356414
13.129999999999976,1.065921683872962,0.5897710985473186,-3.03930030090838,0.9518630250964379,0.3005365894192591,-0.0562188228923266,-1.3791165658217408,0.8204314273532471,-0.1931934084946102,0.6219576668044944,-0.51572072420982,0.4537666927825077,0.37569913710502045
13.139999999999976,0.89068583768412,0.3352209936037006,-3.262686812776028,0.9424092387456403,0.3293252809546404,-0.054579196263205905,-1.2646601030514002,0.7609116842776205,-0.1580013133141896,0.6291834452024269,-0.5204706298198599,0.44921412911735065,0.362389580087782
13.149999999999975,0.8835039599562464,0.19254299199233207,-3.257673554046835,0.9311869774027641,0.35994602658370495,-0.05577551754077029,-1.1093655721185722,0.6305244136092094,-0.11425527824516177,0.6369413184316097,-0.525478480801171,0.4426857735803204,0.3494953774481828
13.159999999999975,1.0153429926734945,0.2918565369589692,-3.3634543268272536,0.9187372632230631,0.38998070488924325,-0.05700046236506419,-1.010184510337474,0.6659849591457252,-0.11119698722322183,0.6445700293866715,-0.530068873584461,0.43645644333041916,0.3359981182222818
13.169999999999975,1.1585720409546276,0.42521222627707006,-3.5607187886179816,0.905027032523876,0.4207572843210123,-0.05807066517293032,-0.9207677260611207,0.7407789980750727,-0.09550934597402333,0.65229862352796,-0.5346534384350496,0.4302154306997901,0.32158189993916403
13.179999999999975,1.2760203583501564,0.5407429727860944,-3.8942484896687395,0.8893371493396185,0.45314568603708666,-0.058836637847514445,-0.8307770809126028,0.8338087328758788,-0.04190046002051903,0.6602613755641895,-0.5393694128424584,0.4238501151694026,0.305622842856179
13.189999999999975,1.6032819335038577,0.5456452816715506,-4.171015134093995,0.8698108508743042,0.48859524748152766,-0.061222119391025384,-0.7339422053664514,0.968257512361387,0.00590429925028757,0.6692021316134389,-0.5439453961499751,0.4164962715412195,0.2872920121135111
13.199999999999974,2.087119836404633,0.527463083653503,-4.212353953270789,0.8491974443059868,0.523353693900448,-0.06592432557227465,-0.5338244237312021,1.210077964244912,0.031091252850020602,0.6788923433526961,-0.547178109294073,0.4094126432085692,0.2680719027077031
13.209999999999974,2.800267785425071,0.5049640828161117,-3.813166764121415,0.8278725388299433,0.5556245050301648,-0.07456892581207289,-0.13376423607898558,1.6470620474259519,0.014086223929815605,0.6896898738218779,-0.5478292882959613,0.40322454661272994,0.2479861291836276
13.219999999999974,3.0326847770197793,0.5873980315175057,-3.627557663052536,0.8072133153917121,0.583180385478014,-0.08705577683128188,0.15303425069293042,1.7763414824999297,-0.003752156580699377,0.7010640431052093,-0.5453842945057452,0.39876484382634775,0.22743248045299883
13.229999999999974,2.933015666965066,0.38074897019757153,-3.632553455433124,0.7858860270684931,0.609577440034581,-0.10116965148052902,0.502889828006494,1.7797644563721993,0.013659451549352351,0.7123234382485746,-0.5425728001203075,0.39371200450966004,0.20735435355714538
13.239999999999974,2.355285542025923,-0.4516730713160655,-3.936905708092287,0.7629431120468734,0.6355227138399986,-0.1170302384615152,1.0254368371688998,1.652274444015297,0.10258556305129182,0.7231201342133662,-0.540261192098036,0.3867692438816369,0.18842383032725846
13.249999999999973,1.9375977750715359,-1.2699067359772285,-4.360053516398791,0.7335285265471989,0.6644542828459454,-0.13833748562745118,1.363359822082185,1.4597975570009287,0.21570981021413474,0.734450928700745,-0.5398508552361702,0.3731850342528309,0.17185077479683988
13.259999999999973,1.6195884085976204,-1.8048815973164822,-4.644915553492968,0.7010365658126377,0.6939540591669684,-0.1610552634645185,1.6423994953574226,1.2281855177368057,0.2853052365341272,0.7456816672464143,-0.5401908897188754,0.3571232353873215,0.15605600206949705
13.269999999999973,1.4397572311658333,-1.7563826934515936,-4.590483057146755,0.6649414963907493,0.7233433492038093,-0.18435041417675146,1.8788234053119415,0.9432546954071267,0.2538139206930734,0.7564728382853132,-0.5412695005943474,0.33878033805921365,0.14086034522799518
13.279999999999973,1.296310292515929,-1.5728986336462993,-4.468707736154435,0.62819879344354,0.7497141540183392,-0.204798001145083,1.8310654955975454,0.8825090267622393,0.188958377564402,0.7657712567208703,-0.5424584391527717,0.3211995379741868,0.1257825068503754
13.289999999999973,1.1241040191823028,-1.4195820548427465,-4.293302392170486,0.5916903660587982,0.7741196579478034,-0.22336132751048052,1.6984274072518932,0.818477503558518,0.1475744219206395,0.7741076352623243,-0.5437755122188549,0.3041845979818098,0.11111943313018911
13.299999999999972,0.8731522751349381,-1.3941467883448992,-4.034279576321197,0.5559876739941078,0.7957184912109356,-0.23921199305732938,1.5165067222689532,0.6425469463818867,0.17217385962806664,0.7810772052157338,-0.5453160170974434,0.2880278119236969,0.0972915145388028
13.309999999999972,0.509479220491017,-1.3111251006959639,-3.799622368265314,0.5212346921314612,0.8149275716677711,-0.25153209544826965,1.430520522082559,0.49067863269441103,0.2456108566488287,0.7864304999758194,-0.547626742892373,0.27239763785878884,0.08483123261657954
13.319999999999972,0.1759016235044838,-1.1670996307884542,-3.5347937964820306,0.48769437563459206,0.8327433950289356,-0.2611948441894838,1.311189587040755,0.31915795011747183,0.3309851478562105,0.7906960704641549,-0.5504775616097051,0.2574954542617422,0.07316260049811568
13.329999999999972,-0.034153425431007134,-0.9170520784953602,-3.190860914026157,0.4563600351367657,0.8486800342190411,-0.26675498149786003,1.069612202705183,0.09197839627453952,0.4181477993447974,0.7933686877408612,-0.5541356443395319,0.24393952945247982,0.06255678853918559
13.339999999999971,0.03551100397305808,-0.6834318394231848,-2.824170985191307,0.42920470883191636,0.861570011211117,-0.2701997622543527,0.9722354279118197,-0.0035797134494946065,0.41067986116179783,0.7951390889823459,-0.5573411973918614,0.23281545110605567,0.05294284195280026
13.349999999999971,0.22323265672127005,-0.48231518738751306,-2.442066247994152,0.4045978614233734,0.8724867689479401,-0.2736317439046361,0.8992901297533915,-0.10293693411196264,0.3662316088326989,0.7967816781427647,-0.5598309297734747,0.22304636003553238,0.043921020682522814
13.359999999999971,0.5285672429653816,-0.34653929619871904,-2.0371156934981407,0.38354136190903226,0.8805517472811575,-0.2781852704531038,0.8037280599046098,-0.2825804500249376,0.28875637916076125,0.798623012244637,-0.5609310461133995,0.21505072964576516,0.03571273686574412
13.36999999999997,0.976754601606368,-0.14429008595217419,-1.5697062356859015,0.36761226384337653,0.8847196224931139,-0.28628707949756294,0.7549780237192962,-0.3737385669648299,0.2744694115937381,0.8014343244816345,-0.5594460703819438,0.20942719444548047,0.028535999433853532
13.37999999999997,1.487754925775512,0.10887522373974753,-1.1216939363434475,0.3551473175789933,0.8863427041993164,-0.2969344760524607,0.6960660965962271,-0.47228154136738265,0.25890772112968136,0.8049650223181839,-0.5561402405529097,0.20549172386953218,0.021844893481378365
13.38999999999997,2.063218335402529,0.44320439733926476,-0.7560551476755548,0.34784998149761176,0.8842460939468154,-0.3115078958400329,0.5857407347856447,-0.6401125394981837,0.2033013572423279,0.8096244261607045,-0.5500536891708573,0.20414853018965584,0.01569490872417826
13.39999999999997,2.7313901162932503,0.7683136005144731,-0.8758772459182456,0.3426880191289418,0.8790140135494002,-0.33109096658759923,0.5099505453945666,-0.7147740851789826,0.16087765261208395,0.8157335482046878,-0.5408172361503147,0.20472827933115942,0.007932520848490932
13.40999999999997,3.3915221815056946,1.0502904528206982,-1.1044391845692858,0.33761433800886204,0.8719402972818725,-0.35413020098825254,0.4245983410379184,-0.7880330742693912,0.1196052292088739,0.8227933226298487,-0.5295820258709332,0.20592876416716602,-0.0013086337628057994
13.41999999999997,3.9736064029835134,1.2329878508743761,-1.2918334002107625,0.33140926067684884,0.8623565040165465,-0.3824315611181728,0.29417126246251424,-0.9166242708538291,0.07282538755236181,0.8312552456140402,-0.5154630076536403,0.20742914587632783,-0.013136119619863088
13.42999999999997,4.284484943247666,1.2434083808443086,-1.4437941028386003,0.32458100293608966,0.8499477078784998,-0.41413838249515855,0.24676839272527085,-0.9914407274105148,0.1087469334217557,0.8403676633554646,-0.4992370413587998,0.20864671360682344,-0.026409877885092553
13.43999999999997,4.3860176064362815,1.190002154045854,-1.5744226283381233,0.3171412594305102,0.8363132623991608,-0.44669527868105224,0.22727320036945983,-1.0658590816644646,0.1974973749296211,0.8494882435392281,-0.4823829786447744,0.20942489881798568,-0.04025265535333078
13.449999999999969,4.144559019347359,1.0928094837758555,-1.6753914988720275,0.30858499785291144,0.8215101529416898,-0.4790815287762114,0.22170033128196473,-1.1757615760818447,0.36312558652371796,0.8581880091700667,-0.4653773230843364,0.20928887722923714,-0.054546575685756896
13.459999999999969,3.68681977483743,1.1188624840192787,-1.632611512383095,0.30079227405233266,0.8074899117797604,-0.5068992260853584,0.22245926837054647,-1.2517358549772006,0.4730731482509076,0.8652630948070033,-0.45020920646615514,0.20914327502621008,-0.06814175158949508
13.469999999999969,3.1606811910267636,1.2439538622880686,-1.4795734355288797,0.29442544174398616,0.7942420349196966,-0.5313376555053082,0.21100401998887958,-1.3188527149054254,0.5870121039218146,0.871221801248756,-0.43631141054870953,0.20955641719438206,-0.08115502464251531
13.479999999999968,2.6143625501416503,1.5368527502042355,-1.1444907746478314,0.29121226167902464,0.7824329241426967,-0.5503154804393322,0.16314129620817386,-1.3876769384133445,0.7519704007777872,0.8754607516679486,-0.42437866792772944,0.21143066197302535,-0.09316381263943109
13.489999999999968,1.9830399703074169,1.6945239628183588,-0.7088452297566743,0.2939634484252588,0.7725747221087079,-0.5626655107736354,0.12312452559889309,-1.4131974702022012,0.8225902081353397,0.8779205616627916,-0.414737612998471,0.215868756875183,-0.10267717255587624
13.499999999999968,1.2721000629442298,1.7441368392502705,-0.3407897770979445,0.29933689645473494,0.7646774954753381,-0.5706481451635821,0.10997268955282674,-1.41743749437714,0.869847047462342,0.8792516745980024,-0.4069837794396035,0.22140339554272903,-0.11059037597659753
13.509999999999968,0.41356677814173093,1.6090129430870672,-0.23354484705519654,0.30708857441352433,0.7605274815187815,-0.5720761547047919,0.1629700980739343,-1.3983768816842872,0.9282381101907166,0.8789408239080405,-0.40251129542726233,0.2278778114139392,-0.11615468775465197
13.519999999999968,-0.266395739768905,1.525733296270008,-0.06317068984646884,0.314847002386427,0.7611020527124576,-0.56703712502362,0.20381962794932434,-1.399584214304291,0.9635336599246986,0.8770137779096433,-0.40187819565290933,0.23441611308516094,-0.11981934574474226
13.529999999999967,-0.8495297543318878,1.515211625135494,0.22229412637871349,0.32377580529004635,0.763763249738387,-0.5583188931321927,0.24625195241420894,-1.4194000679584335,0.9537968682878638,0.8742183162870857,-0.40311855564220705,0.2414730499863406,-0.12205284543638828
13.539999999999967,-1.3135686629925778,1.6636001978872232,0.7750458776887412,0.33595827379263493,0.768251948099126,-0.5448071616944132,0.3033345879196916,-1.4739496676590034,0.8381231392861352,0.8703671048208161,-0.4063391265275765,0.24992046019527825,-0.12190241935931706
13.549999999999967,-1.6134445448994046,1.9513701518114313,1.481762452070846,0.3552986192368591,0.7718839180948565,-0.5267581519430697,0.31497428070178396,-1.4463224932222776,0.7321773214726851,0.8656414001724173,-0.4101487649941739,0.26134943085353235,-0.11839833571447375
13.559999999999967,-1.7650309248770797,2.28725857516202,2.1907664692665496,0.3795579576634507,0.77404206321394,-0.5062502454690014,0.33425588694486685,-1.3527570866817482,0.6363699187318095,0.8604357458972711,-0.4137923987434611,0.27487656685256473,-0.11288326907620276
13.569999999999967,-1.6379318229720436,2.6356057772263903,2.7669518239372746,0.4115112594850125,0.7727287864677359,-0.482764833168692,0.41670661240488427,-1.1435841548755714,0.5609703495738074,0.8546388339718558,-0.4164242692239364,0.2917503338256473,-0.10460972991911432
13.579999999999966,-1.21278638697213,2.8439789057914755,3.0155289034426334,0.44639263337565127,0.7664372477161921,-0.46074314834969377,0.4773506705337117,-0.9955236347046342,0.5682233245033796,0.8491238834197178,-0.41616521758659814,0.3102106624744777,-0.09646969064258963
13.589999999999966,-1.0851631960660402,2.76799553458195,3.2974401118941614,0.4827748266968488,0.7574115631516111,-0.4388493511687433,0.5816771794891986,-0.8172556170273738,0.5886940438539412,0.8436583476377638,-0.41495893919898086,0.3290547198063649,-0.08720148398861376
13.599999999999966,-2.1358317322307103,1.9792374372645687,3.997648111142989,0.5207887470735374,0.7450668410294753,-0.41591311651337004,0.8376406254765908,-0.4893355873150628,0.5682037945720146,0.8380659861398894,-0.4137375912408426,0.34750065638848376,-0.0744351219311771
13.609999999999966,-2.115378925809531,1.2440452795399468,4.57342164572876,0.5591481228942439,0.7293917434707176,-0.392466671736133,1.1996534599202906,-0.027128739147433023,0.6003371551343188,0.8324041008019958,-0.41417510032101923,0.3634503719293198,-0.05535571428650013
13.619999999999965,-1.8850442470234952,0.5457255694713136,4.85565924667863,0.5958529660727055,0.7114432753565645,-0.37192513376826447,1.598630504800032,0.5228013345783016,0.609082319228033,0.8274412959866851,-0.4145224723349735,0.37707117171764376,-0.0339157958266668
13.629999999999965,-2.1250007029294182,-0.09448403861594956,4.359562959328866,0.6270762446077397,0.6899410596158625,-0.36090702930176816,2.0011316497791043,1.203821617200974,0.49042983671672236,0.8247146709387629,-0.4128566018024753,0.3860942389521282,-0.011770749264879098
13.639999999999965,-2.5055202993020576,-0.19387776291347608,3.4929948237722606,0.6519053077753504,0.6741232637602506,-0.3464720846200678,1.945411335672331,1.421440157299115,0.27229856960132093,0.8203327603499818,-0.4149164715374853,0.3931651529643138,0.008213149986424806
13.649999999999965,-3.024492377800524,-0.16096911028333832,2.6386234311787646,0.672745159806217,0.6624132904108632,-0.3292339417944235,1.7326482629391362,1.4842535667167946,0.022552833420259932,0.814730383952852,-0.41976517501498134,0.39893372970307617,0.026939766204028805
13.659999999999965,-3.830105215888051,-0.31085657833707825,2.239645204376955,0.6879598015131791,0.6575068480735021,-0.3068337083950645,1.5304450486215075,1.5706318821257135,-0.21693996908988747,0.8070688764113162,-0.42938279234797266,0.402713824051425,0.04405737492228594
13.669999999999964,-4.030255977133649,-0.5474945586622753,2.079741025611683,0.7010679434913345,0.6536370275134015,-0.2844029759082211,1.4550699902825504,1.6432339555625217,-0.280142683378519,0.7988531173472162,-0.4404733847239598,0.4046042359062888,0.06175807297784318
13.679999999999964,-3.970909218381951,-0.7712100476559174,1.9388602385367484,0.7126339330737024,0.6504104761016932,-0.2626450813894321,1.3455902252875116,1.6816950637864863,-0.29038599694005046,0.7905241368789068,-0.4520847712488819,0.40528654440900375,0.079342719859777
13.689999999999964,-3.7775785816684087,-0.8471277743825977,1.572769916195958,0.7216029112036757,0.6480765212262589,-0.24316658565284943,0.969329531219207,1.6229947347109042,-0.3369355778749302,0.7824868907939302,-0.4636537690987999,0.4042234863079158,0.09583664962773317
13.699999999999964,-3.487350640293436,-0.821496907107153,1.422855764424435,0.7294084723698598,0.6456540969110078,-0.22560990269980227,0.7035094198726977,1.5454623418513143,-0.3425895377413169,0.7748297952613441,-0.47430575711274364,0.40270025059001363,0.11087482199673795
13.709999999999964,-3.1922267496909806,-0.7861749953213668,1.3445140045854913,0.7366078501399796,0.6430280044165825,-0.20940847599532134,0.4547990195322401,1.4496887957371423,-0.3325998423166732,0.767469585019154,-0.48426111654424814,0.40095388018389094,0.12503119047353087
13.719999999999963,-3.0058079212310354,-0.8489876012625996,1.233643964411564,0.7432171241468977,0.6398114667487006,-0.19540722366842095,0.12210904659738309,1.3151792693997757,-0.3214796999443411,0.7606443185295141,-0.49299367723291265,0.39903169638218,0.13802226548339314
13.729999999999963,-2.6555988210519157,-1.0215422366713012,1.0884125199191734,0.7486217559591769,0.636666303729042,-0.1848068636702025,-0.08304880937906167,1.2004051223832364,-0.31409936156015317,0.7548309350797974,-0.5005418483684451,0.3962583052216339,0.15012992027815528
13.739999999999963,-2.2949947250372777,-1.2473886752367997,0.9855727900638241,0.7533420226133014,0.6334006270129854,-0.17682761364741467,-0.24244892567803633,1.0499495610923777,-0.31543487032974693,0.7497858044027249,-0.5071780726954754,0.39286652118818194,0.16184563042170638
13.749999999999963,-2.125375036309127,-1.512034162876049,1.0832453753141615,0.7572786593508289,0.6296016107947147,-0.17354098705042997,-0.414978073156857,0.7435322611678037,-0.3429293962763404,0.7460950703236833,-0.5121832078527805,0.388435726065594,0.1733823870943828
13.759999999999962,-1.972530097951753,-1.7172385324910524,1.174782027726011,0.7615731209676071,0.6244717225853185,-0.17323869944587356,-0.5245081593131953,0.5824086885129898,-0.34028879183883437,0.742995822635909,-0.5160400124973616,0.3834864564469887,0.1856934100656564
13.769999999999962,-1.861582232794236,-1.8664064475493722,1.2419779959907393,0.7660415022703616,0.6186155590700994,-0.1745712845322958,-0.6413485891774228,0.4691183049567965,-0.32472098033896224,0.7401644151624496,-0.5192832154003681,0.37821759500326,0.19847284567686801
13.779999999999962,-1.882409914871059,-1.8948253424922061,1.2272037136252483,0.7706246898023341,0.6120349510486099,-0.17755187298954772,-0.8800530648964442,0.31709405976589977,-0.3059266007942742,0.73744918053984,-0.5219502497988958,0.37252921712933396,0.21184561393374712
13.789999999999962,-1.7039978206627433,-1.8024743249560828,0.9168272968518882,0.7735742643011078,0.6073342687699063,-0.18085809898426636,-1.0566261359029223,0.2370394329090918,-0.3050150541161404,0.7350767098687299,-0.5245844011173728,0.36654784340728075,0.22364794393213946
13.799999999999962,-1.40781869618404,-1.6737863040486407,0.5157755035964224,0.7751488362789393,0.6041658975329778,-0.1847150844947601,-1.2335659549150817,0.17878406042919337,-0.3223862832731481,0.733183138215833,-0.5270398484057851,0.36035998587902696,0.23406186094432072
13.809999999999961,-0.9736890857623383,-1.5982313723088992,0.2380041952643835,0.7739948827669622,0.6039423150751012,-0.19019550130416374,-1.5122130570263024,0.08943192222122354,-0.3822326739171743,0.7326049667802809,-0.5288510876273123,0.3538393333680793,0.24159296639939853
13.819999999999961,-0.5238243700141401,-1.3464165827899994,0.20106906409179967,0.7726586126194039,0.6033885324865529,-0.19719693423821608,-1.6283299200054204,0.07488272696055868,-0.4014469926484734,0.7330165822369882,-0.5291893432104684,0.3483471906713965,0.24752627534132327
13.829999999999961,-0.15280418853203614,-0.9927676717089875,0.2237592471289056,0.771446629716671,0.6025756282405693,-0.2043655131509617,-1.6779342683386331,0.07758778516250418,-0.39860698099557007,0.733846400346958,-0.5287652966365207,0.34383555546922023,0.252289648597698
13.83999999999996,-0.12981504788324869,-0.5311342866729969,0.07056356356094179,0.771056916650796,0.6012824263526279,-0.20957146752570743,-1.739369525773666,0.02051724269651274,-0.3766531779923748,0.7346576587239527,-0.5277996738309367,0.34152521979609074,0.2550702654352578
13.84999999999996,-0.3577888654616633,-0.18240483322721898,-0.27684129582511485,0.7694853858834471,0.6029813484672014,-0.21047018185863497,-1.7890538830105653,-0.03661244644567069,-0.33771261777187556,0.7346936473259812,-0.5286222873829325,0.33958822996053817,0.25585216686642004
13.85999999999996,-0.7010939481196814,0.0859155178544335,-0.735123999461095,0.7666626071957653,0.607294725636252,-0.20826751702586893,-1.8178563202913431,-0.09847184109612651,-0.28100494122902697,0.7341576480639717,-0.5309567776470373,0.33755197369023054,0.2552327763489775
13.86999999999996,-1.0643453109553307,0.2241733795029147,-1.300658335649788,0.7607396912438321,0.6171074928999786,-0.20095951458021263,-1.7800012807619419,-0.1802992335156539,-0.18066142360193166,0.7326442976441329,-0.5363629597899151,0.3343956152462637,0.25240505004402003
13.87999999999996,-1.2488527088087593,0.17114672308047318,-1.6426871702190031,0.751774145740871,0.6306311279750066,-0.19209040161732732,-1.7045136325149115,-0.20904925780036995,-0.13615532610320466,0.7309847581975859,-0.5433829435702053,0.32960410894472053,0.24838100644503625
13.88999999999996,-1.308735400756811,0.08595607841838909,-1.869845253189451,0.7410390436341053,0.646055376266929,-0.18262366451591994,-1.5977579176584757,-0.20831538651772558,-0.12361359331466336,0.7293256327877574,-0.5511492304328028,0.3238786294765847,0.24369845320458022
13.89999999999996,-1.1765776903614074,0.24397144837889753,-2.0384926284107334,0.7285949645598658,0.6624218653500602,-0.1736558903964949,-1.4282695559097243,-0.1839111167610886,-0.14017323137550508,0.727963201739202,-0.5589694910131692,0.3173101389278352,0.238509132380389
13.90999999999996,-0.8297086345745983,0.5100617626569175,-2.272152515008423,0.7143697131275998,0.6799514844936677,-0.16425688077562184,-1.3328292948438314,-0.13403529615287166,-0.1728609077276917,0.7272115573850022,-0.5663877964782482,0.3114971495651889,0.2307524705206911
13.919999999999959,-0.3822184032867429,0.785984982049687,-2.5110229609907075,0.6989643671010387,0.6979889635961269,-0.15526872019442378,-1.2694058885907127,-0.05715402447490584,-0.2107816435794006,0.7270672242408733,-0.5732236676988686,0.30621841760305457,0.2213028406892043
13.929999999999959,0.06470255084644222,0.8722915217816685,-2.6325617693709864,0.6819616272262455,0.7158506896157503,-0.14912499286918468,-1.1933326863829876,0.08955942935572708,-0.23787403130174936,0.7284106655124071,-0.5782326330570032,0.3017736038901024,0.2095878432128299
13.939999999999959,0.42554439971385083,0.884902593061587,-2.7862983377970805,0.6631299271412072,0.7340044904519148,-0.1452146601323738,-1.0922241575684877,0.1766376834401164,-0.2193294480958938,0.7306770657982716,-0.5822521411478335,0.29724814610746403,0.1964900115935514
13.949999999999958,0.7208616721347785,0.8901056732181593,-2.889967850797206,0.6434548253284441,0.7519218574951004,-0.14294843768417037,-0.9725825659702231,0.2638827465917658,-0.1633827404553081,0.7335240626008216,-0.5854756987468023,0.29281403613893553,0.1826714129239748
13.959999999999958,0.9001248003825774,1.032574176778054,-2.674620754032845,0.6239810621595997,0.7680035011649193,-0.14342128669346213,-0.8217350197777776,0.49214788759228223,-0.032967124145737686,0.7370226562095721,-0.5871574276229474,0.289013462012497,0.16860123763467694
13.969999999999958,1.5159130360873148,1.2627043441938923,-2.6601447752575633,0.6050075396491583,0.7825080374180419,-0.1460774964568703,-0.7120168935184615,0.7676676117878773,0.003962544230955866,0.7411630810083573,-0.587261653505005,0.28650093926215214,0.1535236879817526
13.979999999999958,2.357213332125893,1.5408542833967762,-2.8155777289879733,0.5857159813153161,0.7961121719505314,-0.15150508779816244,-0.6084715369960239,1.1111723975572896,-0.02391807646492223,0.7462270983021296,-0.5857589414776735,0.2848275239342984,0.13706494204559122
13.989999999999958,3.2383425313224024,1.8409433060337035,-3.3266846089308695,0.5635297049919954,0.8091355030686859,-0.1655145681523468,-0.43178608889057984,1.6812408758743993,-0.1445650480903352,0.7543693732463035,-0.5800726136740716,0.28415757286939836,0.11612371814715422
13.999999999999957,2.91403070778325,1.3817298749837579,-3.9571745259958067,0.5357266281261692,0.8243969012594643,-0.18044513669373835,-0.21857907296843945,2.015831053387722,-0.2049380971328814,0.7623751022092689,-0.5750653310585887,0.28116806896374985,0.09296901009635884
14.009999999999957,1.9707430329730555,0.5757653197494496,-4.602248643138662,0.5028376973488922,0.8416651134478119,-0.19543751325875092,0.08737393744849718,2.197289830353379,-0.21122114216231969,0.7699633910271643,-0.5713345569222423,0.27534034307792893,0.06903207110366714
14.019999999999957,1.0301183152579028,0.0027153871933626172,-4.99664325463361,0.45815945549569814,0.863525331559402,-0.2082239517951469,0.7898656205150936,2.2065785844335024,-0.09359984741924804,0.7756902287199207,-0.5725756765410057,0.26068851993342845,0.04699947910153482
14.029999999999957,0.8203579833613096,-0.05866615329478009,-4.882605007628643,0.4155545473434518,0.8828835651557223,-0.21605182251016114,1.2178351506814513,2.1381813036078916,-0.044039657449955256,0.7791751838937504,-0.5749958929631142,0.2475143997887768,0.026035845061757018
14.039999999999957,1.0676219543256775,0.03419781148066617,-4.5442022975120215,0.3740369200880583,0.9000238197738607,-0.2227652434317556,1.5305899759982657,2.0566761749537346,-0.044473695711780295,0.7818418330188521,-0.5774550756295515,0.2347739669736075,0.006015176698778409
14.049999999999956,1.7103029993325358,-0.5311999350540832,-4.458721994207978,0.33246043695517313,0.9121231652473402,-0.23800407930315284,2.013359109873459,2.133298331922356,-0.12368113402670025,0.7865886840994702,-0.5766114932424304,0.2200660228217618,-0.011878047437943766
14.059999999999956,2.1281272389697734,-0.7205698413268636,-4.3252902669801205,0.29147879021787887,0.920541162318753,-0.25774469496769004,2.172424155331109,2.149801372842973,-0.06633327512255698,0.7923532385279345,-0.5734887716525068,0.20519169251609007,-0.029354069343280578
14.069999999999956,2.3530854706310054,-0.6939370233907985,-4.167868859027933,0.2507498347996878,0.926468827255319,-0.27991472078750695,2.080825816476891,2.039534921786628,0.04532174927333601,0.7985822173424475,-0.5690660527643819,0.19014419215536438,-0.046513152283463755
14.079999999999956,2.159622343002147,-0.6016054306233276,-4.02322925715383,0.20959508461356258,0.9295175321205463,-0.30193947538446764,1.5474871881964116,1.369799807862396,0.03719068017275332,0.8042737330088523,-0.5642999734678245,0.17460580684347884,-0.06313936180389733
14.089999999999955,2.1544757465803737,-0.49164504657080016,-3.720995658879764,0.17212988576153643,0.9299050443305577,-0.32357591620291615,1.2911738517601488,0.984815383915196,0.11630669306251801,0.8095760802509925,-0.5587959247888256,0.16077372589521638,-0.07893324863353088
14.099999999999955,2.214325096982734,-0.36426712512324966,-3.3281924801805425,0.13754707928577584,0.9284377867440967,-0.3447418480687119,1.2051590937518464,0.7500451800384836,0.23328934582981903,0.8145538544522023,-0.5528400325565065,0.1482193619570696,-0.09399857490926677
14.109999999999955,2.018147845536299,-0.1895469501270308,-2.9220141661325747,0.1080720252437624,0.9246973501576163,-0.36431849652841825,1.2124456853068615,0.4549223226871418,0.280444190658287,0.8188636136829646,-0.5466470200675888,0.13767921425224994,-0.10741882050495506
14.119999999999955,1.8125040069055074,-0.17886796374680647,-2.5685925745951885,0.08210805203523479,0.9201955401018185,-0.3821178771171485,1.18576107667065,0.2311002021854322,0.3603924942192376,0.8226426459377115,-0.5407514456375156,0.1283339283646324,-0.11934740998125104
14.129999999999955,1.597566686688272,-0.24913116961183152,-2.2386676677937207,0.058733625970371864,0.915249055503515,-0.3984519278944447,1.1316168560272253,0.019730151688827233,0.4588486723773484,0.8260080580694481,-0.5351642970620186,0.11983002161558581,-0.13008594117551567
14.139999999999954,1.3571333514517656,-0.2272498752839026,-1.8622108728535975,0.039100412814096,0.9102703313231453,-0.4118620976252104,1.0252452119448028,-0.3832083379579555,0.5543944689161248,0.8286600355838643,-0.5304877299378491,0.11233348903582488,-0.1386357050196847
14.149999999999954,1.1150936257589112,-0.00584504604770178,-1.3537876042887371,0.02458806675471771,0.9058441971967671,-0.4227432987914649,0.9583784616940763,-0.6203833865693766,0.6102282944668672,0.8307586552873407,-0.5264555336814175,0.10703671811296422,-0.1455692647393475
14.159999999999954,0.8602351581271984,0.30663314464752234,-0.7778991481931301,0.014244333169866084,0.9018968455722877,-0.43170659848211224,0.9068906310013256,-0.7648029402772036,0.6400738140183824,0.8324580409582047,-0.522901197260575,0.10353560936988303,-0.15121116391377273
14.169999999999954,0.521375801365912,0.42406411123424514,-0.2798349514009638,0.01186020592353463,0.8990133891674971,-0.4377358707745396,0.7979978459069386,-0.9502468063703655,0.6530763293705939,0.8336600053517014,-0.5200178732392124,0.10348880530277513,-0.15451086031638256
14.179999999999954,0.0890213293367384,0.5686610403195413,0.11406586932691107,0.0135275978677096,0.8978151431754263,-0.44015388703648145,0.7144359920139581,-1.077315378606799,0.657977223353713,0.8340803164473437,-0.5185113402637113,0.10518845640421298,-0.1561623872212172
14.189999999999953,-0.35575078185619746,0.7310910700669102,0.4104815197105153,0.01805298549109393,0.8979063483335697,-0.43980147216702636,0.6397402362300864,-1.1734620951322177,0.6595883770662071,0.8338635048284592,-0.5180586248530878,0.10821418114062606,-0.15675481370156663
14.199999999999953,-0.46274523729673256,0.9026901505201425,0.4521555809734628,0.025442386467340348,0.8999483670861076,-0.43521392807699316,0.5150345530566011,-1.30572124936488,0.67376863551627,0.8324473647341651,-0.5192023780936744,0.11318437080858151,-0.1569632610118145
14.209999999999953,-0.44554138746578364,1.1299010000998986,0.5062135537210892,0.03429126622387529,0.9016176532256648,-0.43110158947539057,0.41541394264524534,-1.422301493958631,0.6567961421122974,0.8311424238595431,-0.5198617545884036,0.119039666962467,-0.1573281173301901
14.219999999999953,-0.3602328466281336,1.3957959043536057,0.5312031325283769,0.04411211597639775,0.9030604471824206,-0.42721946933667265,0.335832207841565,-1.5342172986921923,0.6148874506740631,0.8298405005301221,-0.5201867261221399,0.1256418087876664,-0.15802837921030682
14.229999999999952,-0.3559338228100314,1.6913719398460396,0.25930780597781605,0.05436353195634071,0.9045683465866508,-0.42278285376165864,0.290494306591415,-1.6880372312240537,0.5300472751655825,0.8279992481470473,-0.5202735679319116,0.13377268396134634,-0.1606371898691953
14.239999999999952,-0.25999028468902474,1.579148419198436,0.2952104248463794,0.06382963149610121,0.9056246051486277,-0.4191907109790393,0.28305073383366186,-1.6940607407791348,0.508562228034876,0.8263703700638486,-0.5199692835566802,0.14144545097441097,-0.1634065763273495
14.249999999999952,-0.12729272343391312,1.2038969336785366,0.5573695191476729,0.07309991487166964,0.9063012517960737,-0.41623659819667075,0.31453432912873286,-1.6090651572911374,0.5315049109746984,0.8249955352459087,-0.5193867113799053,0.1487056475598403,-0.16583219153188286
14.259999999999952,-0.18962501180090774,0.8369901166985576,1.0528053791683867,0.08507075565805913,0.9062241785446405,-0.4140717477416153,0.4703967030076971,-1.5643198529869151,0.5839446948803263,0.8246277714461275,-0.5185873835135326,0.15496353816590205,-0.16438952773408616
14.269999999999952,-0.261773842678969,0.7119510332080756,1.371823191595312,0.09930941749516632,0.9059973599303787,-0.41129850705186166,0.5334832245624046,-1.5548693877512867,0.6208608108586486,0.8244091526543448,-0.517919412083025,0.16150985341117247,-0.16120981280145327
14.279999999999951,-0.3444840093221316,0.7446907079712571,1.587606916870695,0.1153804210426505,0.9056448393188813,-0.40797319900643764,0.5230349552784794,-1.572802624870534,0.6447695338302902,0.8242641312359945,-0.5173527495995915,0.16837647645480436,-0.15675131113669036
14.289999999999951,-0.46466682909188384,0.7473046596108446,1.935648095335433,0.1344539817096109,0.9050502079418067,-0.4032792864394998,0.40302234170300516,-1.6269149524266457,0.6438005519089871,0.8238800027833045,-0.5169151065817059,0.1764371720360158,-0.1511536246477713
14.299999999999951,-0.4593329560754123,0.7068663893956466,2.3840498163781363,0.15716041495114275,0.9035785569763136,-0.3981017520211296,0.3385885217267883,-1.6206967550331797,0.6473914757167347,0.8236345623597314,-0.5162428601572728,0.18544978206351637,-0.1436492358334324
14.30999999999995,-0.37407797382392566,0.6382664813360007,2.8999873417906876,0.18290266172461808,0.901209510681368,-0.3927308322644807,0.3201767698861364,-1.5651263064793464,0.6491748501281925,0.8235562160868769,-0.5152718989843396,0.19522689705061808,-0.1345430424920257
14.31999999999995,-0.34917923786815797,0.5828291548272952,3.4042459662425957,0.21417507167724423,0.8958487249148857,-0.38874606318234184,0.38211645168978303,-1.4284221462406392,0.6013243977187275,0.8242045799646811,-0.5129099149598797,0.20614126119079007,-0.12244909596955189
14.32999999999995,-0.434928053888098,0.38705718214073126,4.0274154122309165,0.24938592837188198,0.8884827328819854,-0.38415375990799167,0.4236865241172223,-1.3372096664264868,0.5345448687026563,0.8247998743993467,-0.5102312116736871,0.21794409552356706,-0.10788360585266744
14.33999999999995,-0.5942328616214189,0.16082582290922776,4.681099012515029,0.28795367754596846,0.8793437756144664,-0.3789054633389513,0.46021013203501343,-1.272821563435652,0.4541184188945278,0.8252744297933888,-0.5073091596748907,0.23056006769772538,-0.09124643662777715
14.34999999999995,-0.7062012491374519,0.682994817370195,4.752178603183468,0.3329294588720922,0.8662427462462877,-0.3711549619577824,0.5985139365750788,-1.1515310608961116,0.3701409586218597,0.8248354241040874,-0.5041632494770348,0.2452336017240718,-0.07097046217121475
14.35999999999995,-0.9788517352588789,1.7067026486048267,4.429553193239732,0.3766538477320464,0.8538225020158465,-0.3576203655400285,0.6898610007628748,-1.029709996276462,0.3304998282964354,0.8220570406583294,-0.5023118699094946,0.2620881082266402,-0.05389696696584215
14.36999999999995,-1.3003549097103837,2.8677483870254354,3.9547917017929914,0.41964125174779066,0.8414000197248961,-0.3400913924192542,0.7579726956322629,-0.8860548374362656,0.33783301386518794,0.8176102318463048,-0.5011369787850395,0.280658315041461,-0.03917593665349801
14.37999999999995,-0.8140063339285425,1.3255558389573523,5.070361472787331,0.46464377609904794,0.8230452249387789,-0.3248242771369207,0.9547039041946419,-0.48510373889545255,0.5240242788073359,0.8134437079599511,-0.49684711581975394,0.3008893820860882,-0.024892654036863488
14.389999999999949,-1.3337470455886782,-0.17662394333512355,5.5570869553126485,0.5089825024748211,0.8010144739034719,-0.312910247558231,1.352215757065661,-0.052694322789245684,0.564935274190929,0.8099693809038414,-0.4933835641480445,0.31628916996709816,-0.003311036195897255
14.399999999999949,-2.5849739307497743,-1.5636310107868179,5.516084020941502,0.5520466118894449,0.7766426673985906,-0.3031596448246559,1.8947881818513264,0.4468094298262282,0.5221573147292562,0.8067915585075834,-0.49104411303463313,0.3275549257295517,0.023916096192837886
14.409999999999949,-3.6203151021273836,-1.8201900737232612,4.676868940187667,0.5847733740284062,0.7574471623012319,-0.28905780383242724,2.3821198463035707,1.5247168538073261,0.8008441394966068,0.8007292925422297,-0.49545202563726315,0.3316348420541737,0.05406542188954914
14.419999999999948,-4.616372514190803,-1.6949961422660325,3.5616143590992806,0.6116824945525935,0.7438661559803754,-0.2680010361358344,2.400335455424971,1.9225103126165988,0.6828455194216445,0.7917348384595041,-0.5044518622341325,0.3338329523146279,0.0819986282309469
14.429999999999948,-5.556918590107472,-1.3220314544945269,2.2795268410891385,0.6332096429128238,0.7354184877547977,-0.24099089857692496,2.052929913600257,1.8175635873862206,0.26940266805419233,0.7802691636955734,-0.5174581229212285,0.33421742508088126,0.10780045659768875
14.439999999999948,-6.1216360967051315,-1.5949205252415903,1.6460801107298042,0.6409117988836929,0.7394185480217487,-0.20453685728137494,1.5981104606972816,1.9596049400303572,-0.03261161600615853,0.7653924047042272,-0.537816131215158,0.32905788880470344,0.12713910680687018
14.449999999999948,-5.993970024407277,-1.4330826505343297,1.7432865298274076,0.6513220763469099,0.7393348615794588,-0.16853149385585584,1.360490102232455,1.9307464025988559,-0.12275644990232953,0.7498142925598181,-0.5569146474247333,0.3246526461675544,0.14724200762416184
14.459999999999948,-5.333061346319203,-0.9442729425472715,2.354518106371957,0.6639931161713594,0.7357220410662255,-0.13311533911671755,1.28225337696563,1.8102615185426656,-0.054077148407440656,0.7337260475884758,-0.5747930800520672,0.32099681985279416,0.1678004625672331
14.469999999999947,-4.841627817594117,-0.6918937460643472,1.9789052866399577,0.6789068075538184,0.7267362386910741,-0.10163273148470406,1.019867091186117,2.39527249347156,-0.10941280558681539,0.7183076026984887,-0.5888298532639554,0.3199524283171808,0.18596416497059684
14.479999999999947,-4.174892805752898,-0.47831365285650346,1.5442112945672954,0.6909641226861353,0.7189033843724889,-0.07276739613604548,0.6864759450196308,2.4322950304331363,-0.08461158424337448,0.7041908825654748,-0.6015110456195215,0.31895088751213097,0.20082556918267358
14.489999999999947,-3.3669501647380318,-0.30480942442272807,1.0896232586604007,0.7006187554340436,0.7119990993011092,-0.0464878442615792,0.3029503889441704,2.027842676890437,-0.0011385859506936986,0.6913138977394659,-0.6128877091649724,0.3179948625359315,0.21287688281531925
14.499999999999947,-2.5624659863985872,-0.29774094372084,1.1610873332137928,0.7083998531806942,0.7050693118848483,-0.02920659099051066,0.05463940989168736,1.633006285802323,-0.030671131491891646,0.6820343214272766,-0.6202622471011386,0.317246437551618,0.2221497743245525
14.509999999999946,-1.8378891205329149,-0.1685140049208502,1.215160115685524,0.716680444262594,0.6971288299067335,-0.015482908732084997,-0.08609907312865114,1.3897132846824622,-0.06570439400227773,0.6742648314583558,-0.6255302901026846,0.3177462531953267,0.2303435677036058
14.519999999999946,-1.188022907369639,0.05190520890062196,1.2465466297815995,0.7253289682206646,0.6883770905908729,-0.0048957702245532924,-0.14231364592371837,1.2677695458729763,-0.10734087085570009,0.6678489313416809,-0.6289489930220682,0.3193347850150878,0.2375351214475898
14.529999999999946,-0.7246745766811069,0.051617527240871396,1.0961434922722597,0.7329664358181818,0.680204114553486,0.0015547961863353887,-0.30015443148982246,1.0526622243835049,-0.19390190297501136,0.6636770600517937,-0.6300910218888572,0.32211545433611216,0.24235466361015826
14.539999999999946,-0.3590117956486313,-0.04244949177945029,1.056043958425522,0.7402976435032895,0.6722155865730851,0.005179846796986616,-0.41391646287480444,0.8800823465370913,-0.21129093773059265,0.6606712328780299,-0.6301091685347947,0.3248814498141393,0.24680467954496077
14.549999999999946,-0.08635866294057085,-0.2166236691315612,1.1066054109380603,0.7473765218994499,0.6643658453430675,0.006269181062176363,-0.4927699082336498,0.7394038441985449,-0.16710310306290316,0.6586959635884952,-0.6291276066884453,0.3276164412698255,0.2509654702966023
14.559999999999945,-0.0710081660258496,-0.39772632362947363,1.0722089350950412,0.7546754063862466,0.6560390003299552,0.003956686013805953,-0.6401023665265385,0.4861560868081665,-0.05271918254026933,0.6577091291513265,-0.6270256744020405,0.32986748581289027,0.2557898746359465
14.569999999999945,-0.05938621476753168,-0.5608272937072178,1.1064936635170568,0.7617988893470239,0.6477597389722523,0.0006733678868196037,-0.7588800805382964,0.3117056581748964,0.006067603084642023,0.656894620082806,-0.6248104041212543,0.3315796659727867,0.2610290527013932
14.579999999999945,-0.046865971209294484,-0.7048387814099228,1.2012934695220412,0.7688042073524335,0.6394674764608279,-0.0035184473005818776,-0.8541417186576236,0.20612368602768644,0.013627402178368907,0.6562414638737838,-0.6224633289777654,0.33283559490854125,0.2666543630272327
14.589999999999945,0.09955331872056833,-0.7411581238653506,1.3104682852313476,0.7769440387199664,0.6294169103815829,-0.009623022391634187,-0.996337030650164,0.099007685582614,-0.06257084582928159,0.6559307487125277,-0.6190642068299043,0.33457568265911486,0.2730320641350687
14.599999999999945,0.21646882369127418,-0.8113911271428601,1.2361041459438464,0.7847363571059331,0.6195182701315425,-0.016633034287067992,-1.1033090384468014,0.04190159952361585,-0.14561348035429333,0.6559556315799215,-0.6153706381806812,0.3361448657390494,0.2793185971674776
14.609999999999944,0.30421542124665046,-0.9106859027118511,0.99400088266295,0.7921335710444282,0.6098518671904422,-0.024498696701059794,-1.1811882597836383,0.0285924386419324,-0.23647408204409026,0.6563111626537586,-0.6114207576772247,0.33751273201016924,0.2854892306960698
14.619999999999944,0.2811309912740743,-0.9512541856796651,0.6339583426685884,0.7960780246375769,0.6041743359018737,-0.03411941412624049,-1.3655311427571382,-0.03207772977232071,-0.39684841287065253,0.6578798402487341,-0.6078144792865277,0.3368905961375719,0.290243798846464
14.629999999999944,0.14087570949274575,-0.6879197151817942,0.259844500949648,0.7984912304930452,0.6005428598084974,-0.04172501041653191,-1.5099947777477667,-0.07090014383446608,-0.49590087777054925,0.6592041743488791,-0.6052164034354003,0.33592908092812257,0.2937834221251033
14.639999999999944,-0.10575624511445803,-0.14626757130527335,-0.13757475808944836,0.7993766082866679,0.5989615944984729,-0.04732053883547364,-1.6192563616238436,-0.0893689356151024,-0.5379904483849451,0.6602912851012473,-0.6036218363466951,0.3346342426989427,0.29610014246150645
14.649999999999944,-0.24894416167592331,0.26865889629782386,-1.140795413202983,0.7935329727845775,0.6068838745229325,-0.04409315379803518,-1.8226324006685721,-0.09668225169022786,-0.5584717772965226,0.6606906137620527,-0.6063144015229464,0.3321590746925064,0.29245133208348567
14.659999999999943,-0.4450770127746375,0.471415048289368,-1.4936430702391257,0.7858814087082493,0.6170279129728585,-0.03901704522533997,-1.9479085025886018,-0.13283773789214662,-0.5606328745125684,0.6608514620261211,-0.6100954260895427,0.32902292033213637,0.28769190741320894
14.669999999999943,-0.6896413380644605,0.4723087671566884,-1.2306900275442585,0.7765464776442665,0.6292358651607708,-0.032169027603236304,-1.9966131815507422,-0.1952994516978558,-0.5449525261023355,0.6607682911756633,-0.6149099002729332,0.32527037612108467,0.28190321674733865
14.679999999999943,-0.760623987744841,0.40319507628838586,-1.0459515491927958,0.7702295728995197,0.6372653940280452,-0.023431368607327627,-1.796551881541388,-0.15560340566581493,-0.4827514215349056,0.6589210496844567,-0.6198739813536517,0.3225283545192367,0.2784438480141084
14.689999999999943,-0.6146571697065746,0.26842280609644603,-1.1656289268176168,0.7630804486256431,0.6460232847543025,-0.01645637703897001,-1.6260428450340092,-0.12777165649487648,-0.4499672297562177,0.6578116319682612,-0.6243906844501063,0.3192053191074449,0.27478059788460824
14.699999999999942,-0.25737652068389805,0.07046575515574491,-1.5807214907279936,0.7551091664005669,0.6555019191321424,-0.011214321610243253,-1.4842279678099173,-0.11122944940075617,-0.44583941927562903,0.6574296019421406,-0.6284671318780337,0.315312111458594,0.2709118982613888
14.709999999999942,0.1395646307361822,0.0877492281216345,-1.728159178250318,0.743567122574645,0.6684570414098963,-0.011044357691797967,-1.3210643506437385,-0.018004849731753036,-0.44816120550068006,0.6597649361116884,-0.6311309084650416,0.3100551157871775,0.2649753969022548
14.719999999999942,0.4457300272392055,0.25031821323554293,-1.7743398033227091,0.7317021675262798,0.6814076925908333,-0.011651263706171469,-1.2179219935805847,0.09072439928360809,-0.4243964413126198,0.6626725650394446,-0.6331500982145668,0.3054281535722946,0.25817651920471757
14.729999999999942,0.6611373967314711,0.5581443371950581,-1.719283140781706,0.7195143643179037,0.6943538735481295,-0.01303488793578908,-1.1747891748641783,0.21495526968955794,-0.3745502212427115,0.6661523769600168,-0.6345248270101677,0.30143110177256605,0.25051543358518896
14.739999999999942,0.890816863742406,0.94119981828702,-1.5683804599673008,0.7084538190875118,0.7055529253489219,-0.012767404356169628,-1.083697477255514,0.37094257999507624,-0.2178156787417248,0.6694735639944613,-0.6351334181585935,0.3003682638871359,0.2411193195477654
14.749999999999941,0.9898383497380809,1.1642174146976556,-1.5683607820926713,0.6973801581958569,0.7165164954962148,-0.012069324898767136,-0.9984528996338033,0.4738693636734327,-0.09957884943793685,0.6727284014976276,-0.635594056932824,0.2999757380491826,0.23110517849538198
14.759999999999941,0.9546215205118688,1.2226097625581662,-1.7236362018972047,0.6862890850998834,0.727244331111472,-0.010934788834542304,-0.9193811509938175,0.522190851283557,-0.021253755619423012,0.6759156514124959,-0.6359054248827372,0.30026137502741185,0.2204623787262549
14.769999999999941,0.8040367051187377,1.2077006062288382,-2.1313325439503576,0.6715369429536384,0.740776251931625,-0.009070640416842655,-0.7417581572098244,0.812323241490039,0.10612742787398094,0.6789228358823864,-0.6373571979255085,0.2987275835745232,0.20862191524386617
14.77999999999994,0.9852505888301477,1.2431196377793865,-2.792164918026514,0.6530608394978573,0.7569850050577224,-0.0076433267955160035,-0.5802166733261854,1.0959881439144736,0.16923959288034224,0.6824544491629865,-0.639149213359466,0.29606944871309654,0.194791890856558
14.78999999999994,1.5177131645066417,1.332416668192067,-3.717314209344781,0.630695726598477,0.7759873762111014,-0.0066846626469442465,-0.4366982223528482,1.3702324022090888,0.16402831252095168,0.6865412086888909,-0.6412878916427376,0.29224481142405156,0.1788759793672926
14.79999999999994,1.9892608905381604,1.4783278931606263,-3.6563591821809145,0.6003425057498585,0.7991349830124631,-0.013898295602598924,-0.017878152894926225,1.9146144478200227,0.09866607365975015,0.6938922327514783,-0.6413550727933345,0.2858200883491259,0.15883204326132028
14.80999999999994,2.227326571967596,1.4273232922787775,-3.528363394127682,0.5712810648639155,0.8200916018475001,-0.02238649454943539,0.39360200748192314,2.284251688155707,0.08085637446416069,0.7012542188836829,-0.6402816040922638,0.28078052503048306,0.13858243248579616
14.81999999999994,2.2135101103318435,1.1618882565324649,-3.345948542269679,0.543767097249294,0.838597374781388,-0.03210478511096624,0.7920394202477432,2.4595366551551736,0.11568793896388185,0.7085677433098814,-0.6380103849157082,0.2772900255485953,0.11818625375214448
14.82999999999994,1.8614591601242554,-0.06932655129797549,-3.729823409982081,0.5130087036419891,0.8565745999640485,-0.0480939266908236,1.5321961076948745,2.0954165894537815,0.2623828111027785,0.7165190014375906,-0.6360400579203179,0.26711258346973393,0.10241438231178562
14.83999999999994,1.7408182668832846,-0.692098181051372,-3.906774934345234,0.480121559253441,0.8742511650623728,-0.06523732255111975,1.9359061412383056,1.7667238402755585,0.41342598072942705,0.7244573115079213,-0.6343003357791,0.25483677123653314,0.08747871581985496
14.84999999999994,1.8866458007500504,-0.6122213271464186,-3.83846076029247,0.444951633984406,0.8916071789516559,-0.08349890173328209,1.9561752768769267,1.4917509354679368,0.5663426091206671,0.7323643092880708,-0.6328092448856548,0.24040323435065764,0.07335096591630882
14.859999999999939,2.456269055454211,-0.07889187133744235,-3.730211788991531,0.41021990174132683,0.905334305258873,-0.10544237736375098,1.490296460538637,1.3897419779676021,0.37196090444928165,0.7411188166243806,-0.6286103355005409,0.2281254427701972,0.057367535680606686
14.869999999999939,2.9325205486475223,0.2396919823444339,-3.465551401203797,0.3776450309337126,0.9163386144997656,-0.12991781491510565,1.2017737060056326,1.3626019305865955,0.23903990239335782,0.7503993640435791,-0.6225788244148249,0.21764785276984086,0.040917673086855996
14.879999999999939,3.2870846599954815,0.2968059705416289,-3.023515520164403,0.34752008009885593,0.9243587182857992,-0.15715743095912024,1.1331370237329959,1.414934975272955,0.18863029528629702,0.7602512826146209,-0.6145481508579848,0.20915187782827865,0.024000160501844173
14.889999999999938,3.350843874197558,0.23534151224115912,-2.7997008555364555,0.32177057703171164,0.9277225186798276,-0.1870326321878743,1.2504070494724044,1.1256398640327894,0.24392405287067462,0.7702385716033331,-0.6047118301191526,0.20181317632374243,0.008932579344427757
14.899999999999938,3.392084884592274,0.18550974623789412,-2.5925265032172757,0.2972142462352314,0.9292700331006211,-0.21768044544384174,1.338018890621483,0.8668249705624328,0.30689760751867695,0.7801750028332259,-0.5943127744564021,0.19460210293811253,-0.00547719091142714
14.909999999999938,3.419881612670177,0.15463924542576374,-2.39513847485599,0.2738635014810362,0.9288927760448078,-0.24911774375900697,1.382491926864295,0.6590752391583624,0.3741646419494491,0.7900456590546008,-0.583333598719699,0.1874891747479609,-0.01919717024751999
14.919999999999938,3.1679188650664902,0.2709976490812256,-2.0874449642459116,0.25431732512375715,0.9258080439595023,-0.27848227173550905,1.2781438952736033,0.33719972211694377,0.43847419406144633,0.7988287025989542,-0.572410669625927,0.1817292790575038,-0.03154385216606509
14.929999999999938,2.8635328223049914,0.3631156473705709,-1.7814676031475396,0.23723734952145684,0.9218850681398592,-0.3056913231239856,1.1660720680515746,0.08820881597176122,0.49598381824434246,0.8068017790374457,-0.561974391777067,0.1768783569352492,-0.04292454741301717
14.939999999999937,2.5112176320320083,0.41792947198491737,-1.4835993089105508,0.2229243694712704,0.9170990380332633,-0.33041343593351075,1.0528292931169452,-0.06660475251220005,0.5454517735899197,0.813857235426365,-0.5521221410047368,0.17304996794618283,-0.05321503712176049
14.949999999999937,2.0957189773408453,0.41559538647389205,-1.1609192176303715,0.2129284093448853,0.912171813336619,-0.34978502144844487,0.9088274533909093,-0.38956016637197494,0.5946493963817496,0.8191953298190087,-0.5440070996996449,0.17066669128898487,-0.06134590349895669
14.959999999999937,1.7195816890415154,0.44155981506430014,-0.879256904833305,0.20511940370184273,0.9075363287430229,-0.3663291617446908,0.8073493286348815,-0.6191205884569888,0.6224560651265517,0.823689734121829,-0.5368729271177504,0.1690723756108303,-0.0683940806307383
14.969999999999937,1.396362117140543,0.5063352876827388,-0.6500570469468194,0.19973887158693113,0.9032716785927006,-0.37971851621112207,0.7605890005063306,-0.7219288653982853,0.6237668500204226,0.827250668926322,-0.530840956115122,0.1683614909292321,-0.07424146523204375
14.979999999999936,1.1448274440267143,0.43258406746341527,-0.5841217033449291,0.1961887115430433,0.8996974582732282,-0.38985828969294734,0.6929923586384028,-0.8823481828925177,0.5999415725772248,0.8298652499818098,-0.5260686963630691,0.16825851848134926,-0.07898026491279996
14.989999999999936,0.9233800773897328,0.3322171918685401,-0.6439240884752317,0.19204303549170842,0.8967901818084169,-0.39855898275468443,0.6392680123165009,-1.0050515302704446,0.5848676883078786,0.8320500462477591,-0.5220860198079775,0.167755029419892,-0.08344266643139027
14.999999999999936,0.7347405298118963,0.20858504145825674,-0.851281110400461,0.18699896251879744,0.8946790274918776,-0.40567674448865815,0.6048004941998251,-1.0753257717931555,0.5828611203779501,0.833760246017573,-0.519011956903671,0.1666950778283286,-0.08763817128720504
15.009999999999936,0.6697388534233981,0.30981259130553046,-1.1146756788101813,0.17861105781409525,0.8937299601246715,-0.411446190594235,0.47899478260199724,-1.2250871564419121,0.5643055921932193,0.8348616597912786,-0.5168480493786706,0.1647437628580624,-0.09333120902442764
15.019999999999936,0.577601192482068,0.46601126266905646,-1.2392973176757038,0.16982560335403163,0.8932198298320294,-0.4162615165122633,0.3780229954347014,-1.3409961869228133,0.5367398635563281,0.8355640247592557,-0.5150482039992316,0.1630735537571882,-0.09969958806856109
15.029999999999935,0.43899948030771496,0.6741874231321432,-1.177399488134585,0.16081655698422603,0.89318089673897,-0.4199481672157803,0.3176394927326329,-1.4055693780928966,0.4988539200427109,0.8357983141814127,-0.5136439395797348,0.1618501421962272,-0.10681869680607536
15.039999999999935,0.3158275115760425,0.752860451893759,-0.9185302640819657,0.1549566595685899,0.8933381663369891,-0.4218020659190189,0.24202320632913948,-1.4066927084152356,0.48316213802989455,0.8355062606222969,-0.5126393810444246,0.1621703613133275,-0.11317745711955104
15.049999999999935,0.2128704874189587,0.8083017804837475,-0.6130644292241195,0.15131906756678154,0.8934015582097949,-0.42300783761047256,0.19185406280433923,-1.4115859882741344,0.4765359646043089,0.83511878714575,-0.5116966469319721,0.16328009425107837,-0.11862515249988162
15.059999999999935,0.13552872847794395,0.8456458720800148,-0.2649307076561744,0.15035004191096732,0.8933188154753603,-0.4235281018810133,0.17744648912674937,-1.4279861770814006,0.47984741843800266,0.8346564177398954,-0.5107964856509607,0.16529477737616413,-0.1229249863289754
15.069999999999935,-0.033956913923447046,0.8879144621337924,-0.002146544228224051,0.15344051153227825,0.893310990180613,-0.4224266951978649,0.1788801132741922,-1.4946565840852486,0.5158216510153409,0.8339429771298917,-0.5101912361525832,0.1687733021086947,-0.12549489341060716
15.079999999999934,-0.2157036897160446,0.8629993340099424,0.2514371297814078,0.15814566428597424,0.8935959087710266,-0.4200596018112791,0.1897262915647797,-1.545051248016248,0.5534398092682113,0.8329863897898415,-0.5100112981090005,0.17276927488446342,-0.12713232074531775
15.089999999999934,-0.40378967043096514,0.7446729419211341,0.5021292785037035,0.16461501023982447,0.8942767621387533,-0.4161300355668516,0.21175694107534,-1.5671679408518713,0.5895705522086783,0.8317226823833666,-0.510385176827067,0.1773118575889314,-0.12768020975727365
15.099999999999934,-0.5638236683052189,0.56027531038229,0.834789865842329,0.17374328055755028,0.8951641889727738,-0.4103999033571889,0.30483921072013576,-1.5343318389677474,0.6436140373133759,0.8302990887529714,-0.5115068507054218,0.1820653122857097,-0.12569675527309768
15.109999999999934,-0.6635004372639223,0.41376292669551046,1.2011812978442278,0.18476447205611624,0.8957949511017378,-0.4041189159393999,0.37846269483588496,-1.4873945752710587,0.6706215059740888,0.8311638682396691,-0.5187861378136693,0.16682027906350416,-0.0901815986714995
15.119999999999933,-0.6810724669824842,0.3296258799749175,1.6048700415356438,0.19813016233912126,0.8960343575660885,-0.39728866895605575,0.4152408135120334,-1.4275447845931772,0.6569034719156868,0.835300033361912,-0.534715556142148,0.12313972465786947,-0.007361969480166361
15.129999999999933,-0.6928043008682332,0.4553286121331347,2.1343593576682602,0.21729726947422207,0.8945087912670118,-0.39038220360642495,0.45047522126956935,-1.3056702958574056,0.5764613168455884,0.8337294246847284,-0.5375629606603417,0.12572367808267487,0.007125905916037201
15.139999999999933,-0.7120990819546502,0.6610571475687717,2.681949274020062,0.24062724250807374,0.8917179947799853,-0.38279478356482094,0.4766709840059083,-1.2038435608392861,0.5084026235215195,0.8313176300533232,-0.5389778473683985,0.1343581355476551,0.016007183337032514
15.149999999999933,-0.7432094472831622,0.9533066707697301,3.238004843306306,0.2691828757873451,0.8873391961206056,-0.37422884789690786,0.48995384215579424,-1.1399347485839124,0.4677929731060331,0.8284926343927681,-0.5401658277960791,0.1452252360346012,0.026428673060694897
15.159999999999933,-0.4032270998761424,0.8209437873287974,3.32887209852102,0.30176193079084057,0.8797453988806571,-0.3665132176815986,0.6097377930514354,-1.0205833989088777,0.5155940594533689,0.8256594401572805,-0.5401565013216821,0.15775574687189245,0.038227499809799434
15.169999999999932,0.09068151901247845,1.0139735835372143,3.8081211958232757,0.3370948699628886,0.868886697885998,-0.36143295103083556,0.7042838175104073,-0.9089150704576373,0.5649112223166957,0.8234697378253032,-0.5382002083136624,0.17176144015022618,0.05043059348023277
15.179999999999932,0.75590373257717,1.7601306286673921,4.9409972922833,0.37590593794823257,0.8536588347828822,-0.36015497540797725,0.744308273441897,-0.8174806477016155,0.6025282905535073,0.8222425526358966,-0.5335247338397543,0.18770796044194646,0.0630200100822011
15.189999999999932,0.9039947659913256,1.338833309770461,5.638225521902133,0.4287859706102126,0.8274072912771885,-0.35988055665787755,1.0832283414189852,-0.1860741641099466,0.47742339096198305,0.8203814884493594,-0.5254182029357879,0.20903225323367997,0.08187819042942715
15.199999999999932,0.39672209704106753,0.8258528464384408,5.822168162497877,0.4795410314805085,0.8002164843466675,-0.35845593598688374,1.4119470603331041,0.5497242624470055,0.3673017391154999,0.8177464982892383,-0.5179093409798534,0.2289187392095237,0.10166425002555544
15.209999999999932,-1.0268784848048513,0.3764562465709629,5.293799540494162,0.524567578393328,0.7735130731691561,-0.3550884257679798,1.6726501846987587,1.3513487480128117,0.3086958364046744,0.8140334683363369,-0.5119195704614871,0.24565445484297252,0.12177810201495229
15.219999999999931,-2.018160045053531,0.2012212990268474,5.469425734158599,0.5669069988707715,0.7488379358143509,-0.34123958193063825,1.6857843547818634,1.4902487176697368,0.22102992521486536,0.8056268432560237,-0.5118732896826604,0.25936195704744075,0.14566270869098033
15.229999999999931,-2.6121507933250485,0.21546543496528892,5.488013390984266,0.6080547320395525,0.724263314923231,-0.3233370052910849,1.6203575281251237,1.5009410823337146,0.15782990468360042,0.7953202095821126,-0.5137252584455025,0.27264728161293406,0.16977606509483897
15.239999999999931,-2.6619376542058513,0.4761140059507845,5.122355491038726,0.6478389008470993,0.6994554094329912,-0.3010551983519783,1.478653272245025,1.4371665900815151,0.13890787622242232,0.782918653329956,-0.517427734082469,0.28585092898899356,0.1935219001907652
15.24999999999993,-2.7170524156033937,0.003716368310096141,4.584651499607246,0.6808413356081515,0.6751384447665971,-0.2820782689051058,1.3150293426845454,1.3923988831565817,0.08254091979438248,0.7708304044313263,-0.5209039634637695,0.2959095796387244,0.21567657832500883
15.25999999999993,-2.908746766561851,-0.36542531145198975,3.897752940993019,0.7092056938514658,0.6533026532745636,-0.2641004745468442,1.2546449535856485,1.338259567247613,0.027820390109112903,0.7587889317195464,-0.5252444042135609,0.3033924889977438,0.23677274589794045
15.26999999999993,-3.321222984864768,-0.4109644424932646,3.0050169585558133,0.7314757799020069,0.6353939062280864,-0.24704351776292613,1.3666638674249865,1.264852766506897,-0.016264915009617173,0.7467568574977455,-0.5310371112134681,0.30735890368561264,0.2564872968198425
15.27999999999993,-3.6835379154445373,0.07807855559657423,2.197184889818697,0.7465542616477291,0.6260141781593783,-0.22430637346422347,1.2060371538447907,1.115979115426854,-0.19254811880513648,0.7338613843740541,-0.54068950130752,0.30893979006795436,0.2709324806306174
15.28999999999993,-4.031330621638982,0.46819298561978984,1.4903675929065148,0.7588018200736788,0.6200241514423992,-0.19843636002338427,0.9534577870748921,1.0386307470648768,-0.3507710441403045,0.7203921588101819,-0.5521165004676061,0.30963238604709864,0.28307160646603835
15.29999999999993,-4.366543073936829,0.5682725434295056,0.9326197318923487,0.767993845437028,0.6177119121550898,-0.1686536122733771,0.6107362066611792,1.0984494819676496,-0.44797624056924507,0.7061651140739099,-0.5656101245234743,0.3093962794171327,0.29258439133800257
15.30999999999993,-4.542988814881241,0.10142629129928593,0.7790247395006661,0.7729679340808602,0.6185961020185562,-0.13917902183055905,0.3598941761790502,1.120743202073818,-0.37139088244424034,0.6917547240461834,-0.580441503392414,0.3055539066461661,0.30150784066638864
15.31999999999993,-4.584837359607253,-0.2941887266503752,0.8803449664854591,0.7779148165853623,0.6181784575027952,-0.11148370848735108,0.2313797001838016,1.1042817351690892,-0.27274069581712124,0.6772601861266573,-0.5947254084719038,0.3007939552682902,0.3113139801605133
15.329999999999929,-4.435631994127396,-0.42265328946817193,1.317113575408789,0.7838907907373798,0.6147058960862437,-0.08677073428839363,0.2898726301757807,1.030720317348778,-0.18046156577287448,0.6626676531295052,-0.6077262489052708,0.29537533899952245,0.3227889629679097
15.339999999999929,-4.1028357302866105,-0.5304949858792556,1.541535723537909,0.7926089038228534,0.6059491581728851,-0.06523079755876787,0.09043955917799754,0.9957257405839808,-0.1996821385683468,0.64804442165367,-0.6183909950780572,0.2913946241084616,0.3353302233692048
15.349999999999929,-3.6596800896481394,-0.6315755884839569,1.6253303584405014,0.8017694407582747,0.5956788213019995,-0.04637662063585223,-0.14590621960002004,0.9478135131206133,-0.26558313694985264,0.6340688653224269,-0.6276593613870889,0.2877985817625963,0.3478725853352947
15.359999999999928,-3.072197343626663,-0.7264231508520211,1.5192030075859146,0.8109502859241166,0.5841988200586973,-0.031395224117777024,-0.37583657569170514,0.8662945302553309,-0.3831140910314416,0.6212487229988546,-0.6351052029064375,0.2844835427046357,0.36012016193473556
15.369999999999928,-2.708581359089674,-0.8957946519726353,1.265075738154207,0.8185025339826897,0.5739724838681152,-0.02201074516052078,-0.6785272238496222,0.7113699167860256,-0.4033436526576241,0.6110148486738457,-0.6402976652614183,0.28105890619697166,0.37087963512803496
15.379999999999928,-2.3647526391596467,-1.0964212594289355,1.0417052336203327,0.8251270349012169,0.5646972683081376,-0.015533283580818362,-0.9160974729437403,0.6181604011716303,-0.4184757144505106,0.6019641662858847,-0.6445342485540534,0.277119650662882,0.38123537589382844
15.389999999999928,-1.9891688108316776,-1.3314532744398853,0.9192572524626985,0.8305534745934868,0.5567763362507533,-0.01266020822010252,-1.0128889624188087,0.6597164023844815,-0.45379641643370144,0.5942871113636503,-0.6477107902981135,0.2722753142563958,0.3913059054748837
15.399999999999928,-1.3182954259791089,-1.404331065919852,0.74787277398376,0.8348252075743288,0.550247957840082,-0.01588730392985761,-1.1477202968029387,0.645797355093881,-0.4487444271647273,0.5896651982363599,-0.6483208468239682,0.26781655885980604,0.4002335597784089
15.409999999999927,-0.6453562815347557,-1.4114578655687435,0.5616041939470705,0.8382616407213808,0.5447792856711952,-0.022062392422764546,-1.2709096080418782,0.6125683156333621,-0.4443163789871532,0.5868325734281088,-0.647614849460772,0.2637360703890977,0.40821700182692655
15.419999999999927,-0.06579198433058298,-1.3485218817583406,0.36350325711315035,0.8405098358847997,0.5408419109630135,-0.031764179555930507,-1.35970883662492,0.5613493769026401,-0.45435677370396343,0.5863536938748717,-0.6452828158883656,0.2602389072278558,0.41480379136431067
15.429999999999927,0.48992125564998645,-1.1847603971261358,0.13382904401378226,0.840833688041691,0.5394434154846783,-0.043742105440812154,-1.4978485949077531,0.6294239551432171,-0.4237178174388981,0.5886695787006722,-0.6415907365254064,0.25783506994074035,0.41872202160791977
15.439999999999927,0.9393588563150927,-1.0435614126003196,-0.05149513036380453,0.84051543964684,0.5387286995505611,-0.05678036994420002,-1.6081409470702068,0.6597654495185498,-0.3849055935223355,0.5921780733464755,-0.6371919507730419,0.25609549981073165,0.4215506589580965
15.449999999999926,1.1917203692058531,-0.9820097844410683,-0.1397501089789412,0.8396421239495198,0.5384302591958109,-0.0710571818978312,-1.6469449335704063,0.5745178078595037,-0.3448066209152544,0.5969958208919641,-0.6319116339588092,0.2552505937752501,0.4232242698995758
15.459999999999926,1.195416305406936,-0.9450284320619152,-0.5111372594207052,0.8367464505530087,0.5407398446287567,-0.08559417129667626,-1.6583773680297633,0.4265717090269269,-0.23263225106545432,0.6028133110132099,-0.626770657157826,0.25366356174677884,0.42354797155505686
15.469999999999926,1.157665044615907,-0.8716372709551118,-0.8998419904124028,0.8323588889932135,0.5451101816769615,-0.09964327192773577,-1.663059582053948,0.29804372030935117,-0.13182534748820357,0.6090547867858456,-0.6220754728805953,0.251376502941647,0.42291206329177405
15.479999999999926,1.1334880056898027,-0.716166895333425,-1.213542968005756,0.8257798790206198,0.5525793186542243,-0.11261923215471893,-1.6648747274558968,0.23247470513477334,-0.08155748666362941,0.6157546583208469,-0.6182149763643572,0.24798116956976501,0.42088556492277807
15.489999999999926,1.186511525345704,-0.5227370926654359,-1.6102492645646636,0.8168087384944637,0.5632727230492552,-0.1239271523998158,-1.602086092952821,0.2496325146204668,-0.07693293688137101,0.6231989281709033,-0.6151564759484573,0.24414263234620062,0.4165832881948309
15.499999999999925,1.2283385933505557,-0.3158222188340897,-2.025891417539967,0.8061096226064178,0.5761543422046572,-0.13429344635820514,-1.52937212025681,0.2763547072868688,-0.08390536514094525,0.631109857340945,-0.6126311182002186,0.2398444171563837,0.41084761696573635
15.509999999999925,1.214852851093269,-0.09708578010946356,-2.445703303568451,0.7928611853221108,0.5921826773938231,-0.14342307618814237,-1.4633011026854594,0.2881079448166119,-0.09560431197156512,0.6396680898606085,-0.6108655605527089,0.23478719533202153,0.4031191967372638
15.519999999999925,1.1419855324474972,0.18713512070999627,-2.917705985117083,0.7762321399168577,0.6120252191157423,-0.14987267191194087,-1.3124543993603368,0.3210115749005019,-0.08207068951181204,0.6486160974563616,-0.6104285547420191,0.22895521782146494,0.3925789455263821
15.529999999999925,1.0121661392689913,0.41300109673218033,-3.4241458229255137,0.7570041924930735,0.6344211194788707,-0.15488145922062882,-1.1657206432826237,0.34515006104878365,-0.05634094690245694,0.6578016359600959,-0.6108219480296267,0.22233064236014768,0.3802908459157311
15.539999999999925,0.7885507886086137,0.48563876121287414,-3.9799377803161975,0.7337993742814508,0.6605013523338493,-0.15804988702193284,-1.0660326503544022,0.34115703316008483,-0.01618450467948257,0.6673141123307338,-0.6123737169241995,0.21437735915539885,0.3655715520823355
15.549999999999924,0.9208506581282361,0.5360734169430302,-4.129710165411852,0.7067683049093398,0.6885414492296571,-0.15967887108792442,-0.8958644664813105,0.5581948948677005,0.0499766753784778,0.6764227848508407,-0.6149144268656611,0.20489616801309155,0.34941917023489744
15.559999999999924,1.485663449584408,0.6394075171608696,-4.105337394478094,0.6788657058857216,0.7154271871105772,-0.16362528165365448,-0.7143372369614583,0.8226303117722062,0.10361506426463896,0.6863801097720629,-0.6162125302745111,0.19609168609912167,0.3324439415219602
15.569999999999924,2.8213873805560676,0.8690963128161215,-3.898727478252617,0.6509263747140792,0.7388359273695307,-0.17338354227276162,-0.542385782199098,1.0827495618538827,0.117220009630169,0.6983877348026001,-0.6143145591413992,0.18951037573532994,0.3143708500600336
15.579999999999924,3.874435105008425,0.9198938365558843,-3.803004993558512,0.6240814381832617,0.7562237641222573,-0.19440463612398406,-0.22177488409093937,1.5713187150801504,-0.03811272649198967,0.7141193711216469,-0.6066014308478023,0.18650345193473863,0.2947128424983525
15.589999999999923,4.577765920843905,0.8577971069385982,-3.812048469555511,0.5968675453582194,0.7709153286412493,-0.2206906359822989,0.07771463602620216,1.9850997595527429,-0.1600251456376773,0.7312945028745007,-0.5963571727727338,0.1842541303936304,0.27434233343444137
15.599999999999923,4.641867940066872,0.6354564398185765,-3.998800744289609,0.5682465569082337,0.7826996532748568,-0.2529133726345726,0.25140102625285016,2.110180082532006,-0.11775449390986606,0.7497626852445046,-0.5834695108119188,0.18183118373984752,0.2532003467561142
15.609999999999923,4.293691884263977,0.602843868761195,-4.33390285203609,0.5370204441964991,0.7936135547159587,-0.2839371613204972,0.5976995287336779,1.9168459135935934,0.013020430513743617,0.7668221712285473,-0.5712914465151915,0.17766435966405672,0.2313490916220117
15.619999999999923,3.872209943854913,0.38086546142216304,-4.68741559424544,0.5029306549609954,0.8045804259599277,-0.31430765251681947,0.9557777310550755,1.6834753143010999,0.13406797703054746,0.7830274391430946,-0.5597672174020839,0.1715642534956277,0.20918215751768582
15.629999999999923,3.514010954667905,-0.3890529977261583,-4.99963014702958,0.4636584900163998,0.8161639929159492,-0.34383869334744316,1.243381302405717,1.5375362227742888,0.18231422581010231,0.7980449426821888,-0.5493611423968241,0.16195707761880893,0.1866832598863627
15.639999999999922,3.3768775645255493,-0.6546311851990906,-4.675602677550897,0.4221503350355737,0.8247575319577651,-0.37417624527163373,1.5248140551288583,1.445370943115204,0.19176331422805273,0.8118378073063733,-0.5388818901606766,0.14952889003690245,0.16639106312640722
15.649999999999922,3.3395064807026196,-0.67803938425395,-4.286882508191571,0.38161700278434835,0.8305369328260762,-0.40467931946663893,1.714447770504772,1.3985739131482644,0.1750959770197304,0.8249336122230645,-0.5279952305327156,0.13707786086977222,0.14715897466027017
15.659999999999922,3.4067009138983297,-0.42790242509396004,-4.1313026748217,0.34478961395271784,0.8313848299935264,-0.4350873968679987,1.687426385560552,1.4278794308556337,0.11940807967720558,0.837103415677357,-0.5161750069060314,0.12629444034886397,0.12912499243769326
15.669999999999922,3.2392704431456543,-0.3230730186170228,-3.9854247941877508,0.3093388853993533,0.8295581807869704,-0.4636809515355541,1.5106579534916982,1.3521646093430073,0.07495496016649861,0.8481112127355902,-0.5044738609314162,0.11634238570838765,0.11088088616901683
15.679999999999922,2.957167118403315,-0.23108921983864494,-3.7655492126204253,0.27571148600294004,0.8263850180869837,-0.4904647138385038,1.37011155430845,1.2385546885426555,0.07492302989278954,0.8581599245714264,-0.4931972366022272,0.10706981056171948,0.09314300053258513
15.689999999999921,2.544764179913706,-0.07547872355617857,-3.3557150736131556,0.24570288606765048,0.8216289644303663,-0.5139510221388468,1.4178424243094607,1.099949027890009,0.17771311217302777,0.8665928882486766,-0.48289555959655023,0.09893659963060764,0.07679910122611368
15.699999999999921,2.066844187858438,0.0027138642824327125,-2.9965280250230926,0.21984079882652743,0.8171734648271555,-0.532333987635602,1.3960909854598518,0.7526508973721362,0.28655830858579395,0.8730234593064387,-0.4746577427030898,0.09206433682315573,0.06216360611467986
15.709999999999921,1.5981220992376115,0.04952223854835682,-2.6446466569703064,0.19657267438399945,0.813158065195861,-0.5476823565315283,1.3473736484828942,0.4031719452188651,0.38202124916297375,0.8783025996440535,-0.4677135278430536,0.08593629308640463,0.04873645570282468
15.71999999999992,1.1992754434352553,0.07055298041040935,-2.275714781046632,0.17702638713905397,0.8100588265637884,-0.5588550394389848,1.2786014381648236,0.19554912583944578,0.43889101917547735,0.8820439775371266,-0.4626282049044065,0.08082568754181053,0.03720072031102782
15.72999999999992,0.920039118613938,0.09029293577448155,-2.0357362903121388,0.16026948277027545,0.8079315966214936,-0.5669087187253694,1.1602958437848667,-0.08071804969793803,0.5078720696325213,0.8846796738956327,-0.4590073968735646,0.07643412578890921,0.027239903672341168
15.73999999999992,0.7211265154690573,0.1479145089126454,-1.8256288304949237,0.14522577554614646,0.8061844157679044,-0.5735092151546961,1.0390319789571607,-0.32486826971118454,0.5695600271241696,0.886794495662675,-0.4560374394897368,0.07259843411269695,0.018042141488545476
15.74999999999992,0.6443152160501555,0.3069511714399283,-1.5967615161171265,0.13260534076767477,0.8047064877456754,-0.5786261964782854,0.9475517036957902,-0.4317236750222917,0.6027119648652383,0.888368238682384,-0.4536805844265814,0.0696903033721662,0.009671099269348388
15.75999999999992,0.567518454262914,0.4649966575063105,-1.3465410833340292,0.12353681144943549,0.803098058631464,-0.5828596610663255,0.7950790583511569,-0.5899995648943237,0.6114140625458998,0.8896037140459867,-0.45155383835158847,0.06831130770553084,0.0021938112578790457
15.76999999999992,0.5097034803958993,0.6008483976039708,-1.1214314943004255,0.1164465717029709,0.801451108066535,-0.586604885622271,0.6591243210492678,-0.7352473151373409,0.61428769717693,0.8906549727628758,-0.4495583945838759,0.06777631067506612,-0.004773480688135434
15.77999999999992,0.5039377967149214,0.6766389255424534,-0.9826292523698661,0.1118818259660651,0.7998050669708185,-0.5897324628274067,0.6182769677199983,-0.8027750458645981,0.6211404063349683,0.8914771978856977,-0.4477351747344285,0.06830751097895502,-0.01107181472916759
15.78999999999992,0.5324154409162466,0.6938361327108399,-0.9092095684329246,0.10851981228505415,0.7976934632642058,-0.5932060213334477,0.5711198064248012,-0.8972024902252373,0.6384568247547346,0.8923547087783212,-0.4456424049535724,0.06925682200266615,-0.0169403559229929
15.799999999999919,0.5295029968988996,0.6783759209817088,-0.8531315019065195,0.1056041895750547,0.7954982412185863,-0.5966768374638337,0.5286555349804507,-0.9871849976702568,0.657660572968188,0.8932072249996966,-0.4435255961704159,0.0703210795809285,-0.0225755189266135
15.809999999999919,0.40743409194939373,0.6216195992957553,-0.7889139334559495,0.10290046349151832,0.7934741439540713,-0.5998362927140368,0.5050498822576527,-1.040946488040234,0.6730408574281965,0.8939402767142145,-0.4415770577847356,0.07134478283981696,-0.02792528277590326
15.819999999999919,0.13284365395215988,0.6094693250810972,-0.6792460852312139,0.10087761261423009,0.792770132028034,-0.601113096467543,0.44978011681869606,-1.1838309583117128,0.7257534992466655,0.8941389017730983,-0.4406719838693406,0.0724619376917534,-0.03257224379485542
15.829999999999918,-0.2134841437610721,0.6485860023063136,-0.5560769839589544,0.09962809394098368,0.7933255138490909,-0.6005835539434525,0.39227341805794896,-1.3285688678513727,0.7771983039468328,0.893830522421981,-0.44073528017112024,0.07387771391268903,-0.036795283925849465
15.839999999999918,-0.6269609088723233,0.7964179206332409,-0.4360620457595962,0.10001091920033878,0.7963399808801226,-0.5965168167907989,0.358049183834952,-1.3947085591425408,0.7897071506445051,0.8925349880577262,-0.44266260166310023,0.07608363809681751,-0.040434318041928125
15.849999999999918,-0.8235192073435313,0.891083707146874,-0.19287569631024368,0.10281015587179977,0.8010478145513258,-0.5896567895871673,0.3027090351543405,-1.388271899897759,0.7941587820379903,0.8904732428857662,-0.4459198433369513,0.07944459281207633,-0.04334350910041558
15.859999999999918,-0.9048980774038328,0.9416626484075548,0.11312422347896291,0.10748965645897547,0.8061947439766889,-0.5817631238804165,0.2574047260869086,-1.362576208340432,0.7860086024091354,0.8881532559678663,-0.4495910942224079,0.08351275337421289,-0.04542638953292753
15.869999999999918,-0.8551304589984013,0.9117948300589614,0.4857084979840784,0.11544929301216392,0.8109640497197267,-0.5735500794285849,0.2640602144062193,-1.351725628429137,0.7476315436669478,0.8858226998131395,-0.4531764369019801,0.08856529622729852,-0.04573139460352403
15.879999999999917,-0.7901296550226565,0.758818345169542,0.7395385619535759,0.12530026929202626,0.814843054346179,-0.565888232040797,0.31635456965346814,-1.3340575397684205,0.6784143536165681,0.8837255246157264,-0.45632767378031835,0.09380795203354483,-0.044370702800704084
15.889999999999917,-0.7132808743579908,0.5637426167384796,0.9643094867823194,0.1360172030920625,0.8180655302911014,-0.5587630001174632,0.3707317496978968,-1.3169417557042593,0.617078067831291,0.88182684730004,-0.45915161408385735,0.09894601187805385,-0.041914986384058744
15.899999999999917,-0.6155875156173216,0.36968332965763656,1.2265482349046986,0.147410865061884,0.8201832262125656,-0.5527328694058884,0.38201185535314275,-1.308991208017307,0.6142043606110084,0.8803011577256984,-0.46141419952422924,0.10354674297990944,-0.03781336086834693
15.909999999999917,-0.5709526857531729,0.3143225937959296,1.5869577368413204,0.16114894169351368,0.8211925411520914,-0.547300714169044,0.4018343175768648,-1.2844605164713674,0.5938094407530382,0.8789797759354929,-0.4632088583846456,0.10849501685827152,-0.031935621625020824
15.919999999999916,-0.5236846625048243,0.32556912431742546,2.0259085790461304,0.1772042974924463,0.8212171448099757,-0.5422770020564553,0.4139366553313169,-1.2542965192737328,0.5654323536014029,0.8777814130885058,-0.4645928503631732,0.11401893237662027,-0.024712089307083632
15.929999999999916,-0.405734958970302,0.39293702616494175,2.607494594822104,0.1981135141929354,0.819310278117124,-0.5378927706934943,0.3907438509925698,-1.2250576852076245,0.5313818706120269,0.8767473498843078,-0.46517798371574354,0.12102324765639948,-0.015154426511315986
15.939999999999916,-0.3986112252148401,0.5397469308066648,3.2870092471129926,0.22535351418677,0.814948663357066,-0.5334356084708847,0.4022216852824304,-1.1620120843603816,0.4469733031228258,0.8755614309054505,-0.4650558721331147,0.13018875410787917,-0.0027988332408408964
15.949999999999916,-0.4566364212626679,0.7672451212992359,3.997215369021395,0.2573563385002487,0.8087677424819731,-0.5283491509462325,0.42427380766783557,-1.0851823005562349,0.3664113740016946,0.8740442447915504,-0.4645952291922591,0.14112955006364536,0.011490613691186289
15.959999999999916,-0.5971324921765129,1.169566590196382,4.688801612272011,0.2976150304298251,0.7994791392422854,-0.5212120617431636,0.43874066607356726,-1.0039243871965846,0.36224805875120764,0.8715902185344353,-0.46387117802944844,0.1553972033477013,0.028846293958768966
15.969999999999915,-0.512769816986111,1.5487784556404658,5.082841545827411,0.343248012469134,0.7863983169108535,-0.5121544865104922,0.5372181837352961,-0.9232402066517633,0.4866415988207929,0.868118457359504,-0.46255586746772925,0.17255528702359602,0.04730621792079537
15.979999999999915,-0.4559303113252335,1.8588082759837667,5.494206888732137,0.39237235218414407,0.7699889584628351,-0.5021419720090099,0.6486343815895977,-0.8428750258843711,0.626650407740046,0.8639945825654326,-0.460533524293407,0.19157464110849315,0.06670546264654308
15.989999999999915,-0.8003585797259305,1.955267749662915,6.368986072281025,0.4465879926114884,0.7469264134875767,-0.49134576979823047,0.692301096487844,-0.762863277446886,0.6481805667887911,0.8589385807284601,-0.4568083786346483,0.21327394445524311,0.0879362090460556
15.999999999999915,-1.4908104283817492,1.8232109661930511,6.916634640753982,0.5050226609526541,0.7203402630025825,-0.47255986473804595,1.0384191532981975,-0.22123691623150044,0.5479590740489487,0.8501446229869718,-0.4557722739515103,0.2359882884033188,0.11413722938120989
16.009999999999913,-2.2833391274894446,1.5367223402079664,7.076387157795623,0.5630411675898306,0.6923729185473888,-0.45002464291260896,1.4594469600798952,0.4744166269262038,0.43007357262524865,0.839343401359599,-0.4563862097165986,0.2580788723535093,0.14230620923486395
16.019999999999914,-2.9487512899946555,1.0138972237974864,6.283813632115397,0.6133970994437791,0.6644422398146385,-0.42529982894716545,1.7166834349073934,1.0661922498962797,0.4240962211039827,0.8265860091219679,-0.45916573902537533,0.27639864216606924,0.17049596262821592
16.029999999999916,-3.2656231672495895,0.5271341006355774,5.942844820596914,0.6559029671770076,0.6383514053369163,-0.40091849065304247,1.7874235263464378,1.3347329452685253,0.24589846532791818,0.812755270345695,-0.46384600901465584,0.290323840890587,0.1983451661874022
16.039999999999914,-3.3640798017330407,0.13916718647951037,5.801756289347681,0.6942971183512093,0.6122159291952162,-0.37745932471319715,1.779560503396432,1.4399236200111747,0.033366237879931,0.7983605855845533,-0.4690480969504553,0.3020460269074337,0.2260240040773907
16.049999999999912,-3.170131872378624,0.07347941666596725,5.72097859192585,0.7292005643520161,0.5830342354401455,-0.35699760453582513,1.7618919779701252,1.4242006862160086,-0.041622442242113984,0.7834819174939613,-0.47327974266834055,0.31219264565523475,0.25358209916303676
16.059999999999913,-2.970622347347618,0.0021167124373930243,5.448242640443747,0.7607399693627201,0.5518354484101081,-0.3398894734453205,1.6730712259795266,1.3965993974591802,-0.11120542521080434,0.7687599006281138,-0.47618145651352445,0.32134174314622105,0.2800885818060682
16.069999999999915,-2.75815484967138,0.01373806587846807,4.9517145239191365,0.7894163345940184,0.5208176187158584,-0.32432370421379264,1.5643084750837553,1.3383966047971871,-0.17939052989158386,0.7543121503250382,-0.47862292728068084,0.3297615250079716,0.30499073884540895
16.079999999999913,-2.5032900379580614,0.3663360125596087,3.8842896038523067,0.812316903640909,0.49391562150082996,-0.30927665237787333,1.4955898773371152,1.1779558313501957,-0.25108597799221244,0.7406962793645553,-0.4814634111323849,0.3369464968146895,0.32525437096183035
16.08999999999991,-2.3099032051471773,0.6810147275107585,3.0956594233952295,0.8305611638316373,0.4730372582591997,-0.29310837367000914,1.266559406264859,1.0577210631055094,-0.3602224274127904,0.728296926797371,-0.48536246472334527,0.3432760682370547,0.34053168332703193
16.099999999999913,-2.137640432756816,0.8839758299592254,2.4924658319562263,0.8460638799556541,0.45560282378588746,-0.27648411313725063,0.9931210942018748,0.9917289247598052,-0.46616798018729083,0.7166593512801922,-0.48981195522420035,0.3490416085740311,0.35297142433969997
16.109999999999914,-1.9420074025309841,0.6901020681796942,2.1568415031506327,0.8585793481955976,0.44160500237638384,-0.2599913580402327,0.8251119091790721,1.0789211554750853,-0.4909739230048262,0.7059918978330939,-0.4946370828245805,0.35400672230294444,0.36262173329071573
16.119999999999912,-1.89893028514825,0.5979584541920006,1.8746613654798867,0.8689531823814765,0.4293955093867136,-0.24559142345616264,0.7013379908925887,1.1878943558741553,-0.4235369298356641,0.6963094801391083,-0.49917605782386704,0.3577858548684924,0.3712985592036396
16.12999999999991,-1.9542409623392876,0.5360088024851013,1.6300540366114142,0.8779953489320338,0.41843386576041597,-0.2323027831992314,0.6036697652546714,1.2862410349270024,-0.32573225442197506,0.6871214463242136,-0.503705981837031,0.36072426751119846,0.37944791889483226
16.13999999999991,-2.1398161469465116,0.40679402138098447,1.4445954209749574,0.8854244004571064,0.4094105353135505,-0.21976349073323212,0.5332282067513074,1.295802386682993,-0.27590861455188775,0.6781613206935495,-0.5087553559752702,0.3623199018268452,0.3872028292407754
16.149999999999913,-2.396005541330045,0.25346485582007394,1.1443414822944815,0.8912284652081871,0.40310605886748707,-0.20762586470847413,0.2723710081194266,1.1981635035157066,-0.2148944969479201,0.6692420997628659,-0.514816520707864,0.3621139613252827,0.39478085644127386
16.15999999999991,-2.6849676748859097,0.07390862336676135,0.8311826108184461,0.8958669436939807,0.3987840739186895,-0.19586505098480683,-0.0373899449702789,1.0627617206565978,-0.1613322958182871,0.6603460743109953,-0.5216040697734855,0.3605240093200457,0.4022970064419693
16.16999999999991,-2.9742984996260193,-0.17415247466813163,0.7010345263272652,0.8986258754824056,0.39775369185090187,-0.184972228164139,-0.16864030971428126,0.9813282544084433,-0.1652220034870453,0.6514694145147032,-0.529564808678738,0.3564329438705843,0.4099041727671503
16.17999999999991,-3.17452336200848,-0.4645432962513103,0.7215880310309402,0.9008495830124507,0.39685456113461764,-0.17588585460672473,-0.33249642937961765,0.876236144524563,-0.19962133302133933,0.6423523879826452,-0.5375289784769726,0.35080122025388044,0.4186059082261951
16.189999999999912,-3.2827898744573747,-0.7616205361241638,0.8249825026147704,0.9028500295645354,0.3956441012130643,-0.168283077100766,-0.49843115607873445,0.7735332819814006,-0.2465205467684879,0.6330915829429116,-0.5452687836884993,0.3442640168852371,0.42812217942605046
16.19999999999991,-3.1557278020008432,-0.9942851244898547,0.9802167301312785,0.905004279181395,0.3926524666967346,-0.1636381312319531,-0.600120523568156,0.7360084952456588,-0.2835725142295058,0.6236926183930912,-0.551932246045877,0.336917869853477,0.4390286681607698
16.20999999999991,-2.8729881212139645,-1.2064764769567689,1.0500700837253694,0.9071732830314954,0.38822922499995216,-0.1621637795615731,-0.8070709881024307,0.7215633020383624,-0.3708853107769902,0.614995395444962,-0.556958927613821,0.3296602198804881,0.45027838210688204
16.21999999999991,-2.499339035955851,-1.3864306435829792,1.0172499382010562,0.9091400378146777,0.3832374095471884,-0.16304470797359402,-1.0500647908746354,0.7225906162668136,-0.4701989045810554,0.6070268722064134,-0.5607997449953191,0.3224418717058218,0.4615281033825353
16.22999999999991,-2.0544168120701976,-1.455733991996637,0.6816076429905148,0.9100605803888698,0.3789255800418696,-0.16789287970206268,-1.214289126215879,0.7441463145835386,-0.5058874429914612,0.6009721261960316,-0.5627424307704225,0.31520223494582533,0.471934140907567
16.23999999999991,-1.5254197379062115,-1.2166211394912487,-0.037652061676026305,0.9088886556568415,0.37938237536406677,-0.17310836394469437,-1.4811527738492318,0.7250823864278426,-0.5085646132637777,0.5974757044101495,-0.5644188619597831,0.3079719989044956,0.47912097938209725
16.249999999999908,-0.9803251714549024,-0.8226563190086891,-0.8493286152261453,0.9061653457047713,0.38361620237074145,-0.17795537358445107,-1.7729445990111505,0.6822431675415327,-0.49238025965983884,0.5958424774292354,-0.5661286354943535,0.3008486275269722,0.48368253874272754
16.25999999999991,-0.5744857265445205,-0.43715892629413217,-1.1250722886616507,0.9008734251974021,0.39497018851554444,-0.17989295731699437,-1.9224005277826863,0.6227911986215227,-0.4651098152810801,0.5971736160832025,-0.5687215842850174,0.2942606347882769,0.4830415971885849
16.26999999999991,-0.17905192047504664,-0.3056142435641216,-1.1130465543623966,0.8957414435646937,0.40544786766245644,-0.18216968790164914,-1.9915119492960294,0.5584674123455615,-0.3810653243506332,0.5994367705075808,-0.5703726189876005,0.28909971946916435,0.48140785284035853
16.27999999999991,0.22180408264783635,-0.315445719932196,-1.0104247941834914,0.8906506267023886,0.4153124592030357,-0.185010754639836,-1.996007888314889,0.5000880242030085,-0.2789172090872064,0.6024464264790546,-0.5712572121044722,0.28488191828959064,0.47912166315614513
16.289999999999907,0.682592512470788,-0.3729595942942796,-1.2378668157607766,0.885325666641572,0.4243213941678863,-0.18998773957471984,-1.8756763512298225,0.48856197631963405,-0.2406186248570216,0.6068872605827997,-0.570629143898016,0.28175237290421085,0.4760986329337202
16.29999999999991,1.3242258521495658,-0.3976527519075277,-1.4737925765956064,0.8786449044327895,0.43438351138442705,-0.19786689477752656,-1.726888408197913,0.5241021392702889,-0.22470748119085893,0.6137021776579867,-0.5684199567792969,0.27920844569558545,0.4714334905486636
16.30999999999991,2.064185722878838,-0.39370756194830325,-1.7273401721803658,0.8709282709182591,0.4450996489345252,-0.20805107995863878,-1.5798104077811332,0.5747971913514607,-0.22193481355895567,0.622365653889726,-0.5649169687273182,0.2771927222915245,0.46544973568272885
16.319999999999908,2.8097829602983797,-0.32597166264548866,-2.056804563476785,0.8614322656035167,0.4563219735840313,-0.2225540516909484,-1.5317632282694928,0.5662748699500785,-0.22547924187133148,0.6343466535465845,-0.558840056076599,0.27641530247872503,0.45693871780243905
16.329999999999906,3.4184417701639638,-0.26324440297635743,-2.3641212084235845,0.8503766810751864,0.46797728685432743,-0.23980167496105687,-1.417335135971434,0.5543087241595934,-0.19680481516146153,0.648580572559523,-0.551032415181745,0.2764412969550186,0.44612840914465135
16.339999999999907,3.8532749634408354,-0.1815739362602198,-2.6595869017607416,0.8381552694893475,0.480081451103132,-0.2586046088161191,-1.272538021485879,0.5371067805793156,-0.14668369256107752,0.6641673273292109,-0.5422457563563201,0.27686112019165793,0.4336971184116853
16.34999999999991,3.6866270112483925,0.03346702940664281,-2.9576393276641015,0.8240814297867495,0.49346862423422166,-0.27761930760824194,-1.167122242963755,0.4994707636221,-0.0744919540498639,0.680395686645189,-0.5333362053747913,0.2769656261321106,0.4191353602468042
16.359999999999907,3.6556671900244515,0.16576220179699308,-3.2567247619446382,0.808829770779415,0.50816672296612,-0.2951859867815706,-1.0451190669479031,0.5007032026826765,0.03484457837984145,0.6963181116050219,-0.5251665490901465,0.27671983862151894,0.4030362198584641
16.369999999999905,3.7704376190525313,0.23439795339284622,-3.5354136494922184,0.7924947815944143,0.5236435467228332,-0.3123553306658599,-0.9171278320364047,0.5333468666340742,0.14329788812170663,0.7122174522966108,-0.5172396906284,0.2761703558296103,0.38575108597653224
16.379999999999907,4.329233739129787,0.1961002786662601,-3.6777135949347977,0.7734861094973743,0.5393208838117522,-0.33231114547503976,-0.8117203798693106,0.6260231236758105,0.10829022391011808,0.7291010716325006,-0.5081475064612339,0.2749459060931538,0.36645819416173864
