time,seconds_elapsed,rotationRateX,rotationRateY,rotationRateZ,gravityX,gravityY,gravityZ,accelerationX,accelerationY,accelerationZ,quaternionW,quaternionX,quaternionY,quaternionZ
1681249434994558000,0.117557861328125,-0.6333765387535095,0.5141139030456543,0.3117160499095917,0.07853595167398453,-0.09508153796195984,-0.9923666715621948,0.003922522068023682,-0.14890646934509277,-0.19179165363311768,0.9980899236582828,0.04763174958703144,0.0393431233447988,-5.974208080279306e-17
1681249435009591800,0.132591796875,-0.43881458044052124,0.5117966532707214,0.3759951889514923,0.08606685698032379,-0.0875859335064888,-0.9924319386482239,0.06696350872516632,-0.07276864349842072,-0.28962671756744385,0.9981018605525952,0.04374740240644895,0.043245607705024586,0.0029737478254450223
1681249435024622000,0.1476220703125,-0.34280818700790405,0.221274271607399,0.313927561044693,0.09128834307193756,-0.08239646255970001,-0.9924098253250122,0.12363184243440628,0.0002887919545173645,-0.3586796522140503,0.9981006679094481,0.04127663031858737,0.045731030452558816,3.154622010815932e-18
1681249435039656000,0.162656005859375,-0.3506450951099396,-0.1005019024014473,0.1317412406206131,0.0917884111404419,-0.07756352424621582,-0.9927531480789185,0.24094489216804504,0.08081351220607758,-0.29646193981170654,0.9981849073612787,0.038764748942982895,0.046051340251068794,0.0018973017102079108
1681249435054689000,0.17768896484375,-0.36262452602386475,-0.16804419457912445,0.04047630727291107,0.08947799354791641,-0.07233516871929169,-0.9933586120605469,0.22177092730998993,0.05037763714790344,-0.19070816040039062,0.9983351908848795,0.03611462861283886,0.04490469979716556,0.0025181981297946977
1681249435069721900,0.192721923828125,-0.337495356798172,-0.09364426136016846,0.02272048033773899,0.08742007613182068,-0.06715108454227448,-0.9939056634902954,0.050900980830192566,-0.04603873938322067,-0.0067351460456848145,0.9984712946111147,0.03350346002167251,0.043871266207412274,0.002810469057902721
1681249435084756000,0.207755859375,-0.32892346382141113,-0.027206117287278175,0.011754381470382214,0.08652675151824951,-0.062153298407793045,-0.9943088293075562,0.0010435804724693298,-0.0623890683054924,0.06781047582626343,0.9985716014588628,0.030989786749938745,0.043418986896720975,0.0030200621355643293
1681249435099788800,0.222788818359375,-0.21823544800281525,0.011121829971671104,0.02878503128886223,0.08644409477710724,-0.058007460087537766,-0.9945665001869202,-0.0238523930311203,-0.07640734314918518,0.13996756076812744,0.9986355617298468,0.028903869629921287,0.043374053149975826,0.0032115326519510253
1681249435114822000,0.23782177734375,-0.04509136080741882,0.07951846718788147,0.06417364627122879,0.08722347021102905,-0.05609791725873947,-0.9946079850196838,-0.02310589700937271,-0.06739158928394318,0.12366688251495361,0.9986446041318197,0.02792911672190361,0.0437716847080672,0.003602718167757911
1681249435129855700,0.252855712890625,0.12936027348041534,0.12210188060998917,0.09976519644260406,0.08865250647068024,-0.05684438720345497,-0.9944392442703247,-0.023131124675273895,0.021001357585191727,0.05779379606246948,0.9985998100227835,0.028272948433793504,0.04450852517238844,0.004242601744991455
1681249435144888800,0.267888916015625,0.17391502857208252,0.13395188748836517,0.09989675879478455,0.09052670747041702,-0.059334203600883484,-0.9941249489784241,-0.011302925646305084,0.044517792761325836,0.03166157007217407,0.9985177844360956,0.029484902636166915,0.045477221886206745,0.004967371972071777
1681249435159923000,0.2829228515625,0.12440589815378189,0.15375009179115295,0.0999247208237648,0.0925622433423996,-0.061854735016822815,-0.9937837719917297,0.0035224929451942444,0.05280614271759987,0.01738917827606201,0.9984285222628313,0.030710539279947283,0.04652920870789029,0.005697266017411059
1681249435174955800,0.297955810546875,-0.01912117376923561,0.17914839088916779,0.10323076695203781,0.09490826725959778,-0.06288615614175797,-0.9934977293014526,0.0009018033742904663,0.024327076971530914,0.03817552328109741,0.998352122060949,0.03118566618847072,0.047734540035933595,0.006469160969425452
1681249435189988900,0.31298876953125,-0.13750822842121124,0.22404982149600983,0.11126445978879929,0.09780231863260269,-0.061746746301651,-0.993288516998291,-0.012703903019428253,-0.037374481558799744,0.10235834121704102,0.998293737086634,0.03056435781961636,0.049209444629278974,0.007339350227085097
1681249435205022700,0.328022705078125,-0.09892524778842926,0.25836411118507385,0.10725720226764679,0.101383276283741,-0.06002651900053024,-0.993034839630127,-0.021854326128959656,-0.049897924065589905,0.12554222345352173,0.9982230673797614,0.029644610661813692,0.05102708121867621,0.008256902473732826
1681249435220055800,0.343055908203125,0.008780978620052338,0.24146609008312225,0.10542254894971848,0.10497475415468216,-0.05945480242371559,-0.9926960468292236,-0.012460574507713318,0.007208578288555145,0.11446124315261841,0.9981306143797541,0.02929990511536649,0.05285353047490513,0.00912461873521453
1681249435235089000,0.3580888671875,0.0906233862042427,0.19685573875904083,0.11526985466480255,0.10813794285058975,-0.06029133498668671,-0.9923059940338135,-0.008009634912014008,0.04561224952340126,0.09923958778381348,0.9980248985039266,0.02966149262848513,0.05447210794399328,0.009963989637381626
1681249435250122800,0.373122802734375,0.13714885711669922,0.161460742354393,0.13009513914585114,0.11068655550479889,-0.06213848292827606,-0.9919109344482422,-0.004851445555686951,0.044544968754053116,0.08019828796386719,0.9979164438830996,0.03052639474418612,0.055791341765377554,0.010869980741631867
1681249435265155800,0.38815576171875,0.14370332658290863,0.15221983194351196,0.14537262916564941,0.11284012347459793,-0.06448249518871307,-0.9915186166763306,-0.006959244608879089,0.02160516381263733,0.07150518894195557,0.9978067944024664,0.03163498313763991,0.0569204096859923,0.011870025890400447
1681249435280190000,0.40318994140625,0.13696008920669556,0.15777811408042908,0.1776496171951294,0.11490611732006073,-0.06701257824897766,-0.9911134839057922,-0.01653256267309189,-0.022312499582767487,0.08291035890579224,0.9976903754453001,0.032824146381439295,0.058015888589758424,0.013064598981605204
1681249435295223000,0.41822314453125,0.08966315537691116,0.1071905717253685,0.19767019152641296,0.1166933998465538,-0.06914817541837692,-0.9907578825950623,-0.016839750111103058,-0.03603077679872513,0.07785511016845703,0.9975820422044048,0.033803252214969735,0.058977957466158734,0.014455749452037418
1681249435310256000,0.433256103515625,0.05295749381184578,0.05215528607368469,0.2421516478061676,0.1176217645406723,-0.0704505443572998,-0.9905563592910767,0.0002830401062965393,-0.04142703115940094,0.06823885440826416,0.9975067617230036,0.034353960946065916,0.05951168063366301,0.016080283404051376
1681249435325290000,0.4482900390625,-0.003971248399466276,0.02673700824379921,0.2954111099243164,0.11794198304414749,-0.07120835036039352,-0.9904640913009644,0.00287725031375885,-0.059361234307289124,0.07409751415252686,0.9974491249176088,0.03461123797479969,0.05974972979440608,0.01809594388272843
1681249435340323000,0.463322998046875,-0.03038778156042099,0.013135179877281189,0.34433072805404663,0.11786974221467972,-0.071343794465065,-0.9904628992080688,-0.012950167059898376,-0.07855867594480515,0.08575409650802612,0.9974020818244487,0.034535317105444746,0.059798446316267594,0.02050724047444115
1681249435355356000,0.47835595703125,0.02136302925646305,-0.000752938911318779,0.37940481305122375,0.11761187762022018,-0.07184968888759613,-0.9904569983482361,-0.021862849593162537,-0.08577373623847961,0.10289907455444336,0.9973406940286978,0.03462800046324449,0.05976957236650149,0.02323805649240043
1681249435370390000,0.49339013671875,0.1414453387260437,-0.0186855997890234,0.4144594669342041,0.11704473197460175,-0.07383494079113007,-0.990378201007843,-0.0353643000125885,-0.06282290816307068,0.09122353792190552,0.9972486464815759,0.03545574576245587,0.059613778432880064,0.026156327015642848
1681249435385422800,0.5084228515625,0.20584723353385925,-0.029433319345116615,0.44234225153923035,0.11617129296064377,-0.07723551988601685,-0.9902216196060181,-0.040304459631443024,-0.048542819917201996,0.08220165967941284,0.9971225738892086,0.03698663791478752,0.05933941704698584,0.029281504745642912
1681249435400457000,0.52345703125,0.24975880980491638,0.012800953350961208,0.4847347140312195,0.1154385581612587,-0.08149956911802292,-0.989965558052063,-0.053228333592414856,-0.042035721242427826,0.08075535297393799,0.9969541657034414,0.03893728557329764,0.05917026792908006,0.03263625961844413
1681249435415489800,0.53848974609375,0.3160177171230316,0.07698207348585129,0.5215590596199036,0.115478515625,-0.08651100099086761,-0.9895355105400085,-0.06309495866298676,-0.04820898920297623,0.06917119026184082,0.9967197302756545,0.04123349132358893,0.059430930187239245,0.03629868357208121
1681249435430523000,0.55352294921875,0.41329774260520935,0.13265545666217804,0.5552467107772827,0.11635138839483261,-0.09295429289340973,-0.9888487458229065,-0.061968930065631866,-0.033678531646728516,0.03113090991973877,0.9963971710162479,0.04421671652433852,0.060170634542818756,0.040214565331122575
1681249435445557000,0.568556884765625,0.47004708647727966,0.1442287564277649,0.5801552534103394,0.11766231060028076,-0.10063958168029785,-0.9879409074783325,-0.05447553098201752,-0.01837911456823349,-0.001179516315460205,0.9959970957700185,0.0478018696023952,0.06119250580643941,0.04427447972503364
1681249435460589800,0.58358984375,0.4691961407661438,0.08232543617486954,0.5650114417076111,0.1184702143073082,-0.10865718871355057,-0.9869946241378784,-0.006852038204669952,-0.004288509488105774,-0.0813952088356018,0.9955613483241723,0.051548090576092026,0.06201187690086437,0.04852791427206808
1681249435475623000,0.598622802734375,0.40620893239974976,-0.01610419899225235,0.5551143884658813,0.11805201321840286,-0.11608870327472687,-0.9861983060836792,0.03467334061861038,0.005630180239677429,-0.10974889993667603,0.9951596134766914,0.05504425868474432,0.062217100855708356,0.052502103739471465
1681249435490656800,0.61365673828125,0.40071895718574524,-0.05769238620996475,0.5715116858482361,0.11640843749046326,-0.12317980825901031,-0.9855332374572754,0.07322791963815689,-0.04118800163269043,-0.07634109258651733,0.99477791194451,0.05840664229297754,0.06182258913552265,0.05642383471787983
1681249435505689900,0.62868994140625,0.47299879789352417,0.008342023007571697,0.5334509015083313,0.11481077969074249,-0.13054978847503662,-0.9847716689109802,0.07967787981033325,-0.036686673760414124,-0.0319976806640625,0.9943568036820952,0.061914282011964236,0.061488098996846235,0.060336982305687445
1681249435520723700,0.6437236328125,0.5409873127937317,0.17703969776630402,0.583391010761261,0.11491520702838898,-0.13902556896209717,-0.9835987091064453,0.042052075266838074,-0.0035069137811660767,0.031145155429840088,0.9938148487234985,0.06593027096992676,0.06207940042698787,0.06427741873294074
1681249435535756800,0.6587568359375,0.5592249035835266,0.45812729001045227,0.7115125060081482,0.11817146092653275,-0.14842672646045685,-0.9818375706672668,0.0397571325302124,0.03290228545665741,0.02022874355316162,0.9930562007652167,0.07026040766039349,0.06437926934405865,0.06897915708199279
1681249435550790000,0.673789794921875,0.37960782647132874,0.6486117839813232,0.8361481428146362,0.12481353431940079,-0.15705320239067078,-0.97967129945755,0.05664410442113876,0.04059797525405884,-0.07910549640655518,0.9920851036191618,0.07398577859016832,0.06848685683991547,0.07485252731371612
1681249435565823700,0.68882373046875,0.03300455957651138,0.6499167084693909,0.868735134601593,0.13243326544761658,-0.16186678409576416,-0.9778857827186584,0.09646393358707428,0.0056776851415634155,-0.15773427486419678,0.9911088171228101,0.07565201183381665,0.07303347472202266,0.08152444872028206
1681249435580856800,0.70385693359375,-0.31769219040870667,0.5598453879356384,0.8305989503860474,0.13930372893810272,-0.16146402060985565,-0.9769973754882812,0.20450741052627563,-0.08086094260215759,-0.262596070766449,0.9903041843622546,0.07465788383938256,0.07699039173367499,0.0882967032963584
1681249435595890000,0.718889892578125,-0.5166977047920227,0.46574950218200684,0.8117711544036865,0.14484474062919617,-0.15693725645542145,-0.9769291877746582,0.22217503190040588,-0.08982802927494049,-0.2804712653160095,0.9896731581562253,0.07160934867570758,0.08004681892935961,0.09492920281937109
1681249435610924000,0.733924072265625,-0.5649522542953491,0.3972889482975006,0.8170863389968872,0.14928129315376282,-0.15065617859363556,-0.9772501587867737,0.20502790808677673,-0.05599376559257507,-0.24247640371322632,0.989098731836238,0.0676985638538605,0.08241261987123338,0.10153204888490108
1681249435625957000,0.74895703125,-0.57649827003479,0.3216101825237274,0.8711529970169067,0.1527748554944992,-0.14424489438533783,-0.9776774644851685,0.19057853519916534,-0.0387234091758728,-0.18362313508987427,0.988487332491728,0.06372971774567683,0.0842602059513,0.10831240321514606
1681249435640991000,0.763990966796875,-0.6560869216918945,0.2585284113883972,1.000374436378479,0.155038982629776,-0.1373678594827652,-0.97831130027771,0.20334431529045105,-0.053306132555007935,-0.09122294187545776,0.9878112202591033,0.059523867198864155,0.08544742595315373,0.115692012778533
1681249435656024000,0.779024169921875,-0.6775032877922058,0.19175127148628235,1.0654772520065308,0.15617673099040985,-0.13001014292240143,-0.9791354537010193,0.2197389006614685,-0.060633331537246704,-0.05553251504898071,0.987006960014723,0.055048919886308875,0.08603429457722557,0.12403660681079098
1681249435671057000,0.794056884765625,-0.6559387445449829,0.09377916157245636,1.1230236291885376,0.1562741994857788,-0.1227000504732132,-0.9800627827644348,0.23274873197078705,-0.060527652502059937,-0.03206789493560791,0.9861162596278267,0.05063520423680695,0.08605046617030775,0.13268756110542396
1681249435686091000,0.809091064453125,-0.5827886462211609,-0.013222124427556992,1.1048333644866943,0.15482741594314575,-0.11618191003799438,-0.981086254119873,0.2397344559431076,-0.04340992122888565,-0.03392833471298218,0.9851704277677934,0.04672828708051576,0.08528388475826353,0.14135880532300574
1681249435701123800,0.824123779296875,-0.519270122051239,-0.054636143147945404,1.0837513208389282,0.15238837897777557,-0.1106167659163475,-0.982110857963562,0.2360394299030304,-0.017419882118701935,0.010599076747894287,0.9841824176752544,0.04340785734192717,0.08402581022248946,0.14980081101542164
1681249435716157000,0.839156982421875,-0.4858466386795044,-0.08053991198539734,1.0548908710479736,0.14963550865650177,-0.10566794127225876,-0.9830785989761353,0.2017439901828766,-0.038039498031139374,0.027130722999572754,0.9831437409905935,0.04046363289666821,0.08260388307282347,0.15801197094226538
1681249435731191000,0.85419091796875,-0.44307202100753784,-0.1061701700091362,1.0363349914550781,0.14667026698589325,-0.10118648409843445,-0.9839965105056763,0.1475650519132614,-0.048670247197151184,0.06947630643844604,0.9820645291457568,0.037816656569180804,0.08106568822732735,0.1659745873745983
1681249435746223900,0.869223876953125,-0.42160454392433167,-0.12414410710334778,1.0364758968353271,0.14342249929904938,-0.09711548686027527,-0.984885036945343,0.12041731178760529,-0.06481094658374786,0.11188399791717529,0.9809321634910694,0.03543451884890399,0.07938430462715652,0.17382385510465517
1681249435761258000,0.884258056640625,-0.36689144372940063,-0.12513694167137146,1.0048346519470215,0.13964182138442993,-0.09336449205875397,-0.9857906699180603,0.06119443476200104,-0.08614006638526917,0.18415498733520508,0.9797575218955222,0.0332958930745138,0.0774341728421386,0.1815780363788532
1681249435776290800,0.899290771484375,-0.3265698552131653,-0.10845276713371277,1.0217044353485107,0.13658253848552704,-0.09032028168439865,-0.9865026473999023,0.03839007019996643,-0.08947420120239258,0.21526247262954712,0.9784968180268176,0.03148105096422817,0.07587900757629257,0.189196359884203
1681249435791324000,0.914323974609375,-0.27535876631736755,-0.07756462693214417,1.0265569686889648,0.13381703197956085,-0.08792182803153992,-0.9870981574058533,-0.04044842720031738,-0.09126230329275131,0.24666541814804077,0.9771344704095761,0.029976901391077445,0.07451383427394503,0.1968688138113541
1681249435806357800,0.929357666015625,-0.17191189527511597,-0.035221166908741,1.0259721279144287,0.13163018226623535,-0.0866130068898201,-0.9875078201293945,-0.06664292514324188,-0.09453950822353363,0.2567644715309143,0.9756654192898555,0.028972748271732508,0.07353008544748096,0.2045257375898995
1681249435821390800,0.944390869140625,-0.08808302879333496,-0.005223853513598442,1.0104550123214722,0.1300511360168457,-0.08672093600034714,-0.9877075552940369,-0.12152138352394104,-0.09098309278488159,0.22020572423934937,0.9741091400469,0.028625102074640064,0.0729851630746092,0.21204987924921512
1681249435836424000,0.959423828125,-0.0376046821475029,0.011321833357214928,0.9862210154533386,0.12882539629936218,-0.0877748504281044,-0.9877750873565674,-0.1353408396244049,-0.08442075550556183,0.19309741258621216,0.9725008325638866,0.02872495522408487,0.07271409827157002,0.21938500740032826
1681249435851457800,0.974457763671875,-0.016977328807115555,0.016071315854787827,0.9679320454597473,0.12774108350276947,-0.08934009820222855,-0.9877755641937256,-0.1503850668668747,-0.08413723856210709,0.15319615602493286,0.9708601534277456,0.02907713313684744,0.0725722990444278,0.22653575812737478
1681249435866491000,0.989490966796875,-0.02503163181245327,0.009726599790155888,0.9319702982902527,0.12666653096675873,-0.09091106057167053,-0.9877706170082092,-0.15222494304180145,-0.0870523676276207,0.1420217752456665,0.9692132232374614,0.02944937658096937,0.07243915348626022,0.2334760116802291
1681249435881524700,1.004524658203125,-0.05313042923808098,0.00038662785664200783,0.8866915106773376,0.12552985548973083,-0.0921483263373375,-0.9878010749816895,-0.15140868723392487,-0.11042753607034683,0.13724565505981445,0.9675956425645822,0.02969092882327353,0.07223514755701393,0.24012339352357404
1681249435896557800,1.019557861328125,-0.07926269620656967,-0.029058078303933144,0.8232576847076416,0.12413553893566132,-0.09280448406934738,-0.9879158139228821,-0.15042635798454285,-0.11972010880708694,0.12216269969940186,0.9660529327997233,0.029714736714419862,0.07182699488020255,0.24637304190498915
1681249435911591000,1.0345908203125,-0.10118696093559265,-0.05888494849205017,0.7571883797645569,0.12236468493938446,-0.0930357500910759,-0.9881150126457214,-0.13753186166286469,-0.11652864515781403,0.09068459272384644,0.9646144380940105,0.02962107839642397,0.0711694904824845,0.2521439088579255
1681249435926624800,1.049624755859375,-0.12807311117649078,-0.09714525192975998,0.6950826644897461,0.12017656117677689,-0.09272408485412598,-0.9884127974510193,-0.1377546191215515,-0.11398690938949585,0.07312959432601929,0.9632878988631973,0.02936007139894822,0.0702252894054645,0.2574548361439643
1681249435941657900,1.064657958984375,-0.15069863200187683,-0.12184473872184753,0.6257208585739136,0.11761808395385742,-0.09195666760206223,-0.9887921810150146,-0.13461631536483765,-0.1154409721493721,0.054252445697784424,0.9620838619084487,0.028972924906903237,0.06902523632105204,0.26228017205635207
1681249435956690700,1.079690673828125,-0.19043725728988647,-0.14531677961349487,0.5436624884605408,0.11481981724500656,-0.09046604484319687,-0.9892584681510925,-0.13453412055969238,-0.11770980060100555,0.05159062147140503,0.9610218186504108,0.028317503274091223,0.06759354489583859,0.26658291016729974
1681249435971724800,1.094724853515625,-0.24103955924510956,-0.1653599888086319,0.45244812965393066,0.11178313940763474,-0.08825686573982239,-0.9898056387901306,-0.14312463998794556,-0.11442581564188004,0.03878641128540039,0.9601374517530515,0.027403927196218703,0.06592565020156411,0.2702574089383876
1681249435986757600,1.109757568359375,-0.30471253395080566,-0.1409265547990799,0.386778324842453,0.10891744494438171,-0.08491695672273636,-0.9904171228408813,-0.14445510506629944,-0.12159568071365356,0.03564423322677612,0.9594158300810135,0.02597253280041443,0.06416276259236998,0.2733675849101463
1681249436001792000,1.1247919921875,-0.3503040075302124,-0.09804193675518036,0.3259786069393158,0.10668952763080597,-0.08070886135101318,-0.9910113215446472,-0.1759491264820099,-0.13297539949417114,0.026503264904022217,0.9587915073781892,0.0240718167276089,0.06256908386941278,0.2760880678838422
1681249436016825000,1.1398251953125,-0.3716889023780823,-0.07627619057893753,0.23884932696819305,0.10509897768497467,-0.0759006068110466,-0.9915610551834106,-0.1799432933330536,-0.13210739195346832,0.018096089363098145,0.958296791672209,0.021835561533329863,0.061177500745898054,0.2782943591167283
1681249436031858000,1.15485791015625,-0.3944145143032074,-0.08515863120555878,0.14712126553058624,0.10366467386484146,-0.07059918344020844,-0.9921035170555115,-0.16228890419006348,-0.1251407414674759,-0.01224517822265625,0.9579885175871348,0.019388450193689604,0.059768963664509074,0.27983887821575987
1681249436046892000,1.16989208984375,-0.3665103018283844,-0.08385501056909561,0.06735292822122574,0.10226131230592728,-0.06505915522575378,-0.9926277995109558,-0.1595122367143631,-0.13066551089286804,-0.02505713701248169,0.9578529944023237,0.016864788659114484,0.058323955304447304,0.28076950372345366
1681249436061924900,1.1849248046875,-0.3441285789012909,-0.06966009736061096,0.010350363329052925,0.10105699300765991,-0.0600060410797596,-0.9930693507194519,-0.17831218242645264,-0.12976770102977753,-0.04452824592590332,0.9578494790143458,0.014581597092667774,0.05703241057036668,0.28117426610432994
1681249436076958000,1.1999580078125,-0.329595685005188,-0.11024800688028336,-0.02681617997586727,0.09980229288339615,-0.055057648569345474,-0.9934828281402588,-0.18689940869808197,-0.13732534646987915,-0.056565940380096436,0.9579355301876299,0.01237652425435098,0.05572611904730201,0.2812489379625648
1681249436091991800,1.21499169921875,-0.30446332693099976,-0.22172340750694275,-0.09136828035116196,0.09735722839832306,-0.05028008669614792,-0.9939786195755005,-0.17369690537452698,-0.1643654853105545,-0.06714802980422974,0.9581404997095775,0.010440849251851965,0.053867261314885555,0.28099148806461915
1681249436107025000,1.23002490234375,-0.20458780229091644,-0.3660432994365692,-0.17764243483543396,0.09309927374124527,-0.046351660043001175,-0.9945773482322693,-0.1578422635793686,-0.16331955790519714,-0.07462126016616821,0.958556527974488,0.009201560471840965,0.051251050171900715,0.2801037890922511
1681249436122058800,1.245058837890625,-0.10908009111881256,-0.5377588272094727,-0.28020983934402466,0.08650929480791092,-0.0437789186835289,-0.9952886700630188,-0.15064194798469543,-0.14849726855754852,-0.08858883380889893,0.959209127550785,0.008971289294018836,0.04769882835773484,0.278499852007265
1681249436137091800,1.260091796875,0.03244242072105408,-0.707709014415741,-0.4197498857975006,0.07734350860118866,-0.042785510420799255,-0.996086061000824,-0.13866853713989258,-0.15527376532554626,-0.08231359720230103,0.9601447637322916,0.009886850018145633,0.04311884151900592,0.2759802162286119
1681249436152125000,1.275125,0.21497760713100433,-0.8021915555000305,-0.5550176501274109,0.06621017307043076,-0.044195592403411865,-0.9968264698982239,-0.15785440802574158,-0.15748000144958496,-0.05201691389083862,0.9613786346298397,0.0122482198342037,0.03790459192832457,0.2723316355302837
1681249436167158800,1.29015869140625,0.44227856397628784,-0.811190128326416,-0.6579283475875854,0.0544314906001091,-0.04855384677648544,-0.9973363280296326,-0.17128324508666992,-0.13783244788646698,-0.04863840341567993,0.9627911982699593,0.016107469526380536,0.032747348812726604,0.2677710920856223
1681249436182191900,1.30519189453125,0.6914304494857788,-0.7646934390068054,-0.7544418573379517,0.04306881129741669,-0.05663487687706947,-0.9974655508995056,-0.2089470475912094,-0.11137983202934265,-0.10061788558959961,0.964296772449141,0.02168282213112345,0.02823241121152323,0.26242049519488814
1681249436197225700,1.320225830078125,0.9712640047073364,-0.6678425669670105,-0.819128155708313,0.033020295202732086,-0.06877606362104416,-0.9970855116844177,-0.2091219127178192,-0.06719518452882767,-0.17482000589370728,0.9658301553331112,0.029022935392233024,0.02479747199604899,0.2563489283332603
1681249436212258800,1.3352587890625,1.0792529582977295,-0.6103867292404175,-0.8469976186752319,0.02429548278450966,-0.0839509665966034,-0.9961736798286438,-0.18393287062644958,-0.02727053314447403,-0.3608209490776062,0.9672845158465418,0.03763858042634513,0.022282416517853756,0.24989506603667447
1681249436227292000,1.3502919921875,1.079500675201416,-0.5242646336555481,-0.8134250044822693,0.017005611211061478,-0.0999998077750206,-0.9948421120643616,-0.1555095762014389,-0.015433110296726227,-0.43528783321380615,0.9685768806784429,0.04647839097510223,0.02046210826136216,0.2434748576792408
1681249436242325800,1.36532568359375,0.9364995360374451,-0.5066943764686584,-0.7662686705589294,0.010583177208900452,-0.11509696394205093,-0.9932978749275208,-0.10022849589586258,-0.013901017606258392,-0.530826210975647,0.969686340928057,0.054731166564180235,0.01885622277724171,0.23739733171863606
1681249436257358800,1.38035888671875,0.7044178247451782,-0.5234070420265198,-0.7539331912994385,0.004286049399524927,-0.12734776735305786,-0.991848886013031,-0.04984872043132782,-0.012316107749938965,-0.543185293674469,0.9707339599041096,0.061565172004789254,0.01689071604742974,0.23151672324154976
1681249436272391700,1.3953916015625,0.4673483371734619,-0.47173723578453064,-0.7121087312698364,-0.00180951994843781,-0.13616231083869934,-0.9906848669052124,0.04454946145415306,-0.021690040826797485,-0.4901958107948303,0.9717634225978975,0.0666736734395664,0.014566278504012757,0.22587230950195333
1681249436287425800,1.41042578125,0.26298272609710693,-0.352313369512558,-0.6892609596252441,-0.006494551431387663,-0.14154377579689026,-0.9899107217788696,0.06643114984035492,-0.022610455751419067,-0.43992936611175537,0.9727969577105121,0.06991540137263938,0.012509577241297719,0.22050297980584943
1681249436302459000,1.425458984375,0.08683700114488602,-0.2522006332874298,-0.6325318813323975,-0.009486340917646885,-0.14429177343845367,-0.989489734172821,0.08014986664056778,0.0005995780229568481,-0.37211304903030396,0.9738175746845382,0.07165546618398917,0.010983493628001276,0.21546282849444442
1681249436317493000,1.440492919921875,-0.07683395594358444,-0.10917608439922333,-0.5873929262161255,-0.010911587625741959,-0.14455170929431915,-0.9894371032714844,0.10711833089590073,0.0018971115350723267,-0.3462104797363281,0.9748110173962804,0.07198589588051085,0.009974419648991708,0.2108603053095653
1681249436332526000,1.455526123046875,-0.2616709768772125,0.025275997817516327,-0.5229505300521851,-0.010287116281688213,-0.1420953869819641,-0.9897994995117188,0.11210909485816956,-0.018137335777282715,-0.265342652797699,0.9757684053787878,0.07075074105852747,0.009724986588209365,0.20682317480805476
1681249436347559000,1.470558837890625,-0.38612085580825806,0.13410741090774536,-0.49530723690986633,-0.008126328699290752,-0.13722649216651917,-0.9905063509941101,0.1175166666507721,-0.04290369153022766,-0.19655108451843262,0.9767151110039751,0.06816469771277778,0.010019624993383623,0.2031767779835647
1681249436362593000,1.485593017578125,-0.4589812457561493,0.2801639437675476,-0.4250927269458771,-0.004028604365885258,-0.13083723187446594,-0.9913956522941589,0.10328710824251175,-0.058616071939468384,-0.014066934585571289,0.9776150290512394,0.06463498179537747,0.011157060903168812,0.19991670413694662
1681249436377625900,1.5006259765625,-0.45027512311935425,0.38913676142692566,-0.33874213695526123,0.0017387531697750092,-0.12407480180263519,-0.992271363735199,0.07327353954315186,-0.08974678814411163,0.07314294576644897,0.9783692965942524,0.06075874398623419,0.013141640640554567,0.19730495325417338
1681249436392660000,1.515659912109375,-0.4297153949737549,0.4659596383571625,-0.24193620681762695,0.008696610108017921,-0.11747953295707703,-0.993037223815918,0.0914316475391388,-0.0948924571275711,0.22634416818618774,0.9789464051034381,0.056851330483566484,0.015789686001041206,0.19540354007594016
1681249436407692800,1.53069287109375,-0.3950507938861847,0.5193555355072021,-0.10915765911340714,0.016316330060362816,-0.11150059103965759,-0.9936304092407227,0.0887862965464592,-0.10273298621177673,0.27976322174072266,0.9793195823750879,0.05318167284945376,0.01888129106257979,0.19428973041848027
1681249436422726000,1.545725830078125,-0.39428383111953735,0.4931078851222992,-0.04925438016653061,0.02374880388379097,-0.10569093376398087,-0.99411541223526,0.1100708618760109,-0.07857437431812286,0.324956476688385,0.9795121059754301,0.049605773095171966,0.021944682826122986,0.19394276423422124
1681249436437760000,1.560760009765625,-0.3878277838230133,0.4517742991447449,0.07410270720720291,0.03082660771906376,-0.09978146106004715,-0.9945317506790161,0.11820606887340546,-0.06443380564451218,0.3698521852493286,0.9795488431151156,0.04600146909844279,0.02485950368166533,0.1942936636703519
1681249436452792800,1.575792724609375,-0.40088483691215515,0.41194459795951843,0.14478780329227448,0.03711683675646782,-0.09405218809843063,-0.9948751330375671,0.07436396181583405,-0.07298595458269119,0.48318690061569214,0.9794266429308836,0.042542254855345435,0.027433387028253594,0.19534864926240542
1681249436467826000,1.590825927734375,-0.2376135140657425,0.38443389534950256,0.20542185008525848,0.042733315378427505,-0.08849228918552399,-0.9951598048210144,0.06845756620168686,-0.06061677634716034,0.5452391505241394,0.9792052834445019,0.03921564089917109,0.02970261933281442,0.19681700315137665
1681249436482859800,1.60585986328125,0.22949108481407166,0.3285770118236542,0.3436305820941925,0.04775318130850792,-0.0887073278427124,-0.9949123859405518,0.05922627076506615,-0.04306773841381073,0.601525604724884,0.978713086001475,0.03875811204302526,0.03227411888673504,0.19893931339315488
1681249436497892900,1.620892822265625,0.5773259997367859,0.27959054708480835,0.3660293519496918,0.05179813504219055,-0.09518050402402878,-0.9941114783287048,0.05789738520979881,0.025111980736255646,0.5907453894615173,0.9779527300892292,0.04144039051260099,0.03502794151518695,0.20165360934754398
1681249436512926700,1.6359267578125,0.840187668800354,0.20004302263259888,0.5003643035888672,0.05490059033036232,-0.10621092468500137,-0.9928268790245056,0.061234135180711746,0.08790019899606705,0.6076797842979431,0.9770050767036423,0.04643362152531631,0.037821837252073255,0.20463256354202486
1681249436527959800,1.650959716796875,0.9724588394165039,0.10356894135475159,0.5857894420623779,0.056226737797260284,-0.12030401825904846,-0.991143524646759,0.06074722111225128,0.027835577726364136,0.5723966360092163,0.9757684077103151,0.05306943456363965,0.040148095657466056,0.2084415439581366
1681249436542993000,1.665992919921875,1.113714575767517,-0.03788033127784729,0.6463961005210876,0.05552398040890694,-0.13653555512428284,-0.9890779256820679,0.10632607340812683,0.011810064315795898,0.5078157782554626,0.9743236004668385,0.060943305278489374,0.04179657430685594,0.2126796100260564
1681249436558026800,1.68102685546875,1.2688008546829224,-0.08343503624200821,0.6387133598327637,0.052945978939533234,-0.1550394743680954,-0.9864884614944458,0.11560268700122833,0.019846439361572266,0.4886094927787781,0.9727122984959801,0.0701344065802179,0.042859460655965305,0.21696819393129085
1681249436573059800,1.696059814453125,1.4307373762130737,0.1992986649274826,0.6776480078697205,0.05171005427837372,-0.17567729949951172,-0.9830887913703918,0.06299033761024475,0.018969371914863586,0.4387010335922241,0.9708599511583641,0.08023566411939616,0.044920451286000966,0.22130358784401172
1681249436588093700,1.71109375,1.5758986473083496,0.700636088848114,0.7953413724899292,0.056334223598241806,-0.19850507378578186,-0.9784795045852661,-0.010679855942726135,0.022220104932785034,0.3708593249320984,0.9685029899764062,0.09072654230913073,0.05028847480142258,0.22636623233692116
1681249436603126800,1.726126708984375,1.4506936073303223,0.964535117149353,0.9885957837104797,0.06609607487916946,-0.22203443944454193,-0.9727959632873535,-0.08622235059738159,-0.037655070424079895,0.1420007348060608,0.9654885191043694,0.1008617961346845,0.05855690032191429,0.232872882491515
1681249436618159900,1.741159912109375,1.0424469709396362,0.9781595468521118,1.02212393283844,0.07688373327255249,-0.24147476255893707,-0.9673566222190857,-0.006998412311077118,-0.06901125609874725,-0.07754993438720703,0.9622312090693153,0.10871041990506466,0.06710987563948552,0.24039415146024629
1681249436633194000,1.756194091796875,0.5374678373336792,0.8438388109207153,1.0296659469604492,0.08628371357917786,-0.2543318271636963,-0.963260293006897,0.23309805989265442,-0.13299742341041565,-0.4367029666900635,0.959197866591123,0.1133546959908527,0.07430042818351187,0.24813224798620226
1681249436648227000,1.77122705078125,-0.04477428272366524,0.7818089723587036,1.1277741193771362,0.09390952438116074,-0.25944241881370544,-0.9611818790435791,0.28656843304634094,-0.20318898558616638,-0.4814602732658386,0.9565090447098964,0.11426348900281647,0.07970512585754742,0.25628407805279013
1681249436663259600,1.786259765625,-0.44723644852638245,1.0163077116012573,1.2797114849090576,0.10191778093576431,-0.25747713446617126,-0.9608945250511169,0.25739625096321106,-0.25552353262901306,-0.3674745559692383,0.9538176717471457,0.11142405636405503,0.08448322776096082,0.2658555599480756
1681249436678294000,1.8012939453125,-0.5061937570571899,1.1564948558807373,1.322488784790039,0.11287548393011093,-0.2529086768627167,-0.9608830809593201,0.21384575963020325,-0.22644633054733276,-0.3615807890892029,0.9507616417642331,0.10670562301935381,0.0904010924144865,0.2765754029042097
1681249436693326600,1.81632666015625,-0.4744946360588074,1.076247215270996,1.2608176469802856,0.12431224435567856,-0.24833260476589203,-0.9606650471687317,0.25013846158981323,-0.052876055240631104,-0.45348888635635376,0.9476216218625444,0.10182907661931137,0.09642769686884331,0.28695976023193415
1681249436708360400,1.8313603515625,-0.47828298807144165,0.9576795697212219,1.194724678993225,0.13442473113536835,-0.24374422430992126,-0.9604784250259399,0.25929784774780273,-0.039001286029815674,-0.5310986638069153,0.9445153862781047,0.09707521725750963,0.10167203548800452,0.29686706739243635
1681249436723393500,1.8463935546875,-0.48346710205078125,0.8766505122184753,1.0625672340393066,0.14348645508289337,-0.23925313353538513,-0.960296630859375,0.17209585011005402,-0.0776263028383255,-0.6251372694969177,0.941581974049699,0.09252918846434542,0.10625462109759046,0.3058949041955331
1681249436738426400,1.86142626953125,-0.5152519345283508,0.8195565938949585,0.9744892716407776,0.1520879566669464,-0.23444156348705292,-0.9601595997810364,0.08568979799747467,-0.09369887411594391,-0.6137387156486511,0.938875476202898,0.08792991463463146,0.11040174208148953,0.3139945372229005
1681249436753460500,1.87646044921875,-0.6417654156684875,0.7938770651817322,0.9535562992095947,0.16032321751117706,-0.22841507196426392,-0.9602723717689514,-0.015852972865104675,-0.11614382266998291,-0.4869626760482788,0.9362757939675104,0.08278200501933941,0.11406556647064008,0.3217513207925087
1681249436768493300,1.891493408203125,-0.8017781972885132,0.7721400856971741,0.9346598386764526,0.16841474175453186,-0.2202773243188858,-0.9607884287834167,-0.06003153324127197,-0.16662472486495972,-0.4024622440338135,0.9337034424079476,0.0765892999017645,0.11721719125271976,0.3295332856856477
1681249436783527400,1.90652734375,-0.904724657535553,0.691596508026123,0.8649446368217468,0.1761307567358017,-0.21027706563472748,-0.9616451859474182,-0.1398758441209793,-0.13118430972099304,-0.226037859916687,0.9312647796164626,0.06956796079674948,0.11974010380356521,0.3369993926182973
1681249436798560300,1.921560302734375,-0.9821616411209106,0.5550967454910278,0.8592529296875,0.18250836431980133,-0.19898831844329834,-0.9628573656082153,-0.16351115703582764,-0.09057791531085968,-0.12198144197463989,0.9289660204891612,0.06217467536390814,0.12126671160693414,0.34416695555902127
1681249436813593300,1.93659326171875,-1.0940905809402466,0.3606758117675781,0.871343195438385,0.18665751814842224,-0.18636538088321686,-0.9645863771438599,-0.21423012018203735,-0.10945695638656616,0.08445948362350464,0.9267293752367325,0.05452704693163511,0.12138205050518819,0.3513771043576941
1681249436828627700,1.951627685546875,-1.156629204750061,0.12778666615486145,0.8242835402488708,0.18798427283763885,-0.17232507467269897,-0.9669364094734192,-0.23606470227241516,-0.14958979189395905,0.1913474202156067,0.9246587135057477,0.04675392073607348,0.11977425825324557,0.35843356191308257
1681249436843660500,1.96666064453125,-1.0949430465698242,-0.11675863713026047,0.7355009317398071,0.18608660995960236,-0.1580343395471573,-0.969740629196167,-0.28380388021469116,-0.13824574649333954,0.37248116731643677,0.922893233440466,0.039573353181138936,0.11646297154725728,0.36488156536773514
1681249436858694700,1.981694580078125,-0.9263162612915039,-0.29079437255859375,0.596160352230072,0.1815323382616043,-0.14497272670269012,-0.9726401567459106,-0.3255447745323181,-0.1105206310749054,0.4437553286552429,0.9215092100171387,0.033644086587795816,0.11201779212852783,0.370325346400461
1681249436873727500,1.9967275390625,-0.7356583476066589,-0.41697439551353455,0.5266736745834351,0.17511911690235138,-0.13451530039310455,-0.9753147959709167,-0.4384858012199402,-0.020651504397392273,0.534503698348999,0.9204464472124314,0.029457918643589986,0.10712067286282351,0.3747475702924515
1681249436888760600,2.011760498046875,-0.6052418947219849,-0.5322615504264832,0.4892865717411041,0.16711942851543427,-0.12604939937591553,-0.9778459072113037,-0.45282498002052307,-0.0002630501985549927,0.4982011914253235,0.9194911912173022,0.026596216244902257,0.10183163253481382,0.37875963865964035
1681249436903794400,2.02679443359375,-0.5865462422370911,-0.6047890186309814,0.4134610593318939,0.15788565576076508,-0.11854063719511032,-0.9803164005279541,-0.44644463062286377,0.0244242325425148,0.4155429005622864,0.9187305065546338,0.02452121723390335,0.09612757907338561,0.3822204720324854
1681249436918827500,2.04182763671875,-0.8355832099914551,-0.8018820881843567,0.08231669664382935,0.14721569418907166,-0.1089835986495018,-0.9830819368362427,-0.43054085969924927,0.0043844133615493774,0.39656466245651245,0.918624014681736,0.021957211844678262,0.08931353718039248,0.38427966597842705
1681249436933860600,2.056860595703125,-1.2284836769104004,-1.0550569295883179,-0.12687993049621582,0.13346098363399506,-0.0938931554555893,-0.9865962862968445,-0.39998626708984375,-0.16916856169700623,0.40564846992492676,0.9194196848429802,0.017612901178582722,0.07994773678366078,0.38466289732920034
1681249436948894500,2.07189453125,-1.6621419191360474,-1.3161559104919434,-0.3816608190536499,0.11600662022829056,-0.07179968059062958,-0.990649938583374,-0.33515334129333496,-0.23233869671821594,0.408954381942749,0.9209679883398852,0.010863781710919427,0.06750567955310116,0.3835920692993821
1681249436963927600,2.086927490234375,-1.9373716115951538,-1.4054226875305176,-0.5932455062866211,0.09560991078615189,-0.04435749724507332,-0.9944300651550293,-0.2750074863433838,-0.3291168212890625,0.3912654519081116,0.9230979337589803,0.002269291839380264,0.052723970036581226,0.38092674755205946
1681249436978961400,2.10196142578125,-2.0389604568481445,-1.2656610012054443,-0.7617572546005249,0.07558609545230865,-0.013517918065190315,-0.9970476627349854,-0.24952101707458496,-0.29712069034576416,0.34235405921936035,0.925433042411914,-0.008003252073385196,0.03757825158736453,0.3769582804369046
1681249436993994500,2.116994384765625,-1.876563310623169,-0.9330387711524963,-0.7285753488540649,0.05886901170015335,0.01666484959423542,-0.9981266260147095,-0.25970518589019775,-0.10304504632949829,0.18785440921783447,0.9276820779814693,-0.01870036836420432,0.024227937867804056,0.37211470653713963
1681249437009027600,2.132027587890625,-1.5516490936279297,-0.9560234546661377,-0.026540277525782585,0.04491051286458969,0.04290128871798515,-0.9980694055557251,-0.2934456467628479,-0.0029844865202903748,0.030158638954162598,0.9286446859399272,-0.028248263962510022,0.01293584227217671,0.3696671259877333
1681249437024061400,2.1470615234375,-0.9829179048538208,-1.0019135475158691,0.12086088955402374,0.02999558113515377,0.06231262907385826,-0.9976058602333069,-0.21226179599761963,0.22362162172794342,-0.3216385245323181,0.9281573575410251,-0.034517110100444955,0.002377362552860935,0.37057632699122056
1681249437039094500,2.162094482421875,-0.21715548634529114,-0.6901534199714661,0.36780408024787903,0.017073683440685272,0.07091092318296432,-0.9973365068435669,-0.12397674471139908,0.28947097063064575,-0.3591850996017456,0.9273179771585582,-0.03610646882518003,-0.0052975312383844965,0.3724910840406525
1681249437054128400,2.17712841796875,-0.3251948058605194,-0.38421353697776794,-0.07262548059225082,0.009201310575008392,0.07367295771837234,-0.9972400069236755,-0.2259066104888916,0.4494134187698364,-0.33178526163101196,0.9267826815430454,-0.035908490592411794,-0.0095171941758155,0.37375633513450796
1681249437069161500,2.192161376953125,-0.7914140820503235,-0.09268818795681,-0.12402981519699097,0.004992292728275061,0.08198297023773193,-0.9966212511062622,-0.2765834629535675,0.33375781774520874,-0.31899160146713257,0.9270033936703936,-0.03899567207664473,-0.0129893884278322,0.37279402450359395
1681249437084194300,2.2071943359375,-0.8986768126487732,0.5357179641723633,0.07961145788431168,0.007671118248254061,0.09462861716747284,-0.9954831004142761,-0.20121358335018158,0.18071603775024414,-0.22508269548416138,0.9268164139763752,-0.04538290303049861,-0.014101354709476854,0.37249547556086887
1681249437099228400,2.222228515625,-1.3078718185424805,1.2368091344833374,0.12384017556905746,0.021335111930966377,0.11002293229103088,-0.9937000274658203,-0.23868128657341003,0.1280597746372223,-0.2610301971435547,0.9261885105027984,-0.055102065338348716,-0.010665023787301213,0.37286041290758426
1681249437114261500,2.237261474609375,-2.371708631515503,1.749849557876587,0.0621057003736496,0.0438048355281353,0.13701534271240234,-0.989599883556366,-0.1730315089225769,0.20296555757522583,-0.27190524339675903,0.9251435100919818,-0.07191655014442265,-0.0052978585877696705,0.3727055433857429
1681249437129295600,2.252295654296875,-3.2268598079681396,2.286391019821167,-0.015716390684247017,0.07368546724319458,0.1792849451303482,-0.9810338020324707,-0.07815627753734589,0.11717788875102997,-0.1388545036315918,0.9232934453093604,-0.097378509488794,0.0007171876533885762,0.3715456252655471
1681249437144328700,2.26732861328125,-3.2229857444763184,2.8051881790161133,-0.03896898403763771,0.11078014224767685,0.2275274693965912,-0.9674497246742249,0.07215750217437744,-0.028675124049186707,0.17590004205703735,0.9205172965445023,-0.1272472693211362,0.00912453945528617,0.3692870970503956
1681249437159361500,2.282361572265625,-2.9690356254577637,3.393285036087036,0.00023993814829736948,0.15537850558757782,0.27181124687194824,-0.9497242569923401,0.08549675345420837,-0.03961843252182007,0.2893390655517578,0.9169560345418725,-0.15701102948816034,0.0220318217218404,0.36613379108920424
1681249437174395600,2.297395751953125,-2.893916368484497,3.786280393600464,-0.00016406341455876827,0.20628829300403595,0.3132695257663727,-0.9269883036613464,0.15699300169944763,0.0694665014743805,0.44499361515045166,0.9123102228318354,-0.1870874350963028,0.03878316381137567,0.36219357705218236
1681249437189428500,2.312428466796875,-2.3975188732147217,3.868875741958618,-0.016121724620461464,0.2591410279273987,0.34969809651374817,-0.9003095030784607,0.2132100760936737,0.021593838930130005,0.4920758008956909,0.9069757173165791,-0.21560572029806535,0.05796054955712852,0.3571412928333641
1681249437204462600,2.327462646484375,-2.0739598274230957,3.88075852394104,0.1792626976966858,0.3111249506473541,0.3791158199310303,-0.8714771866798401,0.44560420513153076,-0.04375830292701721,0.3076953887939453,0.9009397664170494,-0.2410605334666625,0.0784297451815989,0.35220198437698513
1681249437219495400,2.342495361328125,-1.403045892715454,3.5581369400024414,0.2602643072605133,0.3605309724807739,0.4004478454589844,-0.8424125909805298,0.49818792939186096,0.04939630627632141,0.2279258370399475,0.894541864328505,-0.2624975881910956,0.09944205014781171,0.3478523778087694
1681249437234528500,2.357528564453125,-0.6665658950805664,3.174748659133911,0.21722738444805145,0.40390723943710327,0.411840558052063,-0.8168514370918274,0.5226675271987915,-0.043661415576934814,0.18472552299499512,0.8890785101647986,-0.27788996368252455,0.11979752728055272,0.343460426731364
1681249437249562600,2.372562744140625,-0.11790894716978073,2.883455753326416,0.22587519884109497,0.44181790947914124,0.4149145483970642,-0.7953884601593018,0.43946871161460876,-0.16433492302894592,0.17502713203430176,0.8847860560421159,-0.2878704140697507,0.13941445788741724,0.3388920441887651
1681249437264595500,2.387595458984375,0.2966506779193878,2.5340793132781982,0.3294457793235779,0.4756190776824951,0.4118853509426117,-0.7772624492645264,0.20745593309402466,-0.3350270092487335,0.2234293818473816,0.8813004066870367,-0.29378061170649017,0.15830892748227315,0.33457555085939666
1681249437279629600,2.402629638671875,0.5126021504402161,2.079014778137207,0.5582829713821411,0.5050066709518433,0.40354353189468384,-0.7629684805870056,0.10682505369186401,-0.4592687785625458,0.27235257625579834,0.8782495573225204,-0.2961067963648192,0.17560332207891427,0.33190660603470395
1681249437294662400,2.417662353515625,0.28234851360321045,1.7523140907287598,0.7335816025733948,0.5306345224380493,0.3935355842113495,-0.7507041692733765,0.05804961919784546,-0.6464959383010864,0.3957694172859192,0.8750059970639292,-0.29708655156405456,0.19075505623166783,0.33123488031090564
1681249437309695500,2.432695556640625,-0.33431369066238403,1.5515676736831665,0.9143491983413696,0.5537047982215881,0.3867833614349365,-0.7374345064163208,-0.00930166244506836,-0.6450690627098083,0.4716721177101135,0.8705218498908742,-0.29992708983838334,0.20328916859198137,0.3330300529146556
1681249437324729300,2.447729248046875,-1.1428279876708984,1.4836128950119019,1.2395379543304443,0.5764182209968567,0.38599976897239685,-0.7202403545379639,-0.07852393388748169,-0.5724318027496338,0.6390177607536316,0.8637982292202829,-0.3069477402324085,0.21368883579468306,0.3375984666912173
1681249437339762400,2.462762451171875,-1.5673906803131104,1.5134011507034302,1.7096103429794312,0.600837767124176,0.3876723051071167,-0.699073851108551,-0.12453460693359375,-0.534889280796051,0.6825637817382812,0.8543148238224875,-0.31726434099989836,0.22317347379718433,0.3459527369483631
1681249437354796300,2.47779638671875,-1.7715367078781128,1.8257560729980469,2.242328405380249,0.6291875839233398,0.3870552182197571,-0.6740261316299438,-0.014960289001464844,-0.5065469741821289,0.6040797829627991,0.8421787929614354,-0.32905873352736176,0.23389590916731912,0.3574183227870823
1681249437369829400,2.492829345703125,-1.5225704908370972,2.5166375637054443,2.949885129928589,0.665564239025116,0.378337025642395,-0.643339216709137,0.07497531175613403,-0.42196208238601685,0.5381450653076172,0.826962242088815,-0.3407331081909505,0.24946213090815497,0.3712182588787838
1681249437384862500,2.507862548828125,-0.853118360042572,2.8228085041046143,3.584700107574463,0.7093857526779175,0.3562803864479065,-0.6081416606903076,0.4180251359939575,-0.05160829424858093,0.31013739109039307,0.8090399966015209,-0.3498160617048927,0.2712155858981761,0.3866850015099931
1681249437399896300,2.522896240234375,0.5721979737281799,2.3022494316101074,4.073189735412598,0.752422034740448,0.315486341714859,-0.578212320804596,0.7051432728767395,0.28601494431495667,0.14382505416870117,0.7914327045748122,-0.35053684454575734,0.29667786094299936,0.40341113560989017
1681249437414929400,2.537929443359375,1.8092061281204224,1.2503989934921265,3.9788224697113037,0.7857584357261658,0.2571510076522827,-0.5625452399253845,1.562126874923706,0.8741507530212402,-0.31037968397140503,0.7779491467643637,-0.33903530389115727,0.32215284609796546,0.41960431801032705
1681249437429963500,2.552963623046875,1.6202378273010254,0.4113491177558899,3.3202271461486816,0.8043509125709534,0.19784300029277802,-0.5602479577064514,1.7305307388305664,1.129045844078064,-0.5609526634216309,0.7689195695122354,-0.32155470722987484,0.34128959373809753,0.4346109892206088
1681249437444996600,2.56799658203125,-0.08977270871400833,0.3115253150463104,2.601818323135376,0.8147017955780029,0.15474118292331696,-0.5588526129722595,1.6859238147735596,0.4724101424217224,-0.6747595071792603,0.7601055466638378,-0.31015095392056524,0.3526756040587002,0.44907236223793273
1681249437460029700,2.58302978515625,-2.0859010219573975,0.6147752404212952,1.3852959871292114,0.8230429887771606,0.14025476574897766,-0.5503898859024048,1.4423378705978394,0.1793098747730255,-0.519892156124115,0.7501236691440294,-0.3125800501403827,0.356509154255,0.4609876348993797
1681249437475063600,2.5980634765625,-3.5001630783081055,0.595506489276886,1.3090081214904785,0.8310430645942688,0.14689485728740692,-0.5364599227905273,0.7700310945510864,-0.11619433760643005,-0.45659738779067993,0.7365406038685116,-0.3274008161739665,0.35295714291290453,0.4751187864034799
1681249437490096600,2.6130966796875,-3.760904550552368,0.4642623960971832,0.7667976021766663,0.8378487229347229,0.16324014961719513,-0.5209242701530457,0.7422140836715698,0.03213319182395935,-0.36779338121414185,0.7220451131633745,-0.3468732276607971,0.34527789387440416,0.48899174864080064
1681249437505130500,2.628130615234375,-3.6508424282073975,0.12832674384117126,0.612454891204834,0.8418419361114502,0.18355867266654968,-0.5075514316558838,0.3810584545135498,0.5268598794937134,-0.47023189067840576,0.70887759751083,-0.3662282695144833,0.3348150732539682,0.5012667980157751
1681249437520163600,2.64316357421875,-3.4105818271636963,-0.07644157111644745,0.49387094378471375,0.8436586260795593,0.20330363512039185,-0.4968980848789215,0.2860562801361084,0.5293774604797363,-0.5183150172233582,0.6966697596352265,-0.3837107315590464,0.3229814770917157,0.5129329710721336
1681249437535196400,2.658196533203125,-2.8726277351379395,-0.3803194463253021,0.5087143778800964,0.843629777431488,0.22028890252113342,-0.4896545708179474,0.03236204385757446,0.46168726682662964,-0.6124115586280823,0.6859711308070747,-0.39803062504796693,0.31103751234188187,0.5237087563116452
1681249437550230500,2.67323046875,-2.2343952655792236,-0.7279932498931885,0.36287882924079895,0.8409737944602966,0.2336927056312561,-0.4880070686340332,-0.1148233413696289,0.45785072445869446,-0.6371914148330688,0.6778161349222729,-0.40794033493778237,0.29930110903085505,0.5334500297421008
1681249437565263600,2.688263671875,-1.6514524221420288,-0.9927087426185608,0.25784748792648315,0.8356813192367554,0.24390749633312225,-0.4920833110809326,-0.47488725185394287,0.4600260853767395,-0.5661748647689819,0.6724291024549206,-0.4135424292980931,0.28799479103306636,0.5421077744597831
1681249437580297500,2.70329736328125,-1.1808977127075195,-1.0248981714248657,0.11211693286895752,0.8288076519966125,0.251924991607666,-0.49961167573928833,-0.6401479244232178,0.4202398359775543,-0.5033639669418335,0.6694606936953369,-0.4160015293633242,0.27773528540435405,0.5492070669136148
1681249437595330600,2.71833056640625,-0.856456458568573,-0.9335096478462219,-0.08434072881937027,0.8213533759117126,0.2593247592449188,-0.508064329624176,-1.0079684257507324,0.26223576068878174,-0.37981414794921875,0.6682226677930028,-0.4169298462220968,0.2685839302704039,0.5545364956470642
1681249437610363400,2.73336328125,-0.6389066576957703,-0.8291448950767517,-0.3713189661502838,0.8137502074241638,0.2674757242202759,-0.5160109996795654,-1.129652976989746,0.19013524055480957,-0.3317369222640991,0.668701505767848,-0.4172493158075612,0.2605715221507504,0.5575336308037919
1681249437625397500,2.7483974609375,-0.4880716800689697,-0.8614761829376221,-0.7604163885116577,0.80463707447052,0.2786039113998413,-0.5243461728096008,-1.3342392444610596,0.013403356075286865,-0.28633809089660645,0.6710108498513719,-0.41744629984537013,0.2521219699608007,0.5584957087998694
1681249437640430300,2.763430419921875,-0.3129395544528961,-0.733712375164032,-0.928226113319397,0.7945932745933533,0.29217445850372314,-0.5322176218032837,-1.363166332244873,-0.08937004208564758,-0.3187193274497986,0.6748686500156057,-0.41773549276947247,0.24369706540866568,0.5573697208745464
1681249437655464400,2.77846435546875,-0.3937282860279083,-0.7049177289009094,-1.0728152990341187,0.7843838334083557,0.30657488107681274,-0.5392160415649414,-1.4476680755615234,-0.3082077205181122,-0.29273903369903564,0.679242716500368,-0.41821406717564424,0.2355609645743392,0.5551913622959819
1681249437670497500,2.79349755859375,-0.4587114453315735,-0.8675476908683777,-1.4384890794754028,0.7722638845443726,0.3247683048248291,-0.5460166335105896,-1.43161141872406,-0.40336647629737854,-0.24821871519088745,0.6843046640330135,-0.4194987829837318,0.2258593472387943,0.5520286033911447
1681249437685530000,2.808530029296875,-0.4376239478588104,-1.027482509613037,-1.6205366849899292,0.7562884092330933,0.34649723768234253,-0.5549481511116028,-1.2798786163330078,-0.36106956005096436,-0.11630129814147949,0.6910163386488302,-0.4203684303635769,0.21404744188998415,0.5476955929988409
1681249437700564200,2.823564208984375,-0.17335127294063568,-0.9511605501174927,-1.5912725925445557,0.7389602661132812,0.36752235889434814,-0.5646814107894897,-1.1804733276367188,-0.3449395000934601,-0.1058661937713623,0.6981661544370766,-0.4204593920244062,0.20217119431916306,0.5430513719480965
1681249437715597000,2.83859716796875,0.5087690949440002,-0.6546444296836853,-1.6366679668426514,0.7229244709014893,0.3837423026561737,-0.5745624899864197,-1.1164791584014893,-0.13284218311309814,-0.15082520246505737,0.7063524772375418,-0.4186897949595702,0.1934363260640703,0.5369798961910328
1681249437730631200,2.853631103515625,1.4546303749084473,-0.574267566204071,-1.6732819080352783,0.7079920768737793,0.3931439518928528,-0.586672842502594,-1.0391688346862793,0.005354434251785278,-0.15462970733642578,0.7168725451928744,-0.41349853168613665,0.18889822007083254,0.5286114994472456
1681249437745664000,2.8686640625,2.4588124752044678,-0.48065856099128723,-1.6286026239395142,0.6931560039520264,0.39304280281066895,-0.6041955351829529,-0.7370402812957764,0.1865774393081665,-0.11783522367477417,0.7302543704491604,-0.402950840316936,0.18850161897536125,0.5184847467233706
1681249437760698000,2.883697998046875,3.4149715900421143,-0.03488853573799133,-1.4870705604553223,0.6813573837280273,0.38270166516304016,-0.6239323019981384,-0.6032171845436096,0.335483580827713,-0.11776703596115112,0.7453103670440144,-0.3881296291238378,0.1933629901272301,0.5064371301790365
1681249437775731200,2.898731201171875,4.910853862762451,0.7520854473114014,-0.5213558673858643,0.6788822412490845,0.353674054145813,-0.6434544920921326,-0.439151406288147,0.75345778465271,-0.3182613253593445,0.7606405633673669,-0.3673843711499101,0.2080901055027943,0.49310572718929124
1681249437790764000,2.913763916015625,4.9363532066345215,0.6480588912963867,0.5382440090179443,0.6868512034416199,0.3028061091899872,-0.6607147455215454,-0.3077771067619324,0.9616285562515259,-0.6426758766174316,0.772891057458389,-0.3405626652924116,0.23164564602249496,0.48269753757440964
1681249437805798100,2.928798095703125,3.798121452331543,-0.4630872905254364,0.259758323431015,0.6898809671401978,0.25397810339927673,-0.6779080629348755,0.5087121725082397,1.2186474800109863,-0.9265078902244568,0.7815028135138509,-0.3147061772334412,0.24900999383337794,0.47771056961410596
1681249437820831000,2.9438310546875,2.817582130432129,-1.3315366506576538,-0.5123008489608765,0.680301308631897,0.22062508761882782,-0.698938250541687,0.9728358387947083,1.1892105340957642,-0.8552915453910828,0.791330683009981,-0.29196821958378266,0.2555101670128005,0.47250904214508216
1681249437835865000,2.958864990234375,2.1337099075317383,-2.8934226036071777,-1.4715994596481323,0.654805064201355,0.20490436255931854,-0.7274919748306274,1.48017418384552,0.7380886077880859,-0.7850965857505798,0.8039316383552472,-0.2721098928510118,0.24941977663521894,0.4663045323408653
1681249437850898000,2.97389794921875,1.130460262298584,-3.4509506225585938,-1.3131517171859741,0.6128416657447815,0.19987767934799194,-0.7645090222358704,1.7662324905395508,0.6096466779708862,-0.5102560520172119,0.818334796194532,-0.2528340024428132,0.231992376455249,0.461066970900669
1681249437865931000,2.988930908203125,-0.5857109427452087,-2.507326364517212,-1.3599636554718018,0.5734232664108276,0.2082182765007019,-0.7923578023910522,1.3801900148391724,0.9012480974197388,-0.17376774549484253,0.8283786119950213,-0.24283039369963547,0.21178880007607548,0.45822237143607253
1681249437880965000,3.003965087890625,-2.0832509994506836,-1.7358349561691284,-1.3577791452407837,0.5439246296882629,0.23676326870918274,-0.8050398230552673,1.1102195978164673,0.658362865447998,-0.13625961542129517,0.8334724451512522,-0.246703792063879,0.1913565662507684,0.455898541949106
1681249437895998000,3.018998046875,-2.597574472427368,-1.4746427536010742,-1.8271372318267822,0.5186849236488342,0.2781374454498291,-0.8084587454795837,0.8952097296714783,0.3639064431190491,-0.045667290687561035,0.836536191928877,-0.2583380358443462,0.17038800771293697,0.4521468320594516
1681249437911032300,3.0340322265625,-2.7267329692840576,-1.6246726512908936,-2.129065752029419,0.4910748302936554,0.32560279965400696,-0.8079779148101807,0.932081937789917,0.4436993896961212,0.0031072497367858887,0.8397688412064075,-0.2723341093435099,0.14780112243973542,0.4458444074930963
1681249437926065200,3.049065185546875,-2.924438238143921,-1.5438807010650635,-2.315322160720825,0.45981040596961975,0.3757130801677704,-0.8046205043792725,0.9144877195358276,0.3816262483596802,0.2672058343887329,0.8427939250996813,-0.28711412946986764,0.12351207134402775,0.43818802088322684
1681249437941098200,3.06409814453125,-2.95255970954895,-1.236996054649353,-2.6437828540802,0.4280099868774414,0.4278795123100281,-0.7960694432258606,0.7784261703491211,0.2173992395401001,0.3379547595977783,0.8455069349528594,-0.3034112874941451,0.09953321634727319,0.42796352279529687
1681249437956132000,3.079132080078125,-2.9183244705200195,-0.8832837343215942,-2.7951831817626953,0.3967669904232025,0.47972431778907776,-0.7825857996940613,0.4847027361392975,-0.020221322774887085,0.37119346857070923,0.8479828617428534,-0.3205752842669082,0.07706226288919317,0.41499151972189013
1681249437971165200,3.094165283203125,-2.604581117630005,-0.5965486764907837,-2.7650721073150635,0.3669199049472809,0.5283582210540771,-0.7656418085098267,0.4237600266933441,-0.14522546529769897,0.3920913338661194,0.8500075397224672,-0.33756430373595936,0.05682809034325648,0.40038487173029164
1681249437986199000,3.109198974609375,-1.3702607154846191,-0.21694009006023407,-2.4436075687408447,0.3406181037425995,0.5658812522888184,-0.750838041305542,0.3025551736354828,-0.3648773431777954,0.42132437229156494,0.8525911404425486,-0.35053393980713515,0.041315240638165024,0.3853664981754399
1681249438001232100,3.124232177734375,0.5881829261779785,0.03160686790943146,-1.8708025217056274,0.3209225535392761,0.5810717940330505,-0.7479065656661987,0.23266634345054626,-0.46515095233917236,0.3973205089569092,0.8577255499981798,-0.3534112866021387,0.033869954802180885,0.37183349572233293
1681249438016265200,3.13926513671875,2.169027328491211,0.1369495391845703,-1.6459743976593018,0.3071509599685669,0.5727607607841492,-0.7600021958351135,0.0954827070236206,-0.5158457159996033,0.34206390380859375,0.8662326570281379,-0.3447361684431473,0.03399821640499053,0.3600582974045688
1681249438031299000,3.154299072265625,2.756051540374756,0.09354560077190399,-1.726730465888977,0.2944979965686798,0.5511299967765808,-0.78072190284729,0.06023836135864258,-0.5303324460983276,0.39975565671920776,0.8770685101025373,-0.32900551761769703,0.037341863657516385,0.3480112569872832
1681249438046332200,3.169332275390625,2.781216621398926,-0.2795395851135254,-1.6151219606399536,0.27993836998939514,0.5257179737091064,-0.8032777309417725,0.07356202602386475,-0.7624124884605408,0.6543060541152954,0.8881019689940408,-0.31107679440195357,0.03990435401703207,0.33602653299520713
1681249438061366000,3.184365966796875,2.2136385440826416,-0.3662470281124115,-1.4636011123657227,0.26350826025009155,0.5008326172828674,-0.8244574666023254,0.14631232619285583,-0.826302707195282,0.8027594089508057,0.8977657897383401,-0.2935237804721421,0.04018773480315737,0.3259530151243806
1681249438076399000,3.199399169921875,1.447497844696045,-0.20912052690982819,-1.3194091320037842,0.24952270090579987,0.48329830169677734,-0.8391430974006653,0.10240606963634491,-0.8616248369216919,1.0549938678741455,0.9051939681921739,-0.2808165270558709,0.039629767011368874,0.31653664937934994
1681249438091433000,3.214432861328125,0.6012827157974243,-0.08083046227693558,-0.9969452619552612,0.23931515216827393,0.4746552109718323,-0.8470128178596497,0.08653634786605835,-0.8660738468170166,1.1615269184112549,0.9101346098913329,-0.27386093007315254,0.03864956119694298,0.3084823898548222
1681249438106466000,3.229466064453125,-0.0701577216386795,0.08018825203180313,-0.4521150290966034,0.23393461108207703,0.47399911284446716,-0.8488813042640686,0.10314735770225525,-0.9237673282623291,1.2613263130187988,0.9123238603977513,-0.27229296009391785,0.03762832632090598,0.3034896052947492
1681249438121499100,3.2444990234375,-0.34464412927627563,0.6113117933273315,0.11168204247951508,0.23649777472019196,0.47763755917549133,-0.8461271524429321,0.11704844236373901,-0.9452128410339355,1.224560260772705,0.912183746230251,-0.2746449418648261,0.038814520068315594,0.30163640046010204
1681249438136533000,3.259532958984375,-0.1604451686143875,1.6592158079147339,1.0304380655288696,0.2544066905975342,0.47952505946159363,-0.8398410677909851,0.11632087826728821,-0.8839288949966431,0.9369632005691528,0.9099406495839232,-0.27908646027309153,0.046799822874397344,0.30319740695472325
1681249438151566000,3.274566162109375,0.6334632635116577,2.2605865001678467,1.931219458580017,0.2908003330230713,0.47035732865333557,-0.8331860899925232,0.1985338032245636,-0.6989189386367798,0.6773785948753357,0.9061835904409683,-0.2815102894964876,0.06448951350653179,0.3089081558298349
1681249438166600200,3.28960009765625,2.1658153533935547,2.181957244873047,3.0361759662628174,0.33479031920433044,0.44313839077949524,-0.8315911293029785,0.6953763961791992,-0.014793813228607178,0.04786914587020874,0.901879485449771,-0.2766965824911738,0.08742667954187361,0.3200141917309389
1681249438181633000,3.304633056640625,4.154572010040283,2.607814311981201,4.462435245513916,0.3893011510372162,0.3813117444515228,-0.8384783864021301,1.063762903213501,0.26143407821655273,-0.13480353355407715,0.8970641766605073,-0.2577136115606976,0.11976851535449079,0.33840096330185776
1681249438196666000,3.319666015625,5.206843376159668,2.148125410079956,4.087875843048096,0.442120224237442,0.2941801846027374,-0.8473415970802307,1.3955262899398804,0.7060790061950684,-0.6025791168212891,0.8917299886996459,-0.2277914191757233,0.15633386595078866,0.35845298253151364
1681249438211700200,3.3347001953125,4.408941745758057,1.8207300901412964,3.3653571605682373,0.48131802678108215,0.20314601063728333,-0.8526808619499207,1.3797659873962402,0.7818543910980225,-0.5190690159797668,0.8869774277049364,-0.19432844004955996,0.1894624628903579,0.37364623595982216
1681249438226733300,3.3497333984375,1.8569368124008179,1.7769060134887695,2.8695120811462402,0.5121611952781677,0.14032505452632904,-0.847348690032959,1.2363433837890625,0.5396521687507629,-0.378023624420166,0.8797042003651994,-0.17412418371315616,0.21449107696099282,0.38703356567724945
1681249438241767200,3.36476708984375,-0.4173354506492615,1.7379378080368042,2.2436001300811768,0.5390748381614685,0.11115693300962448,-0.8348907232284546,1.0231353044509888,0.3379090428352356,-0.2327057123184204,0.8700481358818983,-0.170393076066677,0.2313457062116943,0.40057674716527963
1681249438256800300,3.37980029296875,-1.9842065572738647,1.889878273010254,1.9271222352981567,0.5648742318153381,0.10941258817911148,-0.8178911805152893,0.7421326041221619,0.0650104358792305,-0.2828930616378784,0.8588712365847119,-0.18029356376886213,0.24196823497564524,0.4138669843543249
1681249438271834000,3.394834228515625,-3.1269612312316895,1.9621455669403076,1.6012918949127197,0.5917165279388428,0.12577353417873383,-0.7962741851806641,0.5875437259674072,0.08183735609054565,-0.33453941345214844,0.8459563239164521,-0.19995660302367965,0.2487574318283038,0.4271944102424939
1681249438286867200,3.4098671875,-3.4350390434265137,1.6940922737121582,1.418717861175537,0.6163598895072937,0.15154427289962769,-0.7727450132369995,0.3408392071723938,0.03197300434112549,-0.379339337348938,0.8323185756934887,-0.22414069550580004,0.2517705998828223,0.4400209120927599
1681249438301900000,3.424900146484375,-3.408092498779297,1.4557121992111206,1.3215055465698242,0.637953519821167,0.17819611728191376,-0.7491738796234131,0.2780163288116455,0.11407053470611572,-0.3737814426422119,0.8186270962408932,-0.24830279105491593,0.2525050032504195,0.45214680774571275
1681249438316934100,3.43993408203125,-3.0240354537963867,1.1273362636566162,1.1862348318099976,0.6559638381004333,0.20192046463489532,-0.7272823452949524,0.05604177713394165,0.27458083629608154,-0.4341099262237549,0.8055129042765695,-0.27016947364050176,0.2517286036511198,0.46345455517397327
1681249438331967200,3.45496728515625,-2.643657922744751,0.6839636564254761,1.0851778984069824,0.66939777135849,0.22084051370620728,-0.7093209028244019,-0.041147708892822266,0.3365476131439209,-0.4226524233818054,0.7939185526114909,-0.2880654728176071,0.24971550548438426,0.4736600788560283
1681249438347001000,3.4700009765625,-2.36708927154541,0.2310909479856491,1.1049582958221436,0.6781579256057739,0.2366587221622467,-0.6957690119743347,-0.23359310626983643,0.40930667519569397,-0.38603341579437256,0.7835232676845668,-0.302788709441659,0.2458342849325759,0.4837105446372275
1681249438362034200,3.4850341796875,-2.0672430992126465,-0.183488130569458,0.8633342385292053,0.6818552613258362,0.24853816628456116,-0.6879696846008301,-0.3557139039039612,0.3073088228702545,-0.3838993310928345,0.7746518665343023,-0.3135558192699496,0.24020390741814432,0.49386172640212433
1681249438377067000,3.50006689453125,-1.7111247777938843,-0.4747868478298187,0.5424310564994812,0.6810051798820496,0.2615357041358948,-0.6839817762374878,-0.6150872707366943,0.1908414363861084,-0.2961665987968445,0.7681420302101757,-0.32228594452538906,0.2326819207792039,0.5019450352582555
1681249438392101000,3.51510107421875,-1.2093948125839233,-0.6620808243751526,0.5164790749549866,0.6772320866584778,0.27082377672195435,-0.6841134428977966,-0.7844861149787903,0.060078173875808716,-0.26289284229278564,0.7636021263568618,-0.3274351192456301,0.22523213437938788,0.5088895021514265
1681249438407134000,3.530134033203125,-0.8406686186790466,-0.5911735892295837,0.3646610379219055,0.6725958585739136,0.2763625979423523,-0.6864681243896484,-1.0824623107910156,-0.02595078945159912,-0.22193342447280884,0.7603728686976131,-0.329933551921579,0.21888305734975563,0.5148467113387225
1681249438422168000,3.54516796875,-0.6149523854255676,-0.5251812934875488,0.023305576294660568,0.6676822900772095,0.2820914089679718,-0.6889302134513855,-1.206668496131897,-0.06852954626083374,-0.19134938716888428,0.7587501988392721,-0.3316770051442179,0.2133664662204318,0.5184239502759423
1681249438437201000,3.560200927734375,-0.46451565623283386,-0.45884382724761963,-0.39061596989631653,0.6619797348976135,0.2891841232776642,-0.6914877891540527,-1.3463059663772583,-0.1845090091228485,-0.12462866306304932,0.7587291543756973,-0.33309983481973576,0.208087969042182,0.519686420347484
1681249438452235300,3.5752353515625,-0.06710153073072433,-0.4532613158226013,-0.9143393635749817,0.654323935508728,0.29878994822502136,-0.6946831941604614,-1.3853726387023926,-0.1902391016483307,-0.07023996114730835,0.7613683776869612,-0.33399118281740425,0.2027517964892202,0.5173584544296411
1681249438467268400,3.590268310546875,0.4648657739162445,-0.5574342608451843,-1.0081143379211426,0.6445220708847046,0.30644485354423523,-0.7004876732826233,-1.460424780845642,-0.25267302989959717,-0.08387523889541626,0.7663957140075645,-0.3324441257763587,0.19808351582146258,0.5127197598686963
1681249438482301000,3.605301025390625,1.2985517978668213,-0.6015109419822693,-1.1096878051757812,0.6334722638130188,0.30730152130126953,-0.7101258039474487,-1.409488558769226,-0.20244333148002625,-0.12803953886032104,0.7733941517651668,-0.32673489864569094,0.19540061647308254,0.5068770855948305
1681249438497335300,3.620335205078125,2.065824270248413,-0.6504089832305908,-1.3482873439788818,0.6212450265884399,0.30054888129234314,-0.723688542842865,-1.211363434791565,0.012332439422607422,-0.17578661441802979,0.7830438123969113,-0.3162685464406411,0.19526890416081524,0.4986850803330537
1681249438512368000,3.6353681640625,2.863196849822998,-0.8583107590675354,-1.4327583312988281,0.6067553758621216,0.2866367995738983,-0.7414090037345886,-1.1128129959106445,0.10246217250823975,-0.16481053829193115,0.7950080740642108,-0.3010779919768729,0.19658976257010005,0.4885352955240788
1681249438527402200,3.65040234375,3.523941993713379,-0.5187689065933228,-1.4402729272842407,0.5922903418540955,0.263164222240448,-0.7615358233451843,-0.9423574805259705,0.2542916536331177,-0.17942798137664795,0.8084570401740339,-0.28103513306629485,0.20062734839030844,0.4766185738092002
1681249438542435000,3.66543505859375,5.316871643066406,0.41858571767807007,-0.8456609845161438,0.5864889621734619,0.22425027191638947,-0.7782946825027466,-0.9107229709625244,0.4047931432723999,-0.2801923155784607,0.8216526551493966,-0.25619383220817965,0.2126437935005941,0.4626385095816251
1681249438557468200,3.68046826171875,6.549016952514648,1.4427050352096558,0.8801885843276978,0.5975644588470459,0.15272057056427002,-0.7871424555778503,-0.8271176218986511,0.6804701685905457,-1.045850157737732,0.8309976786739212,-0.2216698307646722,0.23935594185894743,0.4505709398799158
1681249438572502000,3.695501953125,5.8172760009765625,1.3740572929382324,0.5438190698623657,0.6186474561691284,0.06896068155765533,-0.7826364040374756,-0.5537365674972534,1.0461361408233643,-1.5465261936187744,0.8344534893901631,-0.1855317874432675,0.27250641696353806,0.441594397540023
1681249438587535000,3.71053515625,3.7447290420532227,-1.1416949033737183,-0.14386636018753052,0.6181197762489319,0.013170716352760792,-0.7859736084938049,0.14358365535736084,0.6855748295783997,-1.3496770858764648,0.8405243165295403,-0.15566489844031084,0.2877179890692645,0.4318630702759827
1681249438602569200,3.7255693359375,2.467641830444336,-2.3732166290283203,-0.8096936345100403,0.5982820391654968,-0.021065646782517433,-0.8010086417198181,0.9735410809516907,0.35564491152763367,-1.172410488128662,0.8481998545059366,-0.1314313253305066,0.28674287250122166,0.4255131201818988
1681249438617602000,3.74060205078125,1.9085733890533447,-4.2777018547058105,-0.5920300483703613,0.5545210838317871,-0.039838097989559174,-0.8312155604362488,1.788496494293213,0.30874353647232056,-1.0185768604278564,0.8605985106331698,-0.10794667437123141,0.26970305403164374,0.4183037408815192
1681249438632636200,3.75563623046875,0.6423266530036926,-3.4065749645233154,-0.6868215203285217,0.5062633752822876,-0.05148874968290329,-0.8608404397964478,1.8699268102645874,0.49381035566329956,-0.7403863072395325,0.871116604803614,-0.08858924254629255,0.24845867299566268,0.4142175214915244
1681249438647669000,3.7706689453125,-0.9610767960548401,-2.7977304458618164,-0.9210915565490723,0.46745070815086365,-0.0438644103705883,-0.8829302191734314,0.8847068548202515,0.13323494791984558,-0.7627454400062561,0.8785796266015445,-0.08176011164928867,0.2277063481205552,0.41178023355432847
1681249438662702000,3.7857021484375,-1.4281706809997559,-2.718963146209717,-1.4564833641052246,0.4302861988544464,-0.018402263522148132,-0.9025049209594727,0.9527551531791687,0.00711057148873806,-0.7539433836936951,0.8862605311750394,-0.0835184773641028,0.20438247891422817,0.4071790405059059
1681249438677736000,3.80073583984375,-1.4254285097122192,-2.7805538177490234,-1.8977442979812622,0.39330175518989563,0.011319023557007313,-0.9193397760391235,0.9817898273468018,0.39261144399642944,-0.46292340755462646,0.8943442084406112,-0.0871937853733203,0.18090703664687435,0.39977298062927574
1681249438692770000,3.81577001953125,-1.5974222421646118,-2.991154432296753,-2.062314510345459,0.35238152742385864,0.04401759058237076,-0.9348207116127014,0.9379321336746216,0.3533058166503906,-0.2540830969810486,0.902953926683689,-0.09156800271177096,0.15557943113630804,0.38998016161186794
1681249438707804200,3.83080419921875,-1.7326463460922241,-2.817131757736206,-2.187685489654541,0.30806025862693787,0.07812058925628662,-0.9481540322303772,0.8536981344223022,0.33481258153915405,0.1700473427772522,0.9110675431985095,-0.0965463434955978,0.12884795485352796,0.3795166721609498
1681249438722837200,3.845837158203125,-1.9080562591552734,-2.2656052112579346,-2.261032819747925,0.268389493227005,0.11312413215637207,-0.9566451907157898,0.7834751605987549,0.2948194146156311,0.3086349368095398,0.9182674011957276,-0.10350885089480262,0.10470590022438613,0.3675698907490379
1681249438737871000,3.86087109375,-2.6853621006011963,-1.733251929283142,-2.279287576675415,0.235488623380661,0.15459948778152466,-0.9595020413398743,0.4579165577888489,0.036638736724853516,0.4275195598602295,0.923909057716574,-0.11557705536864954,0.08301167213886973,0.3551662822266164
1681249438752904200,3.875904296875,-3.2503199577331543,-1.5950570106506348,-2.5632588863372803,0.2052447348833084,0.2060440331697464,-0.9567760825157166,0.4225018620491028,-0.10748769342899323,0.5348399877548218,0.9283330546915509,-0.1335654123001549,0.06141858592372987,0.3414466842480945
1681249438767937300,3.890937255859375,-3.158392906188965,-1.433572769165039,-2.6094348430633545,0.17416638135910034,0.2599957585334778,-0.9497727751731873,0.46372735500335693,-0.2283797264099121,0.6862229108810425,0.9320001702704571,-0.15339767674693275,0.03978414797055038,0.3259785922824762
1681249438782971100,3.90597119140625,-2.771852493286133,-1.0769389867782593,-2.449061393737793,0.14525341987609863,0.30810388922691345,-0.9401986002922058,0.43068963289260864,-0.24101120233535767,0.7448098063468933,0.9346869845760446,-0.1716800611630778,0.02065553230709703,0.31057915929812935
1681249438798004200,3.921004150390625,-2.2468223571777344,-0.7405497431755066,-2.2536351680755615,0.12089992314577103,0.34826838970184326,-0.9295656681060791,0.27213603258132935,-0.3056049942970276,0.8474580645561218,0.9367782285573953,-0.18758500419867943,0.005388075264656204,0.29534625314268537
1681249438813038000,3.9360380859375,-1.6750184297561646,-0.3309071660041809,-1.9437986612319946,0.10197822749614716,0.37910330295562744,-0.9197179675102234,0.2514001131057739,-0.3904712498188019,0.8976994752883911,0.9384550659008757,-0.2002708577615027,-0.0057096812261083225,0.28135592671594145
1681249438828071200,3.9510712890625,-1.0342166423797607,-0.019318100064992905,-1.6569170951843262,0.08913443982601166,0.4005565643310547,-0.91192626953125,0.2307508885860443,-0.458906352519989,0.9619597792625427,0.94006325215371,-0.2094779089579174,-0.012485162494388115,0.2687828160854051
1681249438843105000,3.96610498046875,-0.4830997586250305,0.4105416536331177,-1.6627373695373535,0.08175717294216156,0.41239166259765625,-0.9073306322097778,0.2381434142589569,-0.4464036822319031,0.9783754944801331,0.9421890935516491,-0.2147220502437491,-0.015136649186168267,0.25679789795824454
1681249438858138000,3.98113818359375,-0.31323033571243286,0.28996729850769043,-1.1559962034225464,0.07835764437913895,0.41973692178726196,-0.9042571187019348,0.23843014240264893,-0.5147688388824463,1.0054991245269775,0.9442703975750751,-0.21825609838730498,-0.015352671774736835,0.24593079937412657
1681249438873171200,3.996171142578125,0.1334693878889084,0.02632608264684677,-0.7987715005874634,0.0741029903292656,0.42208331823349,-0.903523325920105,0.29810473322868347,-0.5100198984146118,1.0577285289764404,0.9458444608838524,-0.21903523589414023,-0.016183031127613486,0.23903974030801936
1681249438888205000,4.011205078125,0.3338380455970764,0.19456729292869568,-0.5944598913192749,0.07098593562841415,0.41925305128097534,-0.9050899744033813,0.3495158553123474,-0.5086392164230347,1.1111750602722168,0.9475914853160705,-0.2172442968780213,-0.016121860862066507,0.23369959663739986
1681249438903238100,4.026238037109375,0.25210538506507874,0.310099720954895,-0.09897692501544952,0.07211888581514359,0.4153963625431061,-0.9067771434783936,0.2996615767478943,-0.551626980304718,1.121315598487854,0.9487325844520991,-0.21541541736252043,-0.014409552768206454,0.2308574532382394
1681249438918272000,4.04127197265625,-0.17121750116348267,0.8054029941558838,0.6056819558143616,0.08064491301774979,0.4141991138458252,-0.9066065549850464,0.3217599391937256,-0.7600244283676147,1.1262719631195068,0.9485104431324783,-0.2158538133215604,-0.010190537689360539,0.23158399277895317
1681249438933305000,4.05630517578125,-0.5096328854560852,1.7250723838806152,1.7154892683029175,0.10461670160293579,0.4175342619419098,-0.9026187062263489,0.259824275970459,-0.8709645867347717,1.076751947402954,0.945899457984099,-0.2206594974510613,-0.00019101045447922826,0.23787340337756221
1681249438948338000,4.071337890625,0.6028384566307068,3.1854076385498047,2.5799262523651123,0.15030600130558014,0.41579243540763855,-0.8969530463218689,0.36235886812210083,-0.7197781801223755,0.8819841146469116,0.9415281016939061,-0.22610289222168314,0.020024058086596838,0.24900074963952756
1681249438963372000,4.0863720703125,2.860614538192749,4.594412803649902,3.773575782775879,0.22315819561481476,0.3825928568840027,-0.896561861038208,0.4132859706878662,-0.4425601065158844,0.5786144137382507,0.9372909147938786,-0.2201586190135432,0.05700233331776738,0.26413377185190495
1681249438978405000,4.101405029296875,3.93813419342041,4.487420558929443,4.828017711639404,0.30919989943504333,0.31641387939453125,-0.896815299987793,0.8380932807922363,0.8255842328071594,-0.6693316102027893,0.9312590746793432,-0.20178680254241996,0.10428055699523676,0.2848934518954837
1681249438993439200,4.116439208984375,3.9908602237701416,3.127382278442383,4.347853660583496,0.38058507442474365,0.23802250623703003,-0.8935884237289429,1.2818294763565063,1.3311606645584106,-1.0428434610366821,0.92288202853864,-0.17798065952773154,0.14672651414955468,0.30835529324235744
1681249439008472300,4.131472412109375,4.3499298095703125,3.3639028072357178,4.014983177185059,0.43401816487312317,0.15791526436805725,-0.8869560360908508,1.5053739547729492,0.5702186822891235,-1.105872392654419,0.9142615635393033,-0.15196270534208844,0.18283686218431663,0.32803027244868294
1681249439023506200,4.146506103515625,2.81796932220459,3.417672634124756,3.1469357013702393,0.4867856204509735,0.08222201466560364,-0.8696432113647461,1.0158541202545166,0.38683298230171204,-0.8763589859008789,0.9036102684290962,-0.12929342299974245,0.22013997540464697,0.3439623240268896
1681249439038539300,4.161539306640625,0.6283280253410339,2.7416980266571045,1.86882746219635,0.5282304883003235,0.04273543879389763,-0.8480249047279358,0.6716139316558838,0.537815511226654,-0.2032293677330017,0.893506879234045,-0.12198584228408031,0.2471983132537104,0.3544824781295161
1681249439053572000,4.176572021484375,-1.4752427339553833,2.7637217044830322,1.6092151403427124,0.5635841488838196,0.0332225039601326,-0.8253902792930603,0.8004905581474304,0.22892329096794128,-0.20556974411010742,0.8830511893047733,-0.1286335629614842,0.2660042422570102,0.36457601975770515
1681249439068606200,4.191606201171875,-2.9222829341888428,2.8162734508514404,1.7057514190673828,0.5984118580818176,0.046493977308273315,-0.7998384237289429,0.8726574182510376,-0.14843814074993134,-0.40934425592422485,0.8704796450996292,-0.1478561887629713,0.2796771837321124,0.3770733568751236
1681249439083639000,4.20663916015625,-3.401155710220337,2.5927631855010986,1.662689208984375,0.6324086785316467,0.06885132193565369,-0.771569013595581,0.6207650899887085,-0.340061217546463,-0.44217610359191895,0.8556878034666019,-0.1731538841784311,0.29022959696400347,0.39189665297144993
1681249439098673200,4.221673095703125,-3.1962802410125732,1.7203865051269531,1.391916275024414,0.659259021282196,0.09185197949409485,-0.7462846636772156,0.43748170137405396,-0.19094274938106537,-0.4962690472602844,0.8416280095902631,-0.19752731037469215,0.29637919884995495,0.40596144717274274
1681249439113706000,4.2367060546875,-3.17110013961792,0.8057065606117249,1.0983664989471436,0.6749740839004517,0.11441704630851746,-0.7289161086082458,0.38690030574798584,-0.02034679800271988,-0.5383415818214417,0.8301008315670646,-0.21843431871056945,0.2963585489207728,0.4187967140885352
1681249439128740000,4.251739990234375,-3.337324380874634,0.17621570825576782,0.8917225003242493,0.6820064783096313,0.13956908881664276,-0.7179050445556641,0.14738500118255615,0.10309125483036041,-0.5071620941162109,0.8202842449510159,-0.23789928425354234,0.2906052366950964,0.43137726095836254
1681249439143773200,4.266773193359375,-3.22934889793396,-0.29621627926826477,0.6079429388046265,0.6830413341522217,0.1675233393907547,-0.7109082341194153,-0.08273005485534668,0.06851468980312347,-0.4725635051727295,0.8117671677835977,-0.25644954457132996,0.28067687864068885,0.44327005104047723
1681249439158807000,4.28180712890625,-2.6177268028259277,-0.6097089648246765,0.3505832850933075,0.6793177723884583,0.19392657279968262,-0.7077568769454956,-0.5743220448493958,0.18935877084732056,-0.4522315263748169,0.8052576611739726,-0.2717388217111801,0.2688485841680289,0.45325320226481114
1681249439173840100,4.296840087890625,-1.7180339097976685,-0.756581723690033,0.050296444445848465,0.6726374626159668,0.21522003412246704,-0.7079824805259705,-0.7517542839050293,0.24184155464172363,-0.4847666025161743,0.801381730359422,-0.2822143491021909,0.2576117526014042,0.46019409434310504
1681249439188873000,4.311873046875,-0.8394997715950012,-0.6986803412437439,-0.2416858673095703,0.664415180683136,0.2296690195798874,-0.7111994624137878,-1.0686967372894287,0.2905639410018921,-0.5364354848861694,0.8003594525414242,-0.2874661640490764,0.24852258376513783,0.463707366164041
1681249439203907000,4.326906982421875,-0.022730661556124687,-0.6636419296264648,-0.43764474987983704,0.6560239195823669,0.23780196905136108,-0.7162980437278748,-1.2069730758666992,0.2536071538925171,-0.531779408454895,0.8019120559711401,-0.28837820039860246,0.24225813858420575,0.46377376223291616
1681249439218940000,4.34193994140625,0.2885209619998932,-0.7180348634719849,-0.5411180853843689,0.6468074917793274,0.2406482845544815,-0.723690927028656,-1.4863002300262451,-0.12533779442310333,-0.5391570329666138,0.805215832224497,-0.2857932013309914,0.23764845313532762,0.4620314764046406
1681249439233974300,4.356974365234375,0.5346918702125549,-0.8095951676368713,-0.690766453742981,0.6362297534942627,0.24221396446228027,-0.732491672039032,-1.5660851001739502,-0.2799949049949646,-0.498831570148468,0.8095619764537276,-0.2818122741527741,0.2331008262975442,0.45918979125074894
1681249439249007000,4.372007080078125,0.92121821641922,-0.917225182056427,-0.7768315672874451,0.6239368915557861,0.2412366420030594,-0.7433085441589355,-1.5554249286651611,-0.3117629289627075,-0.36222124099731445,0.8151120726082662,-0.27572747534962033,0.22873581387285719,0.45524340211404013
1681249439264041200,4.387041259765625,1.419520616531372,-1.0213897228240967,-0.7774110436439514,0.610267162322998,0.23532000184059143,-0.7564380168914795,-1.4420695304870605,-0.23597632348537445,-0.2823498249053955,0.821777336215953,-0.26660356575680705,0.22517441379866363,0.4504453520733196
1681249439279074300,4.40207421875,2.0309948921203613,-1.2651954889297485,-0.7169775366783142,0.5945475697517395,0.2223745584487915,-0.7726983428001404,-1.1787912845611572,-0.06546860933303833,-0.1401282548904419,0.8295820782966884,-0.25335967061773285,0.22239536107280863,0.44513230731864223
1681249439294107100,4.417107177734375,2.7251574993133545,-1.5044320821762085,-0.6110455393791199,0.5758898854255676,0.20027822256088257,-0.792615532875061,-0.9916918873786926,0.030037760734558105,-0.07980573177337646,0.8384925153595733,-0.23490055046917593,0.22025883179102185,0.43958846986173145
1681249439309141200,4.432141357421875,3.5119245052337646,-1.6087884902954102,-0.46032848954200745,0.5553123354911804,0.16716806590557098,-0.8146674036979675,-0.6863548159599304,0.154166579246521,-0.15515071153640747,0.8480787524724819,-0.21084355262221666,0.21957067351807155,0.43370046564774556
1681249439324174000,4.447174072265625,4.062588691711426,-1.509255290031433,-0.12113762646913528,0.5351444482803345,0.12242095172405243,-0.835843026638031,-0.5540348291397095,0.29341137409210205,-0.24917900562286377,0.8573505687854451,-0.18182602579345514,0.22139961885294823,0.4276347481897172
1681249439339208200,4.462208251953125,4.810157775878906,-1.3171743154525757,0.7704898118972778,0.5172387957572937,0.06400413811206818,-0.853444516658783,-0.3485071063041687,0.4605623185634613,-0.5560098886489868,0.8643348837159378,-0.1481306234392516,0.22657242795305566,0.4238485552193912
1681249439354241000,4.477240966796875,4.472844123840332,-1.108417272567749,1.2567003965377808,0.5023546814918518,-0.00623511103913188,-0.864639163017273,-0.20241272449493408,0.5338991284370422,-0.8241119980812073,0.8675419462621018,-0.11130223431912747,0.23514300915508338,0.42389911037628625
1681249439369275100,4.492275146484375,3.1472301483154297,-1.7694306373596191,0.9781604409217834,0.4832397699356079,-0.06436493992805481,-0.8731188178062439,0.2055572271347046,0.7829468846321106,-1.1664166450500488,0.8692423841655027,-0.07988188991312282,0.23887122624018103,0.4254141297764978
1681249439384308200,4.50730810546875,1.7328444719314575,-2.465277910232544,0.9376460313796997,0.45415055751800537,-0.1034788265824318,-0.8848951458930969,0.5399748086929321,0.6289303302764893,-1.0509415864944458,0.8712138208518532,-0.055364835153309436,0.23342484683995776,0.42829211689817687
1681249439399341000,4.522341064453125,0.34741416573524475,-3.3617188930511475,0.40388885140419006,0.41338595747947693,-0.12180064618587494,-0.9023727774620056,1.1517232656478882,0.16946890950202942,-0.7230696678161621,0.8742759254840321,-0.03794890691295609,0.21765450471376457,0.43223612128105415
1681249439414375200,4.537375244140625,-0.7064653038978577,-3.4577620029449463,0.03382692486047745,0.3655990660190582,-0.11985061317682266,-0.9230239391326904,1.258805751800537,0.04662349075078964,-0.5421097278594971,0.8790390849209815,-0.027823119230643848,0.19420069639693366,0.43451397925587343
1681249439429408000,4.552407958984375,-1.1548060178756714,-3.0444812774658203,-0.2082754522562027,0.31991106271743774,-0.10613176971673965,-0.9414844512939453,0.9849900007247925,0.18668273091316223,-0.4033184051513672,0.8835342173673827,-0.02354651516379885,0.16942058507395502,0.4360157146500891
1681249439444442000,4.567442138671875,-1.360963225364685,-2.6198787689208984,-0.5441128015518188,0.27975544333457947,-0.08661673963069916,-0.9561560750007629,0.8482657670974731,0.30072787404060364,-0.42441338300704956,0.8879583205439696,-0.022955558202972435,0.1462703230700221,0.43543998429289416
1681249439459475000,4.582474853515625,-1.7152131795883179,-2.1096696853637695,-0.9762464165687561,0.24681589007377625,-0.06138189509510994,-0.9671164155006409,0.7414348125457764,0.5116380453109741,-0.34257596731185913,0.8925956332028834,-0.026380973722479106,0.1254823921457648,0.4322398401441765
1681249439474509000,4.597509033203125,-2.0468616485595703,-1.7583775520324707,-1.3504812717437744,0.21946825087070465,-0.02973359078168869,-0.9751664400100708,0.675200343132019,0.4972626864910126,-0.2770613431930542,0.8976210587943904,-0.03387196416282362,0.1061577342314006,0.42645016817357356
1681249439489542000,4.6125419921875,-2.363206148147583,-1.5183273553848267,-1.696086049079895,0.1958000510931015,0.007241306826472282,-0.980617105960846,0.6496131420135498,0.40747714042663574,0.007609903812408447,0.9029717483468527,-0.04465081543347699,0.08773683902068996,0.4182709544974728
1681249439504576300,4.627576171875,-2.985156536102295,-1.3199634552001953,-2.1908581256866455,0.17378945648670197,0.051724933087825775,-0.9834234714508057,0.6614003777503967,0.3050558865070343,0.19188904762268066,0.9088038705239435,-0.05937695738653754,0.06901183114750886,0.4071699166110087
1681249439519609000,4.642609130859375,-3.5961925983428955,-0.8791257739067078,-2.421665668487549,0.1545581966638565,0.10649900883436203,-0.9822269082069397,0.5652141571044922,0.09812116622924805,0.4850955605506897,0.914603540342566,-0.07979820291362237,0.050187492781191494,0.3932098164991247
1681249439534642200,4.65764208984375,-3.7608494758605957,-0.22772829234600067,-2.3436167240142822,0.14112958312034607,0.16656550765037537,-0.9758782386779785,0.4877614378929138,-0.031311795115470886,0.590975284576416,0.9191670768921999,-0.10450209244861165,0.03376660502466145,0.3782473416889531
1681249439549676300,4.67267626953125,-3.0316247940063477,0.43908461928367615,-2.470863103866577,0.1361807882785797,0.22235040366649628,-0.9654092788696289,0.3719826936721802,-0.1586146205663681,0.7470865249633789,0.9227549480073888,-0.12949311077711972,0.022954069441958387,0.36225414604373946
1681249439564709000,4.687709228515625,-1.911471962928772,0.8119125366210938,-2.5322816371917725,0.13583531975746155,0.2629745304584503,-0.9551927447319031,0.31419217586517334,-0.19974225759506226,0.7978135347366333,0.9267234174306755,-0.14858872258967934,0.018028384718417185,0.344644844380834
1681249439579743200,4.7027431640625,-1.063041090965271,1.0885357856750488,-2.425933599472046,0.13920260965824127,0.2887912094593048,-0.9472181797027588,0.2933535873889923,-0.11505481600761414,0.8992597460746765,0.9312650926623761,-0.16142924133015865,0.018207438855353447,0.3261202974238078
1681249439594776000,4.717776123046875,-0.6022504568099976,1.307600498199463,-2.070133686065674,0.14620868861675262,0.30527085065841675,-0.9409743547439575,0.28100693225860596,-0.16591250896453857,0.9298811554908752,0.9353972718336018,-0.17039742166572033,0.021852788539552002,0.30906165366715593
1681249439609810200,4.73281005859375,-0.340987890958786,1.4439748525619507,-1.9078491926193237,0.15659913420677185,0.31636929512023926,-0.9356212615966797,0.29532045125961304,-0.39377734065055847,0.9579753875732422,0.9390204985821821,-0.1772117311080236,0.02802436985773998,0.2933446256521502
1681249439624843000,4.747843017578125,-0.08114886283874512,1.4362468719482422,-1.6578598022460938,0.16819170117378235,0.3238261640071869,-0.9310467839241028,0.28667283058166504,-0.46786928176879883,0.9884961247444153,0.942240561789041,-0.18228815188094166,0.03532172109333408,0.27875805305985235
1681249439639876000,4.7628759765625,0.07739141583442688,1.468896746635437,-1.2680013179779053,0.18121929466724396,0.3274698257446289,-0.9273203611373901,0.285547137260437,-0.5396586656570435,1.0626505613327026,0.9448468952130187,-0.1855791883191146,0.04359097279597751,0.26631678745996834
1681249439654910200,4.77791015625,-0.11744464933872223,1.5839532613754272,-0.8483134508132935,0.19705970585346222,0.33037400245666504,-0.9230495691299438,0.26227569580078125,-0.5804199576377869,1.0908350944519043,0.9463871126183772,-0.1888873586951996,0.05288459521919459,0.2566638272914556
1681249439669943000,4.792943115234375,-0.6199756264686584,1.7820611000061035,-0.3225240111351013,0.21733564138412476,0.33714935183525085,-0.9160215854644775,0.19056236743927002,-0.6938389539718628,1.1285154819488525,0.9462825387678643,-0.1948822516337232,0.06332553610714964,0.2501201103067803
1681249439684977700,4.807977783203125,-1.560554027557373,1.9531539678573608,0.3487209379673004,0.24288344383239746,0.35090306401252747,-0.9043642282485962,0.1345427930355072,-0.7697570323944092,1.0998598337173462,0.94378406737194,-0.20552119508515226,0.07469213548712955,0.24789888290320988
1681249439700010500,4.823010498046875,-1.1403471231460571,2.4017179012298584,1.0908875465393066,0.2753741443157196,0.3646259903907776,-0.8895037770271301,0.11346566677093506,-0.8325827121734619,0.9782640933990479,0.9391108482818374,-0.2177530871523947,0.08849687058111995,0.2506449030314947
1681249439715044900,4.838044921875,-1.0685933828353882,3.2187342643737793,1.7620152235031128,0.32055753469467163,0.37267571687698364,-0.8708361983299255,0.09797585010528564,-0.8706464767456055,0.8353136777877808,0.9325984104356482,-0.2296879774379057,0.1087443247484543,0.2562780220383002
1681249439730077700,4.85307763671875,-0.3521515429019928,4.1352152824401855,2.8222639560699463,0.3801155388355255,0.37106209993362427,-0.8472455739974976,0.26142504811286926,-0.5989217758178711,0.44616830348968506,0.9233874809724794,-0.2403056674990872,0.13649316588975619,0.2664177160429483
1681249439745111800,4.86811181640625,0.6815125942230225,4.11203670501709,3.8882193565368652,0.45172181725502014,0.3492854833602905,-0.820942759513855,0.43907105922698975,-0.30958232283592224,0.10199439525604248,0.9116826646174371,-0.24473499907746038,0.17214355250195876,0.28161326698913014
1681249439760144600,4.88314453125,2.0973916053771973,3.5415332317352295,5.032200813293457,0.5194640755653381,0.2994876801967621,-0.8002901077270508,0.9896149635314941,0.573284387588501,-0.7173643708229065,0.8989983945384528,-0.2370477978534436,0.20895764833039632,0.3032276887936896
1681249439775177700,4.898177734375,3.8744263648986816,3.685616970062256,5.146202087402344,0.5827295184135437,0.22174394130706787,-0.7818286418914795,1.259006381034851,0.7604183554649353,-0.8816388249397278,0.8855320253310142,-0.21705343223085372,0.24894476611585642,0.326722262130852
1681249439790211600,4.913211669921875,4.201063632965088,2.3883585929870605,4.049530982971191,0.6326902508735657,0.12834587693214417,-0.763695240020752,1.083862543106079,0.5513566732406616,-0.9391398429870605,0.8737510336610116,-0.18702376258840137,0.28839986508208904,0.3441030294473756
1681249439805244700,4.92824462890625,1.90449059009552,1.2484480142593384,3.068103313446045,0.656274676322937,0.05883347615599632,-0.7522248029708862,1.2337552309036255,0.752567708492279,-0.7805052995681763,0.8651806743678323,-0.16282572862808264,0.31205027628227877,0.3571762139933397
1681249439820278500,4.943278564453125,-1.8824483156204224,1.6146869659423828,2.8532512187957764,0.6739456653594971,0.028522510081529617,-0.7382301092147827,1.4066970348358154,0.33753564953804016,-0.46201092004776,0.8536543526692263,-0.15928047384546054,0.3248302124771282,0.37468563618001205
1681249439835311600,4.9583115234375,-4.267991542816162,1.8524097204208374,2.5604519844055176,0.6948265433311462,0.03655138239264488,-0.7182479500770569,1.113950252532959,-0.1885748952627182,-0.5276016592979431,0.8372421260859638,-0.178624511023871,0.33010498384143144,0.3976803779793216
1681249439850345700,4.973345703125,-4.769090175628662,1.321772575378418,2.0636465549468994,0.7139759063720703,0.060657527297735214,-0.6975378394126892,0.7383708357810974,-0.25004979968070984,-0.6751580238342285,0.8193338939483519,-0.20645725633959847,0.32955495327647505,0.42126104528967473
1681249439865378600,4.988378662109375,-4.543729782104492,0.44633665680885315,1.5446792840957642,0.7251372933387756,0.09024228900671005,-0.6826655864715576,0.8339142799377441,0.024808794260025024,-0.8402225971221924,0.8035632599875506,-0.2336977244464544,0.322571804000757,0.44228837976218893
1681249439880412700,5.00341259765625,-3.7507522106170654,-0.17642275989055634,1.2627021074295044,0.7283570766448975,0.1175898090004921,-0.6750322580337524,0.56758713722229,0.3944644629955292,-0.8748487234115601,0.7909601767059182,-0.25569001437145333,0.3116191305788523,0.46032384297510937
1681249439895445500,5.018445556640625,-2.989403009414673,-0.5457704067230225,1.1440786123275757,0.7268590927124023,0.13849815726280212,-0.6726768016815186,0.3499535918235779,0.5192927718162537,-0.862860918045044,0.7809873764725046,-0.27142937693408203,0.2999794850135379,0.4758119965026408
1681249439910478600,5.033478515625,-2.5641088485717773,-0.9024068713188171,1.1610599756240845,0.7219770550727844,0.15381726622581482,-0.6746031641960144,-0.08696728944778442,0.6112735271453857,-0.6947664022445679,0.7726925866312968,-0.2822943933547473,0.28811161252268525,0.4901508394808086
1681249439925512400,5.048512451171875,-2.1637701988220215,-1.0851439237594604,1.0411218404769897,0.7144356369972229,0.16594691574573517,-0.6797377467155457,-0.23909389972686768,0.5222700834274292,-0.5950884222984314,0.765506453857284,-0.2899289697622485,0.27581213392950593,0.5038539607388783
1681249439940545500,5.063545654296875,-1.491904854774475,-1.1392146348953247,0.7231733798980713,0.7052153944969177,0.17544683814048767,-0.6869422197341919,-0.56646728515625,0.3011460304260254,-0.4559716582298279,0.7603674162437124,-0.2944083678676972,0.26429641552451194,0.5150849646139041
1681249439955579600,5.07857958984375,-0.8623306751251221,-1.3473596572875977,0.3867727220058441,0.6939747929573059,0.18133510649204254,-0.6967902183532715,-0.7096914052963257,0.17047135531902313,-0.4091058373451233,0.7579845412071937,-0.2950358371056029,0.25408415907888593,0.5233110730462894
1681249439970612700,5.09361279296875,-0.3099510371685028,-1.565366268157959,-0.08943668752908707,0.6788691878318787,0.18602922558784485,-0.7103025913238525,-0.9862575531005859,0.041646987199783325,-0.34993916749954224,0.7587781650447321,-0.2923448210660283,0.243686731574121,0.5285895269668475
1681249439985646800,5.108646728515625,0.43557479977607727,-1.5164580345153809,-0.8783033490180969,0.6606500148773193,0.19012458622455597,-0.726219117641449,-1.1109063625335693,0.004241675138473511,-0.3120194673538208,0.7635622780104331,-0.2866417046689772,0.23393800069066728,0.5292278192224943
1681249440000679700,5.1236796875,1.0380927324295044,-1.1105446815490723,-1.6248915195465088,0.6421889662742615,0.1942528337240219,-0.7415249347686768,-1.4623489379882812,-0.010186225175857544,-0.2957829236984253,0.7725348083847628,-0.27917588918853653,0.22649142844246475,0.5234046750044667
1681249440015713800,5.1387138671875,1.7021366357803345,-0.7210991382598877,-1.9682615995407104,0.6267215013504028,0.19618886709213257,-0.7541419863700867,-1.5776951313018799,-0.009650349617004395,-0.2650383710861206,0.7839960715241694,-0.2707091677714881,0.22281282884322784,0.5122707182522773
1681249440030746600,5.15374658203125,2.0952789783477783,-0.5973387956619263,-2.13108491897583,0.6134220361709595,0.19361265003681183,-0.765654981136322,-1.5335575342178345,-0.12679457664489746,-0.16246092319488525,0.7966247433891206,-0.260442528558004,0.2221310192471108,0.49821335391814364
1681249440045766400,5.168766357421875,2.535536766052246,-0.6188344955444336,-2.3068015575408936,0.5999599695205688,0.18688596785068512,-0.7778956294059753,-1.3715054988861084,-0.16628660261631012,-0.05401355028152466,0.9428403026204939,-0.09910796711501009,0.3181662849258004,-1.8164952426113492e-18
1681249440060800300,5.18380029296875,2.9404475688934326,-0.8115717768669128,-2.3502328395843506,0.5853082537651062,0.17546546459197998,-0.7915971875190735,-1.041454553604126,-0.08438576757907867,-0.0037977099418640137,0.9462016364628499,-0.0853564153612424,0.3113128405697921,-0.022383772977664227
1681249440075833300,5.198833251953125,3.460219621658325,-0.9159902930259705,-2.444026470184326,0.568779706954956,0.15774129331111908,-0.8072220087051392,-0.846489667892456,0.023761987686157227,0.06204378604888916,0.9494491969736729,-0.06825347430202716,0.3028703546231566,-0.046447073681684894
1681249440090867200,5.2138671875,3.887486219406128,-1.1473913192749023,-2.3908376693725586,0.550845205783844,0.1330944150686264,-0.8239268064498901,-0.5899840593338013,0.1838153451681137,0.1652812361717224,0.9522846435341833,-0.04788512905854299,0.29282010137208464,-0.07153517472147969
1681249440105900300,5.228900390625,4.2721991539001465,-1.3544052839279175,-2.2136428356170654,0.5304610729217529,0.10064943134784698,-0.8417129516601562,-0.44597315788269043,0.22927609086036682,0.20272064208984375,0.9547337797538009,-0.02434024485541312,0.28026962614900164,-0.0966435844353261
1681249440120934100,5.24393408203125,4.343696117401123,-1.1300286054611206,-1.692481517791748,0.5116636157035828,0.06089396774768829,-0.8570252656936646,-0.30893534421920776,0.2683601677417755,0.03749096393585205,0.9561455983843805,0.0015933248057660545,0.2673664805635472,-0.11957532632718122
1681249440135967200,5.25896728515625,5.217106819152832,-0.8217695355415344,-0.5832900404930115,0.49848267436027527,0.008943730033934116,-0.8668535351753235,-0.31838321685791016,0.30711156129837036,-0.11776560544967651,0.9563237092740963,0.03209983299874245,0.256013356100852,-0.13737445911157764
1681249440151001000,5.2740009765625,5.643085479736328,-0.4984109103679657,0.4250069260597229,0.4897094666957855,-0.06367285549640656,-0.8695576190948486,-0.29448848962783813,0.39747411012649536,-0.7545878887176514,0.9553415733581033,0.07147780162970925,0.2451777499326376,-0.14866474193828572
1681249440166034200,5.2890341796875,4.596131324768066,-0.8246724009513855,0.5822327733039856,0.4811198115348816,-0.1354488581418991,-0.8661277890205383,-0.09301251173019409,0.6644099950790405,-1.0910866260528564,0.9535834718229171,0.10893986876718237,0.23466616490987394,-0.15408624517648148
1681249440181067300,5.3040673828125,2.9158918857574463,-1.5391665697097778,0.573375403881073,0.46407830715179443,-0.18862038850784302,-0.8654788732528687,0.38336431980133057,0.708090603351593,-0.8351894617080688,0.9527972259456031,0.13560708987817635,0.2210684932833065,-0.15785092108610674
1681249440196101000,5.31910107421875,0.7777482271194458,-1.8736084699630737,0.6963753700256348,0.4393647313117981,-0.2174554318189621,-0.8715915679931641,0.5803954005241394,0.417055606842041,-0.6213741302490234,0.9543820946408311,0.14796857151268303,0.20569280331643386,-0.15795809110735193
1681249440211134200,5.33413427734375,-0.6546022295951843,-2.123600959777832,0.4353322684764862,0.41149523854255676,-0.22109313309192657,-0.8841886520385742,0.8997688293457031,-0.023078009486198425,-0.3697328567504883,0.9580075847467147,0.14646922378392244,0.19092524574283568,-0.15593569124043097
1681249440226168300,5.349168212890625,-1.7179499864578247,-2.1884241104125977,0.40095511078834534,0.38051337003707886,-0.20766441524028778,-0.9011576175689697,0.9758861064910889,0.1331404745578766,-0.2932698726654053,0.9627923882285462,0.1359199552700958,0.17591746028522845,-0.15365439765769479
1681249440241201400,5.364201416015625,-2.969320058822632,-1.8596303462982178,0.11369486153125763,0.3522680103778839,-0.17704325914382935,-0.919001042842865,0.9686242938041687,0.17116862535476685,-0.24866247177124023,0.9678644791036347,0.116974358663132,0.16375734173819323,-0.15079446553253797
1681249440256235300,5.3792353515625,-4.038777828216553,-1.5489124059677124,-0.02054310403764248,0.3282983899116516,-0.12795433402061462,-0.935867428779602,0.7820836305618286,0.07772240042686462,-0.17292773723602295,0.972695251997954,0.08932976724444426,0.15519819581581243,-0.1476400722518528
1681249440271268400,5.394268310546875,-4.806596279144287,-1.2490577697753906,-0.18956461548805237,0.30883482098579407,-0.06459043174982071,-0.948919951915741,0.6402161121368408,0.11750790476799011,0.014380156993865967,0.976584986966726,0.05518772250008631,0.14998108743614727,-0.14402006281610433
1681249440286302200,5.40930224609375,-5.432338714599609,-1.1002174615859985,-0.5431317090988159,0.29212716221809387,0.010488325729966164,-0.9563219547271729,0.5862450003623962,0.12388055771589279,0.13227111101150513,0.9788793548814492,0.0158465600045111,0.1469282058412875,-0.14126649858099294
1681249440301335300,5.424335205078125,-5.859882831573486,-0.9175189733505249,-0.8146029114723206,0.2768784463405609,0.09496423602104187,-0.956200897693634,0.5293806791305542,0.16614416241645813,0.36455661058425903,0.9790150209462669,-0.027695909646094762,0.14537020177189458,-0.14010714947157082
1681249440316368400,5.439368408203125,-5.937076568603516,-0.6036092042922974,-1.0054279565811157,0.2640267610549927,0.18345966935157776,-0.9469067454338074,0.48385223746299744,0.08515603840351105,0.43320441246032715,0.9766412291894097,-0.07303211927927428,0.14564658367243014,-0.14009017951656413
1681249440331402200,5.45440234375,-5.8296308517456055,-0.17677217721939087,-1.0976167917251587,0.2547578811645508,0.27072903513908386,-0.92833411693573,0.3587369918823242,0.025688201189041138,0.5192917585372925,0.9717376232220302,-0.11779374047043792,0.1481808852094737,-0.14104320821515523
1681249440346435300,5.469435302734375,-5.48420524597168,0.20391498506069183,-1.1439754962921143,0.24970459938049316,0.35301968455314636,-0.9016788601875305,0.31603023409843445,-0.03870394825935364,0.546500027179718,0.9645970331265654,-0.16031295413772828,0.15316768843375278,-0.1428006760655366
1681249440361469200,5.48446923828125,-5.047954559326172,0.523485541343689,-1.1595818996429443,0.24771104753017426,0.42738059163093567,-0.8694739937782288,0.26289379596710205,-0.12923914194107056,0.584790825843811,0.9558082574302367,-0.19922945327100158,0.1599081632372746,-0.14549064888756347
1681249440376502300,5.499502197265625,-4.499310493469238,0.9425075650215149,-1.1509239673614502,0.24951884150505066,0.4935835599899292,-0.8331360220909119,0.24195146560668945,-0.2175215780735016,0.5652222037315369,0.9457055292951261,-0.2343523531393029,0.16885192445574476,-0.1490267912392757
1681249440391536000,5.5145361328125,-3.541746139526367,0.969855546951294,-1.0439380407333374,0.25244617462158203,0.5471186637878418,-0.798080325126648,0.18870067596435547,-0.3914026618003845,0.5523680448532104,0.9356879809459538,-0.2631750032047152,0.1780414804248868,-0.15338914986254887
1681249440406569200,5.5295693359375,-2.477501153945923,1.0580010414123535,-0.8671313524246216,0.2562362551689148,0.5862313508987427,-0.7685543298721313,0.2638900876045227,-0.4414407014846802,0.5326839685440063,0.9269879987726346,-0.2843785196347678,0.1866860596700993,-0.1580204301264241
1681249440421603300,5.544603271484375,-1.6051671504974365,1.1571646928787231,-0.7781716585159302,0.26146697998046875,0.6125679016113281,-0.7459193468093872,0.24666592478752136,-0.5643959045410156,0.4631739854812622,0.9199472218537866,-0.298318789346101,0.19505445447719238,-0.16326932312944803
1681249440436636200,5.55963623046875,-0.8786513805389404,1.1496220827102661,-0.6233184337615967,0.26772215962409973,0.6290897727012634,-0.7297746539115906,0.18880555033683777,-0.6692814230918884,0.4388200044631958,0.9145226122810621,-0.3064512404774241,0.2029786168718512,-0.16892560259095965
1681249440451670500,5.57467041015625,-0.2579885721206665,1.0729001760482788,-0.42364370822906494,0.2749332785606384,0.6374426484107971,-0.7197767496109009,0.10218769311904907,-0.7988958954811096,0.4868208169937134,0.9107843689531169,-0.30973087631937435,0.21018661559987195,-0.17424175679719023
1681249440466703400,5.589703369140625,0.2700880467891693,0.9175319075584412,-0.22590211033821106,0.2826409637928009,0.6386135220527649,-0.7157421708106995,0.0765509307384491,-0.8226345777511597,0.5260143280029297,0.9087898662140784,-0.30880349390581574,0.21626214895747228,-0.1788074701633895
1681249440481736200,5.604736083984375,0.5786197185516357,0.8540288209915161,0.022674940526485443,0.29096752405166626,0.6343321800231934,-0.7162126302719116,0.12536850571632385,-0.8017058968544006,0.6039994955062866,0.9082235847689178,-0.3047814309784886,0.22136386719869475,-0.18230807675355715
1681249440496770300,5.619770263671875,0.5313795804977417,1.0368297100067139,0.6169902682304382,0.3035481870174408,0.6267498135566711,-0.7176650762557983,0.1328989565372467,-0.8185070753097534,0.6299117803573608,0.9083917805137018,-0.2990373000166771,0.2274734129262356,-0.18345833749813878
1681249440511803400,5.634803466796875,0.3902868926525116,1.6908605098724365,1.512271761894226,0.3278334438800812,0.6168654561042786,-0.7155433893203735,0.13134929537773132,-0.8807509541511536,0.6729103326797485,0.9085293369262929,-0.2923150942946331,0.23828595317222373,-0.1798506593274394
1681249440526837200,5.649837158203125,0.3442919850349426,2.466912031173706,2.3874459266662598,0.3681586682796478,0.6028375029563904,-0.7078461050987244,0.13730394840240479,-0.8916711211204529,0.6869110465049744,0.9079728721324196,-0.2834669273236313,0.2563658390065823,-0.17177980758148345
1681249440541870300,5.664870361328125,0.47530773282051086,2.6147961616516113,3.0798144340515137,0.4199133813381195,0.5821180939674377,-0.6962838768959045,0.3702629804611206,-0.627177357673645,0.6082406044006348,0.9070863745291813,-0.2718839814726846,0.27917229681726874,-0.1591734042550982
1681249440556904200,5.679904296875,0.5650602579116821,2.422024965286255,3.816638708114624,0.47545579075813293,0.5531947612762451,-0.6840448379516602,0.6207966208457947,-0.24963641166687012,0.39774417877197266,0.9065594517352118,-0.2576981330058309,0.3026041229335897,-0.14202945441849793
1681249440571937300,5.694937255859375,-0.2805642783641815,2.054183006286621,4.246829509735107,0.5318082571029663,0.5197311043739319,-0.6686250567436218,1.3330751657485962,0.4982437491416931,-0.1857144832611084,0.9056636634682143,-0.24426384393787612,0.32561117276097495,-0.1186834896398872
1681249440586971400,5.709971435546875,-1.6657209396362305,1.336729884147644,3.7836103439331055,0.5790815353393555,0.4955204725265503,-0.6473978757858276,1.541295051574707,0.7724086046218872,-0.5561085939407349,0.9029048014860988,-0.23924950969443629,0.3450517841183879,-0.09198825246226609
1681249440602004200,5.725004150390625,-2.9389524459838867,0.7311322093009949,3.520930767059326,0.6156666874885559,0.48535457253456116,-0.6207942366600037,1.7265880107879639,0.571209728717804,-0.8429356813430786,0.8980100320891393,-0.24496399930012103,0.3599937835877828,-0.0630487601209792
1681249440617037300,5.740037353515625,-3.344688653945923,0.12774617969989777,3.4774136543273926,0.6451364755630493,0.4810555875301361,-0.5936198234558105,1.7227224111557007,0.6357351541519165,-0.899864673614502,0.8920892390655378,-0.2565728991830697,0.37062170403698896,-0.031411741341834366
1681249440632071200,5.7550712890625,-3.5572545528411865,-0.34174808859825134,2.9672958850860596,0.6675567030906677,0.47915610671043396,-0.5698925852775574,1.3264312744140625,1.0994418859481812,-0.9146960377693176,0.8859719774766738,-0.2704642268467439,0.37669988920769687,0.00012125487706362313
1681249440647104300,5.770104248046875,-3.821505308151245,-0.6173250675201416,2.594468116760254,0.6834210753440857,0.48209044337272644,-0.5482010245323181,1.0483903884887695,1.1858782768249512,-0.8592391014099121,0.8793142496120775,-0.28710114789226354,0.3787775225676268,0.030115059455865574
1681249440662138000,5.78513818359375,-3.6783502101898193,-0.9123851656913757,2.133786916732788,0.6946565508842468,0.4881201982498169,-0.5283851623535156,0.5618894100189209,1.1218804121017456,-0.6456565260887146,0.8722451909895499,-0.304996040938688,0.377868790397544,0.05814514099614499
1681249440677171200,5.800171142578125,-3.564593553543091,-1.2168759107589722,1.7157013416290283,0.7004546523094177,0.49624529480934143,-0.5129364728927612,0.3283538818359375,1.0030527114868164,-0.532015860080719,0.8657398246701169,-0.32259601281079736,0.3734482309994656,0.08344280740193917
1681249440692204000,5.8152041015625,-3.4479827880859375,-1.4414459466934204,1.4166738986968994,0.7018879652023315,0.5068680644035339,-0.5004377365112305,-0.0655202865600586,0.8747541904449463,-0.33623212575912476,0.8595659813386632,-0.34024274961442985,0.3660819427207133,0.10660744694887087
1681249440707236900,5.83023681640625,-3.2399542331695557,-1.488412618637085,1.4295363426208496,0.7017892003059387,0.5167801380157471,-0.49033674597740173,-0.2715371251106262,0.7601057887077332,-0.3042036294937134,0.8535750075857358,-0.3566105874562581,0.35729612293744345,0.1287554199937291
1681249440722271000,5.84527099609375,-2.999236822128296,-1.4931591749191284,1.3225830793380737,0.70176762342453,0.5250179171562195,-0.4815375804901123,-0.593704879283905,0.5515201687812805,-0.2871696949005127,0.8475236688150724,-0.371347805586031,0.34832746562518235,0.1499080599281284
1681249440737304000,5.860303955078125,-2.6820311546325684,-1.522354006767273,1.3179086446762085,0.7012214660644531,0.5317139625549316,-0.47494083642959595,-0.7575569152832031,0.42884206771850586,-0.25566524267196655,0.841792396320277,-0.3842253506105273,0.33896971031457357,0.16987062231708577
1681249440752338000,5.875337890625,-2.280494451522827,-1.4909555912017822,1.2499942779541016,0.7009609937667847,0.5355294346809387,-0.4710223078727722,-1.0321835279464722,0.21749180555343628,-0.19604617357254028,0.836578014369598,-0.3945277148293151,0.32990412406947,0.18880789635268264
1681249440767371000,5.89037109375,-1.825153112411499,-1.457101583480835,0.8633363842964172,0.6993472576141357,0.5385746359825134,-0.4699476659297943,-1.1962039470672607,0.13565021753311157,-0.19219225645065308,0.8323883576199885,-0.40260155446761287,0.3208397560569529,0.20519131294357926
1681249440782403800,5.90540380859375,-1.197557806968689,-1.307758092880249,0.154590904712677,0.6937242150306702,0.5440093278884888,-0.47201746702194214,-1.49532949924469,0.07804566621780396,-0.16932466626167297,0.8302405853791887,-0.4086830405826394,0.3113991730183146,0.21612319585996792
1681249440797438000,5.92043798828125,-0.5482208728790283,-1.1831624507904053,-0.6050376892089844,0.6830278038978577,0.5523529052734375,-0.47789040207862854,-1.593443512916565,0.048889100551605225,-0.16290244460105896,0.8308256485359024,-0.41247965605641274,0.30152169006133567,0.2206216932316421
1681249440812471000,5.935470947265625,-0.23258721828460693,-1.1416053771972656,-1.3562504053115845,0.6663186550140381,0.5648234486579895,-0.486820250749588,-1.633725881576538,-0.028477013111114502,-0.18006515502929688,0.8339839723772411,-0.414882407580027,0.29062426135033675,0.21881707252893703
1681249440827505000,5.9505048828125,-0.11110206693410873,-1.1360766887664795,-1.8773146867752075,0.6438407897949219,0.5825445652008057,-0.49609556794166565,-1.6035881042480469,-0.13656067848205566,-0.13975346088409424,0.838406888777476,-0.41786979107797656,0.278095406717943,0.21241856765758796
1681249440842538000,5.9655380859375,0.4643435478210449,-1.1267156600952148,-2.2657527923583984,0.6169191002845764,0.6008684635162354,-0.508298933506012,-1.5071930885314941,-0.26754021644592285,-0.02140986919403076,0.8444485604661208,-0.41928322820602815,0.2646735711669086,0.20262278540021258
1681249440857571800,5.98057177734375,0.9393255114555359,-1.0541106462478638,-2.512256383895874,0.5861558318138123,0.6170018911361694,-0.5251001119613647,-1.420307993888855,-0.21508538722991943,0.0008233189582824707,0.8524805404426766,-0.417631509698075,0.2510654820487655,0.18928042826298966
1681249440872605000,5.99560498046875,1.1243979930877686,-0.9973158240318298,-2.6041817665100098,0.5539126396179199,0.6304759979248047,-0.5437654256820679,-1.28328275680542,-0.06925773620605469,-0.010174393653869629,0.8611459076924893,-0.41416097973976274,0.23788228785350107,0.17409890374991213
1681249440887638800,6.010638671875,0.8177103996276855,-0.8706864714622498,-2.7235755920410156,0.5204287171363831,0.6435974836349487,-0.5611919164657593,-1.1552400588989258,-0.06220710277557373,0.017826437950134277,0.8693025574135353,-0.410979691249387,0.2247214779424504,0.15782631377004566
1681249440902672000,6.025671875,-0.11847710609436035,-0.8371468782424927,-3.273155927658081,0.48502659797668457,0.6622785329818726,-0.5710834860801697,-0.8740341663360596,0.01721060276031494,0.05333751440048218,0.8750705338805841,-0.41231303649796996,0.2108464261800666,0.14068874301394715
1681249440917705700,6.040705810546875,-1.4851559400558472,-1.270627498626709,-4.41586971282959,0.43657389283180237,0.6959978938102722,-0.5700790286064148,-0.7290086150169373,0.09941226243972778,0.05468297004699707,0.8779611520726184,-0.422352148904031,0.19125673058081075,0.11926296991316543
1681249440932738800,6.05573876953125,-0.22789467871189117,-1.373653531074524,-3.9446139335632324,0.3782667815685272,0.7326069474220276,-0.5658632516860962,-0.491426020860672,0.7717570066452026,-0.26435214281082153,0.8794775442655588,-0.43495797252131874,0.16697284027293458,0.09721520094959839
1681249440947772000,6.07077197265625,1.437767744064331,-0.4100014567375183,-4.027184963226318,0.3280872702598572,0.7457346320152283,-0.5798607468605042,-0.35141798853874207,1.254326343536377,-0.5126838088035583,0.8857244269009739,-0.4333768525117409,0.14917819349048422,0.0736376935211643
1681249440962806000,6.085805908203125,1.3182183504104614,-1.3195418119430542,-5.490614891052246,0.2675846219062805,0.7542508244514465,-0.5995866656303406,-0.2090824544429779,2.5567386150360107,-0.8358839750289917,0.8933182012050371,-0.42827466576455314,0.12956654176265522,0.042141560676565964
1681249440977839000,6.100839111328125,0.7256355285644531,-1.9692188501358032,-5.115397930145264,0.18963780999183655,0.764142632484436,-0.6165415644645691,0.21880944073200226,2.5010247230529785,-0.7067921161651611,0.8989793895479041,-0.4261615612546902,0.10057602652593337,0.010332062282041294
1681249440992873000,6.115873046875,0.6237964630126953,-2.254193067550659,-4.073048114776611,0.11665309220552444,0.7686518430709839,-0.628940761089325,1.3028873205184937,1.7680913209915161,-0.761318027973175,0.902363541863137,-0.4247613235412399,0.07146635338743784,-0.014507171672270034
1681249441007906000,6.130906005859375,0.6146929860115051,-2.187697410583496,-4.553480625152588,0.045819830149412155,0.7674340605735779,-0.6394884586334229,1.536760687828064,1.8821020126342773,-0.6968762874603271,0.9046381508319427,-0.42241939096480585,0.042633620304004825,-0.03706762526431459
1681249441022940000,6.14593994140625,0.2123248279094696,-2.1965930461883545,-4.529355525970459,-0.02889998070895672,0.7640771865844727,-0.6444771885871887,1.269225835800171,1.6057500839233398,-0.3956839442253113,0.904686149239112,-0.4214270783699735,0.012673535331526436,-0.06149477124293434
1681249441037973000,6.160972900390625,-0.3877640664577484,-1.6456570625305176,-3.9167392253875732,-0.09609019011259079,0.7605878114700317,-0.6420847177505493,1.3032587766647339,1.3388383388519287,-0.2471058964729309,0.9021963765534605,-0.4228083971161916,-0.013809656762122828,-0.08416595126724101
1681249441053006800,6.1760068359375,-1.4545916318893433,-1.0045924186706543,-3.500256299972534,-0.15093199908733368,0.761883556842804,-0.629883348941803,1.1870800256729126,0.548083484172821,0.028809189796447754,0.8966216097114365,-0.4288400660081236,-0.03397811973242005,-0.10493535849389253
1681249441068040000,6.1910400390625,-2.253661632537842,-0.192938894033432,-3.0320470333099365,-0.19433161616325378,0.7712867259979248,-0.6060957908630371,1.1352038383483887,0.2406914234161377,0.1449751853942871,0.887270211169242,-0.441297715330162,-0.04699394320649948,-0.12569629030668217
1681249441083073800,6.20607373046875,-2.3321378231048584,0.3942052721977234,-2.4803738594055176,-0.2253439873456955,0.7834046483039856,-0.579221248626709,1.1066763401031494,-0.13853776454925537,0.373197078704834,0.8766813831543111,-0.4555936077097734,-0.053139805795679444,-0.14505321591545706
1681249441098107000,6.22110693359375,-2.0723438262939453,0.9230771660804749,-2.1663641929626465,-0.24727849662303925,0.7940688133239746,-0.5552550554275513,1.1596472263336182,-0.28462356328964233,0.38911736011505127,0.86654743553524,-0.4684256457219894,-0.05431288863508269,-0.1634721684889065
