,seconds_elapsed,rotationRateX,rotationRateY,rotationRateZ,gravityX,gravityY,gravityZ,accelerationX,accelerationY,accelerationZ,quaternionW,quaternionX,quaternionY,quaternionZ
0,0.0,0.29115665727664564,0.13257400198736993,-0.0024667848446777545,0.14758297699897313,-0.06292319671133292,-0.9870534778353027,0.057369753787814975,0.11263214487995302,0.04564721411243454,0.9967586193682102,0.03138476753206919,0.07411163141919436,0.00238912786088144
1,0.01,0.2742919613996512,0.1248488062626063,-0.0043430803863080715,0.14765738590869687,-0.06314782332940895,-0.9870271095575189,0.054580078880119356,0.10513566572646454,0.042298798361227116,0.9967519703499078,0.03150906244584142,0.07414435493831621,0.002237171505551397
2,0.02,0.2574272655226567,0.1171236105378427,-0.006219375927938385,0.1477317948184206,-0.06337244994748499,-0.9870007412797352,0.05179040397242374,0.0976391865729761,0.03895038261001971,0.9967453213316053,0.031633357359613645,0.07417707845743808,0.0020852151502213537
3,0.03,0.24056256964566222,0.10939841481307908,-0.008095671469568702,0.14780620372814435,-0.06359707656556102,-0.9869743730019515,0.04900072906472812,0.09014270741948763,0.035601966858812284,0.9967386723133028,0.031757652273385874,0.07420980197655995,0.0019332587948913107
4,0.04,0.22369787376866773,0.10167321908831546,-0.009971967011199019,0.1478806126378681,-0.06382170318363706,-0.9869480047241678,0.0462110541570325,0.08264622826599916,0.03225355110760486,0.9967320232950003,0.03188194718715811,0.0742425254956818,0.0017813024395612676
5,0.05,0.20683317789167327,0.09394802336355185,-0.011848262552829336,0.14795502154759183,-0.06404632980171308,-0.986921636446384,0.04342137924933688,0.0751497491125107,0.028905135356397448,0.9967253742766978,0.03200624210093034,0.07427524901480367,0.0016293460842312245
6,0.06,0.1899684820146788,0.08622282763878823,-0.01372455809445965,0.14802943045731556,-0.06427095641978912,-0.9868952681686003,0.04063170434164126,0.06765326995902224,0.025556719605190032,0.9967187252583953,0.032130537014702566,0.07430797253392554,0.0014773897289011816
7,0.07,0.17310378613768432,0.07849763191402462,-0.015600853636089967,0.1481038393670393,-0.06449558303786515,-0.9868688998908166,0.03784202943394564,0.06015679080553377,0.022208303853982612,0.9967120762400928,0.032254831928474795,0.0743406960530474,0.0013254333735711382
8,0.08,0.15623909026068986,0.070772436189261,-0.01747714917772028,0.14817824827676304,-0.06472020965594119,-0.9868425316130328,0.035052354526250024,0.05266031165204532,0.018859888102775196,0.9967054272217905,0.03237912684224702,0.07437341957216927,0.0011734770182410953
9,0.09,0.13937439438369542,0.0630472404644974,-0.019353444719350597,0.14825265718648678,-0.06494483627401723,-0.9868161633352491,0.03226267961855441,0.04516383249855686,0.01551147235156778,0.996698778203488,0.03250342175601925,0.07440614309129114,0.0010215206629110522
10,0.1,0.12250969850670093,0.055322044739733775,-0.021229740260980914,0.14832706609621052,-0.06516946289209326,-0.9867897950574653,0.02947300471085879,0.03766735334506839,0.01216305660036036,0.9966921291851855,0.03262771666979148,0.07443886661041299,0.000869564307581009
11,0.11,0.10564500262970647,0.04759684901497016,-0.02310603580261123,0.14840147500593426,-0.0653940895101693,-0.9867634267796817,0.026683329803163174,0.03017087419157993,0.008814640849152944,0.996685480166883,0.032752011583563716,0.07447159012953486,0.000717607952250966
12,0.12,0.08878030675271201,0.03987165329020655,-0.024982331344241545,0.148475883915658,-0.06561871612824532,-0.9867370585018979,0.023893654895467555,0.022674395038091467,0.005466225097945528,0.9966788311485805,0.032876306497335944,0.07450431364865673,0.000565651596920923
13,0.13,0.07191561087571752,0.03214645756544293,-0.026858626885871862,0.14855029282538174,-0.06584334274632136,-0.9867106902241142,0.021103979987771936,0.015177915884602999,0.0021178093467381087,0.996672182130278,0.03300060141110817,0.07453703716777858,0.0004136952415908797
14,0.14,0.05505091499872304,0.02442126184067931,-0.028734922427502183,0.14862470173510547,-0.06606796936439739,-0.9866843219463304,0.018314305080076313,0.007681436731114529,-0.0012306064044693118,0.9966655331119755,0.0331248963248804,0.07456976068690045,0.00026173888626083644
15,0.15,0.03818621912172861,0.01669606611591571,-0.030611217969132493,0.1486991106448292,-0.06629259598247343,-0.9866579536685467,0.015524630172380701,0.00018495757762607926,-0.0045790221556767235,0.9966588840936731,0.03324919123865263,0.07460248420602231,0.00010978253093079366
16,0.16,0.02132152324473412,0.008970870391152089,-0.03248751351076281,0.14877351955455295,-0.06651722260054946,-0.9866315853907629,0.01273495526468508,-0.007311521575862391,-0.007927437906884143,0.9966522350753706,0.03337348615242486,0.07463520772514418,-4.217382439924957e-05
17,0.17,0.010191794204430733,0.0018200627064074175,-0.03771509566409376,0.14883058168336516,-0.0667091494702892,-0.98661002962747,0.010440587084603813,-0.012924708086398855,-0.00967644102439947,0.9966467961193997,0.033482414213619444,0.07465865035722156,-0.00020851102679292127
18,0.18,0.020061031575705046,-0.003155294116010421,-0.050609165626904026,0.148843766856763,-0.0668338193474559,-0.9865995988497902,0.009757926786250827,-0.009452442870197236,-0.006856219040154681,0.996644138314048,0.03356165730640192,0.07465798145233604,-0.0004302112816284864
19,0.19,0.048972043910988056,-0.005335631547506969,-0.05853339572739586,0.14886746343163215,-0.06710417198523472,-0.9865776591987021,0.009141952762857864,0.005354623674686651,-0.003196713788539022,0.9966386548051163,0.03370017096644242,0.0746690344826606,-0.0004662154213587752
20,0.2,0.08134647565786668,-0.003051367709877011,-0.06288571666818711,0.1489124011574977,-0.06768957528964163,-0.9865308533144039,0.0058521397114494125,0.015026988708483279,0.0010407038516982096,0.9966271375000886,0.03396624048985939,0.07470501339135709,-9.216509116772434e-05
21,0.21,0.0867096668197134,0.0015149736333290435,-0.0658246887275421,0.1489982783546309,-0.06843573385738606,-0.9864664201169032,0.000548622715118189,0.006307908207010986,0.006226865624037771,0.9966108524842238,0.03436823187356837,0.074736825438906,-0.00045335959765398454
22,0.22,0.06287285873191667,-0.00014806715389769503,-0.06022576631399069,0.14910459690370484,-0.06905653099652521,-0.9864071051862233,-0.005422042003143901,-0.006986224863600668,0.010345184277285589,0.9965957522046172,0.034706016536560205,0.07477919290724636,-0.0007970026434416038
23,0.23,0.02104418210086329,-0.0009324593484147017,-0.04738126652678992,0.1492219428377622,-0.06937320048030983,-0.9863671748176732,-0.010904143240942372,-0.01804668757724364,0.013148303477719274,0.9965855125540998,0.03488664605576931,0.07482874472216755,-0.0010814643564379467
24,0.24,-0.018966066062518883,0.0003073855789064335,-0.03662319502051303,0.149335599473511,-0.0693664673720079,-0.9863504245759723,-0.013481537401075766,-0.028668724345667806,0.01562795695950456,0.9965810346302707,0.03489887352660615,0.07487891673107817,-0.0012863518286582375
25,0.25,-0.039464199678962406,0.006009758861402599,-0.025138598825622745,0.14945190706692935,-0.06916900259196178,-0.9863466811354288,-0.01894532217846747,-0.032703386034217116,0.01646234498592092,0.9965799137366816,0.03481035638274939,0.07493261887394896,-0.001425252407250843
26,0.26,-0.041944937830772744,0.009510188432437474,-0.014512737342744112,0.1495978369896562,-0.06883927219194687,-0.9863475900454428,-0.0258544525316039,-0.029194942595961577,0.017088857573791548,0.9965799783004228,0.03465095639218618,0.07500331303561421,-0.001504085691471494
27,0.27,-0.029275528570873535,0.015959929473559082,-0.013082432034147228,0.14978023923857015,-0.0683564855115762,-0.9863534915045946,-0.02896660706614896,-0.02439674292045158,0.01943452065943958,0.9965813805271173,0.03441322120388605,0.07509306604816332,-0.0015624956952474435
28,0.28,-0.007746116209581892,0.022466574047362187,-0.013354179444180391,0.15000834464426477,-0.06791324911440218,-0.986349441121757,-0.03237492734165007,-0.01805565476237419,0.018381206143733026,0.9965803150343802,0.034195920748795,0.07520571920936235,-0.001626945341685405
29,0.29,0.014465109396399316,0.031678799238231574,-0.016703332356587407,0.15029240126316484,-0.06784008610366607,-0.986311231940197,-0.033379962757829035,-0.0067645591341404104,0.015834636056989957,0.9965706275712147,0.03416493260436666,0.07534667972773375,-0.0016951382878811958
30,0.3,0.020580068071361843,0.043199118144386206,-0.023581542150142784,0.1506423482955144,-0.0680954315317034,-0.9862402458453203,-0.03127433229912385,-0.00019320697102347592,0.011949118974428907,0.996552634898953,0.03430043230914689,0.07552044691956361,-0.0017805099383280565
31,0.31,0.004179361928546022,0.04970257512662161,-0.0315162231898613,0.15104135219453008,-0.0684767247692585,-0.9861528191034578,-0.030096394764859948,-0.003768237680214769,0.010411983320030942,0.9965304891979042,0.03450213467224978,0.07571773101496561,-0.0019025997518850462
32,0.32,-0.025783874971918648,0.054797467694265134,-0.03755941355980708,0.1514931294900699,-0.0687365354800108,-0.9860654403283758,-0.03203732934970294,-0.012836688511001209,0.009876198305667005,0.9965082804467478,0.03464432237498845,0.07594098245725141,-0.0020421076045073015
33,0.33,-0.04981076108308965,0.060496527703786176,-0.049021846195690805,0.1519819599183743,-0.06871801151448538,-0.9859915117157045,-0.03495251724218776,-0.019315363921047293,0.00918298869318969,0.9964893896566436,0.03464929563895295,0.07618172826581064,-0.0022136773229350123
34,0.34,-0.05633461136279662,0.06428613410541777,-0.06095312674083433,0.15249910084569818,-0.06844849265801357,-0.9859304057967619,-0.03911295921649866,-0.020045526553554606,0.004712539656220522,0.9964734621432557,0.03453224882616222,0.07643498128062373,-0.0024362334542113763
35,0.35000000000000003,-0.04610983081981287,0.06874624993427432,-0.0773979060937183,0.153060372349513,-0.06811916951478962,-0.9858662442388753,-0.04214147369177297,-0.016336747286332814,-0.000781301171490929,0.9964566335981362,0.034391569492917766,0.07670779442935367,-0.002739080602542921
36,0.36,-0.030399510675467062,0.07507987556508872,-0.09270838666255171,0.15367755010832568,-0.06782491032703263,-0.9857904882106967,-0.0457805819122247,-0.011306082747551065,-0.002464606902263631,0.9964365104350347,0.034275008571979314,0.07700619313620695,-0.0031217852309792927
37,0.37,-0.013413775124973404,0.0777043179192913,-0.10583201167355072,0.15432328121889483,-0.06754598500533861,-0.9857087771374603,-0.05078462453165423,-0.009731250657571274,-0.0029909750476286795,0.996414337685706,0.03417315968981498,0.07731617219349118,-0.003590601303099941
38,0.38,-0.004587467306200511,0.07763365246709061,-0.11714810307594573,0.1549939080041686,-0.06730877014235043,-0.9856197903701447,-0.05463955404312813,-0.013249386976026855,-0.003353355959524647,0.996389958041621,0.0340976776302964,0.07763660765262033,-0.0041240138657982475
39,0.39,-0.002334698782782537,0.07516221475536242,-0.12697742403770182,0.15566747344104093,-0.067156137110776,-0.9855240601314792,-0.05592167593419768,-0.017743394253481197,-0.0014153285808547887,0.9963632938444088,0.03406920178675374,0.07795676500434875,-0.004710436687442612
40,0.4,-0.011835086725760587,0.07797355674792573,-0.13280087751561417,0.15632541556668908,-0.0670576844774809,-0.9854266153881004,-0.05998251581022175,-0.0259660502432278,0.0015262181323545483,0.9963357153378207,0.034071024238924955,0.07826784539862619,-0.00533184231210415
41,0.41000000000000003,-0.03400551185130141,0.08589199877641172,-0.14130826529012624,0.15700033776075614,-0.06687364094341809,-0.9853318069926709,-0.06405533508687739,-0.03177954939002622,0.0024341225129295126,0.996308298132246,0.03403251333799637,0.07858674388755793,-0.005981049344492945
42,0.42,-0.05086341397538413,0.0883559660392912,-0.14749353215749395,0.15769776611218167,-0.06651252716689281,-0.9852448755155488,-0.07384550667069484,-0.03627785184429685,0.001432562991253361,0.9962821599410139,0.03390796857538425,0.07891645821559243,-0.006660390605898906
43,0.43,-0.06156619475741301,0.09383301341605699,-0.16290001272959914,0.15840412081741773,-0.06595295465014508,-0.985169141082177,-0.07996855892767746,-0.041445255438848805,-0.0016992423738827415,0.9962580768894005,0.033687715326613105,0.07924989542418875,-0.007383631655101532
44,0.44,-0.059966297171600666,0.09855827054078507,-0.17648762771400214,0.15915523266008771,-0.06524754577120108,-0.9850950607200064,-0.08329333743306401,-0.043230023615468904,-0.004479328044331479,0.99623337046908,0.033399857315177625,0.07960465315265321,-0.008168472984816872
45,0.45,-0.04440906103934571,0.10325873987461245,-0.18752322996853563,0.15993811160255114,-0.06458568802616681,-0.9850118998520397,-0.08210801858248609,-0.03818052978012132,-0.00584496312144651,0.9962051360888505,0.033140416527478365,0.07997346010551117,-0.009025189670080718
46,0.46,-0.03590113027226754,0.10678528883090245,-0.19954158031941321,0.16073850836362605,-0.06406591116242058,-0.9849155224245418,-0.08247670329388754,-0.03634486154920019,-0.006726912862076731,0.9961720977885415,0.03295809801525463,0.08034911529117451,-0.009943473824311598
47,0.47000000000000003,-0.040883094141327035,0.10233917786951038,-0.2053781747673332,0.16153247599900838,-0.06362589038233094,-0.9848141768639883,-0.08446366045627354,-0.038186007889898815,-0.005547107576649702,0.9961367509536057,0.032819526244346406,0.08072039404727442,-0.010898875811024528
48,0.48,-0.044568186102670056,0.10094246580256418,-0.21375544128632076,0.16227532884775142,-0.06323087901491849,-0.9847174600461155,-0.08159908285780437,-0.044007265474647214,-0.000617016960405559,0.9961012272387276,0.032706309025655834,0.08106506659580573,-0.011883370358539095
49,0.49,-0.037237024218264275,0.10896695671318901,-0.2198975773498471,0.16303076410259143,-0.06293301326338221,-0.9846117604742882,-0.07623064548860709,-0.05005882069154568,0.0019965817885377137,0.9960620413377088,0.032645634531974665,0.08141474729701897,-0.01290360200381508
50,0.5,-0.02688901259222857,0.1085233410468559,-0.22378211224047595,0.16376487087462166,-0.06274766622863545,-0.984501772106611,-0.07376975292154296,-0.05113008533129349,0.004492745760383901,0.9960202956066005,0.0326439694888596,0.0817524961885343,-0.013946929582359992
51,0.51,-0.01932951749312917,0.10862254733174308,-0.22515028310497387,0.16447493055717954,-0.06271179825066069,-0.9843856709790038,-0.0735957025541286,-0.047927164458150144,0.010817170840426906,0.9959757470509116,0.03271946993003081,0.08207667757088649,-0.015008843209233914
52,0.52,-0.033971131039629954,0.10790347297756789,-0.22355860575459935,0.16515497292319026,-0.06265258467623061,-0.9842755809832131,-0.07232358921059727,-0.05383879383703573,0.01342659356194882,0.9959316480476127,0.032783445353586335,0.08238590952901391,-0.016067757559021286
53,0.53,-0.04833048826089768,0.10724560885393271,-0.21685454854007064,0.1658387316706331,-0.06236310282686936,-0.984178997970809,-0.0764087378677827,-0.061472382446549616,0.017388604678642863,0.9958900136251825,0.03273103915896471,0.08269925483724483,-0.01710953923312218
54,0.54,-0.07202014749931782,0.10713768882565244,-0.21098368496483216,0.16652159202667677,-0.06187139223678844,-0.9840947335974249,-0.08178835164380618,-0.06630907889276255,0.01778430846682949,0.9958512164415071,0.03257422337492731,0.08301532015658042,-0.018109546430075688
55,0.55,-0.0921791879575315,0.10827240243794256,-0.2007043975344861,0.16718116452065107,-0.061171080116583086,-0.9840266771220704,-0.08362759202957425,-0.07241665949339471,0.0203776067567389,0.995816294218018,0.032309104534160075,0.08332329328767035,-0.01906283887800018
56,0.56,-0.11513724755612419,0.11129393187987097,-0.18106476177110764,0.1679314271542876,-0.0603285600085831,-0.983950942329432,-0.08129174415521039,-0.07100560199340032,0.025956783560686654,0.9957803981713086,0.031966704947995424,0.08368183007704465,-0.01992698044004356
57,0.5700000000000001,-0.1474989913864215,0.10834481758069926,-0.16539515252368053,0.1687607853192038,-0.059232465476622205,-0.983875599900703,-0.07953982952960391,-0.07086678634514254,0.035212030798708216,0.9957458252911096,0.03149023802135367,0.0840864905561339,-0.02069334961375708
58,0.58,-0.1910014385312746,0.10662311918222393,-0.13602783307067895,0.1696315607941915,-0.057719027626336766,-0.9838157789351808,-0.07700376677720262,-0.07585628976029149,0.05209822158399651,0.9957171235499761,0.030795089771583017,0.08452061332745227,-0.02134009288332003
59,0.59,-0.227527643728821,0.10869394962903108,-0.1185259846249377,0.1705517012966436,-0.05572710501430711,-0.9837715581148423,-0.0762890829900405,-0.08177078162599294,0.06504539933391436,0.9956948676535096,0.029849394618571112,0.08498943279246361,-0.021853668726558317
60,0.6,-0.21914922224350392,0.12784087062055613,-0.11404843127578208,0.1716140271973467,-0.05357003916292031,-0.9837066628309044,-0.08020320795536107,-0.08308459965052929,0.07313691231297212,0.9956686729438979,0.028817329456546564,0.08553485267972008,-0.022300725960860242
61,0.61,-0.20469132547698146,0.13134305965642618,-0.10403785694267834,0.17283111275014923,-0.05152798719652246,-0.9836026870499265,-0.08828361368258013,-0.0705641381977277,0.06717227230702542,0.995633010210942,0.027843248244502468,0.0861591760017762,-0.022721437159034106
62,0.62,-0.18201985898235012,0.14237323007952132,-0.10135081012379399,0.17412315463889852,-0.04964869023523191,-0.9834714556595117,-0.0921224518471785,-0.03987322447454286,0.06555193319900089,0.9955912054221894,0.026949432962882817,0.08682161228711299,-0.023107974931887054
63,0.63,-0.19361157995144576,0.15613804297297793,-0.10034249696682288,0.17554991675288037,-0.04784478752364268,-0.9833072339796053,-0.09121482587723449,-0.027431863496931087,0.05889591332856395,0.9955407410614804,0.026096422989198377,0.0875520583258599,-0.023502103097950106
64,0.64,-0.22091297969181925,0.1625507563798885,-0.10152073576440594,0.17709660192037482,-0.04580514062324311,-0.9831269772428148,-0.09309522599457089,-0.03658601477402585,0.053967592224403796,0.9954863080491094,0.025126569837577415,0.08834680618734882,-0.023889760295877936
65,0.65,-0.26039691826717537,0.16732322315175374,-0.09721738385004665,0.17870756186728257,-0.04340856204891731,-0.9829441311521314,-0.09099562696667353,-0.04383333885910144,0.05637085437774659,0.9954317216283648,0.023976151192805918,0.08917983982229276,-0.02424693423154732
66,0.66,-0.3090638687717915,0.1749626162093327,-0.09050951149839148,0.18043177160562024,-0.04043054109477807,-0.9827561104709361,-0.09021824679037095,-0.04575489156534247,0.055971898684463776,0.9953766314503751,0.02253234311139206,0.09007883027592105,-0.024566181661154
67,0.67,-0.3541359955032336,0.17754098212694663,-0.08592357139227853,0.18220999527708948,-0.03699395293777873,-0.9825633228515197,-0.08709313581716785,-0.048769824346788476,0.058414313698169074,0.9953213168869671,0.020855806897111584,0.09101265480199526,-0.02484542746071165
68,0.68,-0.4043823745658677,0.1797616516523859,-0.07402767737875274,0.18399242604892807,-0.03311261727501747,-0.9823695138212548,-0.08358926884251308,-0.054865156913049586,0.06437403945957573,0.9952674829209136,0.018949813171230505,0.0919566564175023,-0.025053339264478683
69,0.6900000000000001,-0.46130658763446164,0.18561129911059937,-0.05764948641370271,0.1857943890836318,-0.02873575169341472,-0.982167984896359,-0.08136429483407712,-0.06335891363214435,0.07336814173580916,0.995213985556081,0.016786401688700478,0.09291950969446605,-0.025163568494714125
70,0.7000000000000001,-0.5250243737985146,0.19196220961234162,-0.02589437082430274,0.18764581879664757,-0.023813098565704915,-0.9819475140870421,-0.0840291491321781,-0.07601149391292242,0.08506719867615053,0.9951593657624842,0.014336438467498686,0.09391719776131681,-0.025133820033299104
71,0.71,-0.606836299526825,0.19307166937456374,0.01896803681917467,0.189540406265633,-0.018263517829266426,-0.9817022713641103,-0.0863857880320793,-0.09410499260361155,0.09735987944299979,0.9951040446309763,0.011550746893075933,0.09494763120274108,-0.024881664245578167
72,0.72,-0.7246677175615226,0.20374690494949138,0.07491865355684822,0.19149526761831323,-0.011814859201668823,-0.9814212552937098,-0.08237285477996857,-0.11637696003411735,0.10864118115189772,0.9950474159619964,0.008283669227503933,0.09602164039843104,-0.024320084896831497
73,0.73,-0.8850632304445313,0.2177426246505305,0.14391068313580901,0.19355377103251087,-0.004140898132158159,-0.9810791431520816,-0.07667071316827931,-0.14682335236669583,0.1245274105790598,0.9949838761928349,0.004364103619451566,0.0971620179910168,-0.023381956906201255
74,0.74,-1.1001172509272,0.23405922426397174,0.22446900304131667,0.19577896123518743,0.005229567961057976,-0.9806311892202085,-0.07220978651927398,-0.18653090714859955,0.1432990224919254,0.9949032572417689,-0.0004543703555106391,0.09840057908578854,-0.021980161619305143
75,0.75,-1.3154055906800852,0.25189931804866533,0.31840131863721266,0.198189172867814,0.016550976358875407,-0.9800194520812948,-0.07174014990882,-0.22448456236137876,0.162002205329361,0.9947905553411768,-0.0063106508296479555,0.09973982830699415,-0.020031435229828202
76,0.76,-1.4768951383598423,0.2501142701146608,0.40821968764446415,0.20075236017776452,0.029590393870320912,-0.9791885459860832,-0.07890217916782787,-0.25442118248801543,0.17335764193621067,0.9946288941161783,-0.013092796506607498,0.1011477551267689,-0.01752937114332267
77,0.77,-1.489016528870491,0.24797581978752384,0.48380145223984067,0.2033618038743452,0.04330966884040566,-0.9781376710360932,-0.0865418483091728,-0.26261186463891534,0.18224654919973507,0.994412337160407,-0.020274251759137926,0.10254772805961387,-0.014571793777033848
78,0.78,-1.3839666112002047,0.2526905822703561,0.5517692222881312,0.2060630018466717,0.056347268670276535,-0.9769077491553089,-0.08521039300727477,-0.2282365776050703,0.17825224391552044,0.9941458214620272,-0.027161008808273324,0.10394449608485838,-0.011276720666754798
79,0.79,-1.2117525986137074,0.25581793280677,0.6250522005958149,0.20891090832715575,0.06781466753722871,-0.9755745023902005,-0.07209291398500635,-0.1524218994264903,0.17115366771794413,0.9938444755598768,-0.03330092786952851,0.10535880995003155,-0.007706845892680539
80,0.8,-1.0693481343975484,0.25949859020576954,0.7045908969081305,0.21189653519694276,0.07748623117571247,-0.9742107967439693,-0.06457430895218368,-0.09851610741820174,0.1608323662455389,0.9935236940932858,-0.03858248647016718,0.10678662163025747,-0.0038502135333778106
81,0.81,-1.0437060373621811,0.2593590712313518,0.7905207209608975,0.2150366265548351,0.08609576633703715,-0.9727994708878209,-0.06220120326187621,-0.10215905062444333,0.15423690189606593,0.9931756681512406,-0.043385202517299964,0.10823885995819238,0.000374153149853887
82,0.8200000000000001,-1.123033561189687,0.2586108200249524,0.87176606264064,0.21830873361192718,0.09477231579935673,-0.9712624061565354,-0.06393840575552664,-0.12488549111542005,0.1566795355793018,0.9927757748811776,-0.04828743557601239,0.10970185776684287,0.005027756391456846
83,0.8300000000000001,-1.278630673338515,0.26600110079066214,0.9573296680102555,0.22176489128944252,0.10437404494762459,-0.9694921057939841,-0.06044818893849658,-0.1463973994327631,0.15871524421064995,0.9922903358268008,-0.05373255955877183,0.11119062540010671,0.010164397231471684
84,0.84,-1.5082053570882659,0.28446874008451023,1.0321314966735615,0.2255270166290445,0.1156223150944105,-0.9673431209561801,-0.051780429984530155,-0.1690316773119754,0.15573578314892175,0.9916745376212793,-0.06009456184961939,0.11274866621611866,0.015802172332558626
85,0.85,-1.7599361417229822,0.30971923345714947,1.0898708176961807,0.22969822736948922,0.12901028035673656,-0.9646611190941176,-0.046548506229961775,-0.18678646064795057,0.14808916547766657,0.9908816283159034,-0.06762980047653618,0.11440563904480623,0.021905545288090272
86,0.86,-1.9909553275524992,0.32598107509242674,1.1457015039851364,0.23430787677903772,0.1445354417111109,-0.9613407843321271,-0.04661609191917673,-0.19911373208448715,0.11985599659021615,0.9898778386838522,-0.07634307689784374,0.11615399443533135,0.02841202102451814
87,0.87,-2.13831164852912,0.307473866933845,1.2040783610878716,0.2391942512289464,0.16161402652847376,-0.9574057329101151,-0.03899434258850284,-0.19860754817369078,0.0801123161383965,0.9886610274981177,-0.08594642776610328,0.11789178148129882,0.03530298201256972
88,0.88,-2.2208011614975716,0.2668064478504052,1.2569380996875437,0.2439865344859874,0.17952248632650358,-0.9529931852214039,-0.017162433624548116,-0.17515066994716194,0.05051592257626919,0.987258535346834,-0.09606953810229506,0.11941814983130865,0.042548175116442835
89,0.89,-2.2325481081071405,0.25224869900418456,1.305902788502621,0.2489294329159329,0.19752502702453234,-0.9481399918081668,0.006519370259494893,-0.13622359543478918,0.025556378616626265,0.9856750465220016,-0.10634103943558693,0.12086166164060207,0.050070698816246706
90,0.9,-2.2705133036963465,0.11672751689707486,1.366916187943563,0.25349126173938896,0.2154542756313253,-0.9430123488766075,0.01960072729391438,-0.11808157613322515,-0.01560889007582189,0.9839430433743425,-0.11666538378872342,0.12193667870159343,0.05791080576302603
91,0.91,-2.3081474180597916,-0.04198702475541907,1.4488692334407594,0.25696975791516813,0.23340560151154224,-0.9377838146683083,0.04317999442270867,-0.11618939484981569,-0.0014295626913978267,0.98208834075272,-0.1270764389800183,0.12224823934207217,0.06621427765468399
92,0.92,-2.320822165345782,-0.14732792695527563,1.531015348077995,0.2596635359403294,0.25122205557879485,-0.9324228195077985,0.08467124394783496,-0.12535199489337623,0.029693480108173242,0.9800885465662915,-0.1374972801710246,0.12193290207176513,0.07500846368729906
93,0.93,-2.259663625011276,-0.20495005879528652,1.6024352345795647,0.2620813812012493,0.2684663798197916,-0.9269255579453916,0.09519641543935764,-0.14052796128745132,0.053695150007423496,0.9779361176017574,-0.147705665327325,0.12126450289895094,0.08420643800274022
94,0.9400000000000001,-2.117736490864954,-0.20624477919673026,1.6972653957589339,0.2647118435676315,0.28441529335382415,-0.9214081522255438,0.0724132384821531,-0.13105321531127725,0.07731039431145939,0.975654053493602,-0.15733954882525236,0.12052598144700416,0.09374821111399768
95,0.9500000000000001,-1.9223108211937041,-0.14931949949813078,1.8179108437719136,0.2681733281906151,0.29830282289684745,-0.916004419320995,0.03779969978745678,-0.09941996439920267,0.10050299902426198,0.9732622705121653,-0.166040851537555,0.12007102623807012,0.10366633951782879
96,0.96,-1.7860772200155708,-0.06679046811755072,1.9510306730793736,0.27293463875962637,0.3100831212269699,-0.9106735593702447,0.016920147225022338,-0.08450932677042536,0.12291970579448433,0.9707296562445163,-0.173833710623557,0.12014950334381864,0.11402954565783019
97,0.97,-1.748621628397987,0.0007966394417931524,2.0707943950380594,0.2789831897096028,0.3205208600986571,-0.9052108852636247,0.01541228095690406,-0.09256723736013678,0.14315401987423965,0.9679836032402748,-0.18113943025691506,0.1207252078595766,0.12487149886276
98,0.98,-1.7690118555420609,0.05263157995751529,2.1700443805094443,0.28615220577721107,0.33036693594787403,-0.8994132991071685,0.027225281056787915,-0.1120495744015914,0.14702026422819656,0.9649569725879752,-0.18835852807141396,0.12167852966511378,0.136168829989808
99,0.99,-1.8225799621974381,0.08039098149888857,2.2327579860895583,0.2941394879835323,0.3400453975340984,-0.893206401397881,0.04937875467958373,-0.12673927273420446,0.13179242453094822,0.9616291491582742,-0.19569582431211638,0.12284372095752119,0.14781020169931405
100,1.0,-1.8721721683246257,0.10677429912403681,2.2869877501563813,0.30276142950095947,0.3497642849626274,-0.8865457160960145,0.07765822884579525,-0.1002342711243642,0.10483075768219119,0.9579888467322829,-0.20325045662086189,0.12412171005511143,0.15969839298515562
101,1.01,-1.8732513461870226,0.15315578844525707,2.325445791404313,0.3120852517001285,0.35921752598892653,-0.8795030915269295,0.10761866368343806,-0.049775126780332614,0.08630580437831184,0.9540545293926719,-0.21087563396354922,0.12557612482688502,0.17176506506559913
102,1.02,-1.8740250487407661,0.19719233970987335,2.3479577487235246,0.3221358891225175,0.3682108325925789,-0.8721277636351223,0.12701721398580207,-0.019746697467337624,0.0661143855234758,0.9498524818220616,-0.21847242011856216,0.12726016362876003,0.1838882291748821
103,1.03,-1.8751779269432576,0.23474487519491938,2.3599323819515234,0.3327904120006248,0.3767755163067166,-0.8644338324794416,0.14237951607322938,0.005876111301709595,0.06094123295176869,0.9453932139777792,-0.22605112906798847,0.129123678266026,0.1960064629440665
104,1.04,-1.8923397188299134,0.2849274881903245,2.365598038522097,0.34401856308101664,0.3849676801448475,-0.8563895485451669,0.1684683300826895,0.022929952892114726,0.0672961885603967,0.9406738801401101,-0.2336477732345247,0.13115825479803486,0.20807847961364875
105,1.05,-1.9441338262367016,0.35591851242899314,2.3670053196011236,0.35594660595782746,0.39300821500061783,-0.8478165509674734,0.19084762077887077,0.0168522785343591,0.07939215444534722,0.9356534566161346,-0.24141123304604448,0.13341628030749839,0.22006679797873743
106,1.06,-2.0389027567105864,0.4397844990943752,2.382267714796745,0.36872998679817626,0.40117626443627186,-0.8384709039554221,0.20223343763473783,0.00034299177010506214,0.09669032926342333,0.9302597193823215,-0.24954208790939197,0.13593790677897213,0.23199084901210948
107,1.07,-2.155617169207074,0.5204697162790338,2.3998047936087383,0.382435733373731,0.40968855325262726,-0.828145322124141,0.20387437257100438,-0.015447476668044437,0.1194102281850074,0.9244169284960377,-0.2582086122142035,0.1387050619268999,0.24390944204357715
108,1.08,-2.2503723837346645,0.607591256929668,2.426870897802171,0.3970680575497573,0.41842479104599584,-0.8168064835644319,0.19337755782422736,-0.025558159332513618,0.14706032324963364,0.9181065719007517,-0.2673836044212548,0.14171786235166087,0.25582750455410563
109,1.09,-2.3021566276252163,0.6913677433133638,2.4684917826273036,0.4126734444571134,0.4270010819439692,-0.804534147071947,0.1772994915636611,-0.02844663957453376,0.16822274563188183,0.9113352198539492,-0.2769080592550258,0.14503174831205803,0.26776409056633294
110,1.1,-2.312135290064355,0.770658745793578,2.523404386197874,0.42926287250423584,0.43492513825235896,-0.791497990996404,0.16507053512961326,-0.025487582274114788,0.17424178439413598,0.9041282762335968,-0.2865593641435809,0.14870444318425477,0.2797525596175643
111,1.11,-2.2782098449665362,0.8449464615007634,2.568725609704129,0.44677248604885017,0.44181098348596726,-0.7778724604309761,0.15458258365326122,-0.021640579165908815,0.1654471033637962,0.8965291938539451,-0.2961470264624318,0.15276943581541297,0.29177091138716477
112,1.12,-2.199127397187035,0.9154800678246747,2.5997626281746893,0.4650496961485863,0.4473085564218545,-0.7638894257518157,0.14838919194060646,-0.00472126844985115,0.1440466260648484,0.8886264871412582,-0.30546052323483275,0.15724889265151523,0.30371907335528914
113,1.1300000000000001,-2.0915664352984904,0.9910534209485917,2.6237697779722886,0.48398430617798127,0.45116460069875486,-0.7497257749689037,0.1503812778890401,0.03310963149724819,0.11406232681335933,0.88049706953058,-0.3143446661131113,0.1621824849283739,0.31550765469463166
114,1.1400000000000001,-1.990091780008969,1.0728587418410565,2.639477113426054,0.5035470620051227,0.4533189071018082,-0.7354016117360108,0.15811413165027366,0.07938403971414623,0.0833900421073045,0.8721705635600745,-0.3227715200609374,0.16762028073274501,0.3270728173991373
115,1.1500000000000001,-1.9470627103037046,1.1528060835542038,2.648683766485418,0.523652833873786,0.45404417552415605,-0.7207616153272609,0.15841499312410073,0.10679971882440525,0.060798933031489324,0.8636115394152074,-0.330896636903531,0.17350790070957756,0.3383978543990418
116,1.16,-1.939417347726789,1.2019896134500887,2.658935519447287,0.5441114246299873,0.4537286125343204,-0.7056424862982084,0.15027117468218681,0.10881105573394964,0.049373711611933324,0.8547509738372403,-0.3389283197320643,0.1796775110354922,0.3495400513624826
117,1.17,-1.9231037199584038,1.2299416097770304,2.6600079176518303,0.5646581402498257,0.4524727587710481,-0.690133094596613,0.1422593492722671,0.08902667436131322,0.040866969279704055,0.8456000233403104,-0.34687611615456515,0.1859784167211307,0.360530903496025
118,1.18,-1.8752491909754623,1.2422699938294228,2.646962301524476,0.5850853399594129,0.45019097361732907,-0.6744297638297172,0.14787212838693287,0.07426676465736316,0.030555456100648908,0.8362359414517715,-0.3546286335851217,0.19235799015831942,0.37132127648212315
119,1.19,-1.8173869167299275,1.2329233098309589,2.6240321953161656,0.605170998866169,0.44680872795356197,-0.6587746176715963,0.1642202630439072,0.08879891229336674,0.01585057392788383,0.8267563981939576,-0.36205767900642843,0.19876090512862682,0.3818595853411349
120,1.2,-1.8167203777962377,1.1969518796236223,2.5951378214021648,0.6247045583691181,0.44255506778386566,-0.6432314154286064,0.18003057471826803,0.104102385307236,-0.014482683232231633,0.8171648233716109,-0.36922509090647043,0.20502963735922994,0.3921897933520804
121,1.21,-1.911047568969355,1.139229035666846,2.557357030574558,0.6434893592844887,0.43802836824823355,-0.6276262862502952,0.1947306561180687,0.0915221951048353,-0.049409790661149464,0.8073637482056856,-0.3764201647715611,0.21089211646202002,0.4024068303679882
122,1.22,-2.0668811553879114,1.0839513222129615,2.5257574620647425,0.6614527404315552,0.43375806450594995,-0.6117189313906349,0.20715523826767246,0.06112125227628559,-0.06649014463911436,0.7972227984527624,-0.3839398645366484,0.21612859641017834,0.4126104130187991
123,1.23,-2.21805535192377,1.055984706595807,2.501294903175243,0.6787693020177783,0.42984697536494454,-0.5952892633729274,0.21110174486276653,0.040599399888397586,-0.05787803148726238,0.78664470827891,-0.39191695112967007,0.22076376852801574,0.4228288695297603
124,1.24,-2.344177144192115,1.013318549726815,2.4824388446949515,0.6955253208101934,0.42611742975306643,-0.5783895561228816,0.20738593135480246,0.03569969996642866,-0.0418642816639173,0.7756310649685428,-0.4002777185040333,0.2248615620308748,0.43305691528048906
125,1.25,-2.4468370687064347,0.9545789386345886,2.4728488386963434,0.7116464184084603,0.42234446891826705,-0.5612966206573675,0.20582367150790076,0.03974759837298802,-0.017993924046386733,0.7642370028629026,-0.40885424172167284,0.2284072508188097,0.443322237127594
126,1.26,-2.522172765645246,0.8955882434312274,2.4591962257016124,0.7271390013016823,0.41834849034415095,-0.544174366735606,0.2181111205764971,0.049523765960862255,0.011849775857214409,0.7525000900327943,-0.41752855154492025,0.23143681539388153,0.4536219457343792
127,1.27,-2.49419190013293,0.8145496270494559,2.427942304148258,0.7419110762031332,0.41386433049313076,-0.5274130800511074,0.2329782743014177,0.06271552774512643,0.031760375117792554,0.7405864042775551,-0.42603891034035146,0.23402177007902752,0.46387481895430127
128,1.28,-2.3589757746114,0.7465914004815132,2.38738722038232,0.7558598722455062,0.40845684349736544,-0.5115958386945796,0.24978300880891588,0.08364217580623491,0.033127292020615165,0.7288018525848786,-0.43395814482558953,0.2363626194691825,0.4739091757260227
129,1.29,-2.1835470962487364,0.7141701927937775,2.33540593269444,0.7691051719530215,0.40190866887410287,-0.4968350068046469,0.27451994073234165,0.13652898381418538,0.02043976351090002,0.7173150195834422,-0.44111141239418805,0.2387269361809782,0.48355392132894637
130,1.3,-2.049538779509292,0.6987930594629195,2.2628691208420153,0.7817300207921422,0.39442317194910986,-0.4829415574918304,0.28609574399947285,0.2037588785325197,0.0073984264835581185,0.7061607412402013,-0.44759491311690697,0.24119928280655037,0.4927061078653221
131,1.31,-2.003478905366616,0.6805542684716452,2.1850062300872928,0.7937031246222291,0.386525049096062,-0.4696204657281441,0.2731871665678499,0.22975863853977532,-0.002798707375919531,0.6952441874892029,-0.4536915742111055,0.24360557168083558,0.5013978164405961
132,1.32,-2.025830466442563,0.6559150916333049,2.10407961746378,0.8050056949520417,0.3786914750038898,-0.4565891210176222,0.2493604979065574,0.2171263808671968,-0.0030556432636991626,0.6844141428022122,-0.45969072166714886,0.24572377352010852,0.509732327084237
133,1.33,-2.082313607640094,0.633825033006904,2.0167515700148315,0.8156465087025835,0.3712204690878057,-0.44366225489571626,0.2270140156624737,0.20247974540579042,0.00045378003353971157,0.6735723777968579,-0.46577450888226574,0.24741301899481485,0.5177714381850117
134,1.34,-2.163080491404425,0.6200976054429208,1.9237259140894662,0.8256424642217941,0.3643135592116469,-0.43071435069807523,0.2075302324811899,0.2026852452490528,-0.0027499403816295433,0.662678042265969,-0.4720513672474628,0.2485963146103435,0.5255202536863767
135,1.35,-2.278950623172991,0.6057520301577753,1.8247299696205819,0.8350168430720145,0.3581600132399256,-0.4176082529970628,0.18210648050366512,0.2100188171341029,-0.008905716627745105,0.6516779893141199,-0.47863249646623973,0.2491898932831795,0.5329883299022438
136,1.36,-2.411184470911964,0.5810113434397843,1.7205660253131005,0.8437618201962086,0.35291939918714016,-0.4042844101558766,0.14653943049769347,0.2128479448295173,-0.010242187913474053,0.6405281150925465,-0.4855937857013974,0.24908600385843963,0.5402058392432376
137,1.37,-2.515620833094128,0.5414941514806517,1.6212254463620863,0.8518701683985679,0.3485473114598859,-0.39085540539060826,0.10280696176411444,0.2091344617198142,-0.011784249397450364,0.6292476273252523,-0.4928752089509733,0.24825876974102173,0.5472033705818948
138,1.3800000000000001,-2.5380396695742427,0.49294269187138295,1.5276183290118848,0.859334348486493,0.3448048160899649,-0.37761854966364816,0.05670301431487014,0.2078249491612855,-0.01363658165920704,0.6179704481843334,-0.5002601912515704,0.24681206614146403,0.5539670576627395
139,1.3900000000000001,-2.4366755845726216,0.4554947184222349,1.4323798977719302,0.8661724317015373,0.34129328727924707,-0.36498356776084917,0.01288294638237315,0.22087377622304766,-0.012891068399933347,0.6069823523241067,-0.5073946619295646,0.24504284260977136,0.5603799695093381
140,1.4000000000000001,-2.252139508379907,0.4522611658426522,1.3354970967328088,0.8724944848735602,0.3376903610998296,-0.3530900676235063,-0.029284123049032648,0.25299591589573567,-0.009430384710861332,0.5965423141974704,-0.5140385077180469,0.2433278833236821,0.5662586801651472
141,1.41,-2.043748532803938,0.46920264314074017,1.2394770032300242,0.8784212376312065,0.33388932969123325,-0.3418360420870125,-0.07380990518029955,0.296997796309572,-0.002739656565230018,0.5867678513036972,-0.5201462205190465,0.24191086372811632,0.571483360059316
142,1.42,-1.8550652160780186,0.4830175082413496,1.156326993027173,0.8840029440149861,0.32989659219128875,-0.33116239214481075,-0.11773114887847058,0.32331722578314676,0.0003432941921116142,0.577663701110928,-0.5257432291717394,0.24084310115660595,0.5760745554363987
143,1.43,-1.6986505786491077,0.4877937912585104,1.0900629445578456,0.8892745884837621,0.32572988358338334,-0.3210218598163162,-0.14784062652586477,0.32091919067681274,-0.004098979787429231,0.5691405950295847,-0.5308928113972384,0.24007415501481985,0.5801457006663915
144,1.44,-1.5472337818048545,0.48379829888621334,1.0333639355685134,0.8942566955704682,0.32139037487796307,-0.3114169337892294,-0.1616556182540589,0.3127754268747621,-0.007894030503842174,0.5611377640328152,-0.5356259303268353,0.23956454870012683,0.5837934629688959
145,1.45,-1.3876735729839282,0.4757106356399799,0.9838182336467832,0.898954375909258,0.31685058027976026,-0.302418957461368,-0.16838883992699902,0.31461741788113246,-0.010591838294560105,0.5536620484785569,-0.5399176706729074,0.2393224659135086,0.587071046733164
146,1.46,-1.220782486058554,0.46700784563150216,0.9393679033017273,0.9033913908522685,0.31206906596216755,-0.29405773767134513,-0.17266979232575125,0.32569675767523,-0.01408780043420278,0.546729481201107,-0.5437460759444326,0.239390991730341,0.5900023360850324
147,1.47,-1.040768440095579,0.4500549663615638,0.892741437843985,0.9075669541644334,0.30705265808553334,-0.2863857481749177,-0.1777717751649225,0.3398757379176481,-0.017054609105739933,0.540381634641211,-0.5470847282750781,0.239797689737535,0.5925959499477627
148,1.48,-0.8632640428749799,0.4325544292152931,0.8471950149510673,0.9114679835140176,0.30182747088058237,-0.2794726522012936,-0.18219951077059154,0.35128186008501466,-0.023882297172624106,0.5346586690556306,-0.5499072379300544,0.240549010928948,0.5948681027522769
149,1.49,-0.7154427486179844,0.424922706797183,0.7997379572271384,0.9151195487457133,0.2964766641582287,-0.27320029249304584,-0.18428104775495058,0.3616838099571589,-0.02741002740877227,0.5295175602901793,-0.552286020121601,0.2416162647203812,0.5968288240870446
150,1.5,-0.6038303885467309,0.42215165423099216,0.7443782490684868,0.9185387938758969,0.291170449107936,-0.2673738130658418,-0.19233797881735068,0.3699233723253039,-0.023175279092768952,0.5248722648518671,-0.5543538686575469,0.24290627283100114,0.5984903253498162
151,1.51,-0.5149380226493092,0.416942576060283,0.6852148896493085,0.9217198726407683,0.28606081528111826,-0.2618894723564216,-0.2056090624944301,0.36792042733980523,-0.022303732043243964,0.5206600587398974,-0.5562040782122323,0.2443173681885494,0.5998779450986104
152,1.52,-0.42420902904157853,0.4067544880995388,0.6175133801239189,0.9246445184992209,0.28125365016639864,-0.256740029212737,-0.21081057081743107,0.3625973272863509,-0.02598279281376149,0.5168813710564725,-0.5578658185265829,0.24579367161120294,0.6009994577377221
153,1.53,-0.31687319397197217,0.39662744574226005,0.5424586619938944,0.9272910694804944,0.27682291475073073,-0.25197038437827024,-0.20664469841110908,0.3674139233244477,-0.03241602292015016,0.5135974627845704,-0.5593208378711682,0.24733362562212788,0.6018309344193598
154,1.54,-0.19967640232311903,0.37809592536857317,0.4598986610449426,0.9296440620427687,0.2728155509701823,-0.2476384641193903,-0.20059026708122837,0.38063684152817856,-0.04372467289158774,0.5108768386198309,-0.5605370029918101,0.2489539029431182,0.6023476722034256
155,1.55,-0.09251730193679898,0.3451823715215849,0.3631259809687063,0.9316555093699916,0.2693374462403647,-0.2438633981035187,-0.1940541185182214,0.39381485283490525,-0.06050867378975,0.5087759098610934,-0.5614863829489047,0.25060030603860867,0.6025596942548933
156,1.56,-0.0129505143403,0.3027773137920199,0.2591517991008957,0.9332808943423353,0.2665457102599148,-0.24069980506993774,-0.18391127678633942,0.40296350271996195,-0.08098214365011577,0.5072849307634647,-0.562200046196041,0.2521518868282806,0.6025044946810966
157,1.57,0.026844637309827647,0.2525505513597262,0.15071979911635985,0.9344982997820198,0.26459636993148733,-0.2381169503366235,-0.17113642322899353,0.4039862212505663,-0.09404277786794427,0.5063364104888993,-0.5627567939163145,0.253467811337824,0.6022306964688701
158,1.58,0.026490271856304815,0.20201479629259395,0.03975998948754303,0.9352922111934846,0.26363462923796893,-0.23606029927516423,-0.1627808907536328,0.39530911518843004,-0.09743400552525357,0.5058372814745876,-0.5632505991387542,0.2543981882341012,0.6017963175291557
159,1.59,0.005039340332874502,0.16317930742414696,-0.06576893122988071,0.9356879069283659,0.26371869106766294,-0.234393124415596,-0.15761088714756533,0.3808469133305378,-0.09343819065230775,0.5056851529024017,-0.5637778831142224,0.25486828070634615,0.6012313542631998
160,1.6,-0.014113282399332502,0.13769232309202847,-0.16982826609889282,0.9357294052492766,0.26483529069633344,-0.23296309060845485,-0.15193576314401447,0.3648561479834255,-0.07776864051216957,0.5058296372313327,-0.5643972686410824,0.254900081466873,0.6005146696304877
161,1.61,-0.015803647419220294,0.12116213398132253,-0.27035718576739587,0.9354462305334412,0.2669331011283306,-0.23170056859921273,-0.14588452064842275,0.3517767917814198,-0.05740332392895467,0.5062771669058876,-0.565110306685137,0.2545581360192998,0.5996111046533421
162,1.62,0.009026772750802846,0.11238865456105566,-0.36589754813447073,0.9348612811390528,0.26992010544251543,-0.23059577036598894,-0.1357199002988046,0.3429757310495717,-0.04338133029365202,0.5070658654263589,-0.5658777208193869,0.2539374581613214,0.5984827373912501
163,1.6300000000000001,0.052100913997830046,0.10748356247292684,-0.4585588773747477,0.9339923375451603,0.2737025216130307,-0.2296533039630534,-0.11970598333504141,0.33962322591401445,-0.03957131114264358,0.5082421403217552,-0.5666522822945408,0.2531367326468892,0.5970893053800101
164,1.6400000000000001,0.10289091521517095,0.09842426225150236,-0.5462925349975719,0.9328390576224217,0.2782163559062453,-0.2289120776336561,-0.09848826917350426,0.3400920306979195,-0.04298399880830078,0.5098323988282903,-0.5673944286724381,0.25220458883490915,0.595420407831009
165,1.6500000000000001,0.15908011026898602,0.08477304296957801,-0.6263620107519733,0.9314017333594822,0.28338162628335695,-0.2284246255583042,-0.07130012918685152,0.338533696296591,-0.04907791393000576,0.5118336373785242,-0.5680693565861854,0.2511663020392667,0.5934951435209237
166,1.6600000000000001,0.20219941316268805,0.06839768300769161,-0.6984564135733832,0.9296826615095612,0.28912774137843383,-0.22822238244128962,-0.042058059710170265,0.33267841060169334,-0.05539030547571917,0.5142135299076629,-0.5686628889864087,0.2500217743052622,0.5913482815582891
167,1.67,0.2103300517089175,0.05054952101838691,-0.7625417585688419,0.9276827243889904,0.29544051109114067,-0.2282716722603385,-0.012755942708939327,0.32361403346272916,-0.06141889634194531,0.5168844921136877,-0.5692165014280767,0.24870898291939986,0.5890357067070419
168,1.68,0.18313440302712633,0.035819288755303894,-0.8181157512494902,0.9254217652648197,0.30230943781589686,-0.22845117442831006,0.019847803249283227,0.3068922707122666,-0.06338050327647173,0.5197147645934456,-0.5698138567625262,0.24715533716783708,0.5866164634048139
169,1.69,0.1335701736318714,0.025860142078678972,-0.8633666476962183,0.9229216778731439,0.3097129093562565,-0.22864368058042,0.05251771838889169,0.28160283680789877,-0.0541888604972335,0.5225877817105852,-0.5705275552626423,0.24530658640437883,0.5841409122247262
170,1.7,0.07757777070570089,0.024222149550529485,-0.9014007079754922,0.9202111860504515,0.3176033601820525,-0.2287403263081301,0.07918396580060404,0.25362916322767837,-0.03830140346908009,0.5254250495196655,-0.571404448579814,0.24315689847465038,0.5816318066846682
171,1.71,0.0324045961118669,0.032241981759499744,-0.9456478234060952,0.9173055873667231,0.32595810610604775,-0.22865349727930367,0.10207300688924018,0.23406361739144535,-0.02581709541456718,0.5282194276536042,-0.5724620879934169,0.2407458260992077,0.5790576818235695
172,1.72,0.010758319624317033,0.04980698229446702,-0.9944375446554096,0.9141990034966464,0.33478304022110467,-0.22833951853012777,0.1178888556991851,0.22852467757948702,-0.01811840776373063,0.5310253756665392,-0.5736884043276891,0.23813806602047893,0.5763491327493834
173,1.73,0.010230568057988382,0.07426610443057444,-1.0502573300853484,0.9108734144935566,0.3440828681793587,-0.22779973005275436,0.1225591118565861,0.22687856648339272,-0.014307454460231534,0.5339150901619314,-0.5750522721057125,0.23539905410255205,0.573437512678276
174,1.74,0.015601593457704073,0.10613864700335121,-1.1084468652829287,0.9073109645373867,0.3538603771283183,-0.2270311226820657,0.11425266729200416,0.2192490687619585,-0.01492056796969809,0.5369329563877961,-0.576535133321815,0.23257086267322943,0.5702753624666308
175,1.75,0.016963929684742144,0.15230054802992604,-1.1474027321365388,0.9035462752678263,0.36404534753106943,-0.22593554276169217,0.09108414250573779,0.20152140843434843,-0.01618333688974782,0.5400470113684528,-0.5781561950804087,0.22970659020098477,0.5668437717644066
176,1.76,0.023443024264729075,0.19908664816292593,-1.1611081670607784,0.8996797524500564,0.37441695182275014,-0.22440956015224717,0.06231517172974266,0.17515244988998066,-0.013854152905108016,0.5431683193632981,-0.5799212512600624,0.22690106399137458,0.5631763228962389
177,1.77,0.054524011729582905,0.21367501125949762,-1.1675709480336844,0.8957255442167601,0.38479253994012985,-0.22267088475546945,0.05914497376500916,0.1501813654313475,-0.012704608753713362,0.5463090856298156,-0.5817217937362968,0.22419202259599189,0.5593533733397428
178,1.78,0.108139179171192,0.20821193774723978,-1.1730420070725598,0.8916271402489743,0.3950796200868525,-0.22110136287511428,0.0902324623484185,0.14348241269526257,-0.027712009905935454,0.549572815965935,-0.5833936805107304,0.22158331623237706,0.5554408279625687
179,1.79,0.15997059255929588,0.2081021779893088,-1.1708921656250506,0.8873903375477196,0.4052220676531001,-0.21978920256143678,0.10950002178544678,0.1524242720067643,-0.050909424674701526,0.5529821167672004,-0.5848923590015119,0.21909962995317667,0.55145201319491
180,1.8,0.1999389792520277,0.21562829435924852,-1.1462113925552557,0.8830991951051474,0.415099667044844,-0.21864138677749162,0.08462018776552128,0.15278893464766205,-0.061605748427220546,0.5564643264665691,-0.5862431655992179,0.2167876497326152,0.5474140766604239
181,1.81,0.22573471149405774,0.2134812788295215,-1.0963127083348214,0.878859489482777,0.4245220977895553,-0.21763673338575173,0.04911719896178659,0.1343054737572679,-0.052377549815813634,0.5599184889738343,-0.587446725636309,0.2146785378676795,0.5434188703909862
182,1.82,0.2417317166598966,0.20252088781337713,-1.0435409063448027,0.8747281294453492,0.4333926665131907,-0.21680118616851204,0.04869227177599105,0.11406519735467076,-0.03369725251660758,0.5632785178764707,-0.5885006708313627,0.21275685119958265,0.5395486221774738
183,1.83,0.25445349918065063,0.19351965225945453,-0.9954451776817069,0.8707058463659592,0.44174130280837665,-0.216146259054616,0.07534095400878257,0.10571408559699741,-0.022016961407653236,0.5665342652309876,-0.5894150959456385,0.2109880892337836,0.5358239184995913
184,1.84,0.27669652987185567,0.1851301502605562,-0.956972571875237,0.8667630743445741,0.4496532910951286,-0.21568199731862514,0.09564012670952107,0.10455774659859106,-0.015686891669049786,0.5697205342990285,-0.5901958938869077,0.20934951798844134,0.532217064097069
185,1.85,0.3136735366422291,0.1774896694755958,-0.9237444395420039,0.8628915371709657,0.4571531718376193,-0.21544346958796665,0.10131606675322774,0.1015296921951388,-0.008441090910758639,0.5728910956752513,-0.5908200219316082,0.20786904855022795,0.5286900747118828
186,1.86,0.356253225737351,0.17174774613908625,-0.8988252603051776,0.859080880566434,0.4642629524122645,-0.215471025147468,0.10785376418013591,0.09795660631129252,0.001044461101729247,0.5760923309634849,-0.5912652447661568,0.20656618916620995,0.5252131131121298
187,1.87,0.39225574895543563,0.17430934351080285,-0.885071893178643,0.8552911718848446,0.47108793724631176,-0.21573489015910824,0.1181568929937405,0.09538386287136465,0.013801288375588004,0.5793498628361902,-0.591555430828047,0.20541297860286686,0.5217439613743957
188,1.8800000000000001,0.41742161439809444,0.18570977120406026,-0.8905480405864276,0.8514768848132516,0.47777811220463545,-0.2161105244166237,0.11834402325917129,0.08791861775265652,0.028680219775059197,0.5826645059697851,-0.591758923589953,0.2043670991260992,0.5182207845009486
189,1.8900000000000001,0.4488955126515376,0.20653833615684986,-0.9042949354172356,0.8475902031899701,0.48445963148387694,-0.2165136163422543,0.10906664264542934,0.0733747023901575,0.04178288667521764,0.5860525584504949,-0.5919213576002859,0.2034014240055958,0.5145816393204068
190,1.9000000000000001,0.513093135694377,0.2315178879773895,-0.9287054326764463,0.8435978762999674,0.4911663403925251,-0.21699355453474128,0.10185969417508688,0.05785295701849752,0.053700946641398864,0.5895936581224848,-0.5920065108557184,0.20256214093650055,0.5107546463299426
191,1.9100000000000001,0.6062503384939724,0.2628775535003178,-0.9635365110978041,0.8394616229095179,0.4979091652530091,-0.21766585993492496,0.10608179392985244,0.04602350908762876,0.06045331985870842,0.5933999117020771,-0.5919426178815818,0.201918200039137,0.5066585003523462
192,1.92,0.7026749836791207,0.2954161061472064,-1.0013080368889513,0.8351490687494738,0.5047065705680861,-0.2185972170676743,0.11799183813033372,0.03445351405622999,0.05995485288965583,0.5975329323341579,-0.5916917131297946,0.2015000457449954,0.5022404029956228
193,1.93,0.7960880413954533,0.32980651872191935,-1.032816197292231,0.8306680746746494,0.5115380043772481,-0.2197880235480154,0.12807067646447218,0.019916475149018353,0.06034992002379297,0.601976773544726,-0.591253695078168,0.20130820231211907,0.49750326972963493
194,1.94,0.8780784090635858,0.360860656111449,-1.0497959701951898,0.8260710432314915,0.5183223542676468,-0.2212150294228711,0.13940178368639447,0.0003415470514281302,0.06601228871251347,0.6066746424374089,-0.5906358904315954,0.20134949191985685,0.4924878594587908
195,1.95,0.9515063834823414,0.38524601365153,-1.0592232538215118,0.8214001680489831,0.5249887783315238,-0.22288201258767662,0.15494590394155835,-0.018089858318241857,0.07300606095182105,0.6115703945989146,-0.5898409219374839,0.20160974362126233,0.48725041205035347
196,1.96,1.0254440113361774,0.40329209743446015,-1.0659367641854776,0.8166732640441404,0.5314887443344997,-0.2248393209507081,0.17607989085715334,-0.03153026791418833,0.07856057875929255,0.6166531976436022,-0.58884682642435,0.20208773524561013,0.48181778925247903
197,1.97,1.0918947648472024,0.41603798628964417,-1.0673077965724769,0.8118997399109462,0.5377895514205048,-0.22713445025311238,0.20010985363386743,-0.04041244997445144,0.07860233905702983,0.6219016532667448,-0.5876406791655402,0.20275791452441924,0.4762303107480818
198,1.98,1.1505185847855177,0.4167293704183052,-1.0682637207699224,0.8070854578072353,0.5438741595590986,-0.22978897062979176,0.22135450984606414,-0.049163384158756866,0.07598050327654703,0.6272891568431656,-0.586222308947789,0.20358869592602977,0.47052347966213637
199,1.99,1.195961588225048,0.41191385678296344,-1.0601558481528397,0.8022398077818406,0.5497279016840001,-0.2328087694910039,0.2327362165859698,-0.06159985577861661,0.07658748316353113,0.6327736227142902,-0.5846031498061819,0.20453380841365892,0.4647488892062372
200,2.0,1.2399344322785701,0.40791753868047875,-1.0471787613622483,0.797402351066086,0.5552990778164576,-0.2361822673955719,0.22907664161342758,-0.07325767338475536,0.07797286479805898,0.638319052518734,-0.5827873086263483,0.20558935645481294,0.4589439543717632
201,2.0100000000000002,1.279261307723199,0.396389930144128,-1.0331327849280925,0.7925908097346798,0.5605697662491079,-0.2398986835647089,0.21604842951695777,-0.08317995332681487,0.08233903594381435,0.6439053670757459,-0.5807805959514625,0.20674522819298893,0.4531280725399679
202,2.02,1.3089129946936762,0.3770405850470181,-1.0168882274875353,0.7877979128287028,0.5655405561349142,-0.24398446138764654,0.19875115467780938,-0.09315582645916765,0.08821727328870796,0.6495204655770738,-0.5785818934609583,0.20796556778914577,0.44733153128902525
203,2.0300000000000002,1.3252584332719857,0.35293824972675075,-1.0043647265840479,0.7829914838270934,0.5702455649213429,-0.24846475164199727,0.17813850167850614,-0.10382826940729026,0.09158485104497117,0.6551526987200275,-0.5761998668163228,0.2091893336503368,0.4415857222283602
204,2.04,1.3261687182381336,0.32382413981530833,-0.9889471774737678,0.7781743136937372,0.5747067208547726,-0.25327371073036514,0.15836052932668845,-0.11754407363129955,0.09735833544273535,0.6607585417347559,-0.5736760590108808,0.2103752501321605,0.4359200301073331
205,2.05,1.3000840839034913,0.2912080177373553,-0.975441444162304,0.7733337018094731,0.5789753484191271,-0.2583277719335401,0.13592364391125156,-0.13192636962018164,0.10689641199588268,0.666284962883464,-0.571069327601801,0.21145880335951384,0.43037203396199075
206,2.06,1.250908781139067,0.2594327474345454,-0.9664970185867909,0.7684499440774667,0.5831314824748326,-0.2635020757987145,0.11222008674652466,-0.14786994197402334,0.1174401823375012,0.6716708442568327,-0.5684604077352189,0.21236939970662425,0.4249728924758785
207,2.07,1.1782247830570307,0.22594077161630344,-0.9589671663299254,0.7634985925086463,0.5872781253483673,-0.2686362867802254,0.0918966476273381,-0.16524438833901584,0.13027394668766182,0.676857394376974,-0.5659435740627821,0.21304681038137405,0.4197327722745687
208,2.08,1.0839157526391585,0.18806745977252687,-0.9572449042481026,0.7584490861587632,0.591509961921621,-0.2736095516165276,0.07448793709506688,-0.18210448961710202,0.14055554696289246,0.6817967001486478,-0.5635978694332994,0.21342929610032083,0.4146710602316705
209,2.09,0.9695159949658494,0.15793023089081779,-0.9570682348339807,0.7532911956857105,0.5959108002202833,-0.2782705387026526,0.058573618576796535,-0.19690946130334513,0.15080837472498584,0.6864351125336299,-0.5615088501812998,0.21347625706047124,0.40980130860444985
210,2.1,0.8438716213977012,0.134272742280754,-0.9579559299804693,0.7480065262996728,0.600558107702053,-0.2825038218105602,0.04583930514980863,-0.21274055679406775,0.16237706750394812,0.6907454359773533,-0.559739029904706,0.21316660743616062,0.4051153941389201
211,2.11,0.7148202081096059,0.11604704424192071,-0.9568708578806284,0.7426043223289662,0.605482835318821,-0.2862196897178371,0.03511582428891361,-0.22676918436141777,0.1707934600193807,0.6947057724309246,-0.558329177696957,0.21250517383064424,0.4006121449176482
212,2.12,0.5901791381050967,0.1031193898266613,-0.9525679751415459,0.737122091484454,0.6106826602200341,-0.2893275043931518,0.03084022238250947,-0.23826816889546618,0.17860421913033891,0.6982990468464046,-0.5573073894866422,0.21152896115587722,0.39628166466605813
213,2.13,0.4723444781645244,0.09721191557903912,-0.9436401972003511,0.7316023828850101,0.6161108447257698,-0.29181924871501796,0.028477163478232256,-0.2498912135117676,0.18559853729764939,0.7015318788398225,-0.5566593782324369,0.2102866498498334,0.39212258155615415
214,2.14,0.3785827940632843,0.09616058260258102,-0.9239337104277852,0.7261060810920084,0.6216823332521112,-0.2937256346137827,0.027952245693959505,-0.2600495520183402,0.18937631768091348,0.7044276596810743,-0.5563428175342678,0.20885308552970883,0.3881267339145734
215,2.15,0.3173105600062377,0.10008630156155375,-0.896847683719903,0.720710270306791,0.6272560201780952,-0.2951625414895384,0.02734950764781844,-0.2649657912557781,0.18936547972607284,0.7070447024146989,-0.5562637982249149,0.20733808597198883,0.38427490722595814
216,2.16,0.2855590588447218,0.10857157136860315,-0.858989780084941,0.7154839795559658,0.6326815289268505,-0.29629711042294876,0.02783920509040624,-0.2683776142001065,0.1893781982725739,0.7094507875594848,-0.5563109204585781,0.2058383067117461,0.3805608546408559
217,2.17,0.2719147628256418,0.11663482585867625,-0.8171675519572877,0.7104996044427446,0.6378281834634763,-0.2972568170885438,0.029510366349544254,-0.2699001662939497,0.18745324709461725,0.7116965143632163,-0.5563953008236198,0.20443999949542682,0.37698167897606266
218,2.18,0.26351573888240104,0.12443163092593341,-0.763344504612268,0.705795738209659,0.642635892968692,-0.29810772438993544,0.02635801682524764,-0.273919598492808,0.1864926907381239,0.7138016487292331,-0.5564767044249131,0.20317410104696576,0.37355032945107747
219,2.19,0.2576558778613907,0.1332760655768871,-0.7057519438087267,0.7014462373238283,0.6470252042325698,-0.2988799757592556,0.020711220003413893,-0.2794940063782232,0.18187015811671714,0.7157609411225633,-0.5565298163422218,0.20207549818462675,0.37030454316924183
220,2.2,0.24709458991723848,0.1376689275062395,-0.6395761496401196,0.6974870866956331,0.6509800006692766,-0.29955809269042377,0.01494325301547751,-0.28370549166863956,0.1814012910551737,0.7175627249470036,-0.5565593702518717,0.20115312367096033,0.3672630043503665
221,2.21,0.23137279216363385,0.14137643192235227,-0.5672139338420242,0.6939662012259512,0.6544645948928743,-0.30014295889118286,0.0060626070601608835,-0.28739593172355754,0.17664099401319186,0.7191905213179883,-0.5565642269852078,0.20041147587850652,0.3644666956615112
222,2.22,0.21791469679096467,0.1449321331012816,-0.4911885667059009,0.6909283967679186,0.6574525559280088,-0.30062176462290535,-0.006429194570785593,-0.2901783141139225,0.17379334343734806,0.7206313035362639,-0.5565464724047599,0.19986280083036448,0.3619407232677281
223,2.23,0.21303789494898456,0.1483841205664026,-0.41029332557530834,0.6884083687826568,0.6599085673912992,-0.30102193331328414,-0.02069664955550021,-0.29272716695980366,0.17175190743116878,0.7218931400236089,-0.5564866431898005,0.19952857326628026,0.3596957179003505
224,2.24,0.20927426977389857,0.15137498830345428,-0.33263875821392885,0.6864117376014831,0.661819630949817,-0.3013860600621693,-0.03973684760356589,-0.29196653288230456,0.17141204876454955,0.7229949187124393,-0.5563628990440374,0.1994173978809205,0.3577307054730073
225,2.25,0.20239927129904212,0.15400213482769007,-0.25513490186464194,0.6849325001420612,0.6632057876324313,-0.3017045123140626,-0.0576049575038692,-0.29227477781101524,0.1666851379157229,0.7239393789886008,-0.5561812845584211,0.19952472675080274,0.3560393350513097
226,2.2600000000000002,0.19253831228844298,0.15298101504730557,-0.16652364254831048,0.6839981786944693,0.6640511990478852,-0.30196485593882433,-0.07733951554785166,-0.29478347433417124,0.16062439638088932,0.7247097123540657,-0.5559488269552092,0.19984610042258363,0.3546525017462005
227,2.27,0.17246199879186896,0.15121494757921086,-0.07461770474371873,0.6836367825383032,0.6643421024518819,-0.30214329538945767,-0.09366685636836151,-0.2968824521010571,0.15429873037088265,0.725287139372098,-0.5556762087340616,0.20038034079244502,0.35359638157422907
228,2.2800000000000002,0.14453705911658987,0.15053537168970166,0.02312711032440487,0.6839147027457794,0.6640418453638731,-0.30217425463309733,-0.10063331789366621,-0.29710350419422865,0.14875046828315447,0.7256261613880379,-0.5553899519028473,0.20113388022452675,0.35292202364075703
229,2.29,0.10468219220710671,0.1486250306940772,0.13053531415543373,0.6848693570928666,0.6631458732688311,-0.30197966316949976,-0.09790227797424919,-0.29892145343197196,0.1465214236731668,0.7256903319421139,-0.5551231342299523,0.20210995796762002,0.3526523116787462
230,2.3000000000000003,0.048422042641767186,0.15078579373391873,0.23996241829081388,0.6865502040885862,0.6616406630263686,-0.30146346187017464,-0.08918321529657648,-0.2975146301545369,0.14653653325262078,0.7254270944469403,-0.5549183274315733,0.20330735244744877,0.35282752399808653
231,2.31,-0.029354689476472778,0.15666761064987708,0.3632713078033401,0.6890011941611535,0.6595385807554568,-0.30047668448609083,-0.07894263345518257,-0.29516763372120136,0.1488032910981966,0.7247676893391805,-0.5548445534918042,0.20471720838978125,0.3534831447046772
232,2.32,-0.1131943276929622,0.16567016010109367,0.4977019194585892,0.6923062457332333,0.6567921847756047,-0.29889112760141057,-0.07074861404241863,-0.2920228102253478,0.15697650893148282,0.7236464449995826,-0.5549475654735843,0.2063676249367297,0.35465684584820906
233,2.33,-0.1894352853118805,0.18234343398889521,0.6474794951649958,0.6965690119628981,0.6532854397003758,-0.2966640053766224,-0.05932154657366107,-0.2850367646762209,0.16228403729331423,0.7220205793482032,-0.5552249261276787,0.20831046342656687,0.3563962690654049
234,2.34,-0.25417456241766395,0.20746071475556754,0.807060549331055,0.701869391324792,0.6488674199440533,-0.29385465795606336,-0.04238386852556873,-0.27323136081233096,0.16897061775739974,0.7199004910048418,-0.5556152066390314,0.2106286096377713,0.35870697108417077
235,2.35,-0.29201996666914276,0.2325185431628328,0.9762420344469023,0.70828124557321,0.6433785471324348,-0.29051947691843794,-0.01574917905140056,-0.2541700451878992,0.1721297310403316,0.7172945610023556,-0.5560554072698436,0.21340710209090738,0.3615915032283749
236,2.36,-0.3208617847413274,0.26006977054141744,1.150958466609702,0.7158171079919216,0.6366827129588561,-0.28677453804816416,0.013325809834955233,-0.23230024490485843,0.1669657072247887,0.7142349639004673,-0.5564647834837941,0.21670150291752713,0.3650417217638039
237,2.37,-0.3311131213869921,0.28191029670475604,1.3250405772277063,0.7244292581916393,0.6286972553502831,-0.2827355104475645,0.04420844307050384,-0.2114673163449787,0.1468194955894366,0.7107514052781035,-0.5567796030676884,0.22051860213434593,0.3690525828734773
238,2.38,-0.3243740707929549,0.29493182816555635,1.5002470836726873,0.7340529668383803,0.6193181351865186,-0.27857987844453885,0.07776379662227545,-0.1878705263704905,0.11618698888840945,0.706890941851784,-0.556908105359845,0.2248621070130935,0.37362338650835236
239,2.39,-0.30340703506801936,0.30754278766041593,1.6809774187623268,0.7446567370707499,0.6084214983693931,-0.2744126982580227,0.1141234397054906,-0.15421889590156812,0.0798160858369667,0.7026762493593096,-0.5567777310903415,0.2297639888835164,0.37874953829332464
240,2.4,-0.2645948923569821,0.3171647210490568,1.8620429853983054,0.7561828519388236,0.5958937414134803,-0.27034744456273707,0.15867055764702115,-0.11869552293036106,0.0473381094723145,0.698137206709305,-0.5563117547467499,0.2352497507105002,0.3844171541157725
241,2.41,-0.19900502065622078,0.3055837293960682,2.027164099074809,0.7684892544635994,0.5816734331098897,-0.26658135169507524,0.22405136339838533,-0.07921231920513869,0.019609680976237914,0.6933410404968868,-0.5554113964844727,0.2413006132842901,0.3905977013413676
242,2.42,-0.12622835782604622,0.2908104545187303,2.1404829690262046,0.7812586994441604,0.5659167792451518,-0.26335117763876603,0.3129901448955014,-0.030347606129314468,-0.011344675613915108,0.6884192198057237,-0.5539987981127398,0.24780575172129474,0.39717960207197217
243,2.43,-0.09664026500664474,0.28213231242938297,2.195025367002065,0.7941188091623743,0.5490872436181241,-0.2604903814857565,0.4132388361270599,0.02410826322178765,-0.048373782691451664,0.6834075357516611,-0.552215958457467,0.25457775212244077,0.4039749509472896
244,2.44,-0.09604693276171226,0.28671354840209273,2.2056458974531523,0.8067654348317814,0.5316998438171773,-0.25767940413742974,0.4952038952224622,0.06988222639767,-0.07652029314091327,0.6782792473388921,-0.5502878343373054,0.26142061707378794,0.4108200126687008
245,2.45,-0.11079170763939651,0.30333018501329634,2.1651891462982435,0.8189674373844965,0.5141657613535552,-0.2547497480296847,0.534195814196982,0.09229941759111644,-0.08921671396814963,0.6730746096973311,-0.5483445579348433,0.26821688334794674,0.41754173363167274
246,2.46,-0.13913601566814704,0.3403065738461092,2.0629264628920176,0.8304936575499571,0.4970089725632501,-0.25146257532614485,0.5272767629274947,0.10191191396393935,-0.10148727025770318,0.6678367074229967,-0.5465657795124735,0.27482984509456815,0.423935098889253
247,2.47,-0.13460771945738192,0.38470997283886543,1.903270340345995,0.8411067597198059,0.4807647481871008,-0.2477440488011672,0.48317625936816666,0.1191124784316287,-0.11344045831032416,0.6627126999530175,-0.5450469700724269,0.2811561109141036,0.42974388303155264
248,2.48,-0.06291294680599596,0.4284235175195751,1.6978487408824847,0.8506338587056539,0.4657793944307068,-0.2438171895057314,0.41307385750380615,0.1377260553633427,-0.13808484612256405,0.6579627806987031,-0.5437052509882698,0.28718131212551445,0.4347300371435881
249,2.49,0.07033517467087205,0.45485845788358914,1.4742647930590886,0.8589939917077986,0.4522117325078888,-0.24002595516005562,0.33444469346024547,0.15452975851581396,-0.17805270956229943,0.6538551529998019,-0.5423708131625088,0.29294723903667685,0.4387298376938626
250,2.5,0.2379691191771712,0.45982288328526494,1.238784275132006,0.8661507919751166,0.4401404135456119,-0.23673175251890125,0.2497766722805784,0.1594644661890257,-0.22620895263651236,0.6506017933018633,-0.5408792839075989,0.2984642657005001,0.44168061405491227
251,2.5100000000000002,0.42194817603737,0.43898653128090265,0.9950014089219812,0.8720744395249099,0.429658685515884,-0.2342359114974096,0.15798605038965563,0.16373610556990734,-0.26971651407637853,0.6483401039446134,-0.5391281288241169,0.30367772429630063,0.4435904667559159
252,2.52,0.5939938216357739,0.4006053768945562,0.7602422447859165,0.8767893829885836,0.4208057019850058,-0.23270926291094954,0.060100262124446066,0.16804131737542594,-0.2926129261725928,0.6471203752299592,-0.5370732005409351,0.3085370246431802,0.4445106659630235
253,2.5300000000000002,0.737637593074249,0.3434221156722307,0.5504110840175743,0.8803778086800661,0.4135244536100963,-0.23222071158715824,-0.03611172678476356,0.15847301965682545,-0.2877282730493259,0.646885963859106,-0.53472486967353,0.3129799387820653,0.4445774743204519
254,2.54,0.8138194738499233,0.2650298546916693,0.4010614894902289,0.8830271502657021,0.4075502998073392,-0.23272699453679857,-0.0964785093552544,0.13319950290941096,-0.2580731339211268,0.6474377768614844,-0.5321361413096366,0.3169625942972518,0.4440585521687114
255,2.5500000000000003,0.8009053871730406,0.17281470800278118,0.3075877432149291,0.8849677285815419,0.40255031723256995,-0.23405670420803526,-0.10150380195869804,0.08946334669337398,-0.2139937317511411,0.6484590527882549,-0.5294387030711387,0.3204126210263696,0.4433162478020405
256,2.56,0.707165340119602,0.07292978534344893,0.26842180554261813,0.8863990589123514,0.3982483429455316,-0.23599218832226115,-0.06925883331806136,0.03810714568236929,-0.16981854673456334,0.6496305751918392,-0.5267960700529998,0.323246265467814,0.44269185705904374
257,2.57,0.550309411851909,-0.019276535325554345,0.28360331978857334,0.8875448199986404,0.39432021132557554,-0.23827115468860594,-0.022413504655475563,-0.006004590606764552,-0.12847090900612773,0.6506478007888099,-0.5243512026107567,0.3254520086666367,0.4424849154177456
258,2.58,0.3283078833166338,-0.1149487143072713,0.32712801542332137,0.8885861420231547,0.3905493070487793,-0.24059056264236278,0.02281993361359217,-0.043318216804914295,-0.08969008892594432,0.6512385355839585,-0.5222667356153311,0.3270189550748157,0.44292645546565346
259,2.59,0.06315391899910297,-0.22270003404623506,0.38213945741606914,0.889559104296822,0.38692228150192975,-0.24284456036101493,0.05905126659305088,-0.06122638340172688,-0.05265643763915218,0.6512403765249829,-0.5206737732924711,0.32783560840706005,0.44419376988157183
260,2.6,-0.23819687090428984,-0.32654059693379867,0.4404031546929615,0.8904791818001078,0.38347213049932677,-0.24493666697601932,0.09380011075804737,-0.05661380857070802,-0.023220607224752766,0.6505445123212942,-0.5196753715336888,0.3278247511499233,0.44638495045979404
261,2.61,-0.569449002537568,-0.42664969581755097,0.4893787321609038,0.8913321866568914,0.380306183810107,-0.24676416006340138,0.11963499924302198,-0.04691797419445812,-0.003324764744760452,0.6490748748024104,-0.5193713992539966,0.32691147489450995,0.44953560162277717
262,2.62,-0.9417695682525273,-0.5105475275549102,0.5170749618527916,0.8920920307909799,0.377661256596335,-0.24807854162941,0.12324672526680852,-0.052708044689039266,0.007780452382463105,0.6467326389880609,-0.5199348474686805,0.3250043387796432,0.4536221827627086
263,2.63,-1.3161295791640164,-0.5699631840130217,0.5169634315393719,0.8926980551436663,0.3758453330404766,-0.24865658171685592,0.10791708768734827,-0.06864310924678144,0.0206503117869723,0.6434826429979781,-0.521506982654113,0.3220253278695398,0.4585336853010857
264,2.64,-1.6564677849990708,-0.5958452938612807,0.49672337417463613,0.89315091725258,0.37501720313380643,-0.2482811852294987,0.08736803029636694,-0.08238867736123162,0.03464053791305698,0.6393489628411999,-0.5241265748304166,0.31803623161562156,0.4640756266773925
265,2.65,-1.9419339857520848,-0.587565178052721,0.45914131301634364,0.8934902771365292,0.37518898693606123,-0.2467955694850624,0.05890748918055032,-0.08805166998149798,0.04680718871148738,0.6344163799188093,-0.5277301175704522,0.31320481264554517,0.4700047304784147
266,2.66,-2.137061418354193,-0.5649676425795926,0.4218050130936781,0.8937340849568689,0.3762737716317151,-0.2442458935876005,0.014099221726226747,-0.08410915471330395,0.058614353454129554,0.6288412582239765,-0.5321488057718304,0.3077119183245001,0.47609964921051584
267,2.67,-2.235542905087043,-0.5294305380151884,0.3936503995534524,0.8939519793664614,0.37793582759865924,-0.24085691903312886,-0.035348559715152716,-0.07293598611003813,0.06582747111671562,0.6228317507437385,-0.5370783264650081,0.30184246346472926,0.48217996637862104
268,2.68,-2.2355913983563513,-0.4833264859196442,0.3652719914513892,0.8941860199495414,0.3798875518316598,-0.23688330951398068,-0.0773726612866926,-0.060542548411083516,0.06979812214795288,0.616619472616676,-0.5422266831580664,0.2958689484097268,0.48806805551345517
269,2.69,-2.14709746815046,-0.43201579815658814,0.3430730789716082,0.8944603715326503,0.3818851238625438,-0.23259581760518944,-0.11577844418647903,-0.04104317040447794,0.06896225831955277,0.6104365346071439,-0.5473293425310477,0.2900394365774959,0.4936132781946498
270,2.7,-1.9874925894984994,-0.37761639721494555,0.32045101322542313,0.894803478296473,0.3836858470436555,-0.2282727073848844,-0.15107186114723603,-0.016153050166003772,0.061134227154564305,0.6044960004510074,-0.5521455443367811,0.2845879364250874,0.49870933928941885
271,2.71,-1.7702482762565166,-0.3226340586408801,0.2988971909960636,0.8952025493370851,0.3851779272341218,-0.2241593638154628,-0.1773238091131802,0.00972955325327898,0.05395207864985826,0.598996443134271,-0.55650045714879,0.2796792981840602,0.5032640678783012
272,2.72,-1.515134761691767,-0.2722195053709906,0.294002267270434,0.8956912462890487,0.3861757458901152,-0.22046167076445558,-0.19955140050623799,0.027528717673396146,0.04887093298730664,0.59406650189703,-0.5602479262211024,0.2754746405836866,0.5072566970573384
273,2.73,-1.260740737629059,-0.22262935213422197,0.30437142014711804,0.8963074348441074,0.3865359560230606,-0.21730498796966025,-0.21375470828096865,0.035652799634215165,0.045287668366463474,0.5897482384471602,-0.5633190597219874,0.27205836472065614,0.5107294136150086
274,2.74,-1.0163533977151884,-0.18732767929169053,0.3351339506056178,0.8971017629051375,0.38613108317369765,-0.21473259668354036,-0.21561732301028755,0.03832405167617557,0.041491903630479186,0.5859960684184764,-0.5657104683401812,0.26945016585937254,0.5137811027063806
275,2.75,-0.7874089810062548,-0.15935697355427678,0.383140973547501,0.898115814140101,0.3848382272243986,-0.21280594653706775,-0.2050678437065485,0.037256733040908915,0.03591670693963382,0.5827517689690107,-0.5674182136211867,0.2676428095233491,0.5165271119681143
276,2.7600000000000002,-0.582863555558134,-0.13632917279868775,0.43732752374172335,0.8993786318128959,0.382596735971529,-0.21150959605813435,-0.1918939267216694,0.03390878267879706,0.03092145152083104,0.5799473421834385,-0.5684733035048044,0.26661399395558216,0.5190505919061708
277,2.77,-0.4201752793769523,-0.10885839906747305,0.48924827533947907,0.9008896787617023,0.37947196896739,-0.21070431026085665,-0.1870013130972046,0.036935548248739326,0.0272394194468457,0.5774837119202932,-0.5689820475717995,0.2662841395407378,0.5214045962570687
278,2.7800000000000002,-0.3023921611475268,-0.07927344286167134,0.5351365555892807,0.9026298311406401,0.37559636080865677,-0.21019810140943018,-0.1844701958923025,0.04431450964365724,0.026654918155640177,0.5752499437599985,-0.5690845907476196,0.2665401395696481,0.5236266812164633
279,2.79,-0.23733068747223285,-0.04626683734364972,0.5740419137342466,0.9045700484902226,0.3711397918148716,-0.20977034115979667,-0.17841816426746987,0.0513578020117593,0.035114500315208005,0.5731197302842124,-0.5689439007294947,0.26724058979519383,0.5257540786705832
280,2.8000000000000003,-0.20644677253769764,-0.013302201824839432,0.6113251973183973,0.9066958074207917,0.36622313581818816,-0.20923089571704942,-0.17135030203793075,0.05506711202652573,0.049987539643585016,0.5709711562602542,-0.568698681017385,0.2682649902318305,0.5278312214179184
281,2.81,-0.20107304533033796,0.018158053831580426,0.6434694235439029,0.9089899780663416,0.36093288286372105,-0.20846573803542648,-0.16657703939431712,0.0563144143633274,0.06486470142743725,0.5687249830023465,-0.5684390482027872,0.2695251674452543,0.5298897318813839
282,2.82,-0.20939782471813093,0.04570470223231937,0.6637652185181515,0.9114049789242805,0.3553926635858556,-0.20743561906956995,-0.1618786286040935,0.05906051978352423,0.07275276593970656,0.5663568971887512,-0.5682221250652103,0.270934258367507,0.5319359922041316
283,2.83,-0.2222830090959479,0.07001567763523195,0.6703165977373036,0.9138791829291192,0.34974794873803117,-0.20613841383724868,-0.15314775029031236,0.07013857798864874,0.07548052474619846,0.5638840726218375,-0.5680826730964531,0.27241952376079176,0.5339493842350098
284,2.84,-0.23308600382902417,0.09242654400968263,0.6618036633396919,0.9163607859674006,0.34412024102710503,-0.20458674848131758,-0.14895937212878801,0.08626150867179883,0.07315060818931977,0.5613409303053797,-0.5680366958333147,0.27393512033424466,0.5358988634028227
285,2.85,-0.23809328691544826,0.11612480680223738,0.6435078921251394,0.9188076797853794,0.3386048622938228,-0.20280764280590957,-0.1530373773278671,0.1018511505041542,0.06830843745060707,0.5587701852735625,-0.5680852116136449,0.27545395155801095,0.5377523981901603
286,2.86,-0.2376258497859392,0.136392739112523,0.6190691338702639,0.9211862893064741,0.3332795272773078,-0.20083004942020102,-0.160991427232992,0.11663319564803655,0.06348272003297636,0.5562148677160628,-0.568223492274455,0.27695947058905834,0.5394795095955972
287,2.87,-0.22197575039767709,0.15233256351796787,0.587256665389159,0.9234682844944425,0.3281836560221413,-0.19873199159138683,-0.16778980219608944,0.1313068998750512,0.05458693069602343,0.5537320971161951,-0.5684174881088766,0.2784512046672128,0.5410591702076294
288,2.88,-0.19540015293246313,0.16858534020802582,0.5527215138071231,0.9256411371725947,0.3233308834414142,-0.1965672243711098,-0.1722133317929286,0.1452965599681257,0.040065213943863476,0.5513721720233411,-0.5686340229730702,0.2799486185846345,0.5424673389589183
289,2.89,-0.158825537628195,0.18437790827192754,0.5184831769894621,0.9277085924698313,0.3187110044727625,-0.1943542925912199,-0.16999433574167255,0.15803564853459906,0.026615955705202587,0.5491620528053393,-0.5688521265299328,0.28147748167321907,0.543688248255833
290,2.9,-0.11584317193339101,0.20021547201744286,0.48472733988801414,0.9296722694241595,0.31431643985514013,-0.1921159969632135,-0.16024290520083131,0.1677947419528991,0.01718193826633643,0.5471274782886738,-0.5690510812881342,0.28305880858597565,0.5447095394246461
291,2.91,-0.06438579105354439,0.2184557900704714,0.44993536616583396,0.9315340601310883,0.3101361918017133,-0.18987965795739817,-0.14449836284610068,0.17584682558176634,0.007242221529456269,0.5452950269061784,-0.5692074791954911,0.2847145485310204,0.5455203442826788
292,2.92,-0.00895622719632009,0.24237874163585335,0.41938747113714214,0.9333094339232776,0.30615151306360844,-0.18761542549405721,-0.12584557065303592,0.18494192926572733,-0.0005833400335365745,0.543674050726319,-0.5693163521531638,0.28647938241491944,0.5461005009686597
293,2.93,0.048203072594817015,0.26968856151857873,0.39163908144012266,0.9350212969185904,0.30232988659934684,-0.18527497968069911,-0.10856370796888397,0.1928229108205054,-0.004330028822007064,0.542252439135309,-0.5693832442929561,0.28838231393823655,0.5464425653262772
294,2.94,0.11606601533405328,0.29058780071747126,0.36151517630332247,0.9366734226612207,0.29864851234708717,-0.182885818601673,-0.08992715617266357,0.20226406375085876,-0.008415665652101915,0.541044852175656,-0.569386084428877,0.2904402670465526,0.5465466355709715
295,2.95,0.2016848030628524,0.30219475262662754,0.3268351740194749,0.9382391195794911,0.29512525843474463,-0.18056627820273038,-0.06325655242193039,0.2180710474408949,-0.01839852426237288,0.5401177421001625,-0.5692684245087827,0.2926586952042567,0.5464027261394341
296,2.96,0.2857866342547908,0.30564572825362724,0.28425725360857623,0.9396866017943022,0.29180872339355,-0.17841820618594662,-0.024301235087101133,0.2404039199418694,-0.039270104512753645,0.539526736452193,-0.5689922542434113,0.2950208852128901,0.5460036856096326
297,2.97,0.34054413264965167,0.30363920306624725,0.23394368550442662,0.9409833032657636,0.2888046341082305,-0.176463675309158,0.028600471692046547,0.2581857467471089,-0.06115766590172406,0.5392620952897975,-0.5685894426483052,0.29744372243109507,0.5453698584961361
298,2.98,0.35190559834029206,0.300559182252926,0.17486493429216465,0.942102505141604,0.28626132896470646,-0.17462885107388107,0.08018496534348875,0.2631250548698932,-0.07018835277043756,0.5392460047022786,-0.5681632183674772,0.2997913212112014,0.5445439656030381
299,2.99,0.31644770404308115,0.313235360392234,0.10689516498296943,0.9430388814500082,0.28433875554290944,-0.17270667901387995,0.11209996586525825,0.25773863003067643,-0.06456192363655622,0.539358773409547,-0.5678723861540915,0.3019380639097614,0.5435488300940144
300,3.0,0.2532719821063324,0.34409550617708273,0.043586993009951974,0.9438190901883843,0.28313506680492795,-0.1704068722967048,0.11496717871165606,0.24635829319378857,-0.04924206856752196,0.5394610340506247,-0.5678849207647079,0.30381330677942436,0.5423882588996619
301,3.0100000000000002,0.21671652864917937,0.38464008264171345,-0.008498786112240236,0.9444834006758571,0.28258476732135973,-0.1676153572699398,0.0934324501671831,0.2308535765299516,-0.026524045504990754,0.5395144036172079,-0.5682249274255233,0.3054702805263087,0.5410467130103422
302,3.02,0.24909557264489046,0.419729816022638,-0.05983504255765171,0.9450562568502808,0.28252227126248636,-0.16446100886895512,0.07980657317923492,0.22513039931797776,-0.01383578291252489,0.5396381250852429,-0.568746407774872,0.3070770355180683,0.5394633059396913
303,3.0300000000000002,0.34943640287277156,0.4349402914316093,-0.12167474562177308,0.9455002075242624,0.2828853499569368,-0.16125412539292502,0.10995721824394727,0.2487477518802382,-0.02688369596854577,0.5400634240460914,-0.5692359558011799,0.3087759188538866,0.5375477243115978
304,3.04,0.4770600638463234,0.43935253652522815,-0.18018716937754387,0.9457719033370218,0.2836581608042527,-0.15827678176092844,0.15677495870625338,0.2901147833124329,-0.05820169701365384,0.54096597506874,-0.5695304905210422,0.31063757594533115,0.5352499862760558
305,3.0500000000000003,0.6028312797251296,0.4372349609239296,-0.2222349327748417,0.9458851491999858,0.2847277146346361,-0.15565892968109787,0.1694599731411167,0.32137891995169077,-0.09213765939209453,0.5423654635861329,-0.5695527380106223,0.31269647003489615,0.5326037258255564
306,3.06,0.7102552793229829,0.4321078137556036,-0.24957059227335013,0.9458859602525403,0.28594414408200053,-0.15340938848077534,0.1526268194755402,0.3328217278839682,-0.1191684774911783,0.5441803406471627,-0.5692947625981158,0.3149561722859455,0.5296880020916613
307,3.0700000000000003,0.7888589165100272,0.41692327667950907,-0.2734685716903961,0.9457868405133295,0.2872706374749753,-0.151531762309145,0.13968687684370293,0.33192371565179757,-0.1321105390800869,0.5463316374925287,-0.5687864618440722,0.31735549239846067,0.5265776066510823
308,3.08,0.8574067952071506,0.38979818844924197,-0.31391168115981183,0.9455507360169115,0.2888046320384755,-0.15008278920596257,0.13591564062278094,0.3288727476068112,-0.1318644921888332,0.5487971499252465,-0.5680609601447628,0.3197870009258814,0.5233151912975669
309,3.09,0.9427695434919987,0.36430216959568984,-0.36896244424983243,0.9451290147156568,0.2906760757064817,-0.14912327870877398,0.126513495450691,0.3292306648701453,-0.12805855820502804,0.5516306496342177,-0.567116942957408,0.3222033764144103,0.5198654469698513
310,3.1,1.0494924055192596,0.33838022129212386,-0.4346020094595685,0.9444787654461655,0.29298929181241995,-0.14871403051207402,0.10490613397136851,0.3317308975970943,-0.12428678022978326,0.5549229532848288,-0.5659214912825592,0.3246135660104628,0.5161501663348487
311,3.11,1.1555063693356336,0.30914616500436437,-0.5048660645460092,0.9435751712199847,0.2957903575228561,-0.14890156961609116,0.07788480533384284,0.331593517059898,-0.11598154861589496,0.5587194931073616,-0.564451482951813,0.3270193473588692,0.5121279973877296
312,3.12,1.244270682421697,0.27993503408510334,-0.5790960455890933,0.9424002920745417,0.29911805667961217,-0.14968753500388107,0.05087533278323251,0.32416232385901655,-0.10291357532274133,0.5630026256020029,-0.5627284783635634,0.32937925372182947,0.5078010130048294
313,3.13,1.318564654024464,0.2531209023693915,-0.6598989656198873,0.940931485893107,0.3030376298786763,-0.15103201255137547,0.02804713570109032,0.31231435962531867,-0.08621135629887708,0.5677291261847475,-0.5608071548944513,0.3316279823827312,0.5031779248205155
314,3.14,1.3917047847712454,0.2303075276781388,-0.7360913300174565,0.939159960438572,0.30756014396418574,-0.1528981852343225,0.01627024954241743,0.30171079194552664,-0.06506068689384122,0.5728702291105456,-0.5587140952895601,0.33374721491113407,0.49825230741301924
315,3.15,1.4723440483876133,0.21410994076725348,-0.8035107634576244,0.9371082583986056,0.3125944502693464,-0.15525271662576187,0.015660898553402355,0.2909908832654464,-0.04021278359674952,0.5784000816957293,-0.5564370831825576,0.3357811497523805,0.4930156197737241
316,3.16,1.5622064498050499,0.19847903607181092,-0.8569969433915103,0.9348119613794644,0.3179951179348126,-0.15809561497726288,0.028859916768936397,0.2783923731369145,-0.0161559475506748,0.5842946355985498,-0.5539375061636251,0.33779087953903847,0.4874732869316382
317,3.17,1.6689300420475228,0.1759664787200182,-0.8969094495026807,0.9322948526439158,0.32361016328763026,-0.16152213714257307,0.06155234466912636,0.2676392026795346,0.002122754644855578,0.5905628182372682,-0.5511377051595028,0.3398276925188683,0.4816400329471092
318,3.18,1.7800412588944456,0.14523603922743158,-0.9313708505701788,0.9295697823325254,0.32930504012805717,-0.16565948698092284,0.11065801181588905,0.26043725332790335,0.009864191290915654,0.5972181211657644,-0.5479585010009885,0.3419176965706411,0.47554048611102795
319,3.19,1.8699759411225059,0.10522684201574353,-0.9688377549802086,0.9266245496078612,0.33505080196991804,-0.17055841934712176,0.1693863470698082,0.2547554901108153,0.007617145445828724,0.6042339668511111,-0.5443983118625714,0.34401546706512703,0.46920898123999516
320,3.2,1.9214120155040237,0.059773537240772834,-1.016765120004741,0.9234123017931324,0.3409470391646154,-0.17619257976500063,0.2279315101545442,0.24766576828354678,0.003978705374796694,0.6115480052302881,-0.5405409971347812,0.34599744799089555,0.462688123040539
321,3.21,1.9336414939497706,0.014870343396665119,-1.0748294923743047,0.9198830163333315,0.3471273856116326,-0.18246497703143677,0.271148509660805,0.23535337367843862,0.006099983264611696,0.6190742020014381,-0.5365124776217776,0.34773126642734264,0.4560193329950282
322,3.22,1.9165468775735912,-0.02232904238876428,-1.1459145482770061,0.9159869350141057,0.3537584587886065,-0.1891951500923911,0.2870688582414516,0.2149432549722084,0.017014501494208047,0.6267303467074957,-0.5324601745191412,0.34911909024692805,0.4491990301909715
323,3.23,1.8759815301266027,-0.052493491555022746,-1.231854400677123,0.9116634596123823,0.36101633470172195,-0.19622531135992696,0.27927758356221855,0.18904245389294247,0.03618960639850736,0.6344613454252224,-0.5285136315834239,0.35008111038718664,0.4422033024619506
324,3.24,1.8250888220526245,-0.077638884607613,-1.3298267364264715,0.9068548227495911,0.3690007479579232,-0.20350660151545427,0.25598303503974035,0.16185407989253817,0.05961172290254707,0.6422453482552417,-0.5247373891549487,0.3505623241611954,0.43502371708847026
325,3.25,1.7715746623907593,-0.10337486053967575,-1.438177862299421,0.9014949157904222,0.3778030584912212,-0.2110156353382764,0.22223663351924572,0.13392151677120628,0.08230407658355478,0.6500857993494317,-0.5211702837067361,0.3505291918258949,0.42762899845782437
326,3.2600000000000002,1.7168761379371222,-0.13560830470154572,-1.5516798598524135,0.8955107565241746,0.3875018957307762,-0.21874929939804785,0.1867653373378394,0.10685605017150801,0.09951201342250635,0.6579925006782115,-0.5178388177962534,0.3499507560522558,0.4199876192230936
327,3.27,1.6582877517241283,-0.16894855569301345,-1.6634366381431955,0.8888499583654856,0.39809829481368314,-0.2267245619260166,0.15657156418979754,0.08199358677818346,0.10973961804456259,0.6659609615266464,-0.5147488541262624,0.34881029440205674,0.41209980508252386
328,3.2800000000000002,1.5783656625555995,-0.2065471360833676,-1.7693552377950172,0.8814769561049259,0.40957148450849873,-0.23490786464109434,0.13488752433233503,0.05678852555624467,0.11840821326441568,0.6739452787415253,-0.5119361748415624,0.3470801023690389,0.40400386403673005
329,3.29,1.4661127699899046,-0.2498149932800756,-1.8608012831020428,0.8733750493353503,0.42187612205675074,-0.24322982326786807,0.11855287371834881,0.02559576394708218,0.13218715210966386,0.6818600936687813,-0.5094636935249413,0.3447153888085018,0.39578985573681985
330,3.3000000000000003,1.3292458771617635,-0.29393988092258233,-1.9351498570777854,0.8645617813103406,0.43492847727919115,-0.2515695399776537,0.10399950645791643,-0.012279193210371207,0.14927112607122658,0.6896003011026773,-0.5074004457758633,0.3416962723767911,0.3875632321155244
331,3.31,1.1838045537238873,-0.33411690621625645,-1.9990745596905006,0.8550652950084248,0.4486381361601008,-0.25980333383374454,0.09308102312989079,-0.0489326122265498,0.1662717168314885,0.6970871336980561,-0.5057905642527268,0.3380381458943959,0.3793965255720483
332,3.3200000000000003,1.0428437511885176,-0.36708725846258555,-2.0469572444855695,0.8449206213482846,0.46289971675972036,-0.2678402528813801,0.086817394705965,-0.0790181661558659,0.18473782788500429,0.7042815112140148,-0.5046350939525248,0.33379328691781796,0.3713217632444532
333,3.33,0.9090877171193693,-0.3938068110013172,-2.077435996334424,0.8341869515681993,0.47757200012189227,-0.27560616970571483,0.08546706369956551,-0.10456176521760661,0.20183607908274567,0.7111573088962176,-0.5039076352092233,0.32904063340584894,0.36336252889441795
334,3.34,0.7809730863453136,-0.4175994837924385,-2.092528941240656,0.8229352771528445,0.49250141246070367,-0.28305356540030885,0.091290287524646,-0.12830745241256625,0.2163891792065892,0.7176933211377142,-0.5035708272740353,0.3238555828456052,0.35555442337188553
335,3.35,0.6569181898654407,-0.43896473155604254,-2.08760414284861,0.8112490931083931,0.5075370056639077,-0.29013780496382174,0.10175659905601861,-0.15193460413695778,0.2288080874206725,0.7238666498044983,-0.5035896771971435,0.3183087786280853,0.34794236670233514
336,3.36,0.5422596217069834,-0.4560116621562575,-2.0677953577041635,0.7992226211307121,0.5225353608837402,-0.29681636112696896,0.11273708653102771,-0.17498659270480948,0.23856145009543106,0.7296601819713825,-0.5039269544143944,0.31247510645391263,0.34056453235043765
337,3.37,0.4386020627275907,-0.47010670398313575,-2.0348061907451402,0.7869541511050623,0.5373544836525747,-0.3030770631734022,0.12262628511749138,-0.19594703129627528,0.24783598990867767,0.7350719320478644,-0.5045312100299089,0.3064318027853037,0.33345137485403337
338,3.38,0.34114104576407245,-0.48126328995553547,-1.9898252437127504,0.7745355237690831,0.5518936547925526,-0.3088913810514703,0.12960814756402825,-0.2143424280172806,0.25600018168415234,0.7400960407289168,-0.5053714582813247,0.30024044602934924,0.3266305522632857
339,3.39,0.2540579554929199,-0.48470373657960075,-1.9333436902025387,0.7620609216145211,0.5660634769099063,-0.31423852409511693,0.13260925578205393,-0.22928152077725125,0.2646678164415076,0.7447329202565193,-0.5064153144990181,0.29396335847276034,0.32012192763146724
340,3.4,0.18089024660469885,-0.4856199278099315,-1.8709379000123907,0.7496281741200541,0.5797732486888291,-0.3191182670053353,0.1328758191473218,-0.24237913551325005,0.27417719733186663,0.7489961148104923,-0.507617276408019,0.28767308344579606,0.3139293048951759
341,3.41,0.1215989904053823,-0.4814255793438983,-1.8017104082314912,0.7373083741940375,0.5929630586115151,-0.3235627305334647,0.1273739217129259,-0.2560946810153802,0.2824443342944471,0.7529148772545023,-0.5089284529062651,0.28142661412769593,0.30804168842035046
342,3.42,0.07146945806871156,-0.471752837408804,-1.727534485297295,0.7251857836848323,0.6055802801859033,-0.3275760501333811,0.11515020334604859,-0.26873296007369335,0.29164932827347695,0.756505255665276,-0.5103161576606413,0.27528220366908424,0.3024538479396493
343,3.43,0.028706171789608603,-0.45696309346587094,-1.6532519050637753,0.7133287852563789,0.6175969574178503,-0.3311648325777123,0.09955922895833798,-0.2820088900622996,0.3002897351535378,0.7597845708710717,-0.5117559693226315,0.2692857564110192,0.29715577208444305
344,3.44,-0.002850819823063732,-0.43915066475058195,-1.5840191598054387,0.7017646533595552,0.6290411615379806,-0.3343253395548203,0.0829056715352457,-0.2945755396863534,0.30708427050718906,0.7627748703360455,-0.5132408448195714,0.263463668088668,0.29211295397111353
345,3.45,-0.017624022349319462,-0.41994870714697663,-1.5150263250370293,0.6905175152428012,0.6399083707273765,-0.3371179052858339,0.06451902945487237,-0.3069681401501912,0.31299180777545144,0.7655160392873387,-0.5147328979346192,0.2578444085901317,0.28729379875175376
346,3.46,-0.02552912985372519,-0.3923191631310485,-1.441374935947576,0.6796323779601496,0.6501395076759231,-0.33966097479234036,0.04279003061281833,-0.31947348027987377,0.31556062277587293,0.7680578673511922,-0.5161628647194734,0.25246537111965484,0.28268684636144575
347,3.47,-0.03431999697683477,-0.3641254931823563,-1.3613855736645006,0.6691667603522895,0.6597156644307263,-0.3419767138946578,0.01917342391693519,-0.3339369730142427,0.31675713138320166,0.770409045904132,-0.5175174223361887,0.24734894218403203,0.27830412643277785
348,3.48,-0.037579837385132334,-0.33064289713831163,-1.2746376357742053,0.6592286692143401,0.6686039679487517,-0.34401958093073537,-0.002327918201993878,-0.352058236394871,0.32026101906280324,0.7725540439871004,-0.5188026487515356,0.24254687801318728,0.2741638254814527
349,3.49,-0.03765086747979162,-0.29235317407107086,-1.1837696179536696,0.6498933353081727,0.6767829869798122,-0.34579234724788277,-0.020082177616682913,-0.3676337935253795,0.3236659052551311,0.7744986258874217,-0.5200076487512229,0.2381001494016812,0.270267309621948
350,3.5,-0.037393652431785766,-0.2554786525470331,-1.0875089831516802,0.6412205633697715,0.6842516245300819,-0.3472897905926352,-0.03378124219353615,-0.37726349065583986,0.3297877743269516,0.7762457340236506,-0.5211319040049052,0.23403675640812013,0.2666165714514233
351,3.5100000000000002,-0.04198162127039359,-0.22133515049132732,-0.9791436894102773,0.6332812607592154,0.6909833360884898,-0.3485348299981136,-0.03910989997097708,-0.3860575243238283,0.33549722388128506,0.777791335250111,-0.5221702680348353,0.23036511688140196,0.2632596130638254
352,3.52,-0.0534053157998464,-0.17995459224187615,-0.8464856426714875,0.626232860275028,0.6969097115030531,-0.3494775331590926,-0.03564893194363046,-0.39744952422103114,0.33654127655794647,0.7790993755076765,-0.5231336754097092,0.22713522887895862,0.2602714320393388
353,3.5300000000000002,-0.08726535372200675,-0.14161752617778312,-0.694517491759385,0.6202772643405726,0.7019654676151083,-0.3499869456653323,-0.025167251550701222,-0.4090057832324665,0.33523862995017445,0.7800963696280976,-0.5240707108992668,0.2243991892160661,0.2577637999895685
354,3.54,-0.11528841175945788,-0.10251682401383407,-0.5285304618446857,0.6155353233100292,0.7061149232303984,-0.350018015200522,-0.009843710275953512,-0.4164651353222311,0.33948383579224745,0.7807487119163451,-0.5250014563704065,0.22217923016332194,0.25581256700199856
355,3.5500000000000003,-0.14371826929997447,-0.05592264414927733,-0.32416175966324245,0.6122225069721353,0.709197622465713,-0.3496003123720665,0.0016793828907965282,-0.4182042552413258,0.34307151588287527,0.7810482537363568,-0.5258747975256154,0.22057910303975434,0.25448734861789774
356,3.56,-0.19669219875001898,-0.015888980932977408,-0.10684198813715029,0.6105632803103431,0.7111124436396209,-0.3486130784714744,0.010627311983997967,-0.41437133594795494,0.3416329433105449,0.7809169908841727,-0.526729237196739,0.21965783307718859,0.25391995454560645
357,3.5700000000000003,-0.2476317439995278,0.03608163316266796,0.10787268301903874,0.6105974970051858,0.7118908543396681,-0.3469597757994025,0.026616881805645087,-0.4058146068289287,0.34760567978045476,0.7803151502599776,-0.5276163316389342,0.21941043681035216,0.25414184222552033
358,3.58,-0.27943460245818647,0.10002146462942924,0.34326796616227223,0.612434700848538,0.7114299340989315,-0.3446554897566644,0.04595441175105994,-0.3945209261948964,0.3522843758149454,0.779253566237907,-0.5284892740234235,0.2199339444850121,0.25512930225890823
359,3.59,-0.31030884165864614,0.16059286003863354,0.583486631813184,0.616179998645892,0.7095934217269727,-0.3417464094748935,0.05914305915838509,-0.3815065530031558,0.3473818541818712,0.7777303084016354,-0.5292983623477677,0.22128976864458055,0.2569186250639069
360,3.6,-0.3148602876398296,0.21933739600578112,0.8197444083765772,0.6217904778095329,0.7063217910914321,-0.3383349351460861,0.07129780088638284,-0.37052882040283586,0.33935404314554324,0.7757777003158274,-0.5299883113827506,0.22348000838645465,0.25948748627160584
361,3.61,-0.28784653486560247,0.27294909645935633,1.0672189185100918,0.629250285683439,0.7014401470750904,-0.3346649975150219,0.08753983014810646,-0.34990103421793006,0.31710947589338284,0.773467950473294,-0.5304195611299598,0.22653896178294214,0.26282253234445735
362,3.62,-0.2649101643712073,0.31985605852453103,1.3185949537644777,0.6385749902821511,0.6947843577152275,-0.3308476459908834,0.11541971932255894,-0.3190225103142126,0.28745342787644573,0.7708110023152566,-0.5305161356270082,0.2304882002226621,0.2669614221955446
363,3.63,-0.22780376914008876,0.36197316555943654,1.565391769163713,0.6496545770875308,0.6863035496189944,-0.3269357335186428,0.15559559073455587,-0.2957140809904863,0.256842092007238,0.767811036544411,-0.5302495180950435,0.23529126367084616,0.2718945657633845
364,3.64,-0.163939359569516,0.394258826984074,1.8126455171149576,0.6623848589058264,0.6758618149865709,-0.32309850332985907,0.20950021706624622,-0.2685594677803589,0.21972439796474602,0.7645136608870566,-0.5295168199491379,0.24094634480677304,0.2775946729862705
365,3.65,-0.07999731120647055,0.4208197984646881,2.049440099366621,0.6766320573774657,0.6633097361726689,-0.31954490849918016,0.27894563762711216,-0.21927314701886108,0.19112820524876686,0.7609764551243675,-0.528195833146205,0.24744091577693905,0.28403539372170833
366,3.66,-0.02153718772119976,0.4558917966938631,2.2627805963436014,0.6921804488661486,0.6486899207996536,-0.3162152277559931,0.3435281649894129,-0.16877087734500212,0.1754406544352696,0.7571890028410269,-0.526305097302693,0.25472243092997027,0.2911349414808825
367,3.67,0.0017197866273426033,0.5021725165028944,2.4537774247949344,0.7087940647483865,0.6321756471922839,-0.31281747202504284,0.3872857423261847,-0.1379618207288622,0.1579345809614253,0.7530697681623758,-0.5239835427007364,0.26271439057432705,0.29879740597559545
368,3.68,-0.02569787662639124,0.5482198581707141,2.60080903847241,0.726218840329393,0.6140259579142315,-0.308964661435016,0.41519258969038486,-0.1141338846116382,0.14257974628684558,0.7484983010686977,-0.5214408503826758,0.2712977718469834,0.30694702767850796
369,3.69,-0.05011015441897492,0.5856221501877522,2.6887690077197637,0.743958613684353,0.59467869270682,-0.3045640664918213,0.4305311064377249,-0.08717379101624159,0.13105057901532738,0.7434961056809233,-0.518815888558619,0.2802373010215556,0.3154025210461748
370,3.7,-0.06241887178739336,0.6287850161127789,2.7142523763272415,0.7616079892540112,0.5744923565119275,-0.2996482217739496,0.4326095173409317,-0.05160882018531918,0.10930715292516335,0.7381556991087264,-0.5161521344730539,0.28939193527941975,0.3239349723197095
371,3.71,-0.03697891508764439,0.6796492404507574,2.6750439479825947,0.7787818306684926,0.5538680293986896,-0.2942982262875957,0.4170885310023634,-0.008606887219864186,0.07836348715344797,0.7326289331052489,-0.5134564156639286,0.2986608215127485,0.33224852486130446
372,3.72,0.042684327893738536,0.7253688202726035,2.597394065903227,0.7951746052735063,0.5331084776503365,-0.28876119697267555,0.3703679727755694,0.030736903917153474,0.042733146471594555,0.7271288736684539,-0.5106381404821506,0.3079822320671625,0.3400759449397253
373,3.73,0.167731073208895,0.7534553509870926,2.4763337366240115,0.8105766027815012,0.5124310342368003,-0.28333917469783687,0.30748835764350785,0.0678318018873104,-0.002500484582853556,0.7218662142901165,-0.5075744354956753,0.3173071233674269,0.3472303463074816
374,3.74,0.31875660982377807,0.7751601516205037,2.306866987618046,0.8247608754464477,0.49217442693450086,-0.2782951029429378,0.24069126284704556,0.10298781059317078,-0.0497178014232907,0.7170526606884812,-0.5041907381820058,0.3265423240161104,0.3535194389650701
375,3.75,0.4718869306654507,0.7926243758798774,2.098319357578329,0.8375746720155798,0.4727608483064279,-0.27366853210655356,0.15396904753548493,0.13208134935079371,-0.099383228297118,0.7128175723774857,-0.5005299657392226,0.33559207707725847,0.3587767992766761
376,3.7600000000000002,0.6300335932684182,0.7961339204526979,1.859875982064972,0.848933600721461,0.45455911496033763,-0.26950129742477924,0.046745990698244234,0.15462036071272298,-0.14629372771657495,0.7092596652789999,-0.4966443077534234,0.3443563981041294,0.3629035359425302
377,3.77,0.7918375440751626,0.7975501352898977,1.60868741386082,0.8588211077097856,0.43784101583050233,-0.265852480713045,-0.05783873519285844,0.1718584726455227,-0.1770029065476,0.7064652437579944,-0.49255928221937606,0.352771349030761,0.36583076443283385
378,3.7800000000000002,0.9428086620951618,0.7888709914076395,1.3695789848970237,0.8673372350515423,0.4226951374943625,-0.26271927660450334,-0.12884810582888026,0.18804598888266832,-0.1921454329391824,0.7044466189092355,-0.4882976502386684,0.36082579936836934,0.36757907208818663
379,3.79,1.0722762839573445,0.7596037086005542,1.161428054315561,0.8746221878086963,0.4090583805427189,-0.260156394646073,-0.14952181512786047,0.19708461575378272,-0.18819576068142327,0.7031634286881322,-0.48386981696202247,0.36848638788736854,0.368292563354084
380,3.8000000000000003,1.1573706583851533,0.7139172784726955,1.0072657114935382,0.8808986720665701,0.3966704547234536,-0.258165539391648,-0.12426580773019619,0.19161638478131324,-0.16972258403549306,0.7024852896447462,-0.4792948386078098,0.37574596879385164,0.36823530762437384
381,3.81,1.1860052548995021,0.6497810638800667,0.9049030837973686,0.8863837609956319,0.38522829569756645,-0.25672118357120705,-0.06554191128894606,0.17450900350779303,-0.14693041945779153,0.7022397771014262,-0.47461998659833615,0.3825801938969684,0.36772267488464044
382,3.8200000000000003,1.1352327872836374,0.5844225902405983,0.8625746586966134,0.8913163842347565,0.3744102079401569,-0.2556502970438154,0.01882062986414452,0.16118867939742146,-0.13174517744432648,0.7021819558869413,-0.4699634079736238,0.3889765866036807,0.36710457525314866
383,3.83,0.9846405544290704,0.5165450579043429,0.8541730885354994,0.895884528801711,0.36403604494322317,-0.25466723702126437,0.11240214960047784,0.16051381808173043,-0.11710819516949919,0.7020243542989332,-0.4655540941947481,0.3948680669854911,0.36673627235131223
384,3.84,0.7367410991021899,0.4502412139094912,0.8659085939238419,0.9002028994240697,0.3541139896324067,-0.2534299261634904,0.18704675269391197,0.16716436253644662,-0.09537737594235705,0.7014946273107917,-0.46169305782323766,0.40015146361437015,0.36690642039159416
385,3.85,0.41860523608025835,0.38839254917901533,0.8780124258557591,0.9043134779011438,0.3447709605781309,-0.2516752016653708,0.22573408074335222,0.15747256098537252,-0.06984564005781724,0.7003833856270678,-0.45867229093006234,0.4046975733199876,0.3678319537887432
386,3.86,0.13026539568185436,0.3403962195493903,0.879206076223152,0.9082218451882662,0.3361169066115389,-0.24929966011058524,0.22385582919375624,0.14864881384211262,-0.047341843855496106,0.6986392353248008,-0.45660903676852105,0.40848156240923345,0.36952983811873447
387,3.87,-0.09045038436058722,0.31372451404860197,0.8440930551037197,0.9119044361694678,0.32819258418928854,-0.2464007164812161,0.186520985511231,0.1518239716005477,-0.04066994995307708,0.6964089495176605,-0.455373880863117,0.41162311503037197,0.37177134276597856
388,3.88,-0.23114062131136884,0.3119384195540033,0.7668542636435541,0.9152898532598609,0.3212290316535155,-0.24300449932959986,0.13356241610008435,0.1748023261914442,-0.04854442243795703,0.6938782216173339,-0.4548718642365004,0.41423289350918824,0.3742114535294852
389,3.89,-0.30150877318534547,0.31418099390245807,0.6710791312070227,0.9183359483880712,0.31527767276701424,-0.2392805119152989,0.08146411968049466,0.21547150764932413,-0.05700874230386119,0.691266918183382,-0.4548941822739736,0.41645011707962326,0.3765493949838331
390,3.9,-0.335567070096102,0.31770623552238497,0.5737046880181819,0.921040249093054,0.3103073013563144,-0.2353536449172046,0.03285483004520177,0.2316976114098502,-0.06851987661155037,0.6886964435691552,-0.45530100109222643,0.4183586009264395,0.3786468502120857
391,3.91,-0.3208366644244732,0.3221472521740638,0.48081984804534617,0.9234168862261266,0.30622275528787746,-0.23135870982641685,-0.006054334279007553,0.2229043033434859,-0.07009107464638836,0.686265448642861,-0.45594870651218317,0.4200371468540313,0.38041920146852626
392,3.92,-0.24272405978189887,0.32185728326537505,0.4049249619584053,0.9254997397495076,0.30280016977201646,-0.22750972956744486,-0.04049100671183187,0.2123181113005725,-0.05859810440378355,0.6840932303184947,-0.45661529892813696,0.4216010121015173,0.38179981333433705
393,3.93,-0.08255109699435831,0.32354744790127077,0.32962284307778605,0.9273391646263375,0.2997761311182309,-0.22399881866570084,-0.07401017718601985,0.2209702959334553,-0.0469236034482411,0.682320754260586,-0.45703500247225676,0.4232249792444928,0.38267207713942586
394,3.94,0.14323587664588608,0.33032324680047115,0.25437116397076337,0.9289469910853783,0.2969943164164463,-0.2210237045416795,-0.10579378444957367,0.24464147811775427,-0.043279953800648294,0.6811200277556535,-0.4569544050228727,0.42506531135009845,0.3828675982110074
395,3.95,0.3919804994573659,0.3445113390998049,0.1942555183322967,0.9303564470657173,0.29432378574850654,-0.2186548818570249,-0.12854016889883965,0.26272974238917174,-0.04312428718781873,0.6805798885407297,-0.45621429695596855,0.42724774775885244,0.3822806615241868
396,3.96,0.5994921137068969,0.34959908805595513,0.146305695224949,0.931619671324342,0.29165163723440235,-0.21684951463111263,-0.1432077107131611,0.2643315462162007,-0.03933948989308208,0.6806343059422513,-0.4548266507105704,0.4297759989121683,0.38100080629423605
397,3.97,0.7599960462503104,0.3526379883781221,0.11837479825158703,0.93276573261011,0.28894799089836826,-0.21553908296869786,-0.14936182989657495,0.24512597576217648,-0.031660848474039195,0.6811699950413265,-0.452891787814313,0.43257236349885986,0.3791793315818097
398,3.98,0.8845699680194953,0.3552490595531149,0.1146449493926231,0.9338669171119908,0.28608961781622083,-0.21458112881225166,-0.14876399293552392,0.2170181638012088,-0.021449630563908254,0.6820379101154329,-0.45050403125639793,0.43560864531392607,0.3769810415137128
399,3.99,0.9590682863584448,0.3492480448606142,0.10982596274678803,0.9349452406178835,0.28306022140011117,-0.21390261551327866,-0.14970578175112337,0.20112410773843473,-0.01809132993742081,0.6831267023003303,-0.44777159575932785,0.43880368270613734,0.37455196008840824
400,4.0,0.9993493570690507,0.3408323680406683,0.11251121516269885,0.9359966048389539,0.27992515385072797,-0.2134291395660014,-0.1524953711791487,0.19987016464053964,-0.017135628721105356,0.6843493386866006,-0.4448158754873464,0.44206756961494875,0.37199515102423625
401,4.01,1.0006021559346965,0.33011518593367084,0.121410085563441,0.937044708907484,0.2766841592221542,-0.21305640902204662,-0.1583838060898601,0.1994059958996639,-0.015343240908386256,0.6856032578342992,-0.44174777361053374,0.4453429038829302,0.36942706463328245
402,4.0200000000000005,0.9554496911738956,0.3104674444758029,0.12202776746316163,0.9380651750969742,0.27346064205340703,-0.2127273821625041,-0.16644207946427297,0.18813266228495865,-0.010148898913142688,0.6868151034910577,-0.4387095746999654,0.44851974209184936,0.36694504114121945
403,4.03,0.8864848839600102,0.29245380822749956,0.12775191676558795,0.9390517439136227,0.27032195431370176,-0.2123860250355549,-0.17537258991338683,0.1752194538943975,-0.0037636939298756446,0.687917834794526,-0.43581386550599904,0.4515231152189184,0.36463955677542
404,4.04,0.8429964114137584,0.2801433474073555,0.12411730304482226,0.9399878682593849,0.26734305321454194,-0.21201629334580116,-0.18214894944920204,0.16995859092665935,0.014694365819032646,0.6889187598000236,-0.43309157929113495,0.4543385202154392,0.36249048598572703
405,4.05,0.8250199039954569,0.2511640394970536,0.14055349601582917,0.9409167201482038,0.26429394697910386,-0.21171817609231697,-0.19342309959831167,0.17299249873714964,0.024832381856813905,0.689865699256756,-0.4303864856877176,0.45706492316080294,0.36047814061836364
406,4.0600000000000005,0.8275715647639328,0.23431454711744565,0.13150004173604815,0.9417862173961274,0.26127332904518724,-0.21160103591533624,-0.19760246738606677,0.18808733479296388,0.024605877735262207,0.6908370244044909,-0.4276631459011293,0.45967771106727084,0.35853139670820494
407,4.07,0.8184472552474875,0.2064234235429319,0.10856057128250811,0.9425716803085051,0.25838015844494244,-0.211656100302808,-0.19581370212596455,0.19564005365242204,0.027577619323628483,0.6918615314301365,-0.42493393013758074,0.46217195108136055,0.3565889033037909
408,4.08,0.8440507986128922,0.1857136566166584,0.08077200680084895,0.9432328408739522,0.25573088994303933,-0.21192810365550438,-0.19374580990486917,0.2055023849610859,0.035831367332958844,0.6929896285040638,-0.42219785386153735,0.464526272574781,0.3545834440278335
409,4.09,0.8831166638056838,0.17767092929784353,0.041458328203369685,0.9437792365016849,0.2533110953109593,-0.21240141253574024,-0.19826442846334044,0.21579710084804726,0.04979866465917415,0.694269492855709,-0.419382747450713,0.466815880361478,0.35240688257484865
410,4.1,0.9465674911059528,0.16772829920356605,0.0020891418029786377,0.9442011048393293,0.25117557938751484,-0.21306157527897282,-0.19344622905947453,0.22463896401599534,0.05633986752136373,0.695733473803377,-0.41646862387307904,0.4690657461540728,0.3499795411292638
411,4.11,1.033030009197959,0.1517315862948494,-0.046895555049293575,0.9444905223393566,0.24927158392429613,-0.21401293040709257,-0.1817836382979834,0.23803366574525614,0.0652845850129957,0.6974422648784032,-0.4133596368144146,0.47130330632827294,0.3472471317013056
412,4.12,1.1220034411576072,0.12933850771859606,-0.09067854625237934,0.9446192297719762,0.24762274432307296,-0.21535434763652367,-0.16763063974909564,0.25374036082700235,0.07075570472527666,0.6994492126717947,-0.41000517755152105,0.4735165248803404,0.3441620690530483
413,4.13,1.1570540589387248,0.10227546484055144,-0.1422420542732922,0.9445828470400969,0.24625702728537013,-0.21707323253658178,-0.15422972394021933,0.2628916521268205,0.0699511458059751,0.7017039875734878,-0.4064811724031283,0.47564233731450606,0.3408042049004575
414,4.14,1.1485563492891282,0.07637538195031923,-0.21014083601903438,0.9443483487578468,0.24539687261840729,-0.21905822222114057,-0.13421868383182897,0.2555046150158985,0.07793645575606012,0.7041241991255773,-0.4029924740117806,0.4775637318175464,0.33724970444446856
415,4.15,1.1123583434713087,0.047888775491136314,-0.2755116937290641,0.9438862121508258,0.24520911893126085,-0.2212496865071001,-0.12013048648128213,0.2376094168128167,0.08494293960487001,0.7066579962548244,-0.3996860605942157,0.47919247254876557,0.33355417504777424
416,4.16,1.0514176114288711,0.020105498256016704,-0.3435924694570317,0.9431992205889843,0.24572784148145974,-0.22359125649747344,-0.10348117854397725,0.2264076268149819,0.09446519414492252,0.7092469432597928,-0.3966542172361525,0.48048842254683966,0.3297929138625682
417,4.17,0.9708978373601274,0.007353681028889267,-0.4087187556521786,0.9422996851082746,0.24701861803006284,-0.22594902939068431,-0.08355549946958986,0.21916942982385818,0.10787151079983112,0.7118333039851849,-0.39399111160560774,0.48145191984701363,0.32598574687806403
418,4.18,0.8878825323341181,-0.00648422222103851,-0.4716561126940712,0.9412085723999631,0.2490715872253052,-0.22823118920253999,-0.054077614083146486,0.20698886631882094,0.11995185028348994,0.7143664330268503,-0.39175077756724264,0.4820947461063284,0.3221723002040771
419,4.19,0.8213389409259025,-0.01676713012950615,-0.5084893230465849,0.9399511286092205,0.25173643073129026,-0.23047710542342992,-0.012452019466875429,0.2000999651174043,0.12835563239710035,0.7168498697419808,-0.38986200525901143,0.48246116981500464,0.3183759956393838
420,4.2,0.7488091109675699,-0.030111520197635785,-0.5466184558959506,0.9385624822547507,0.2548722322516753,-0.23267929663455839,0.03669981140873116,0.20356251105056036,0.13000103033989924,0.7192647282798994,-0.38828294568851623,0.4825935195715088,0.3146371117674954
421,4.21,0.6782495815799311,-0.043811967940803304,-0.5968640178021022,0.9370135705185529,0.258566033519169,-0.23483572178672832,0.07655539443658223,0.2056303200601784,0.12867413123561522,0.7216219028349639,-0.38704343812805053,0.48247215978670044,0.3109313243887375
422,4.22,0.6035286697026241,-0.04742234223457804,-0.6533295064882436,0.9352743532462502,0.2629183488710139,-0.2369251502904287,0.11019766432707225,0.20162682211805322,0.12630732459056437,0.7239361590366609,-0.3861691750127728,0.48208994230383756,0.30720893250916986
423,4.23,0.50093261850727,-0.03901691855959193,-0.7155594650233504,0.9333532817363566,0.2680055035582414,-0.23879175279786338,0.1395782869272043,0.19590535874719822,0.1294636820945223,0.7261527755984839,-0.3857491539153398,0.48145784921056534,0.30347360224078396
424,4.24,0.3930452196457759,-0.014027773847609348,-0.7769886524860958,0.9312594587302578,0.27391553317439854,-0.2402540241611287,0.15090820842978753,0.17861751224061695,0.1502439282781371,0.7282078524529548,-0.38588596552501614,0.4805881036711925,0.299730947352737
425,4.25,0.31670794369792543,0.024560350575997626,-0.843863321544995,0.9290235063316903,0.2806101736874956,-0.24118018620055034,0.136210808605947,0.15530598834269158,0.1755455990557143,0.7300839485093777,-0.3865539393238144,0.4795683377876748,0.2959149872386998
426,4.26,0.2896700073003733,0.10115774889007334,-0.9084537983154779,0.9266778380076552,0.2880346524959038,-0.24144878017356117,0.10819141909101775,0.14301675290750307,0.1930854740631673,0.7317987686149933,-0.38766230828160403,0.478532418790378,0.29187829415789857
427,4.2700000000000005,0.3412061047445263,0.19899112065077257,-0.9514538236883768,0.9243164834014209,0.29593055710503596,-0.24094896014816053,0.07628121399994411,0.14208675363521486,0.20130469910233578,0.7333891101250429,-0.3889808590866652,0.47772286547623793,0.287423729956481
428,4.28,0.4464450578856879,0.2904889911954248,-0.9761850503898758,0.9220131264746255,0.303907692475803,-0.2398411613157533,0.06737033336158273,0.13989795872447125,0.19900774723490738,0.7349361224628554,-0.3902047316443582,0.477304405284766,0.28246484246675085
429,4.29,0.5789469890941975,0.36662459671193276,-0.9854294420443055,0.9197778082647335,0.3117341396306751,-0.23837461652163944,0.09707551978900514,0.1415877408451503,0.19013157746660633,0.736522170482669,-0.391128110723816,0.4773168750369781,0.276980943467675
430,4.3,0.7201726468745735,0.4353378789175658,-0.9659837711300366,0.917648898845176,0.3191809807952776,-0.23672004307930292,0.12969442568300735,0.1449298702972623,0.17726021621566423,0.7381695128387905,-0.3916242299929086,0.4777764990564479,0.2710369215153522
431,4.3100000000000005,0.8810235573003615,0.4985599957717941,-0.9173582510967598,0.9157131438226145,0.3259539460188026,-0.2349828899848472,0.1362910750079958,0.1419306244932788,0.16521560732620752,0.7398711854623491,-0.3915634367946179,0.4787342538599565,0.26471966519943996
432,4.32,1.0828727082045158,0.5497236025112936,-0.8499233445827953,0.9140404727694931,0.33175234053413943,-0.2333787313012971,0.13292132287134006,0.13938019147897643,0.14809942795786943,0.7416775128470793,-0.39074573115416905,0.4802373797531794,0.25806481952923416
433,4.33,1.2863433071023205,0.5703687150485138,-0.7815192131601943,0.9126271462617563,0.3364381358623853,-0.2322027603777481,0.1430522372678014,0.15044946385145788,0.1222531715948791,0.7436732583536948,-0.38901883724901043,0.48224667507083435,0.2510859483422512
434,4.34,1.4562123221226388,0.5811093258534257,-0.7162035710964615,0.9114264807454141,0.34010114730515467,-0.23158389443399535,0.15975108895045576,0.1772013308136712,0.09212146419936858,0.7458666596211236,-0.386437809757272,0.48463587989192647,0.24385773053796275
435,4.3500000000000005,1.5836047071616937,0.5690755232981256,-0.6477934740873246,0.910430649415792,0.34279417292836584,-0.2315327686172082,0.16529206399298216,0.19138610330384798,0.06939563175065541,0.7482163566006479,-0.3830985317253702,0.4873050895835209,0.23649508578650602
436,4.36,1.6605308299272958,0.5400699665433575,-0.5887436368193444,0.9095917364492,0.34466982250725753,-0.23204584677495713,0.15981971312205773,0.18592401045546375,0.05949982862883398,0.7506707768916457,-0.37917713912893025,0.49010010356665623,0.22914486242027352
437,4.37,1.7050623362578086,0.5005232556479245,-0.5472944546516666,0.9088404191423121,0.3459269112117221,-0.23311658719114955,0.15206617777080006,0.17934181652152056,0.06558799058326989,0.7532052018717439,-0.3748310226716085,0.4928885886504107,0.22188098441294019
438,4.38,1.714394306067176,0.4597944046845047,-0.5395079269483711,0.9080841618049238,0.34685900581270146,-0.23467311817149233,0.1340775434863572,0.17776101847006495,0.0795312995100755,0.7557959512528514,-0.37024432223577225,0.49555832798696564,0.2147088440069529
439,4.39,1.7015215235773085,0.4360176245848431,-0.5608216788692894,0.9072226183552937,0.34784127283563876,-0.23654320848219298,0.09499892554165625,0.17542241551957607,0.10234144871733772,0.75840836267225,-0.36562158176420007,0.49804096515122115,0.20755463680975297
440,4.4,1.682976652413258,0.4373945418088322,-0.5923104898601844,0.9062442005817697,0.3490732532432372,-0.23847079706004817,0.04287730584931105,0.16566911660697897,0.13789840325952568,0.7609782831477403,-0.3610912000564839,0.5003733411529336,0.20034398821697116
441,4.41,1.6802664738443025,0.4528590859510295,-0.6195759076376833,0.9051821325237406,0.3505648119275382,-0.24030948882231487,-0.004016461058338777,0.14540575442745315,0.1785400767282761,0.7634725862063967,-0.35665478511798343,0.5026315214288783,0.19301355800561304
442,4.42,1.6988936531572665,0.48000144435002373,-0.6436433922651322,0.9040789129056978,0.35223815286767135,-0.24200997081087916,-0.0323449735545995,0.12136113724155913,0.22038474635447103,0.7658862506257194,-0.35224358909882414,0.5048912857344573,0.18550642822571148
443,4.43,1.7266967814457537,0.5084667119476887,-0.6547951474758676,0.9029770210261276,0.3539826890940434,-0.2435731913914214,-0.03182925842046928,0.10274197913109119,0.25232820490119723,0.7682186282984417,-0.3477842920193739,0.5072031141610439,0.17780723828457265
444,4.44,1.7882262915246305,0.5407617915061792,-0.6506953870670609,0.9019316374663893,0.35562313567642767,-0.24505233355527462,-0.0075701117712294735,0.09795954565261643,0.26284418523214714,0.770484518593279,-0.34315649468486586,0.509619909144285,0.16990467194674702
445,4.45,1.862234771287846,0.5736310381297747,-0.6344885282460577,0.9010066296138124,0.35696639185712353,-0.2464982824540614,0.028858665275368726,0.09811678679811717,0.2496093995674766,0.7726942998863081,-0.3382381050372317,0.512191406314538,0.16180152264291117
