time,seconds_elapsed,rotationRateX,rotationRateY,rotationRateZ,gravityX,gravityY,gravityZ,accelerationX,accelerationY,accelerationZ,quaternionW,quaternionX,quaternionY,quaternionZ
1681143238550224600,0.157224609375,0.02600213512778282,0.01111491397023201,-0.03196676820516586,0.1487528681755066,-0.06645487993955612,-0.9866389036178589,0.013509199023246765,-0.00523095577955246,-0.006998121738433838,0.9966540804376769,0.033338989458583046,0.07462612567032548,-3.2338917215336236e-17
1681143238560283600,0.16728369140625,0.009037799201905727,0.003344076219946146,-0.03385414928197861,0.1488277167081833,-0.06668083369731903,-0.9866123795509338,0.010703042149543762,-0.01277172565460205,-0.010366320610046387,0.9966473921356236,0.03346401873195325,0.07465904252664525,-0.0001528541443435202
1681143238570342700,0.1773427734375,0.01331129390746355,-0.0022996775805950165,-0.048152074217796326,0.1488383263349533,-0.06678569316864014,-0.9866036772727966,0.009731113910675049,-0.013338252902030945,-0.007811546325683594,0.9966451849578003,0.0335321412050444,0.07465759023789888,-0.00035896369590577296
1681143238580401000,0.18740087890625,0.03886032849550247,-0.0055383481085300446,-0.05745263025164604,0.1488589197397232,-0.06696785986423492,-0.9865882396697998,0.009832605719566345,0.0013702735304832458,-0.004195451736450195,0.9966412232131003,0.033643865235155314,0.0746590710585884,-0.0006286492928009702
1681143238590460000,0.1974599609375,0.07799454778432846,-0.004753797315061092,-0.061635393649339676,0.14889198541641235,-0.06749541312456131,-0.9865472912788391,0.0071596503257751465,0.016790449619293213,-0.00033015012741088867,0.9966312829965154,0.03386177888727741,0.07469763136279872,6.347836960291138e-18
1681143238600517600,0.207517578125,0.0912669450044632,0.001987195573747158,-0.0665862113237381,0.14897282421588898,-0.06826422363519669,-0.9864822030067444,0.001982390880584717,0.009807795286178589,0.005097925662994385,0.9966148683607218,0.03427540827789335,0.07472686147126587,-0.0003649397439202835
1681143238610577000,0.217576904296875,0.07279983907938004,0.00007364712655544281,-0.06350035220384598,0.1490759700536728,-0.06895922124385834,-0.9864182472229004,-0.0038275569677352905,-0.0043745264410972595,0.00967264175415039,0.9965985951349796,0.0346515501556077,0.0747672376867142,-0.0007232366787543397
1681143238620635600,0.2276357421875,0.03159061819314957,-0.0008467407897114754,-0.04990677908062935,0.14919480681419373,-0.06936317682266235,-0.9863719940185547,-0.010446637868881226,-0.015216298401355743,0.012464523315429688,0.9965867934650688,0.03487765286206865,0.07481686660773641,-0.001029456478359578
1681143238630695000,0.23769482421875,-0.013280742801725864,-0.0012114429846405983,-0.03916161507368088,0.14931026101112366,-0.06940582394599915,-0.986351490020752,-0.012393161654472351,-0.027258604764938354,0.015373766422271729,0.9965813436412615,0.03491591572523027,0.07486740378976786,-0.0012507316324888852
1681143238640753700,0.247753662109375,-0.03808915242552757,0.005416099447757006,-0.028084995225071907,0.149420827627182,-0.06923408806324005,-0.9863468408584595,-0.017142385244369507,-0.03341178596019745,0.016482949256896973,0.9965799952445408,0.034841550588023164,0.07491764152487994,-0.0014061635009888314
1681143238650813000,0.25781298828125,-0.04424675181508064,0.008074565790593624,-0.014890736900269985,0.14956000447273254,-0.06894262880086899,-0.9863461256027222,-0.02521611750125885,-0.030239500105381012,0.016390681266784668,0.9965796302441801,0.03470185981094531,0.07498471159483894,-0.0014916455360627862
1681143238660871700,0.26787158203125,-0.0336601547896862,0.014677340164780617,-0.013152225874364376,0.1497340053319931,-0.06846726685762405,-0.9863528609275818,-0.028151974081993103,-0.025435328483581543,0.019601762294769287,0.9965812310386881,0.034467742725337466,0.07507026410208863,-0.0015488608076459696
1681143238670931000,0.277930908203125,-0.01293754018843174,0.020739112049341202,-0.012822366319596767,0.14995251595973969,-0.06794369220733643,-0.9863558411598206,-0.03200209140777588,-0.020526766777038574,0.018811345100402832,0.9965819375507035,0.03421006318319935,0.07517803062928714,-0.0016133019952860456
1681143238680989700,0.28798974609375,0.012300437316298485,0.029137125238776207,-0.015407762490212917,0.15022392570972443,-0.06779569387435913,-0.9863247275352478,-0.033814623951911926,-0.008513517677783966,0.016720235347747803,0.9965740497282798,0.03414131009294668,0.07531263796706653,-0.0016796287817169068
1681143238691049000,0.298049072265625,0.02313247323036194,0.04185568168759346,-0.021890804171562195,0.15056657791137695,-0.06801783293485641,-0.9862571954727173,-0.03163957595825195,0.00023828446865081787,0.012288689613342285,0.9965569252277271,0.03425951732370215,0.07548298320204015,-0.0017572384711130417
1681143238701106700,0.308106689453125,0.009974059648811817,0.04878149926662445,-0.030607065185904503,0.15095719695091248,-0.06841787695884705,-0.9861698150634766,-0.029756635427474976,-0.001986183226108551,0.010538101196289062,0.9965348072970324,0.034470446336389314,0.07567611989420615,-0.0018772098593487557
1681143238711166000,0.318166015625,-0.020813681185245514,0.05367525666952133,-0.03543750196695328,0.15140432119369507,-0.06873054057359695,-0.9860795140266418,-0.03156180679798126,-0.011454395949840546,0.009868025779724121,0.9965118648549466,0.034638809263850275,0.0758972034543162,-0.002012108601086352
1681143238721224700,0.328224609375,-0.048072997480630875,0.059830088168382645,-0.04707524925470352,0.15189139544963837,-0.06876341998577118,-0.9860023260116577,-0.03416983783245087,-0.019035659730434418,0.009912848472595215,0.9964922059601391,0.034669046241871525,0.07613731193686823,-0.002176639876505056
1681143238731284000,0.338283935546875,-0.057919129729270935,0.06360612064599991,-0.05810462683439255,0.1524045318365097,-0.0685061365365982,-0.9859410524368286,-0.038604483008384705,-0.02062045782804489,0.005777478218078613,0.9964762488433997,0.03455713973856397,0.07638897392826205,-0.0023864932738174335
1681143238741342700,0.3483427734375,-0.04863135889172554,0.0675920695066452,-0.07480131834745407,0.15295885503292084,-0.06816825270652771,-0.9858786463737488,-0.04158495366573334,-0.017250455915927887,-0.0004647374153137207,0.9964599143957362,0.03441123982650512,0.07665864940481007,-0.0026780489961694665
1681143238751402000,0.358402099609375,-0.033325742930173874,0.07459791749715805,-0.09056254476308823,0.15357506275177002,-0.06787031888961792,-0.9858033657073975,-0.04496301710605621,-0.01170426607131958,-0.0023862719535827637,0.9964400000316357,0.03429184136527965,0.07695695854539239,-0.003048509408280269
1681143238761460700,0.368460693359375,-0.014905457384884357,0.07763178646564484,-0.10407036542892456,0.15422020852565765,-0.06758447736501694,-0.9857223033905029,-0.050109490752220154,-0.009197749197483063,-0.0028793811798095703,0.9964180334342398,0.03418588092464221,0.07726688446465331,-0.0035097720355075687
1681143238771520000,0.37852001953125,-0.005157355219125748,0.07810577750205994,-0.115582674741745,0.15489378571510315,-0.0673329308629036,-0.985633909702301,-0.05452147126197815,-0.012684166431427002,-0.0036086440086364746,0.9963938818201493,0.03410274800813375,0.07758897840459107,-0.004037989055747248
1681143238781578800,0.388578857421875,-0.0012840540148317814,0.0748969316482544,-0.12622226774692535,0.1555742770433426,-0.0671687200665474,-0.9855379462242126,-0.05532403290271759,-0.016525745391845703,-0.0018735527992248535,0.9963672134600141,0.034068286669091445,0.07791269543660298,-0.004622665433001192
1681143238791638000,0.398637939453125,-0.008720691315829754,0.07677464932203293,-0.13156738877296448,0.15623393654823303,-0.06707965582609177,-0.985439658164978,-0.05955424904823303,-0.025144465267658234,0.0013698339462280273,0.9963394697729901,0.03407476402314128,0.07822462712020796,-0.005243924877340487
1681143238801696800,0.40869677734375,-0.03172054886817932,0.08562859892845154,-0.14067672193050385,0.1569095104932785,-0.06691739708185196,-0.985343337059021,-0.062717005610466,-0.031211882829666138,0.002524733543395996,0.9963117432120632,0.034047145659726046,0.07854379476478798,-0.005893196472554842
1681143238811755000,0.418755126953125,-0.04935602843761444,0.08766153454780579,-0.14555101096630096,0.15761052072048187,-0.06657968461513519,-0.9852543473243713,-0.07304631173610687,-0.03559316694736481,0.0018253922462463379,0.9962851538820917,0.03393421253440963,0.07887527863683788,-0.006571250138905417
1681143238821813800,0.428813720703125,-0.061535727232694626,0.09327255189418793,-0.16124661266803741,0.15831546485424042,-0.06603705137968063,-0.9851778149604797,-0.07950381934642792,-0.04112543165683746,-0.0013486742973327637,0.996260962791211,0.03372216093373411,0.07920801027925618,-0.0072915065107690274
1681143238831873000,0.438873046875,-0.061794083565473557,0.0980251133441925,-0.17526699602603912,0.15906724333763123,-0.06532393395900726,-0.9851042628288269,-0.08344468474388123,-0.043837450444698334,-0.004321396350860596,0.996236491127844,0.03343007154287053,0.0795631849297315,-0.00807270270791527
1681143238841931800,0.448931884765625,-0.045479822903871536,0.10278391093015671,-0.18616198003292084,0.15985260903835297,-0.06464211642742157,-0.9850221276283264,-0.08209380507469177,-0.03841574490070343,-0.005731046199798584,0.9962086370850076,0.03316038861497321,0.07993331756677607,-0.008927518821135764
1681143238851991000,0.458990966796875,-0.03539581596851349,0.10725565999746323,-0.19898168742656708,0.1606578379869461,-0.06411069631576538,-0.9849258065223694,-0.0822276622056961,-0.03620058298110962,-0.00680387020111084,0.9961756661035983,0.03297229948378187,0.0803113639395683,-0.009847343808160316
1681143238862049800,0.4690498046875,-0.040433187037706375,0.10256662964820862,-0.20456314086914062,0.16146202385425568,-0.06366424262523651,-0.9848232865333557,-0.08471029996871948,-0.037638865411281586,-0.006036698818206787,0.9961400943279731,0.032830728057508425,0.0806876991531003,-0.010805643540908804
1681143238872109000,0.479109130859375,-0.04519616812467575,0.10015869140625,-0.21319156885147095,0.16220787167549133,-0.06325822323560715,-0.9847268462181091,-0.08209922909736633,-0.04343123733997345,-0.0008535981178283691,0.9961046994014398,0.03271213907813703,0.08103382652325877,-0.011792655161047197
1681143238882167800,0.489167724609375,-0.03810577094554901,0.10900810360908508,-0.21955811977386475,0.16296951472759247,-0.06294948607683182,-0.9846208691596985,-0.07645219564437866,-0.04993503540754318,0.0018175840377807617,0.996065496029628,0.032646313328007166,0.08138655082825665,-0.012816899100940377
1681143238892226800,0.499226806640625,-0.02760588750243187,0.10851079225540161,-0.2236608862876892,0.16370978951454163,-0.06275039166212082,-0.9845107793807983,-0.07377448678016663,-0.05143113434314728,0.00398099422454834,0.9960237417860219,0.03263810923468702,0.08172734018171728,-0.013864811393180547
1681143238902285800,0.509285888671875,-0.01827949658036232,0.1086740493774414,-0.22523801028728485,0.16442638635635376,-0.06271493434906006,-0.9843935966491699,-0.07371290028095245,-0.047514550387859344,0.010638773441314697,0.9959789077208103,0.03271434990169678,0.0820546145084863,-0.014933151661754407
1681143238912344800,0.5193447265625,-0.03306989371776581,0.10794860124588013,-0.22400230169296265,0.16511017084121704,-0.0626707598567009,-0.9842819571495056,-0.07206207513809204,-0.0533265545964241,0.01315164566040039,0.9959343871189305,0.03278646965807065,0.08236539065684537,-0.015999328566952124
1681143238922402800,0.52940283203125,-0.04690341651439667,0.10725590586662292,-0.21719180047512054,0.1657978594303131,-0.06239178031682968,-0.9841840863227844,-0.07607617974281311,-0.061189159750938416,0.017371952533721924,0.9958923438029282,0.03274004816174328,0.08268034464179405,-0.01704967790199918
1681143238932461800,0.5394619140625,-0.07094193249940872,0.10708245635032654,-0.21151091158390045,0.16648633778095245,-0.06190871819853783,-0.9840983748435974,-0.08167800307273865,-0.06595994532108307,0.017652451992034912,0.9958530927876046,0.032588294714286425,0.0829988801581331,-0.018058020733124795
1681143238942520800,0.549520751953125,-0.09109780192375183,0.10811495780944824,-0.2016550749540329,0.16714537143707275,-0.061210956424474716,-0.9840303063392639,-0.08374083042144775,-0.07248655706644058,0.020117342472076416,0.9958180168640274,0.03232524877375397,0.08330620519262856,-0.019021228646045506
1681143238952579800,0.559579833984375,-0.11379534006118774,0.11141961067914963,-0.18170101940631866,0.16789664328098297,-0.060373980551958084,-0.983954131603241,-0.08136403560638428,-0.07101945579051971,0.025580108165740967,0.9957818597265448,0.03198639245192773,0.08366487238158128,-0.019894598374520688
1681143238962638800,0.569638916015625,-0.14592158794403076,0.10841076821088791,-0.166468545794487,0.16872939467430115,-0.05928657948970795,-0.9838777780532837,-0.07963332533836365,-0.07068778574466705,0.03459799289703369,0.9957468690241398,0.0315150591939279,0.08407085202625576,-0.020669848731102204
1681143238972697900,0.57969775390625,-0.18986384570598602,0.10657355934381485,-0.1365666687488556,0.1696038544178009,-0.05777910724282265,-0.9838171005249023,-0.0770287811756134,-0.07567426562309265,0.051703453063964844,0.9957177934023814,0.030823607448673993,0.08450649980821125,-0.021324520716405403
1681143238982758000,0.5897578125,-0.22772786021232605,0.10822312533855438,-0.11863188445568085,0.17052604258060455,-0.05577939748764038,-0.9837731122970581,-0.07619619369506836,-0.08173281699419022,0.0648430585861206,0.9956954978141638,0.02987441568598644,0.0849762588339361,-0.02184282985201475
1681143238992817000,0.59981689453125,-0.21941201388835907,0.12777847051620483,-0.11423341184854507,0.17159175872802734,-0.05360746756196022,-0.9837085604667664,-0.08005428314208984,-0.08330965042114258,0.07324713468551636,0.9956693245487638,0.028835183811344367,0.08552342963963233,-0.022293014639258903
1681143239002876000,0.6098759765625,-0.20497529208660126,0.1312064826488495,-0.10407131910324097,0.17281509935855865,-0.051551301032304764,-0.9836043119430542,-0.08823561668395996,-0.07094626128673553,0.0671919584274292,0.9956335279838516,0.02785433697617579,0.08615096576989438,-0.022716643802750364
1681143239012935000,0.619934814453125,-0.1819443702697754,0.14228346943855286,-0.10135739296674728,0.17411385476589203,-0.04966044798493385,-0.9834725260734558,-0.09212838113307953,-0.039954423904418945,0.06559532880783081,0.9955915343585554,0.02695499281541008,0.08681685113163841,-0.023105405755996834
1681143239022993000,0.629992919921875,-0.19359225034713745,0.1561335027217865,-0.10034166276454926,0.17554882168769836,-0.0478462316095829,-0.9833073616027832,-0.09121349453926086,-0.027425382286310196,0.0588994026184082,0.9955407796004784,0.026097109652806785,0.08755149563816508,-0.023501828633625467
1681143239033051600,0.6400517578125,-0.2210542857646942,0.16258394718170166,-0.10152683407068253,0.17710460722446442,-0.04579458385705948,-0.9831260442733765,-0.09310495853424072,-0.03663339465856552,0.053942084312438965,0.9954860263157446,0.025121550089820054,0.08835091962842889,-0.023891766724734403
1681143239043111000,0.65011083984375,-0.2608352601528168,0.16737602651119232,-0.09716936945915222,0.17872542142868042,-0.04338197782635689,-0.9829421043395996,-0.09097212553024292,-0.04391355812549591,0.05639791488647461,0.9954311165844835,0.02396338955789764,0.08918907536190243,-0.024250891383998833
1681143239053169700,0.660169677734375,-0.30989137291908264,0.17509278655052185,-0.0903952419757843,0.18046104907989502,-0.040379900485277176,-0.9827529191970825,-0.09020531177520752,-0.04578648507595062,0.05596458911895752,0.9953756965970645,0.022507789285284355,0.09009409664794604,-0.024571591396566613
1681143239063229000,0.67022900390625,-0.3551667034626007,0.1775980144739151,-0.08581940084695816,0.1822507381439209,-0.03691507503390312,-0.9825589060783386,-0.0870206356048584,-0.048839323222637177,0.05847138166427612,0.9953200500753919,0.02081732286680974,0.0910340532261477,-0.024851806654258644
1681143239073287700,0.68028759765625,-0.405830979347229,0.1798253357410431,-0.07368060201406479,0.18404369056224823,-0.03300069645047188,-0.9823639392852783,-0.08348827064037323,-0.05504252016544342,0.06454777717590332,0.9952659356692026,0.01889484524305629,0.09198381214583712,-0.025059271137319646
1681143239083347000,0.690346923828125,-0.46328815817832947,0.18581797182559967,-0.05707686021924019,0.1858569234609604,-0.028583409264683723,-0.9821609854698181,-0.0812884271144867,-0.06365597248077393,0.07368320226669312,0.9952121299150688,0.01671108877605815,0.0929529325041941,-0.025167293962133085
1681143239093405700,0.70040576171875,-0.5276194214820862,0.19222047924995422,-0.02458363212645054,0.18772101402282715,-0.023612581193447113,-0.9819385409355164,-0.08414435386657715,-0.07653085142374039,0.08554571866989136,0.9951571478505089,0.014236621354956075,0.09395773011816293,-0.025132412975211654
1681143239103465000,0.71046484375,-0.6106743812561035,0.19311290979385376,0.02107812836766243,0.18962855637073517,-0.01800435408949852,-0.9816908240318298,-0.08649438619613647,-0.09495646506547928,0.09793227910995483,0.9951014717639096,0.011420615462076476,0.09499559221004528,-0.02486951539369714
1681143239113523700,0.720523681640625,-0.730928361415863,0.2043309360742569,0.07787563651800156,0.19159778952598572,-0.011474925093352795,-0.9814064502716064,-0.08214649558067322,-0.11755339801311493,0.10922932624816895,0.9950444471557925,0.008111384567703788,0.09607799213348048,-0.024289909548209657
1681143239123582700,0.730582763671875,-0.8945420384407043,0.2185674011707306,0.14797163009643555,0.19367405772209167,-0.0036898786202073097,-0.9810590147972107,-0.07633396983146667,-0.14862336218357086,0.1254681944847107,0.9949801512697748,0.004133657667539287,0.09722868216007367,-0.023326120684213067
1681143239133640700,0.740640625,-1.1141018867492676,0.23511308431625366,0.2296728789806366,0.1959221512079239,0.005836329888552427,-0.9806020855903625,-0.07192923128604889,-0.18910963833332062,0.14451199769973755,0.9948980263826319,-0.00076647948709191,0.09848029955173822,-0.02188860025290071
1681143239143700000,0.750699951171875,-1.3304603099822998,0.2531546950340271,0.3250369727611542,0.1983587145805359,0.017352283000946045,-0.9799758791923523,-0.0717260092496872,-0.22713011503219604,0.1633102297782898,0.9947825180009261,-0.006725277792270892,0.09983402355275069,-0.019892545097285774
1681143239153758700,0.7607587890625,-1.4888427257537842,0.24986620247364044,0.415006548166275,0.20094765722751617,0.030588898807764053,-0.9791243076324463,-0.07948768138885498,-0.25664785504341125,0.1741774082183838,0.9946163599751603,-0.013612321042983237,0.10125494221447666,-0.017336560268649784
1681143239163818000,0.77081787109375,-1.4890319108963013,0.2478085160255432,0.4898899793624878,0.20357546210289001,0.04443548992276192,-0.9780503511428833,-0.08716616034507751,-0.2631396949291229,0.18296068906784058,0.9943942806130801,-0.02086384987546254,0.10266214295397116,-0.014327104784459888
1681143239173876700,0.780876708984375,-1.3739349842071533,0.25315672159194946,0.5576774477958679,0.2063005119562149,0.05748460441827774,-0.9767986536026001,-0.0850236564874649,-0.22490403056144714,0.1778026819229126,0.994122098600782,-0.027762261074365472,0.10406693506632651,-0.01098547021829221
1681143239183936000,0.79093603515625,-1.195112943649292,0.2560909688472748,0.6319647431373596,0.20917873084545135,0.06887451559305191,-0.9754489064216614,-0.07076624035835266,-0.1449853479862213,0.17047148942947388,0.9938159918771764,-0.03386918627870873,0.10549135425959633,-0.007370464248419483
1681143239193994800,0.800994873046875,-1.0555440187454224,0.2598726153373718,0.7125624418258667,0.21219484508037567,0.07843146473169327,-0.9740749001502991,-0.06389467418193817,-0.09341558068990707,0.15977436304092407,0.99349161109298,-0.039099824677358716,0.10692879192965533,-0.003463826051187663
1681143239204053800,0.8110537109375,-1.0423208475112915,0.25929898023605347,0.79964280128479,0.21536915004253387,0.08699258416891098,-0.9726502299308777,-0.06200304627418518,-0.10318214446306229,0.15358895063400269,0.9931386989296994,-0.04388664458744193,0.10839215407805596,0.0008232440602970063
1681143239214112800,0.82111279296875,-1.133073091506958,0.25852522253990173,0.8807371854782104,0.21867437660694122,0.09574000537395477,-0.971089780330658,-0.06417913734912872,-0.12758508324623108,0.15706396102905273,0.9927306322162622,-0.048834832293780765,0.1098647665490034,0.005550738795272634
1681143239224171800,0.831171875,-1.2978240251541138,0.2669868767261505,0.9674292206764221,0.22217240929603577,0.10551253706216812,-0.9692814350128174,-0.05995622277259827,-0.14887800812721252,0.15893298387527466,0.9922322779544471,-0.05437837821906408,0.1113654543239377,0.010772758324097232
1681143239234230800,0.841230712890625,-1.537534236907959,0.28690585494041443,1.041151523590088,0.22599467635154724,0.11703170090913773,-0.9670729041099548,-0.05064065754413605,-0.17184126377105713,0.15529006719589233,0.9915967840532622,-0.06089144463948756,0.11294149727664093,0.016503313815320164
1681143239244289000,0.8512890625,-1.7926286458969116,0.31307274103164673,1.0970324277877808,0.23024263978004456,0.13077110052108765,-0.9643065929412842,-0.04594697058200836,-0.18898336589336395,0.14703065156936646,0.9907765022741637,-0.06862032133790814,0.11462086409383085,0.022699659327351608
1681143239254347800,0.86134765625,-2.0216381549835205,0.32797810435295105,1.1532310247421265,0.23493680357933044,0.14666490256786346,-0.9608819484710693,-0.04671961069107056,-0.20068098604679108,0.11565184593200684,0.9897388077696561,-0.07753785298222848,0.116391182761707,0.02929577204941611
1681143239264407000,0.871406982421875,-2.1572842597961426,0.3041396141052246,1.2123467922210693,0.2398865669965744,0.16404494643211365,-0.956840455532074,-0.03773811459541321,-0.19827038049697876,0.07433313131332397,0.9884857665583638,-0.08731377021755564,0.11813579814103382,0.036279831646250725
1681143239274465800,0.8814658203125,-2.2316360473632812,0.26043805480003357,1.2645446062088013,0.24468591809272766,0.18216268718242645,-0.9523369073867798,-0.013652577996253967,-0.17120684683322906,0.046453118324279785,0.9870491909085574,-0.09756312080479744,0.11963689687078392,0.04361744619622331
1681143239284524800,0.89152490234375,-2.23271107673645,0.2507854104042053,1.3132927417755127,0.24968767166137695,0.20026999711990356,-0.947390079498291,0.010123729705810547,-0.12997272610664368,0.02182251214981079,0.9854295119688941,-0.10790949348547572,0.12108050477918449,0.0512237774254888
1681143239294583800,0.901583740234375,-2.2775774002075195,0.09167613834142685,1.3769367933273315,0.2542020380496979,0.2182917594909668,-0.9421942830085754,0.021371692419052124,-0.11585947871208191,-0.02260369062423706,0.9836652672098884,-0.11830159570314323,0.12209667179471632,0.059160409750627765
1681143239304642800,0.911642822265625,-2.314114570617676,-0.06807757169008255,1.4629101753234863,0.2575100064277649,0.2363557666540146,-0.9369229078292847,0.04743689298629761,-0.1162537932395935,0.002703547477722168,0.9817805306366789,-0.1287892553989575,0.12227782475750336,0.0675911661507938
1681143239314701800,0.921701904296875,-2.322188138961792,-0.1634669303894043,1.5448846817016602,0.2601020932197571,0.2542495131492615,-0.9315063953399658,0.09225386381149292,-0.1272048056125641,0.03518986701965332,0.9797439810860348,-0.13927063299992476,0.1218626600092405,0.07651896531234592
1681143239324760800,0.9317607421875,-2.246396780014038,-0.21375221014022827,1.6146466732025146,0.2625013589859009,0.27148300409317017,-0.9259535670280457,0.09582078456878662,-0.14335495233535767,0.05762171745300293,0.9775525137461392,-0.14949546358985732,0.12113758215755209,0.0858376143551814
1681143239334819800,0.94181982421875,-2.0893189907073975,-0.20458659529685974,1.7155135869979858,0.26520007848739624,0.2872716784477234,-0.9204041957855225,0.06724315881729126,-0.128336101770401,0.08165907859802246,0.9752347361200566,-0.15907209034903558,0.1203908957620325,0.09549544319412734
1681143239344877800,0.9518779296875,-1.8839706182479858,-0.1366317868232727,1.8414182662963867,0.26885589957237244,0.3008352518081665,-0.9149943590164185,0.031040340662002563,-0.092781662940979,0.10482901334762573,0.9728094499589539,-0.16764067577984262,0.1199975935281579,0.10554213891262101
1681143239354936800,0.961936767578125,-1.762733817100525,-0.05013629049062729,1.9771685600280762,0.27390724420547485,0.3122883439064026,-0.9096432328224182,0.013553082942962646,-0.0825367271900177,0.1272335648536682,0.9702337140917981,-0.17531048546470127,0.12018572735991938,0.11605343040322351
1681143239364995800,0.971995849609375,-1.7451285123825073,0.013403800316154957,2.0939691066741943,0.28023961186408997,0.32255861163139343,-0.90411376953125,0.015872478485107422,-0.09505003690719604,0.1470947265625,0.9674266451087096,-0.18258223837379975,0.12085874263671958,0.12705418907551666
1681143239375054800,0.982054931640625,-1.7751435041427612,0.06270265579223633,2.189575433731079,0.28767016530036926,0.3323715925216675,-0.8982065320014954,0.030139923095703125,-0.11641392111778259,0.14700114727020264,0.9643229255052538,-0.18984149376867854,0.12188899626319206,0.1385088614851745
1681143239385113600,0.992113525390625,-1.8351988792419434,0.08509638160467148,2.2442452907562256,0.2958604395389557,0.3420867621898651,-0.8918762803077698,0.05449661612510681,-0.12948599457740784,0.12774664163589478,0.9609125581299178,-0.19725317733779146,0.12309769421379166,0.15028451882538751
1681143239395172900,1.0021728515625,-1.8823589086532593,0.11274691671133041,2.2987639904022217,0.3046627640724182,0.3518795669078827,-0.8850770592689514,0.08403962850570679,-0.0921749472618103,0.09851706027984619,0.9571833168607864,-0.20490280425480692,0.12440384301451916,0.16229206787671166
1681143239405231600,1.012231689453125,-1.870654582977295,0.164677232503891,2.3330533504486084,0.31420156359672546,0.3613097369670868,-0.8779138326644897,0.11434155702590942,-0.03768602013587952,0.08282411098480225,0.9531624443569254,-0.21257861700683095,0.12591036774787184,0.17446602162528774
1681143239415291000,1.022290771484375,-1.8750189542770386,0.20678061246871948,2.3523528575897217,0.32447561621665955,0.37024587392807007,-0.8704215288162231,0.13075509667396545,-0.014456629753112793,0.061186909675598145,0.948876417883389,-0.220210424285801,0.12765820048568124,0.1866667128933472
1681143239425349600,1.032349609375,-1.875226378440857,0.24326778948307037,2.3622424602508545,0.33532458543777466,0.37876561284065247,-0.8626089096069336,0.14592239260673523,0.012073099613189697,0.060866355895996094,0.9443316072897598,-0.22783125203165738,0.12957032481756794,0.1988530207072524
1681143239435409000,1.042408935546875,-1.8977283239364624,0.29804518818855286,2.366654634475708,0.34675610065460205,0.3869205713272095,-0.8544312119483948,0.17556753754615784,0.026348531246185303,0.06932079792022705,0.9395221443159593,-0.23547926464085275,0.13165825815255586,0.21098336865594564
1681143239445467600,1.052467529296875,-1.9592182636260986,0.37473064661026,2.367119312286377,0.35893404483795166,0.3949870467185974,-0.8456664085388184,0.19581452012062073,0.013765454292297363,0.08266592025756836,0.9343959122626749,-0.24333946141485013,0.13398773786772117,0.22301943105259514
1681143239455526000,1.06252587890625,-2.0656235218048096,0.4615991413593292,2.387347459793091,0.3720148801803589,0.4032517075538635,-0.8360580205917358,0.204385906457901,-0.004157990217208862,0.10139316320419312,0.9288727213095205,-0.2516220274197322,0.13659186093434772,0.23499925306387537
1681143239465584600,1.072584716796875,-2.186738967895508,0.5408284664154053,2.4041128158569336,0.38603949546813965,0.41191455721855164,-0.825408935546875,0.20369747281074524,-0.01935163140296936,0.12564092874526978,0.9228760165434559,-0.2604863992795678,0.13943585368583866,0.24699078295714938
1681143239475644000,1.082643798828125,-2.273059844970703,0.6313944458961487,2.4349849224090576,0.40100011229515076,0.4207459092140198,-0.8137394189834595,0.18969815969467163,-0.02777099609375,0.15469706058502197,0.9164061038522927,-0.26984269092832774,0.14253147548971737,0.2589780941624234
1681143239485702700,1.09270263671875,-2.3128466606140137,0.7134016752243042,2.480802059173584,0.4169621765613556,0.4292992055416107,-0.8011521697044373,0.1727442741394043,-0.028694868087768555,0.17319202423095703,0.9094721988502764,-0.2795038452354628,0.1459503378093635,0.27099202791296184
1681143239495762000,1.102761962890625,-2.311866044998169,0.7923298478126526,2.5395288467407227,0.4339185357093811,0.43705448508262634,-0.7878440022468567,0.16216611862182617,-0.024273663759231567,0.17463910579681396,0.9021056667801846,-0.28922979189224385,0.1497468384370531,0.28306831388903175
1681143239505820700,1.112820556640625,-2.265094518661499,0.865450382232666,2.5801031589508057,0.4517814815044403,0.4436645209789276,-0.7739866971969604,0.15162739157676697,-0.02061450481414795,0.16186511516571045,0.894356124345501,-0.298842571070297,0.1539472975724943,0.29516218567784946
1681143239515880000,1.1228798828125,-2.172666072845459,0.9355484247207642,2.6076486110687256,0.47037196159362793,0.44877028465270996,-0.7598391175270081,0.14709025621414185,0.0016539692878723145,0.13689911365509033,0.8863281635971618,-0.3081151756554421,0.15857325812749473,0.307151489006089
1681143239525938700,1.132938720703125,-2.058093786239624,1.0139622688293457,2.6304235458374023,0.48960259556770325,0.452152818441391,-0.7455516457557678,0.15173959732055664,0.046092480421066284,0.1046367883682251,0.8780903736288025,-0.3169157941010059,0.1636721387139376,0.31895653572579963
1681143239535998000,1.142998046875,-1.9612197875976562,1.0978647470474243,2.6433210372924805,0.5094675421714783,0.45381399989128113,-0.7310921549797058,0.1608206033706665,0.09351882338523865,0.07436919212341309,0.8696571566643867,-0.32525771840785705,0.16929656548850874,0.33051879253825095
1681143239546056700,1.153056640625,-1.9408825635910034,1.1767902374267578,2.65102481842041,0.5298452973365784,0.4541446566581726,-0.7162519097328186,0.1573648452758789,0.11259737610816956,0.054874956607818604,0.8609723787471557,-0.3333582568326047,0.17534632180329374,0.3418373890746728
1681143239556116000,1.163115966796875,-1.9387598037719727,1.2132983207702637,2.6624855995178223,0.5505136251449585,0.45354190468788147,-0.70088130235672,0.14708775281906128,0.1071118712425232,0.046904921531677246,0.8519589980684199,-0.34142799317741607,0.1816212159641332,0.35299677002560914
1681143239566173700,1.173173583984375,-1.9158861637115479,1.2376142740249634,2.6588656902313232,0.5711788535118103,0.4519798755645752,-0.6851781010627747,0.14003342390060425,0.08068928122520447,0.038083434104919434,0.8426684947205743,-0.3493877362056332,0.18798711454856673,0.3640041879228059
1681143239576233000,1.18323291015625,-1.856003999710083,1.2444748878479004,2.641324996948242,0.5916712880134583,0.4493437707424164,-0.6693394780158997,0.1515844464302063,0.0712251365184784,0.026990294456481934,0.8331895600496225,-0.3571106608051492,0.19442798532388392,0.37478656337109295
1681143239586291700,1.193291748046875,-1.7986022233963013,1.227304220199585,2.6156203746795654,0.6117377281188965,0.4455755949020386,-0.6536355018615723,0.17036676406860352,0.09734740853309631,0.010431826114654541,0.8236270843437544,-0.3644640808538867,0.2008685881406533,0.38530014942303403
1681143239596351000,1.20335107421875,-1.8257712125778198,1.181789517402649,2.5849058628082275,0.631182074546814,0.44104617834091187,-0.6380341053009033,0.18485808372497559,0.10747680068016052,-0.026928603649139404,0.8139366327356737,-0.3716034300257981,0.20710826899929935,0.3956314810388764
1681143239606409700,1.21340966796875,-1.9547785520553589,1.1174033880233765,2.543229579925537,0.649800717830658,0.4364807903766632,-0.6222890019416809,0.19979345798492432,0.08334043622016907,-0.060938477516174316,0.8039930753208424,-0.3788902579440414,0.21283252968315394,0.40588133021121287
1681143239616469000,1.223468994140625,-2.125889301300049,1.0663429498672485,2.5165605545043945,0.667586088180542,0.4323248863220215,-0.6061550974845886,0.21103030443191528,0.049425601959228516,-0.06941241025924683,0.793659085627003,-0.38659785742671116,0.21786356759356323,0.41615244227022513
1681143239626527700,1.23352783203125,-2.2678403854370117,1.0503895282745361,2.493048906326294,0.6848101019859314,0.4285084903240204,-0.5894199013710022,0.21114033460617065,0.03583177924156189,-0.05164754390716553,0.7828557750547336,-0.3947901485431408,0.2223303605620645,0.42643525336215093
1681143239636587000,1.2435869140625,-2.3864834308624268,0.9927735924720764,2.4765586853027344,0.7014637589454651,0.4247922897338867,-0.5722764730453491,0.20530521869659424,0.035626500844955444,-0.036442339420318604,0.7716270875793949,-0.40331896248235977,0.22626436897088845,0.436726679780837
1681143239646645800,1.253645751953125,-2.481147289276123,0.9328657984733582,2.4707398414611816,0.7174351215362549,0.4209529161453247,-0.5550547242164612,0.2061184048652649,0.042090386152267456,-0.007506251335144043,0.7600358404191925,-0.4120009725302865,0.22962544994455242,0.4470717215900244
1681143239656705000,1.263705078125,-2.5460941791534424,0.8738521933555603,2.452465295791626,0.7327972054481506,0.4168298840522766,-0.5378301739692688,0.22510391473770142,0.05385807156562805,0.023136019706726074,0.7481060934959678,-0.42075160987381277,0.23249299866736756,0.45744129493385405
1681143239666763800,1.273763671875,-2.4631600379943848,0.7790932059288025,2.4132802486419678,0.7473601698875427,0.4120912551879883,-0.5211848020553589,0.23768627643585205,0.0680113136768341,0.03691679239273071,0.7360904560541974,-0.42920013528575035,0.23493580746974085,0.467721359688835
1681143239676821800,1.28382177734375,-2.2951290607452393,0.7266734838485718,2.3715193271636963,0.7610687017440796,0.40622958540916443,-0.5057194828987122,0.25719618797302246,0.09322115778923035,0.030804991722106934,0.7243352146773969,-0.43687397168656056,0.23723700543219772,0.4777012236529775
1681143239686880800,1.293880859375,-2.1134567260742188,0.7063162326812744,2.3127212524414062,0.7741532921791077,0.39919447898864746,-0.49125421047210693,0.2854018807411194,0.1637328565120697,0.013928830623626709,0.7129052740205916,-0.4437731668195593,0.23966283830626928,0.4872303017232085
1681143239696939800,1.303939697265625,-2.0083863735198975,0.6939494013786316,2.2307727336883545,0.7866081595420837,0.39135125279426575,-0.47758960723876953,0.28654247522354126,0.22952890396118164,0.0031939446926116943,0.7018183966233343,-0.4500554748788084,0.2421884946203485,0.4962316059388652
1681143239706998800,1.313998779296875,-2.0002408027648926,0.6717157363891602,2.1548080444335938,0.7983846068382263,0.3833405673503876,-0.46436217427253723,0.26437491178512573,0.2299102246761322,-0.0067528486251831055,0.6909063165063266,-0.4560907874795941,0.24454060391600932,0.5048066454220992
1681143239717057800,1.324057861328125,-2.043133497238159,0.6452311277389526,2.0697784423828125,0.8094826936721802,0.3755478858947754,-0.4513331949710846,0.2392081618309021,0.2084822952747345,-0.0005556941032409668,0.6800243124805783,-0.46212489871980533,0.24652380045106065,0.513062938324886
1681143239727116800,1.33411669921875,-2.109457492828369,0.6259229183197021,1.980014681816101,0.8199167847633362,0.3682224452495575,-0.43834784626960754,0.2185659408569336,0.19832119345664978,0.0011531412601470947,0.6691024931410834,-0.468302949925834,0.24802906743907244,0.5210334754355741
1681143239737175800,1.34417578125,-2.2011404037475586,0.6159629821777344,1.883773922920227,0.8297063708305359,0.36153915524482727,-0.4252963364124298,0.19969743490219116,0.2057827115058899,-0.005520224571228027,0.6581181697550572,-0.47471187558297356,0.2489989287533189,0.5287048273108155
1681143239747234800,1.35423486328125,-2.3355274200439453,0.5983275175094604,1.7817983627319336,0.8388781547546387,0.3557029962539673,-0.41201815009117126,0.1693158745765686,0.21309894323349,-0.011367350816726685,0.6469952524794245,-0.4814832296084737,0.2493287460135183,0.5361029189343912
1681143239757293800,1.3642939453125,-2.4675347805023193,0.5681140422821045,1.674959421157837,0.8473992347717285,0.35084614157676697,-0.3985242247581482,0.12957525253295898,0.2126609981060028,-0.009404152631759644,0.6357113109780209,-0.488655378847935,0.2489052064914741,0.5432617451631151
1681143239767352800,1.374352783203125,-2.552302598953247,0.5211875438690186,1.580235242843628,0.8552807569503784,0.34679368138313293,-0.3850053548812866,0.08238714933395386,0.20644429326057434,-0.013599872589111328,0.6243168975697667,-0.496094246727247,0.24776564459880823,0.5502101838452622
1681143239777411600,1.38441162109375,-2.526897430419922,0.4708777368068695,1.4865138530731201,0.8625010251998901,0.34325110912323,-0.3718479573726654,0.036638498306274414,0.20890352129936218,-0.013665258884429932,0.6130125846940055,-0.5035146384243913,0.24606712806164874,0.5569019376887571
1681143239787469800,1.3944697265625,-2.364513874053955,0.4431909918785095,1.3890821933746338,0.8691089153289795,0.33972737193107605,-0.3594932556152344,-0.006117343902587891,0.2304478883743286,-0.012271851301193237,0.6021592202040498,-0.5104980027042569,0.2442235932409217,0.5631617871839205
1681143239797528800,1.40452880859375,-2.1601147651672363,0.45968884229660034,1.291615605354309,0.875266969203949,0.3360222280025482,-0.3478464186191559,-0.04825568199157715,0.27146077156066895,-0.007103472948074341,0.5919425611327502,-0.5169378706001676,0.24259437551135682,0.568794763725175
1681143239807587800,1.414587890625,-1.946169137954712,0.47718048095703125,1.195755958557129,0.8810662627220154,0.3321007788181305,-0.33679601550102234,-0.09523850679397583,0.3184119760990143,0.000919640064239502,0.5824285765554792,-0.5228365958727088,0.2413377020400014,0.5737378938527643
1681143239817646800,1.424646728515625,-1.7768452167510986,0.4880290627479553,1.1224740743637085,0.8865243196487427,0.3280041217803955,-0.3263254761695862,-0.13704288005828857,0.32752877473831177,-0.00015154480934143066,0.5735726746612643,-0.5282388062008107,0.2404184467622688,0.5780807661870897
1681143239827705900,1.434705810546875,-1.629913330078125,0.48758697509765625,1.0615718364715576,0.8916922211647034,0.3237307071685791,-0.3163596987724304,-0.1573324203491211,0.3151090145111084,-0.007568985223770142,0.5652445611489522,-0.533225823216509,0.23977150424489796,0.5819608879737543
1681143239837764900,1.444764892578125,-1.4728202819824219,0.4803884029388428,1.0079761743545532,0.896564781665802,0.31928402185440063,-0.3069683313369751,-0.16554659605026245,0.31067514419555664,-0.008186578750610352,0.557441551936175,-0.5377860820663897,0.23937828393797345,0.5854428227189618
1681143239847824000,1.454823974609375,-1.3092137575149536,0.4714002311229706,0.9615575075149536,0.9011563062667847,0.31460824608802795,-0.29822686314582825,-0.17100787162780762,0.3182500898838043,-0.01280820369720459,0.5501793637413898,-0.5418818575532964,0.2392710314899018,0.5885714001490396
1681143239857882600,1.464882568359375,-1.1373648643493652,0.462864488363266,0.9184363484382629,0.9054997563362122,0.30967384576797485,-0.2901249825954437,-0.17423748970031738,0.3327212333679199,-0.015294849872589111,0.5434751912655796,-0.5455046016556881,0.2395041507722986,0.5913521444801042
1681143239867942000,1.47494189453125,-0.9474854469299316,0.4376848340034485,0.8679279088973999,0.9095632433891296,0.304521381855011,-0.28277477622032166,-0.1811848282814026,0.3467848300933838,-0.018754005432128906,0.5373941925730621,-0.5486106537094415,0.24008115978831107,0.5937970906507989
1681143239878000600,1.485000732421875,-0.7799979448318481,0.4274822175502777,0.8266972899436951,0.9133511185646057,0.2991641163825989,-0.27620798349380493,-0.18320268392562866,0.355727881193161,-0.028952419757843018,0.5319541740171351,-0.5511891152633304,0.2410115553306117,0.5959269665844311
1681143239888060000,1.495059814453125,-0.6501057147979736,0.42233219742774963,0.7724521160125732,0.916909396648407,0.2937566637992859,-0.2701561748981476,-0.1853724718093872,0.3677118718624115,-0.025848954916000366,0.5270514363710915,-0.5533962097581523,0.2422282978357288,0.5977416041203341
1681143239898118000,1.505117919921875,-0.5558902025222778,0.4219646155834198,0.715294361114502,0.9202268123626709,0.2884911894798279,-0.26449134945869446,-0.19955408573150635,0.3722144365310669,-0.02040541172027588,0.5226146926968139,-0.5553459815069666,0.2436086395137733,0.5992659835229635
1681143239908177000,1.515177001953125,-0.47151196002960205,0.4116171598434448,0.6533183455467224,0.9233031272888184,0.283483624458313,-0.25913041830062866,-0.2120298147201538,0.3633670210838318,-0.024316728115081787,0.5185873471803427,-0.5571140117340184,0.24506891049732718,0.60052687469863
1681143239918236000,1.52523583984375,-0.3728570342063904,0.40147557854652405,0.5786435604095459,0.9261007308959961,0.2788327932357788,-0.2541450262069702,-0.2094869613647461,0.36176174879074097,-0.027791470289230347,0.515029365794386,-0.558681978915008,0.24658047124917726,0.6015124932151389
1681143239928295000,1.535294921875,-0.25465235114097595,0.391239196062088,0.5022425055503845,0.9286140203475952,0.2745891213417053,-0.24955347180366516,-0.20348578691482544,0.3736957907676697,-0.03755578398704529,0.5120060354771562,-0.5600308703115289,0.24817068681104634,0.6021848522648625
1681143239938353700,1.545353759765625,-0.13712100684642792,0.36314061284065247,0.41171693801879883,0.930816113948822,0.270797461271286,-0.2454594373703003,-0.19729554653167725,0.3885348439216614,-0.050744056701660156,0.5095919611870638,-0.5611129153800358,0.24984509983810604,0.6025329398680555
1681143239948413000,1.555412841796875,-0.04055425524711609,0.3242611289024353,0.3065178096294403,0.9326333999633789,0.2676365375518799,-0.24200402200222015,-0.19027787446975708,0.3999660313129425,-0.0718843936920166,0.5078252149975503,-0.5619214704098574,0.25148011669865517,0.6025908629538889
1681143239958471700,1.5654716796875,0.0199759341776371,0.27715086936950684,0.20265240967273712,0.9340532422065735,0.2652445435523987,-0.23914410173892975,-0.176317036151886,0.4065389633178711,-0.0918341726064682,0.5066404659034761,-0.5625323385223994,0.2529531914291197,0.602401472395194
1681143239968531000,1.575531005859375,0.0352342464029789,0.22250309586524963,0.08728798478841782,0.9350419044494629,0.26380467414855957,-0.23686236143112183,-0.16480869054794312,0.4008682370185852,-0.09674042463302612,0.5059650294549745,-0.5630309494559494,0.2540963812122954,0.6020221063992739
1681143239978588700,1.585588623046875,0.015555646270513535,0.1763935089111328,-0.019675320014357567,0.9356052279472351,0.2634219825267792,-0.2350572943687439,-0.16024506092071533,0.3883572518825531,-0.09830135107040405,0.5056775284552468,-0.5635252782367647,0.25477560776625957,0.6015139611770183
1681143239988647700,1.595647705078125,-0.008424255065619946,0.14626170694828033,-0.12478069216012955,0.9357937574386597,0.26409855484962463,-0.2335428148508072,-0.15423846244812012,0.37123173475265503,-0.08721208572387695,0.505694914169546,-0.564101282783835,0.25498692607261014,0.6008695442163039
1681143239998705700,1.60570556640625,-0.021571215242147446,0.12645843625068665,-0.22888261079788208,0.9356450438499451,0.2658011019229889,-0.23220311105251312,-0.1489170789718628,0.35649818181991577,-0.06538891792297363,0.506006250119309,-0.5647852862258624,0.2547862340199623,0.6000494528766578
1681143240008764700,1.6157646484375,-0.00806153193116188,0.11405262351036072,-0.3260307312011719,0.9351793527603149,0.26845264434814453,-0.23102597892284393,-0.1418137550354004,0.34543901681900024,-0.04668383300304413,0.5066408330323626,-0.5655465990719697,0.25425194784467536,0.5990226863333349
1681143240018823700,1.62582373046875,0.032523684203624725,0.1101006492972374,-0.4207155704498291,0.9344239234924316,0.27193790674209595,-0.230004221200943,-0.1273406744003296,0.33958864212036133,-0.038840293884277344,0.507650297218288,-0.5663330227655993,0.25350502578256173,0.5977402920336015
1681143240028882700,1.635882568359375,0.07967681437730789,0.10379721224308014,-0.5118638277053833,0.9333844184875488,0.27618810534477234,-0.22915901243686676,-0.10895198583602905,0.33967193961143494,-0.04060100018978119,0.5090757928166717,-0.5671019817187103,0.2526179659507575,0.5961723450492324
1681143240038941700,1.645941650390625,0.13638997077941895,0.09067083895206451,-0.5959748029708862,0.9320520758628845,0.2811432182788849,-0.22855573892593384,-0.08338862657546997,0.3406982421875,-0.04642277956008911,0.5109242174173659,-0.5678164435857421,0.251608065925428,0.5943353265336534
1681143240049000700,1.656000732421875,0.19263006746768951,0.0760524794459343,-0.6712929606437683,0.9304401278495789,0.2866913676261902,-0.22823075950145721,-0.05342590808868408,0.3353331685066223,-0.05300383269786835,0.5131783184364144,-0.5684433172814809,0.2505131037863666,0.5922528371821231
1681143240059059700,1.666059814453125,0.21669918298721313,0.05679889768362045,-0.7396153211593628,0.9285349249839783,0.29281941056251526,-0.2282096892595291,-0.02483314275741577,0.32865583896636963,-0.05900636315345764,0.5157821144829547,-0.5689955908536947,0.24927729661461492,0.5899776707812193
1681143240069118700,1.67611865234375,0.20043952763080597,0.04084496200084686,-0.7981438636779785,0.9263593554496765,0.29951077699661255,-0.22836792469024658,0.005998551845550537,0.3157846927642822,-0.06516528129577637,0.5185963570484067,-0.5695595499946026,0.2478264574946846,0.587572945468611
1681143240079177700,1.686177734375,0.15559075772762299,0.027820192277431488,-0.84990394115448,0.9239294528961182,0.3067639172077179,-0.2285836786031723,0.04189091920852661,0.292738676071167,-0.060539767146110535,0.5214948743254663,-0.5702186233026908,0.24608715068208104,0.5850940818384329
1681143240089236700,1.69623681640625,0.0976390391588211,0.02266191504895687,-0.8853338360786438,0.9212772846221924,0.3145247995853424,-0.2287415862083435,0.06985753774642944,0.26343241333961487,-0.04382604360580444,0.5243710860067176,-0.5710316416096608,0.24403293444741794,0.5825856189856005
1681143240099295700,1.706295654296875,0.04401607811450958,0.02683235891163349,-0.9282799363136292,0.9184276461601257,0.3227536678314209,-0.2287382185459137,0.09478670358657837,0.23722872138023376,-0.029058903455734253,0.5271882879463158,-0.5720281395970283,0.24169132564282503,0.5800361171943257
1681143240109354800,1.716354736328125,0.012485314160585403,0.04152208939194679,-0.975442111492157,0.9153807163238525,0.331455260515213,-0.22850815951824188,0.11457252502441406,0.22863394021987915,-0.020255833864212036,0.5299883286910398,-0.5732065184165106,0.23912383917369429,0.5773791940976477
1681143240119412700,1.726412841796875,0.007720146328210831,0.06438197940587997,-1.0278548002243042,0.9121201038360596,0.34063735604286194,-0.2280428409576416,0.12372303009033203,0.22833245992660522,-0.014358192682266235,0.532849775432492,-0.5745361504417421,0.23640386848411127,0.574537022278895
1681143240129471700,1.7364716796875,0.014759681187570095,0.09209829568862915,-1.0906742811203003,0.9086242318153381,0.35029900074005127,-0.22736112773418427,0.12045925855636597,0.22425556182861328,-0.014215916395187378,0.5358370504728261,-0.5759834197997523,0.233586243946262,0.5714538605654871
1681143240139530800,1.74653076171875,0.01715993508696556,0.13212670385837555,-1.141343116760254,0.904880166053772,0.3604523241519928,-0.2264202982187271,0.1027645468711853,0.2099822759628296,-0.016224846243858337,0.5389614287947605,-0.5775563301606732,0.23069143774563328,0.5680940156534281
1681143240149589800,1.75658984375,0.016591615974903107,0.19062091410160065,-1.158913016319275,0.9010125398635864,0.37087032198905945,-0.22501474618911743,0.06889712810516357,0.18544992804527283,-0.01610448956489563,0.5421090834887273,-0.5792956429279458,0.22783586501272654,0.5644689242589549
1681143240159648800,1.766648681640625,0.036801014095544815,0.21559204161167145,-1.1653879880905151,0.8970812559127808,0.3813317120075226,-0.22322964668273926,0.049482524394989014,0.15507575869560242,-0.009466737508773804,0.5452334804867365,-0.5811409814797455,0.22507850985230837,0.5606561759238128
1681143240169707800,1.776707763671875,0.08999712020158768,0.20983801782131195,-1.1719402074813843,0.8930120468139648,0.3917194902896881,-0.2215525060892105,0.07848465442657471,0.14038509130477905,-0.019185304641723633,0.5484619414108385,-0.5828843067944122,0.22241769190703634,0.5567457751028866
1681143240179766500,1.7867666015625,0.1454269289970398,0.2048698216676712,-1.1753065586090088,0.8887807130813599,0.401985764503479,-0.22017411887645721,0.11437797546386719,0.14984840154647827,-0.04523712396621704,0.5518560194638257,-0.5844406068675325,0.21986840661436774,0.5527587430577817
1681143240189825800,1.79682568359375,0.19067217409610748,0.21492566168308258,-1.1615734100341797,0.8844552636146545,0.4120538830757141,-0.21897664666175842,0.09920269250869751,0.15786191821098328,-0.06288361549377441,0.5553593010323581,-0.5858460048911067,0.21747674729736446,0.5486935147423153
1681143240199884500,1.806884521484375,0.22003701329231262,0.2171521782875061,-1.1128939390182495,0.8801581263542175,0.421705424785614,-0.21791426837444305,0.05299335718154907,0.14178654551506042,-0.05883428454399109,0.558860927929368,-0.5871045357582724,0.21529312102715742,0.5446392055274245
1681143240209943800,1.81694384765625,0.2384338676929474,0.2052994966506958,-1.0593560934066772,0.8759650588035583,0.4307999610900879,-0.21701815724372864,0.0404779314994812,0.11763149499893188,-0.0379866361618042,0.5622756044997892,-0.588209406030566,0.21330874128262586,0.5406989603564609
1681143240220002600,1.82700244140625,0.249287948012352,0.1961543709039688,-1.0073041915893555,0.8718940019607544,0.4393332302570343,-0.21630404889583588,0.06751346588134766,0.10589388012886047,-0.02386915683746338,0.5655764537663872,-0.5891680343891555,0.21149232720518718,0.5369128976488184
1681143240230060500,1.837060546875,0.26662060618400574,0.1873137503862381,-0.9675120711326599,0.8679072260856628,0.4474133551120758,-0.21577459573745728,0.09377807378768921,0.10529059171676636,-0.017654240131378174,0.5687903254652475,-0.5899970327605503,0.2098003907378568,0.5332589016405224
1681143240240119800,1.847119873046875,0.3011021912097931,0.179841086268425,-0.9314440488815308,0.8639917373657227,0.4550788104534149,-0.2154577076435089,0.10015034675598145,0.10278266668319702,-0.010921627283096313,0.5719736638853702,-0.5906775705503596,0.20825742479980325,0.5296935501203474
1681143240250178600,1.857178466796875,0.34500652551651,0.17162896692752838,-0.9045538306236267,0.8601493835449219,0.4623233377933502,-0.21540798246860504,0.10422152280807495,0.09840676188468933,-0.0022585690021514893,0.5751777148935163,-0.5911750696524568,0.20690105441050946,0.5261889992320927
1681143240260237600,1.867237548828125,0.3851022720336914,0.17205242812633514,-0.8841308355331421,0.8563400506973267,0.46923828125,-0.21563273668289185,0.11717087030410767,0.09680190682411194,0.009517103433609009,0.5784384236687039,-0.5914965540372163,0.2057072222918259,0.5227098558631641
1681143240270296600,1.877296630859375,0.41115066409111023,0.18027067184448242,-0.8875575661659241,0.8525207042694092,0.47597354650497437,-0.21600471436977386,0.12076133489608765,0.09163829684257507,0.02511736750602722,0.5817573027300179,-0.5917109456886349,0.20463577479094305,0.5191926853173195
1681143240280355600,1.88735546875,0.43448394536972046,0.20050875842571259,-0.8986846804618835,0.8486368060112,0.4826880693435669,-0.2163984179496765,0.11176687479019165,0.07779791951179504,0.03837421536445618,0.5851328721946301,-0.591889464383858,0.20363607226522923,0.5155763857114947
1681143240290414600,1.89741455078125,0.4893016517162323,0.2234436422586441,-0.920024573802948,0.8446558117866516,0.4894266128540039,-0.2168366014957428,0.10149592161178589,0.06097319722175598,0.051339879631996155,0.5886311101113713,-0.5920107775580878,0.20274353371339998,0.5117926393298845
1681143240300473600,1.9074736328125,0.5818660259246826,0.25485771894454956,-0.953798770904541,0.8405397534370422,0.4961952865123749,-0.21744725108146667,0.10291123390197754,0.04883342981338501,0.06052596867084503,0.5923760490305308,-0.5919941773058663,0.2020377976233331,0.507754170247391
1681143240310532600,1.91753271484375,0.6789555549621582,0.28678980469703674,-0.9925709366798401,0.8362470269203186,0.5030193328857422,-0.2183176726102829,0.11553525924682617,0.03764533996582031,0.06023670732975006,0.5964527005373967,-0.591788886293171,0.20156160322209157,0.5033916083015432
1681143240320591600,1.927591552734375,0.7756569385528564,0.3219582438468933,-1.028191089630127,0.8317707777023315,0.5098980069160461,-0.21945734322071075,0.12555044889450073,0.024632632732391357,0.05908761918544769,0.6008566813664449,-0.5913927224791726,0.2013106404659232,0.4986982766362724
1681143240330650600,1.937650634765625,0.8609891533851624,0.35473722219467163,-1.0475082397460938,0.8271652460098267,0.5167475938796997,-0.22083845734596252,0.13607639074325562,0.004935204982757568,0.06435972452163696,0.6055348403050704,-0.5908120628769233,0.20130045731204205,0.49370723005063855
1681143240340708600,1.94770849609375,0.9341499209403992,0.38095223903656006,-1.0573022365570068,0.8224808573722839,0.5234892964363098,-0.2224505990743637,0.15031272172927856,-0.014730691909790039,0.07143451273441315,0.6104144442171505,-0.5900578514844079,0.20151037924264045,0.488486985815748
1681143240350767600,1.957767578125,1.0103400945663452,0.39980074763298035,-1.0657349824905396,0.8177369236946106,0.5300716161727905,-0.2243443876504898,0.1706511378288269,-0.029476523399353027,0.07833318412303925,0.6154887535746452,-0.589105589477977,0.20194656197521885,0.4830587616220779
1681143240360826600,1.96782666015625,1.0783969163894653,0.4155324399471283,-1.0666441917419434,0.8129441738128662,0.5364570617675781,-0.22657451033592224,0.19511258602142334,-0.038730502128601074,0.0793578028678894,0.6207356285231542,-0.5879396276083865,0.20258267539239555,0.47746705738189743
1681143240370885600,1.9778857421875,1.1408703327178955,0.4178723096847534,-1.0697156190872192,0.8081101179122925,0.5426243543624878,-0.22916613519191742,0.21824193000793457,-0.04651522636413574,0.07586121559143066,0.626132455245848,-0.5865559751996972,0.20339375186034014,0.47174290159595395
1681143240380944600,1.987944580078125,1.1867730617523193,0.4124346375465393,-1.0628080368041992,0.8032351732254028,0.548570454120636,-0.23212935030460358,0.2330504059791565,-0.059114158153533936,0.07642874121665955,0.6316356033418159,-0.5849685175501743,0.20432122188926405,0.46594135389442776
1681143240391003600,1.998003662109375,1.2317410707473755,0.409885972738266,-1.0498284101486206,0.7983639240264893,0.5542349219322205,-0.23545438051223755,0.23151278495788574,-0.07127898931503296,0.0772056132555008,0.637204990939474,-0.5831804332423022,0.2053616055426813,0.46010551471129124
1681143240401062700,2.008062744140625,1.2730255126953125,0.3999674916267395,-1.0364774465560913,0.7935187816619873,0.5595969557762146,-0.23912203311920166,0.21923762559890747,-0.08124911785125732,0.08107161521911621,0.6428184879663387,-0.581199569792806,0.2065091893853679,0.45425268248563005
1681143240411121700,2.01812158203125,1.305403709411621,0.3813916742801666,-1.019110918045044,0.7887004613876343,0.5646480917930603,-0.2431546449661255,0.20267832279205322,-0.09127461910247803,0.08765245974063873,0.6484619039949056,-0.5790241266627254,0.20773477664595935,0.44841335616285527
1681143240421180700,2.0281806640625,1.324196219444275,0.35809123516082764,-1.007208228111267,0.7838672399520874,0.5694273114204407,-0.24759837985038757,0.18164801597595215,-0.1013486385345459,0.09067708253860474,0.6541305879445412,-0.57665593165633,0.2089706821153601,0.44262009538152636
1681143240431239700,2.03823974609375,1.3300691843032837,0.32960045337677,-0.9914865493774414,0.7790251970291138,0.5739514231681824,-0.25238853693008423,0.16224396228790283,-0.11505848169326782,0.09569612145423889,0.6597818236090042,-0.5741343557655662,0.2101796032833832,0.436901061208587
1681143240441298700,2.048298583984375,1.3077802658081055,0.2965921461582184,-0.9769755005836487,0.7741628885269165,0.578267514705658,-0.2574467957019806,0.14005237817764282,-0.12926220893859863,0.10519471764564514,0.6653632055090173,-0.5715154536033209,0.21129761241188155,0.4312950331360824
1681143240451357700,2.058357666015625,1.2622790336608887,0.26476019620895386,-0.9679058790206909,0.769260585308075,0.5824523568153381,-0.2626552879810333,0.11564254760742188,-0.1450132131576538,0.1152554452419281,0.6708128033482991,-0.5688778752542571,0.2122506027152748,0.42583809355064284
1681143240461415700,2.068415771484375,1.192644476890564,0.2321334332227707,-0.9592776298522949,0.7642959952354431,0.5866115093231201,-0.26784124970436096,0.09468245506286621,-0.16250860691070557,0.12863537669181824,0.676067682098078,-0.5663211892353283,0.21297814819611532,0.42053936397161273
1681143240471474700,2.078474609375,1.1010886430740356,0.19281399250030518,-0.9573063850402832,0.7592329978942871,0.5908440947532654,-0.27288922667503357,0.07699435949325562,-0.1798790693283081,0.13903924822807312,0.6810818500134421,-0.5639235743911186,0.21341410916003054,0.41541802254613697
1681143240481533700,2.08853369140625,0.9878432154655457,0.1615133136510849,-0.956900954246521,0.7540635466575623,0.5952351093292236,-0.27763935923576355,0.06046593189239502,-0.19455444812774658,0.1490383744239807,0.6857958793461482,-0.5617757357752301,0.21351425837799504,0.41049223168815896
1681143240491592700,2.0985927734375,0.8621159195899963,0.1369328647851944,-0.9580485224723816,0.7487651109695435,0.5998704433441162,-0.2819693386554718,0.047484397888183594,-0.21071016788482666,0.16118082404136658,0.6901811084155164,-0.5599448632742118,0.21325356402491236,0.40575240270131524
1681143240501651700,2.108651611328125,0.731705904006958,0.11791834235191345,-0.9573866724967957,0.7433427572250366,0.6047858595848083,-0.28578981757164,0.035725295543670654,-0.2252233624458313,0.16973155736923218,0.6942149147783264,-0.5584735689201169,0.2126319994147183,0.4011990734543972
1681143240511710700,2.118710693359375,0.6057373285293579,0.10395831614732742,-0.9535386562347412,0.7378339767456055,0.6099853515625,-0.28899669647216797,0.031178593635559082,-0.23675531148910522,0.17765343189239502,0.6978767501942872,-0.5573963994150225,0.2116858709129945,0.39682054193690036
1681143240521769700,2.128769775390625,0.4843533933162689,0.097413070499897,-0.9459654688835144,0.732279896736145,0.615425705909729,-0.29157763719558716,0.028538644313812256,-0.24855852127075195,0.1850714087486267,0.7011714797266752,-0.5567019500552184,0.21046167174375643,0.39261625840854675
1681143240531828700,2.138828857421875,0.38616102933883667,0.09576830267906189,-0.926952600479126,0.7267401218414307,0.6210278272628784,-0.2935532033443451,0.02803593873977661,-0.25945544242858887,0.18938153982162476,0.7041183271686079,-0.556353856337766,0.20903058381491782,0.38857964922571653
1681143240541887700,2.1488876953125,0.3210722506046295,0.0991375595331192,-0.9010236263275146,0.7212944030761719,0.6266493201255798,-0.2950341999530792,0.0273171067237854,-0.26455819606781006,0.18933668732643127,0.70677515619636,-0.5562590450509349,0.20750606706509644,0.384689600500596
1681143240551946800,2.15894677734375,0.28705355525016785,0.10771746933460236,-0.8632586598396301,0.7160118222236633,0.6321359872817993,-0.296194851398468,0.02761012315750122,-0.26824426651000977,0.18959707021713257,0.7092127864176057,-0.5563020301857732,0.2059869369074543,0.38093933880138015
1681143240562005800,2.169005859375,0.2727799713611603,0.11587479710578918,-0.8224875926971436,0.7109705209732056,0.6373463273048401,-0.2971715033054352,0.029798030853271484,-0.26951783895492554,0.18750667572021484,0.7114858793818389,-0.5563869390916865,0.2045674048435766,0.37732452554641577
1681143240572064500,2.179064453125,0.26402589678764343,0.12356467545032501,-0.7686600685119629,0.7062058448791504,0.6422216892242432,-0.2980346977710724,0.026887476444244385,-0.2733861804008484,0.18696609139442444,0.7136170584665023,-0.5564715420768667,0.20327833304991977,0.3738556457088552
1681143240582122500,2.18912255859375,0.25854116678237915,0.13288535177707672,-0.7115122079849243,0.7017967700958252,0.6466748118400574,-0.29881981015205383,0.02119523286819458,-0.2791209816932678,0.181876540184021,0.7156015964738056,-0.5565270427070383,0.20215773021649172,0.37057317723601413
1681143240592181800,2.199181640625,0.24839212000370026,0.13736453652381897,-0.6454759240150452,0.6977782249450684,0.6506917476654053,-0.29950955510139465,0.01564645767211914,-0.283397376537323,0.1818033754825592,0.717428340552302,-0.5565588399571297,0.20121501341713155,0.367493527592399
1681143240602240800,2.20924072265625,0.2324431836605072,0.1411060392856598,-0.5729572772979736,0.6941996216773987,0.6542348861694336,-0.3001061677932739,0.007002830505371094,-0.2871846556663513,0.17686104774475098,0.7190801621007784,-0.5565653582160676,0.20045427913260183,0.36465998981846726
1681143240612299800,2.2192998046875,0.21826238930225372,0.14468826353549957,-0.4968681335449219,0.6911072134971619,0.6572781205177307,-0.3005935847759247,-0.00545346736907959,-0.28998368978500366,0.17394572496414185,0.7205422265597761,-0.556550371407745,0.1998872117129124,0.36209918407734143
1681143240622358800,2.22935888671875,0.21326740086078644,0.14819172024726868,-0.41527485847473145,0.6885383129119873,0.6597840785980225,-0.30099841952323914,-0.01947087049484253,-0.29277968406677246,0.1717565953731537,0.7218219160943834,-0.5564943579067008,0.19953652231865163,0.35982271884802247
1681143240632417800,2.239417724609375,0.20966653525829315,0.15121041238307953,-0.33711639046669006,0.6864995360374451,0.6617372632026672,-0.3013673424720764,-0.03870290517807007,-0.29195570945739746,0.17168304324150085,0.7229393940486949,-0.5563733167600866,0.19941180453237908,0.3578301194401659
1681143240642476800,2.249476806640625,0.20288996398448944,0.15405353903770447,-0.2597631812095642,0.6849827766418457,0.6631602048873901,-0.3016906976699829,-0.05656474828720093,-0.29214268922805786,0.16700148582458496,0.7238986088057571,-0.5561933458013189,0.19950843226680542,0.35611269626411984
1681143240652535600,2.25953564453125,0.19345597922801971,0.1530652493238449,-0.17078056931495667,0.6840161681175232,0.6640365719795227,-0.30195629596710205,-0.07656365633010864,-0.29468220472335815,0.1609194278717041,0.7246824502912188,-0.5559614581351351,0.19982170759819787,0.35470226447271064
1681143240662594800,2.2695947265625,0.17357705533504486,0.1512405276298523,-0.07856506109237671,0.6836264729499817,0.6643534302711487,-0.3021417260169983,-0.09337067604064941,-0.2968759536743164,0.15452831983566284,0.7252730136526363,-0.5556878356980663,0.20035011619459359,0.35362428137193913
1681143240672653600,2.279653564453125,0.14590148627758026,0.15060563385486603,0.0194078478962183,0.6838823556900024,0.6640722751617432,-0.302180677652359,-0.10072183609008789,-0.2970372438430786,0.14882993698120117,0.7256236123077804,-0.5553992558523085,0.20110028707175026,0.3529318117541977
1681143240682712800,2.289712890625,0.10628309845924377,0.14856545627117157,0.12740275263786316,0.684821605682373,0.6631886959075928,-0.3019941747188568,-0.0981515645980835,-0.29896122217178345,0.1465224325656891,0.7256976290476346,-0.5551291003698204,0.20207571954098907,0.35264759777386373
1681143240692771600,2.299771484375,0.05019692704081535,0.15065258741378784,0.2371489554643631,0.6864945292472839,0.6616884469985962,-0.3014857769012451,-0.08941805362701416,-0.2975679636001587,0.14648708701133728,0.7254419821535428,-0.5549200825445098,0.20327522904541034,0.3528127447816538
1681143240702829600,2.30982958984375,-0.027924533933401108,0.15651565790176392,0.36098340153694153,0.6889450550079346,0.6595852375030518,-0.30050358176231384,-0.07908165454864502,-0.2952204942703247,0.1486634612083435,0.7247867003836621,-0.5548428313236156,0.20468913921333654,0.35346325136134815
1681143240712888800,2.319888916015625,-0.11234673857688904,0.1654854416847229,0.4960387051105499,0.6922589540481567,0.6568310856819153,-0.298915833234787,-0.07087522745132446,-0.29210013151168823,0.15691763162612915,0.7236644767937261,-0.554944491059829,0.20634606511169232,0.3546375571280936
1681143240722947600,2.329947509765625,-0.18909546732902527,0.18221159279346466,0.6466418504714966,0.6965411901473999,0.653308629989624,-0.296678751707077,-0.0594104528427124,-0.28509873151779175,0.16224893927574158,0.7220317077416071,-0.5552228775361274,0.20829829542277276,0.3563841401363513
1681143240733006600,2.340006591796875,-0.2542172372341156,0.20747727155685425,0.8071657419204712,0.7018728852272034,0.6488645076751709,-0.2938528060913086,-0.042372703552246094,-0.2732235789299011,0.16897502541542053,0.7198990934856702,-0.555615463904017,0.2106301377126664,0.3587084942520054
1681143240743065600,2.350065673828125,-0.29226839542388916,0.23268310725688934,0.9773531556129456,0.7083233594894409,0.6433424949645996,-0.2904975712299347,-0.015574216842651367,-0.2540448307991028,0.17215046286582947,0.7172774447578093,-0.5560582984521515,0.21342535150868158,0.3616104495409991
1681143240753124600,2.36012451171875,-0.32122015953063965,0.2604130208492279,1.1531343460083008,0.7159110307693481,0.6365992426872253,-0.2867278754711151,0.01368802785873413,-0.23202770948410034,0.16690072417259216,0.7141968310151303,-0.55646987815746,0.21674256450899734,0.36508472755952365
1681143240763183600,2.37018359375,-0.33129703998565674,0.28230994939804077,1.32823646068573,0.724587619304657,0.6285503506660461,-0.2826612889766693,0.04477584362030029,-0.21108508110046387,0.14644616842269897,0.710687351875032,-0.5567853611179354,0.22058880189440197,0.36912634868796673
1681143240773242600,2.38024267578125,-0.32420292496681213,0.29524385929107666,1.5044994354248047,0.7342869639396667,0.6190899014472961,-0.2784789800643921,0.07857930660247803,-0.18729662895202637,0.11543893814086914,0.706797089097031,-0.5569111397752962,0.22496774930537325,0.37373455979708764
1681143240783301600,2.390301513671875,-0.3027644157409668,0.3079228401184082,1.686430811882019,0.7449771761894226,0.6080918312072754,-0.27428704500198364,0.11522179841995239,-0.15319675207138062,0.07871529459953308,0.7025489101941171,-0.5567736085930708,0.22991219875888558,0.3789045074782029
1681143240793360600,2.400360595703125,-0.26317572593688965,0.317508339881897,1.8685723543167114,0.756599485874176,0.5954402089118958,-0.2702009677886963,0.16028600931167603,-0.1174127459526062,0.046171486377716064,0.6979731768528652,-0.5562945827358998,0.23544820418394366,0.38462211771762767
1681143240803419600,2.410419677734375,-0.19621117413043976,0.3050645589828491,2.0340688228607178,0.7690069079399109,0.581074059009552,-0.266423761844635,0.22682756185531616,-0.07754915952682495,0.018453240394592285,0.6931393678176091,-0.5553729445642487,0.2415554138628553,0.39085786465847133
1681143240813478700,2.420478759765625,-0.12273108959197998,0.2900981307029724,2.145800828933716,0.78187096118927,0.5651593208312988,-0.2631976306438446,0.31729596853256226,-0.027988791465759277,-0.012833774089813232,0.6881833387055655,-0.5539301275592011,0.24811810136937734,0.39749551978731795
1681143240823536600,2.43053662109375,-0.09516977518796921,0.2816833555698395,2.1977996826171875,0.794809103012085,0.548181414604187,-0.26033779978752136,0.4186462163925171,0.027044475078582764,-0.050376832485198975,0.6831383694937397,-0.5521193471678029,0.25494182074869337,0.4043401344055733
1681143240833595600,2.440595703125,-0.09610214829444885,0.2870301902294159,2.2061398029327393,0.8075180649757385,0.5306623578071594,-0.25751206278800964,0.5000230669975281,0.0725787878036499,-0.07816597819328308,0.6779733741110444,-0.5501725438129151,0.2618284459534442,0.41122790965446093
1681143240843654700,2.450654541015625,-0.11181410402059555,0.3044646680355072,2.162338972091675,0.8197643160820007,0.5130175948143005,-0.2545574903488159,0.5365742444992065,0.09367197751998901,-0.08998584747314453,0.6727336546767403,-0.5482173297380856,0.2686615199173822,0.4179811770917687
1681143240853713700,2.460713623046875,-0.14122232794761658,0.3430434763431549,2.055335283279419,0.8313129544258118,0.49578654766082764,-0.2512262463569641,0.5265668034553528,0.10254111886024475,-0.10236552357673645,0.6674627745401446,-0.5464396664659085,0.27530086091245576,0.4243897427779139
1681143240863772700,2.470772705078125,-0.13405732810497284,0.38817697763442993,1.8906172513961792,0.8419216871261597,0.47951480746269226,-0.24745430052280426,0.4795657992362976,0.12049135565757751,-0.11436198651790619,0.662317453585842,-0.5449310859573451,0.28164331721994296,0.430189392769512
1681143240873831700,2.480831787109375,-0.05649969354271889,0.43205150961875916,1.6804717779159546,0.85141921043396,0.4645412266254425,-0.2434893250465393,0.4070799946784973,0.13927966356277466,-0.14022332429885864,0.6575702321995238,-0.5435947490769155,0.28768053024016665,0.43513934989348824
1681143240883890700,2.490890625,0.08265625685453415,0.45707398653030396,1.4542332887649536,0.8597298264503479,0.4510140120983124,-0.23968951404094696,0.3273887038230896,0.1560111939907074,-0.1817275583744049,0.6534942601571373,-0.5422519167170649,0.2934588613754957,0.4390786273909777
1681143240893949700,2.50094970703125,0.25416141748428345,0.4601094722747803,1.216322422027588,0.866820216178894,0.4390067756175995,-0.23642338812351227,0.241685152053833,0.15982449054718018,-0.23084640502929688,0.6503002362674772,-0.5407361786967063,0.2989861091509789,0.4419518867854736
1681143240904008700,2.5110087890625,0.44065049290657043,0.43663206696510315,0.9703319072723389,0.8726601004600525,0.4286167025566101,-0.2339920848608017,0.14865654706954956,0.16417211294174194,-0.27404916286468506,0.648121618194463,-0.5389488878725782,0.30420067422293856,0.4437731107385937
1681143240914067700,2.521067626953125,0.612201988697052,0.39632752537727356,0.7352959513664246,0.8772796988487244,0.419878214597702,-0.23255693912506104,0.04958498477935791,0.16850075125694275,-0.2948172092437744,0.6470014864637006,-0.5368504792228815,0.3090519279881274,0.44459824413714194
1681143240924126700,2.531126708984375,0.7534597516059875,0.33674874901771545,0.5270901322364807,0.8807685971260071,0.41272300481796265,-0.23217830061912537,-0.04692131280899048,0.1572081446647644,-0.28683409094810486,0.6468713921035588,-0.5344567501756139,0.31347540902597776,0.4445748544635622
1681143240934185700,2.541185791015625,0.8218857049942017,0.2554456293582916,0.38421952724456787,0.8833289742469788,0.40685904026031494,-0.23280031979084015,-0.10310113430023193,0.1299910843372345,-0.2542296350002289,0.6475134662484494,-0.5318260244500397,0.3174286077478662,0.443989555601203
1681143240944243700,2.55124365234375,0.7979451417922974,0.1611557900905609,0.29677528142929077,0.8851989507675171,0.4019423723220825,-0.23423397541046143,-0.10127842426300049,0.08374503254890442,-0.2083165943622589,0.6485924715577136,-0.5291018608390772,0.32083365428235094,0.4432212465575751
1681143240954302700,2.561302734375,0.6936594843864441,0.05980387330055237,0.2642034888267517,0.8865776062011719,0.3976987600326538,-0.2362537682056427,-0.06449508666992188,0.031317323446273804,-0.16409096121788025,0.6497850200976467,-0.526453023724039,0.32360520410846616,0.4426130966072464
1681143240964361700,2.57136181640625,0.5278636813163757,-0.03165893256664276,0.2866409420967102,0.8876962661743164,0.39379119873046875,-0.23858703672885895,-0.01582437753677368,-0.01184844970703125,-0.12289352715015411,0.6507828948460553,-0.5240220998101197,0.32574118101745303,0.4424648448283947
1681143240974420700,2.581420654296875,0.29548850655555725,-0.12864673137664795,0.33378660678863525,0.8887324929237366,0.3900161385536194,-0.2409200668334961,0.02917546033859253,-0.048493802547454834,-0.08422937989234924,0.6513134712420292,-0.5219780446354692,0.32722910055104076,0.44300237294624273
1681143240984479000,2.59147900390625,0.023101475089788437,-0.23891399800777435,0.3904750645160675,0.8897016048431396,0.3863889276981354,-0.24317632615566254,0.06420159339904785,-0.06342136859893799,-0.047213539481163025,0.6512277756372488,-0.5204489283593194,0.3279401650386803,0.4443991562574355
1681143240994537700,2.601537841796875,-0.2853551506996155,-0.3423551619052887,0.4494140148162842,0.8906195163726807,0.382945716381073,-0.24525436758995056,0.09914195537567139,-0.055385202169418335,-0.018890440464019775,0.6504211991694061,-0.5195357625014085,0.3278039216248164,0.4467433401704311
1681143241004597000,2.611596923828125,-0.6230613589286804,-0.4425572156906128,0.4969206154346466,0.8914666771888733,0.37980806827545166,-0.24704907834529877,0.12350231409072876,-0.045320093631744385,-0.0003873109817504883,0.6488208051655124,-0.5193403816837787,0.32674305811302834,0.45006253916525435
1681143241014655700,2.62165576171875,-1.0045685768127441,-0.5239444971084595,0.5210462212562561,0.8922152519226074,0.3772382438182831,-0.24828138947486877,0.12319636344909668,-0.05416378378868103,0.00938984751701355,0.6463211818563757,-0.520051982392798,0.3246617374687679,0.45432358323564315
1681143241024715000,2.631715087890625,-1.3801683187484741,-0.5794219374656677,0.5161242485046387,0.8927972912788391,0.3755590319633484,-0.24873369932174683,0.10477656126022339,-0.07161921262741089,0.022964805364608765,0.6428992052462008,-0.5218060457015627,0.3214834360843395,0.45939903631664347
1681143241034773800,2.641773681640625,-1.7156195640563965,-0.5993613004684448,0.4925699234008789,0.8932266235351562,0.3749012053012848,-0.24818430840969086,0.08364111185073853,-0.0846942663192749,0.037140145897865295,0.6385889065255279,-0.5246233670544072,0.31729823425404113,0.46507681804237966
1681143241044833000,2.6518330078125,-1.9923619031906128,-0.5849367380142212,0.451692670583725,0.8935490250587463,0.3752531111240387,-0.2464861273765564,0.05339628458023071,-0.08879977464675903,0.04896122217178345,0.6334866476213395,-0.5284223711058273,0.31229270671182846,0.4711027796420814
1681143241054891800,2.661891845703125,-2.1705803871154785,-0.5603418946266174,0.4148816764354706,0.8937769532203674,0.3765102028846741,-0.2437269538640976,0.004996240139007568,-0.0830225944519043,0.06085045635700226,0.6277651754056051,-0.5330120170066401,0.3066508000292292,0.4772571507735254
1681143241064951000,2.671950927734375,-2.251173734664917,-0.5219928622245789,0.3885418772697449,0.8939940929412842,0.37827885150909424,-0.24016635119915009,-0.045056045055389404,-0.07050901651382446,0.06702500581741333,0.6216447043894289,-0.5380567335855951,0.30068551493903245,0.48336446005542455
1681143241075009800,2.682009765625,-2.2317006587982178,-0.47367191314697266,0.3594617545604706,0.8942339420318604,0.380289226770401,-0.23606356978416443,-0.08544176816940308,-0.05805402994155884,0.07049053907394409,0.6153647270085806,-0.5432678741217166,0.29466630423886203,0.48924249203899456
1681143241085067800,2.69206787109375,-2.125202178955078,-0.42123520374298096,0.33883169293403625,0.8945189714431763,0.38229814171791077,-0.23169836401939392,-0.12362957000732422,-0.03664076328277588,0.06856673955917358,0.6091611193773661,-0.5483804497611575,0.288842004131524,0.4947444367970208
1681143241095126800,2.702126708984375,-1.950570821762085,-0.36592161655426025,0.3155229091644287,0.8948797583580017,0.3840579092502594,-0.2273542433977127,-0.15842950344085693,-0.010660022497177124,0.05914147198200226,0.603245220181155,-0.5531550161388202,0.2834473644401454,0.49977238224452125
1681143241105185800,2.712185791015625,-1.7201869487762451,-0.31061652302742004,0.294281542301178,0.8952921628952026,0.3854888677597046,-0.2232723981142044,-0.18256926536560059,0.015390127897262573,0.052511394023895264,0.5978168933528591,-0.5574292218659056,0.27863320381863094,0.504233433175806
1681143241115244800,2.722244873046875,-1.45622718334198,-0.2611887753009796,0.2939220368862152,0.8958058953285217,0.3863730728626251,-0.21965420246124268,-0.20443004369735718,0.031015902757644653,0.04782509803771973,0.5929890860368636,-0.5610576861656781,0.27456724567178264,0.5081252230482369
1681143241125303800,2.7323037109375,-1.2026702165603638,-0.21117502450942993,0.3074754774570465,0.8964564204216003,0.3865843415260315,-0.21660713851451874,-0.2165246605873108,0.03703022003173828,0.04453390836715698,0.5887855235768173,-0.5639908154555726,0.27131308530448023,0.511503005372857
1681143241135362800,2.74236279296875,-0.9591533541679382,-0.18000644445419312,0.3436252176761627,0.8972998857498169,0.3859919309616089,-0.2141571044921875,-0.21533876657485962,0.03872126340866089,0.040557995438575745,0.5851396940046195,-0.5662384089764343,0.26887824178914826,0.514480488126817
1681143241145421800,2.752421875,-0.7329462170600891,-0.15280871093273163,0.3956720232963562,0.8983745574951172,0.3844723701477051,-0.21237747371196747,-0.2018107771873474,0.03679230809211731,0.03444488346576691,0.5819945214671489,-0.5677923476943261,0.26725103508192194,0.5171761276482393
1681143241155480800,2.762480712890625,-0.5337337255477905,-0.13093456625938416,0.4509635269641876,0.8997073173522949,0.3819827437400818,-0.2112254947423935,-0.18864762783050537,0.032964855432510376,0.029768049716949463,0.5792771943515512,-0.568696215617893,0.2664054573935739,0.5196642011627699
1681143241165539800,2.772539794921875,-0.381818562746048,-0.10140171647071838,0.502179741859436,0.9012890458106995,0.378623902797699,-0.21052826941013336,-0.1864452362060547,0.038276731967926025,0.026385322213172913,0.5768779260917801,-0.5690785932329082,0.2662431619238329,0.5219924507382528
1681143241175598800,2.782598876953125,-0.27472275495529175,-0.07156471908092499,0.5466175675392151,0.9030969142913818,0.37454167008399963,-0.21008308231830597,-0.183782160282135,0.04641786217689514,0.026748836040496826,0.574682811125191,-0.5690866800739313,0.2666435962911752,0.5241959904889882
1681143241185657900,2.792657958984375,-0.22390210628509521,-0.03718163073062897,0.5838907957077026,0.905099093914032,0.3699180781841278,-0.20965802669525146,-0.17649179697036743,0.05313187837600708,0.03811885416507721,0.5725583823998075,-0.5688926245057481,0.2674549875612585,0.5263136335454974
1681143241195716900,2.802716796875,-0.1999877244234085,-0.004466027021408081,0.6214768290519714,0.9072866439819336,0.36485588550567627,-0.20907284319400787,-0.16944777965545654,0.055783212184906006,0.05437934398651123,0.5703838303373018,-0.5686269155420914,0.2685647178851449,0.5283927788895474
1681143241205775600,2.812775634765625,-0.20148666203022003,0.026780109852552414,0.6518508195877075,0.9096391201019287,0.35943782329559326,-0.20823436975479126,-0.1654829978942871,0.0565168559551239,0.06886067986488342,0.5680927949039586,-0.5683674518036002,0.26989119557105495,0.5304602219110228
1681143241215833900,2.822833740234375,-0.21250095963478088,0.05312782898545265,0.6684386134147644,0.9120976328849792,0.3538059592247009,-0.2071223109960556,-0.1604648232460022,0.060058265924453735,0.07427942752838135,0.5656759954017073,-0.5681651209946317,0.27134339729077495,0.5325148596230128
1681143241225892900,2.832892822265625,-0.22623175382614136,0.0768328383564949,0.6710746884346008,0.9145983457565308,0.3481098413467407,-0.20574124157428741,-0.15019404888153076,0.07420772314071655,0.07596537470817566,0.5631607226058706,-0.5680493911441648,0.27285392646386236,0.5345284624255713
1681143241235951900,2.842951904296875,-0.235932856798172,0.09890325367450714,0.6579530239105225,0.9170928001403809,0.3424631953239441,-0.20410723984241486,-0.14844655990600586,0.09126794338226318,0.0719815194606781,0.5605850954420897,-0.5680314229466572,0.27438418478022025,0.5364680474987296
1681143241246011000,2.853010986328125,-0.23901623487472534,0.12348195165395737,0.6373368501663208,0.919540286064148,0.33695656061172485,-0.20225244760513306,-0.15499860048294067,0.10637235641479492,0.0667392760515213,0.5579948453896577,-0.5681081904362559,0.27591096197300613,0.5383010800661316
1681143241256070000,2.86306982421875,-0.23701514303684235,0.14206361770629883,0.6110453009605408,0.9219092726707458,0.33166444301605225,-0.20020528137683868,-0.16362369060516357,0.12114012241363525,0.062052324414253235,0.555433038000487,-0.5682741369565214,0.2774200129909252,0.5399971178990696
1681143241266129000,2.87312890625,-0.21518561244010925,0.156968891620636,0.576516330242157,0.9241721630096436,0.32661211490631104,-0.1980668157339096,-0.16967076063156128,0.13589709997177124,0.051216378808021545,0.5529641390251262,-0.5684822097451968,0.27891677757369143,0.5415386763862563
1681143241276188000,2.88318798828125,-0.18622027337551117,0.17397503554821014,0.5416814088821411,0.9263226985931396,0.32180848717689514,-0.19587145745754242,-0.17339301109313965,0.14965763688087463,0.03489139676094055,0.5506335454916004,-0.5687044599091693,0.28042736289677556,0.5428982114672264
1681143241286246700,2.89324658203125,-0.14576929807662964,0.1893358826637268,0.5074269771575928,0.9283691048622131,0.31723475456237793,-0.19363121688365936,-0.16837453842163086,0.16202858090400696,0.022671908140182495,0.5484607443062388,-0.5689225039481434,0.2819779647743998,0.5440647771503526
1681143241296306000,2.903305908203125,-0.10119384527206421,0.2055412083864212,0.47361549735069275,0.9303101897239685,0.31288787722587585,-0.191374272108078,-0.1562623381614685,0.17061737179756165,0.014494508504867554,0.5464748228355667,-0.5691140219923789,0.2835878992537708,0.5450251610700877
1681143241306364700,2.91336474609375,-0.04588443785905838,0.2249472290277481,0.43803268671035767,0.9321492314338684,0.3087530732154846,-0.18912839889526367,-0.13858526945114136,0.17847537994384766,0.0035969018936157227,0.5447020093818766,-0.569254454912085,0.2852808522014334,0.5457692452285897
1681143241316424000,2.923423828125,0.010098936036229134,0.2513734996318817,0.40976643562316895,0.9339081048965454,0.3048090934753418,-0.18683472275733948,-0.11927181482315063,0.1882787048816681,-0.0027403682470321655,0.5431436183109264,-0.5693482914757367,0.2870978307081687,0.5462714307831693
1681143241326482700,2.933482666015625,0.06838259100914001,0.2793880105018616,0.38203904032707214,0.935610830783844,0.3010169267654419,-0.1844489574432373,-0.10289281606674194,0.19522947072982788,-0.0051718950271606445,0.5417804807546964,-0.5694017549084013,0.2890625616838898,0.5465331962387154
1681143241336542000,2.9435419921875,0.14198064804077148,0.29667457938194275,0.35036101937294006,0.9372509121894836,0.2973613440990448,-0.18203629553318024,-0.08288067579269409,0.2060871720314026,-0.010178565979003906,0.5406450582282982,-0.5693775679532471,0.2911890121074821,0.5465539394792828
1681143241346600700,2.9536005859375,0.23497214913368225,0.3052724599838257,0.31371861696243286,0.9387900829315186,0.29387855529785156,-0.17974668741226196,-0.052315354347229004,0.2247525155544281,-0.022981464862823486,0.5398237432245484,-0.5692075728711387,0.2934780996466894,0.546318418928785
1681143241356659000,2.963658935546875,0.3148403763771057,0.30585914850234985,0.267412394285202,0.9401991963386536,0.29062527418136597,-0.17765863239765167,-0.008283853530883789,0.24935278296470642,-0.04858331382274628,0.5393569195554551,-0.5688691434440158,0.2959029898703238,0.54582373336432
1681143241366717700,2.9737177734375,0.3556142747402191,0.302337646484375,0.21432094275951385,0.9414430260658264,0.2877371907234192,-0.1757630705833435,0.050225794315338135,0.2633645236492157,-0.06853002309799194,0.5392064997129511,-0.5684254537476361,0.2983470557170237,0.5451037511349262
1681143241376777000,2.98377685546875,0.3496759533882141,0.29948997497558594,0.1511441022157669,0.9424989819526672,0.2853740453720093,-0.17394696176052094,0.09819632768630981,0.2629810869693756,-0.07118533551692963,0.5392697549814988,-0.5680055632559018,0.3006596092259273,0.5442074242468159
1681143241386835700,2.993835693359375,0.295967161655426,0.32170745730400085,0.07962191849946976,0.9433716535568237,0.2837006449699402,-0.17194221913814545,0.12066960334777832,0.2545073926448822,-0.06047952175140381,0.5394136407505853,-0.5677903012013046,0.30272605141614495,0.5431428994257264
1681143241396895000,3.00389501953125,0.22629432380199432,0.3582417666912079,0.020817726850509644,0.9441018104553223,0.28277769684791565,-0.1694367378950119,0.11136400699615479,0.24120914936065674,-0.042141497135162354,0.53949098029439,-0.5679447077073406,0.3045003071384786,0.5419114267497616
1681143241406953700,3.01395361328125,0.2105139046907425,0.40173575282096863,-0.027484294027090073,0.9447305202484131,0.2824598252773285,-0.1664358228445053,0.08181989192962646,0.2241472601890564,-0.016410112380981445,0.5395295726682242,-0.5684063989969962,0.30609843972980066,0.5404867204367138
1681143241417013000,3.024012939453125,0.27470192313194275,0.4316723346710205,-0.08130598068237305,0.9452724456787109,0.282563716173172,-0.1631503403186798,0.07847034931182861,0.22578290104866028,-0.012127220630645752,0.5397101704732158,-0.5689720689346048,0.307726521869185,0.5387840737630153
1681143241427071700,3.03407177734375,0.4002630412578583,0.4371628165245056,-0.14912939071655273,0.945655107498169,0.2831040918827057,-0.15996451675891876,0.13137131929397583,0.2643660604953766,-0.03691951930522919,0.5403036704714235,-0.5694154242659166,0.3094896097934476,0.5367068877030777
1681143241437131000,3.044131103515625,0.5305763483047485,0.4408784508705139,-0.20182989537715912,0.9458532929420471,0.2840442657470703,-0.15710067749023438,0.17447757720947266,0.30805787444114685,-0.07303225994110107,0.54142750443581,-0.5696106748593579,0.31143754033277965,0.5342347392187031
1681143241447189800,3.054189697265625,0.6544127464294434,0.43463394045829773,-0.23680171370506287,0.9459078907966614,0.2852156162261963,-0.1546296924352646,0.16587799787521362,0.330888569355011,-0.10577665269374847,0.5430350553735904,-0.5695113779598237,0.31359519679632636,0.5314393753600717
1681143241457249000,3.0642490234375,0.7510924339294434,0.43026047945022583,-0.25890836119651794,0.9458699226379395,0.28647691011428833,-0.15251699090003967,0.1429363489151001,0.33423542976379395,-0.12896180152893066,0.5450178777244034,-0.5691363536836589,0.31595144172673434,0.5284072381787485
1681143241467307800,3.074307861328125,0.8171485066413879,0.4069328308105469,-0.2843751311302185,0.945724606513977,0.28786519169807434,-0.15079376101493835,0.1372528076171875,0.33019208908081055,-0.1344691514968872,0.5473157303397255,-0.5685243697439912,0.31840721909665265,0.525207091779896
1681143241477367000,3.084366943359375,0.8882924914360046,0.37665268778800964,-0.3365717828273773,0.9454173445701599,0.2895253598690033,-0.1495373398065567,0.13488978147506714,0.327860563993454,-0.12986622750759125,0.5499336780027165,-0.5677054376270103,0.32084555368502427,0.5218637469944394
1681143241487425800,3.09442578125,0.9855710864067078,0.35459861159324646,-0.3944111466407776,0.9449024796485901,0.2915801703929901,-0.14879795908927917,0.11993241310119629,0.33030712604522705,-0.12663830816745758,0.5529639266998725,-0.5666545743286838,0.323270190891865,0.5182954221423155
1681143241497483800,3.10448388671875,1.1009105443954468,0.32533419132232666,-0.46693143248558044,0.9441379308700562,0.2941227853298187,-0.1486465185880661,0.09281903505325317,0.33287617564201355,-0.12239521741867065,0.5564987890530184,-0.5653318012324048,0.32569417337855006,0.5144245282759868
1681143241507542800,3.114542724609375,1.2004680633544922,0.29581472277641296,-0.5361066460609436,0.9431117177009583,0.2971636652946472,-0.14911161363124847,0.0655859112739563,0.33053719997406006,-0.11069965362548828,0.5605483255557623,-0.5637265080802997,0.32811067745764766,0.5102367187191538
1681143241517602000,3.12460205078125,1.281208872795105,0.2665438950061798,-0.6153484582901001,0.9418003559112549,0.3007661700248718,-0.15017320215702057,0.03847008943557739,0.31878647208213806,-0.09634767472743988,0.5650723055497341,-0.5618868526238203,0.3304490279167844,0.5057470134202093
1681143241527660800,3.134660888671875,1.350819706916809,0.24153074622154236,-0.6983663439750671,0.9401812553405762,0.3049989342689514,-0.15177355706691742,0.01904737949371338,0.30672597885131836,-0.07745909690856934,0.5700231724417825,-0.5598748840056506,0.33264595704168165,0.5009596312675186
1681143241537720000,3.144719970703125,1.4278486967086792,0.22038578987121582,-0.7694416046142578,0.938257098197937,0.3098243474960327,-0.1538923978805542,0.013815164566040039,0.29727718234062195,-0.05410003662109375,0.5753871318759759,-0.5576879153888707,0.3347207673547814,0.49585893359258704
1681143241547778800,3.15477880859375,1.5126155614852905,0.20842984318733215,-0.834345817565918,0.9360684752464294,0.31510159373283386,-0.15648390352725983,0.017331421375274658,0.2853013277053833,-0.02764381468296051,0.5811270193094461,-0.555304989521561,0.33674087255492385,0.4904422150162255
1681143241557838000,3.164838134765625,1.608159065246582,0.18925827741622925,-0.8779862523078918,0.933647632598877,0.32067635655403137,-0.15958908200263977,0.03954261541366577,0.2719902992248535,-0.005510896444320679,0.5872298573324488,-0.5526703492523648,0.33876385196979697,0.4847221764924602
1681143241567896800,3.174896728515625,1.7265795469284058,0.16335740685462952,-0.9148606657981873,0.9310115575790405,0.3263932764530182,-0.16335590183734894,0.08243155479431152,0.263511598110199,0.009364306926727295,0.5937245832123411,-0.5496837845914407,0.34083688941111284,0.47871620221877803
1681143241577955800,3.184955810546875,1.8319581747055054,0.1276382952928543,-0.9474039673805237,0.9281696677207947,0.3321326673030853,-0.16789650917053223,0.13806885480880737,0.25745174288749695,0.010349631309509277,0.600610712033895,-0.5462830701249138,0.34296727340321365,0.4724565335075158
1681143241588014800,3.195014892578125,1.9077728986740112,0.0829455554485321,-0.990147054195404,0.9250884056091309,0.33795198798179626,-0.17320486903190613,0.20052194595336914,0.2520748972892761,0.004900529980659485,0.6078361776444143,-0.5425245003594119,0.3450575727719837,0.4659802908993948
1681143241598073900,3.205073974609375,1.935294270515442,0.03618844226002693,-1.0438576936721802,0.9217063188552856,0.34399548172950745,-0.17923355102539062,0.25582969188690186,0.24317803978919983,0.0030404478311538696,0.6153260018372333,-0.5385221349222586,0.34695407792745686,0.45933726723905033
1681143241608132900,3.2151328125,1.9319193363189697,-0.007342657074332237,-1.1071014404296875,0.9179831743240356,0.350390762090683,-0.18583205342292786,0.2871103882789612,0.2272002398967743,0.00928795337677002,0.6229797459501046,-0.5344184579416806,0.34854108012717916,0.4525621168803274
1681143241618192000,3.22519189453125,1.900148868560791,-0.038315221667289734,-1.1873170137405396,0.9138575196266174,0.35735082626342773,-0.19278261065483093,0.2870245575904846,0.20186856389045715,0.02525651454925537,0.6307311631053023,-0.5303712471884972,0.34973566143505913,0.4456115802744469
1681143241628251000,3.2352509765625,1.84958815574646,-0.06797771155834198,-1.2804940938949585,0.9092673063278198,0.36501947045326233,-0.19998511672019958,0.2708170413970947,0.17503494024276733,0.04812973737716675,0.6385351121225333,-0.5264849123575726,0.35045837839075933,0.43848109066185054
1681143241638310000,3.245309814453125,1.7976964712142944,-0.088440902531147,-1.3849848508834839,0.9041574597358704,0.37345215678215027,-0.20744392275810242,0.2393973469734192,0.1471167504787445,0.07244956493377686,0.6463937096396891,-0.5227835087244601,0.3506785444244699,0.43115807767620207
1681143241648367900,3.255367919921875,1.741678237915039,-0.12046678364276886,-1.4990572929382324,0.8984476327896118,0.3827826678752899,-0.21510346233844757,0.20259618759155273,0.11881956458091736,0.09358257055282593,0.6543113980401875,-0.5193239467922237,0.3503582576951954,0.423589965363531
1681143241658427000,3.265427001953125,1.6878176927566528,-0.15334829688072205,-1.6133331060409546,0.8920698761940002,0.3930310010910034,-0.22302080690860748,0.1682177186012268,0.09283944964408875,0.10645902156829834,0.6623053257739067,-0.5160988224106307,0.34947332211872373,0.4157670662079787
1681143241668486000,3.27548583984375,1.6228631734848022,-0.18766286969184875,-1.7235416173934937,0.8849872946739197,0.40417709946632385,-0.23116764426231384,0.1426006555557251,0.06898272037506104,0.1136750727891922,0.670346319241881,-0.5131294110986742,0.3480149160029587,0.4077005013887024
1681143241678544600,3.285544677734375,1.523710012435913,-0.2297424077987671,-1.8256274461746216,0.8771652579307556,0.4161973297595978,-0.2395019233226776,0.12541359663009644,0.041810572147369385,0.12422186136245728,0.6783658287251062,-0.5104705399775676,0.34593188428142674,0.39946333775762605
1681143241688604000,3.29560400390625,1.3936656713485718,-0.2750627398490906,-1.9050437211990356,0.8686076402664185,0.429019033908844,-0.24791885912418365,0.10992330312728882,0.005200415849685669,0.142206072807312,0.6862552581992827,-0.508197259557404,0.343185253618326,0.39116926796184137
1681143241698662700,3.30566259765625,1.2462650537490845,-0.3182560205459595,-1.9739303588867188,0.8593502044677734,0.44254058599472046,-0.2562720775604248,0.09636890888214111,-0.034795135259628296,0.15837180614471436,0.6939091384403052,-0.5063740490831466,0.3397782766577998,0.3829182029352807
1681143241708722000,3.315721923828125,1.1014063358306885,-0.35504066944122314,-2.032244920730591,0.8494126200675964,0.4566820561885834,-0.26446178555488586,0.08874362707138062,-0.06758284568786621,0.17669332027435303,0.7012795616422139,-0.505020828016627,0.335742556301809,0.37475071039912927
1681143241718780700,3.32578076171875,0.9637109041213989,-0.3833652436733246,-2.0668373107910156,0.8388507962226868,0.4713013470172882,-0.2724054157733917,0.08421456813812256,-0.09447017312049866,0.195607990026474,0.7083379034962205,-0.5041138697803048,0.33115933151782184,0.3666883893513751
1681143241728840000,3.33583984375,0.8334838151931763,-0.40825897455215454,-2.0921056270599365,0.827731728553772,0.48625120520591736,-0.2800363302230835,0.08720064163208008,-0.11852952837944031,0.21045637130737305,0.7150596452674668,-0.503622186132712,0.32610814533511717,0.35875920855357724
1681143241738898700,3.345898681640625,0.7065181732177734,-0.43084338307380676,-2.0931291580200195,0.8161343932151794,0.5013635754585266,-0.2873317003250122,0.09708899259567261,-0.14217156171798706,0.22480130195617676,0.7214276076812031,-0.5034980055965419,0.3206616766068082,0.35101036147195275
1681143241748958000,3.3559580078125,0.5848640203475952,-0.45076265931129456,-2.079577922821045,0.8041521906852722,0.5165051817893982,-0.29421424865722656,0.10853725671768188,-0.16611742973327637,0.23462876677513123,0.7274098597560965,-0.5037228490371984,0.3148907107506669,0.3434854737707473
1681143241759016700,3.3660166015625,0.47884196043014526,-0.46382492780685425,-2.0502567291259766,0.7918848395347595,0.5315114259719849,-0.3006896674633026,0.11898863315582275,-0.1881885528564453,0.24441534280776978,0.7330098401420464,-0.5042307701256541,0.308879421971597,0.3362166415336874
1681143241769076000,3.376075927734375,0.3772236406803131,-0.4796883761882782,-2.0112392902374268,0.7794333100318909,0.5462669730186462,-0.3067185878753662,0.12817484140396118,-0.2077811360359192,0.25305354595184326,0.7382172667659379,-0.5049894747943846,0.30269841845769424,0.3292334788098716
1681143241779134700,3.386134765625,0.2847307026386261,-0.4837254583835602,-1.9563472270965576,0.7668784856796265,0.5606902241706848,-0.3122882544994354,0.13184893131256104,-0.22460013628005981,0.2606068551540375,0.7430332542013072,-0.5059686387118497,0.2963977327101523,0.32256122243919494
1681143241789194000,3.396194091796875,0.2049044519662857,-0.4862714409828186,-1.8964802026748657,0.7543407082557678,0.5746741890907288,-0.3173638582229614,0.13382768630981445,-0.23678350448608398,0.2711755633354187,0.747456658728398,-0.5071311186549206,0.2900622399295019,0.31621292380587
1681143241799251700,3.406251708984375,0.14144372940063477,-0.48454973101615906,-1.8289812803268433,0.7418872117996216,0.5881491303443909,-0.322000116109848,0.13131225109100342,-0.2515707015991211,0.2791077792644501,0.7515248755965718,-0.5084158549944319,0.28374857705807044,0.31017815796810266
1681143241809311000,3.41631103515625,0.08818620443344116,-0.47616541385650635,-1.7557941675186157,0.7295989394187927,0.6010683178901672,-0.3261937201023102,0.12074291706085205,-0.26371175050735474,0.28806212544441223,0.7552552369794746,-0.509791519148751,0.27751710186623746,0.30444449322661726
1681143241819369700,3.42636962890625,0.04260513558983803,-0.46413376927375793,-1.678739309310913,0.7175657153129578,0.613370954990387,-0.3299628794193268,0.10549342632293701,-0.27740293741226196,0.29784324765205383,0.7586636267779537,-0.5112220358059238,0.2714232695880966,0.29901665829458046
1681143241829429000,3.436428955078125,0.004092761315405369,-0.444264680147171,-1.6081167459487915,0.705825686454773,0.6250807046890259,-0.3332933485507965,0.08905047178268433,-0.2901654839515686,0.30462217330932617,0.7617696294322062,-0.5127015020257558,0.2655004750060445,0.29386036411056665
1681143241839487700,3.44648779296875,-0.015465759672224522,-0.42985963821411133,-1.5402392148971558,0.6943866610527039,0.6362364292144775,-0.3362002372741699,0.07174193859100342,-0.302587628364563,0.3115573525428772,0.7646011690834732,-0.5142207105065105,0.25976324373491383,0.2889382990831785
1681143241849547000,3.456547119140625,-0.021647248417139053,-0.4014737010002136,-1.468026876449585,0.683305025100708,0.6467532515525818,-0.33882853388786316,0.05105477571487427,-0.31513386964797974,0.3156657814979553,0.7672214524846873,-0.5156876685629792,0.2542675003406101,0.2842282791224049
1681143241859605800,3.466605712890625,-0.03295556455850601,-0.37480559945106506,-1.3903870582580566,0.6726062297821045,0.6566177606582642,-0.34125351905822754,0.026978731155395508,-0.32777559757232666,0.3153594434261322,0.7696580142113367,-0.517071963383566,0.2490177143048781,0.279737928436446
1681143241869665000,3.4766650390625,-0.03699920326471329,-0.3431539833545685,-1.3044381141662598,0.6624130010604858,0.6657987236976624,-0.34339678287506104,0.003846883773803711,-0.3460354804992676,0.3195016384124756,0.771883775474247,-0.5183921277527606,0.24407213294148766,0.2754887056818508
1681143241879723800,3.486723876953125,-0.03875049948692322,-0.30541831254959106,-1.2145545482635498,0.6528084874153137,0.6742598414421082,-0.34527525305747986,-0.014777421951293945,-0.3642011880874634,0.3217920660972595,0.773905425034867,-0.5196303324138536,0.23947169163102633,0.27149263034242166
1681143241889782800,3.49678271484375,-0.035374246537685394,-0.2653037905693054,-1.120034098625183,0.6438579559326172,0.6820067763328552,-0.34686291217803955,-0.031064867973327637,-0.37474048137664795,0.3275454044342041,0.775726758094417,-0.5207888248809488,0.23526057967102626,0.2677304693017906
1681143241899841800,3.506841796875,-0.04168806970119476,-0.2345847636461258,-1.0183418989181519,0.6356119513511658,0.6890254616737366,-0.3481975793838501,-0.039557814598083496,-0.382628858089447,0.33455634117126465,0.7773493750496668,-0.5218614873536495,0.23143420494965306,0.2642477845824984
1681143241909900800,3.51690087890625,-0.04262305051088333,-0.19238388538360596,-0.8934930562973022,0.6281885504722595,0.6952614188194275,-0.3492717444896698,-0.03813117742538452,-0.393549382686615,0.33755311369895935,0.7787570469867958,-0.5228449738739201,0.2280290900309706,0.2611003941285433
1681143241919959800,3.526959716796875,-0.07761912047863007,-0.15204204618930817,-0.7409207820892334,0.6218409538269043,0.7006112933158875,-0.3499396741390228,-0.03007453680038452,-0.4062080979347229,0.3342689871788025,0.7798681449377023,-0.523782014363604,0.22512787896085515,0.258409826377061
1681143241930018800,3.537018798828125,-0.10953465104103088,-0.11755147576332092,-0.5873908400535583,0.6166673302650452,0.7050917148590088,-0.35009607672691345,-0.01383829116821289,-0.41546452045440674,0.3374771475791931,0.7806232492253171,-0.5247371958188661,0.2227169358254826,0.2562723832535194
1681143241940077800,3.547077880859375,-0.12894882261753082,-0.06682199239730835,-0.38878586888313293,0.6128477454185486,0.7085441946983337,-0.349832683801651,-0.0003598928451538086,-0.41884076595306396,0.34424805641174316,0.7810465817775842,-0.5256288560632822,0.22090262506532019,0.2547208846706709
1681143241950136800,3.55713671875,-0.17978982627391815,-0.029303064569830894,-0.16632969677448273,0.610695481300354,0.7107934951782227,-0.34903278946876526,0.0066599249839782715,-0.4166496992111206,0.3401980400085449,0.7810523371768144,-0.5264754626460868,0.21978896218827662,0.25391698134455293
1681143241960195800,3.56719580078125,-0.23917007446289062,0.017822368070483208,0.04265841469168663,0.6102310419082642,0.7119140028953552,-0.34755828976631165,0.020597875118255615,-0.40864551067352295,0.3452390432357788,0.7805768479246463,-0.5273670058790314,0.2193282884472254,0.25392742658925016
1681143241970253800,3.57725390625,-0.2695204019546509,0.08331472426652908,0.27656903862953186,0.6115454435348511,0.7118309736251831,-0.3454115390777588,0.042186856269836426,-0.39849162101745605,0.35372769832611084,0.7796381903946947,-0.5282612878445958,0.21962293830479954,0.254696492877171
1681143241980313600,3.587313720703125,-0.30583927035331726,0.14451682567596436,0.5209084153175354,0.6148030757904053,0.7103618383407593,-0.3426418900489807,0.055988609790802,-0.3839457035064697,0.34844034910202026,0.7782291898274438,-0.5290964736997339,0.22076225281899417,0.2562820112426123
1681143241990372600,3.59737255859375,-0.3225756883621216,0.20471392571926117,0.7552340626716614,0.6199589967727661,0.7074844837188721,-0.33928874135017395,0.06780052185058594,-0.3748122453689575,0.3444767892360687,0.7763611162452632,-0.5298524506321742,0.222737548604688,0.2586658271156616
1681143242000431600,3.607431640625,-0.2930375039577484,0.26069945096969604,1.002210021018982,0.6269707679748535,0.7030331492424011,-0.3356371223926544,0.08118975162506104,-0.3584132790565491,0.3248645067214966,0.7741275255442214,-0.5303725895139108,0.22558003400966378,0.26181152499181964
1681143242010490600,3.61749072265625,-0.27270686626434326,0.3086756765842438,1.2568199634552002,0.6358985900878906,0.6967940926551819,-0.3318297564983368,0.10606008768081665,-0.3250747323036194,0.29449161887168884,0.771544273446089,-0.5305565557234594,0.22933571291789787,0.2657711756518372
1681143242020549600,3.627549560546875,-0.24145254492759705,0.3534940183162689,1.5044548511505127,0.6466273665428162,0.6887377500534058,-0.32789281010627747,0.1435796618461609,-0.3008134365081787,0.26627790927886963,0.7686048393284175,-0.5303945253290355,0.23395564183827056,0.27054246849551167
1681143242030608600,3.637608642578125,-0.18542416393756866,0.3883010149002075,1.7546015977859497,0.6590541005134583,0.6787453293800354,-0.32396399974823,0.19290518760681152,-0.2798805236816406,0.22754377126693726,0.7653462698049904,-0.5297992689720624,0.23943838476402346,0.2760928432719287
1681143242040667600,3.647667724609375,-0.09504979848861694,0.41336214542388916,1.998759388923645,0.6730647087097168,0.6666160225868225,-0.3203233480453491,0.2627110481262207,-0.23225927352905273,0.19465211033821106,0.7618439571315133,-0.5286111664051879,0.24578151592087583,0.28241018762009723
1681143242050726700,3.6577265625,-0.030130136758089066,0.4455261528491974,2.217339515686035,0.688450276851654,0.6523563861846924,-0.3169660270214081,0.3327289819717407,-0.1762515902519226,0.17945390939712524,0.758102519866108,-0.5268198814053601,0.25293831833578895,0.289419516269996
1681143242060785400,3.667785400390625,0.007889417931437492,0.4913890063762665,2.418393850326538,0.7049544453620911,0.6361340880393982,-0.3136441111564636,0.38051003217697144,-0.1431531310081482,0.16169723868370056,0.7540606582949775,-0.5245422160473291,0.26083213523794374,0.297009425431694
1681143242070844700,3.6778447265625,-0.020134760066866875,0.5403707027435303,2.579115867614746,0.7223950624465942,0.6181537508964539,-0.3098892867565155,0.41128718852996826,-0.11957275867462158,0.14460620284080505,0.7495597602535725,-0.5220045666261343,0.269381861467136,0.3051309293838902
1681143242080903400,3.6879033203125,-0.04609765112400055,0.5770024657249451,2.6803572177886963,0.7402405142784119,0.5988894701004028,-0.30557408928871155,0.4295135736465454,-0.09418970346450806,0.1351487934589386,0.7446059634233918,-0.5193737205420287,0.2783233553105549,0.3136066033460834
1681143242090962700,3.697962646484375,-0.06534860283136368,0.6183574795722961,2.720714807510376,0.7580789923667908,0.5786872506141663,-0.3007282614707947,0.434395432472229,-0.06052917242050171,0.11548662185668945,0.7392811533904469,-0.5166973871451461,0.28750597118507304,0.3222229513895004
1681143242101021400,3.708021484375,-0.05088391155004501,0.669840395450592,2.6888084411621094,0.7755023837089539,0.5579761862754822,-0.2953958809375763,0.4255779981613159,-0.016487538814544678,0.08497729897499084,0.7337245516096005,-0.5140053613401288,0.2968173680276342,0.3306755546663772
1681143242111080700,3.718080810546875,0.019812975078821182,0.7197113037109375,2.618825912475586,0.7921760082244873,0.5370891690254211,-0.28981509804725647,0.38241517543792725,0.023579895496368408,0.05135083198547363,0.7281541210524928,-0.5112143681643542,0.30619000054826223,0.3386729745752606
1681143242121139500,3.728139404296875,0.13968318700790405,0.7493627071380615,2.506500244140625,0.807891845703125,0.5162261128425598,-0.284291535615921,0.31927502155303955,0.06109023094177246,0.006184995174407959,0.7227807344321651,-0.5081943223041858,0.3155831997059634,0.3460260313130728
1681143242131198700,3.73819873046875,0.29132431745529175,0.7714896202087402,2.343404769897461,0.8224070072174072,0.49570798873901367,-0.2791425883769989,0.2555503249168396,0.09753859043121338,-0.04077312350273132,0.7178363736641784,-0.5048428991089277,0.32490360734581236,0.352537170364986
1681143242141256400,3.74825634765625,0.4444960057735443,0.791984498500824,2.1393914222717285,0.8355501294136047,0.47597789764404297,-0.27441054582595825,0.17258286476135254,0.12796500325202942,-0.09071686863899231,0.713460412733463,-0.5012014757495521,0.33405358999010526,0.35802179184086846
1681143242151315500,3.7583154296875,0.6025134921073914,0.7956759333610535,1.9024478197097778,0.8472296595573425,0.457418829202652,-0.27012988924980164,0.06520026922225952,0.1517120897769928,-0.14071285724639893,0.7097518845415031,-0.49732755311645255,0.34292907934391226,0.3623774088067252
1681143242161374500,3.76837451171875,0.7668443918228149,0.7984107136726379,1.6482384204864502,0.8574044108390808,0.44034260511398315,-0.2663763761520386,-0.04499584436416626,0.1690782606601715,-0.17403793334960938,0.7068126935192343,-0.49324768710956546,0.35145203406252923,0.36551907406026635
1681143242171433500,3.77843359375,0.921510636806488,0.7930851578712463,1.4034831523895264,0.8661714196205139,0.4248619079589844,-0.26313433051109314,-0.12447208166122437,0.1862831711769104,-0.1923862099647522,0.7046625545792209,-0.48898760025381544,0.3596164100494759,0.36744792157161066
1681143242181492500,3.788492431640625,1.0582780838012695,0.7660234570503235,1.1857640743255615,0.8736578226089478,0.4109477698802948,-0.2604690194129944,-0.15257316827774048,0.1976032853126526,-0.19084003567695618,0.7032759015961997,-0.4845570156880317,0.3673826272140208,0.368290118023208
1681143242191551500,3.798551513671875,1.151679515838623,0.7231884002685547,1.023384690284729,0.880092442035675,0.39834102988243103,-0.2583830654621124,-0.13221335411071777,0.19414252042770386,-0.17319640517234802,0.7025254386394069,-0.4799717586987142,0.3747473474186001,0.3683064342212247
1681143242201610500,3.808610595703125,1.19120192527771,0.6588046550750732,0.911445677280426,0.8856913447380066,0.3867396414279938,-0.2568724453449249,-0.07702124118804932,0.1765996515750885,-0.1490722894668579,0.7022466220410575,-0.47527085500995,0.38168232094010807,0.36781249219468676
1681143242211669500,3.81866943359375,1.1535797119140625,0.5934767723083496,0.8640794157981873,0.8907042145729065,0.37579798698425293,-0.25577735900878906,0.006085395812988281,0.16146403551101685,-0.13356584310531616,0.7021970668912153,-0.47055877814702635,0.38818263084972005,0.36716224390946167
1681143242221728500,3.828728515625,1.0148769617080688,0.5250271558761597,0.8527034521102905,0.8953322172164917,0.36530637741088867,-0.25481677055358887,0.10236376523971558,0.15938234329223633,-0.1198016107082367,0.7020828276989036,-0.4660577796361041,0.3941849363496617,0.36672626886773574
1681143242231787500,3.83878759765625,0.7756679654121399,0.4579228162765503,0.8643301725387573,0.899701714515686,0.35525640845298767,-0.2536337673664093,0.18178033828735352,0.1683337688446045,-0.09849321842193604,0.701620227655589,-0.4620729778782798,0.39958938113795706,0.3668054093305471
1681143242241846500,3.848846435546875,0.4527066648006439,0.3941915035247803,0.8774257302284241,0.9038598537445068,0.3457781970500946,-0.25194257497787476,0.22547376155853271,0.15863165259361267,-0.0726422667503357,0.7005781697002941,-0.4589209266926589,0.4042527641646796,0.3676434594163708
1681143242251905500,3.858905517578125,0.1553422063589096,0.34362462162971497,0.8825417160987854,0.9078154563903809,0.33699509501457214,-0.24961107969284058,0.2277437448501587,0.14852437376976013,-0.04825568199157715,0.6988796525817613,-0.45675282284281754,0.4081314999989653,0.3692871303434585
1681143242261964500,3.868964599609375,-0.07513175159692764,0.3139532804489136,0.8518847823143005,0.9115504622459412,0.32892391085624695,-0.2467489093542099,0.1920109987258911,0.14966806769371033,-0.03985685110092163,0.6966700447697404,-0.455431325222215,0.4113488257691787,0.37151778966911553
1681143242272023600,3.8790234375,-0.22395113110542297,0.31173083186149597,0.7761887311935425,0.9149892926216125,0.32181912660598755,-0.24336624145507812,0.13867592811584473,0.17061251401901245,-0.047756046056747437,0.6941335237886179,-0.4548732575402536,0.4140135255688543,0.3739810391725007
1681143242282082600,3.88908251953125,-0.29800647497177124,0.31386908888816833,0.6800390481948853,0.9180852174758911,0.3157408535480499,-0.23964011669158936,0.08600419759750366,0.21376967430114746,-0.0558767169713974,0.6915037837733068,-0.4548589058149434,0.4162731250382641,0.3763544222566196
1681143242292141600,3.8991416015625,-0.3364050090312958,0.31728875637054443,0.5818042159080505,0.9208341836929321,0.3106626272201538,-0.23569747805595398,0.036227643489837646,0.23242825269699097,-0.06828802824020386,0.688906834322514,-0.4552456702281848,0.4182136322463748,0.3784920662977725
1681143242302200600,3.90920068359375,-0.32658568024635315,0.32218095660209656,0.4868904650211334,0.9232489466667175,0.30649876594543457,-0.23166829347610474,-0.0032964348793029785,0.2238662838935852,-0.07100492715835571,0.6864413849994506,-0.4558940610871848,0.4199124375808533,0.3803058907680608
1681143242312259600,3.919259521484375,-0.2542383372783661,0.3217568099498749,0.4104959964752197,0.9253623485565186,0.30302536487579346,-0.22777239978313446,-0.03800266981124878,0.21176043152809143,-0.059504732489585876,0.6842273490104931,-0.4565817355390351,0.4214818165558705,0.38173182667822425
1681143242322318600,3.929318603515625,-0.09782183170318604,0.32312169671058655,0.3348158895969391,0.9272287487983704,0.2999661862850189,-0.2242041379213333,-0.07180565595626831,0.21933627128601074,-0.04718858003616333,0.6824054042865502,-0.457037679738763,0.42310103675756483,0.38265539614909905
1681143242332377600,3.939377685546875,0.12761163711547852,0.32940682768821716,0.2581537961959839,0.928858757019043,0.2971605062484741,-0.22117312252521515,-0.10434979200363159,0.24345847964286804,-0.04327687621116638,0.6811557624485804,-0.4569981567238613,0.424930731614751,0.38290164844700175
1681143242342435600,3.949435546875,0.38013097643852234,0.34421801567077637,0.1970188021659851,0.9302847981452942,0.2944745421409607,-0.218758225440979,-0.12768763303756714,0.2625781297683716,-0.043326616287231445,0.6805782174723103,-0.45629104066829934,0.42710581257085645,0.3823513277046489
1681143242352494600,3.95949462890625,0.5913005471229553,0.34944531321525574,0.14777450263500214,0.9315616488456726,0.29178792238235474,-0.2169165462255478,-0.1428806185722351,0.26528000831604004,-0.03972092270851135,0.6806079974727492,-0.45492339601628795,0.4296352302247545,0.38109199034850716
1681143242362553600,3.9695537109375,0.7543483376502991,0.3525061011314392,0.11853884905576706,0.9327165484428406,0.28907525539398193,-0.21558232605457306,-0.14939117431640625,0.24640148878097534,-0.032128751277923584,0.6811316504004898,-0.4529977438007452,0.43243713914205956,0.3792770312161034
1681143242372612400,3.9796123046875,0.8816380500793457,0.3554786145687103,0.11484142392873764,0.9338250756263733,0.2862069308757782,-0.21460770070552826,-0.14872980117797852,0.21765360236167908,-0.02158302068710327,0.6819958731589523,-0.4506096767104801,0.43548486534565367,0.37707504821123705
1681143242382671600,3.989671630859375,0.9577109813690186,0.3495224714279175,0.10974360257387161,0.9349107146263123,0.28316307067871094,-0.21391825377941132,-0.14961695671081543,0.20116621255874634,-0.01812201738357544,0.6830865839384686,-0.4478685497302864,0.4386965190186583,0.3746359059202491
1681143242392730400,3.99973046875,0.9992889165878296,0.3411160409450531,0.11226651817560196,0.9359683394432068,0.2800125181674957,-0.2134392112493515,-0.152337908744812,0.19987642765045166,-0.01718197762966156,0.6843155182336857,-0.44489858649053887,0.4419792335820942,0.3720644172825751
1681143242402789600,4.00978955078125,1.0015445947647095,0.33052918314933777,0.12139876931905746,0.9370232224464417,0.2767520248889923,-0.2130633294582367,-0.1582145094871521,0.19964268803596497,-0.015452206134796143,0.6855777195932865,-0.44181175790943833,0.4452759919386861,0.36947935534771975
1681143242412848400,4.019848388671875,0.9564988613128662,0.3107413649559021,0.12193965166807175,0.9380502104759216,0.2735082507133484,-0.21273255348205566,-0.16630637645721436,0.1883295178413391,-0.010243996977806091,0.6867983704842013,-0.43875350141387753,0.4484741810509927,0.36698001691902493
1681143242422907600,4.02990771484375,0.8868870139122009,0.2925668954849243,0.1277860850095749,0.9390431046485901,0.2703494429588318,-0.21238943934440613,-0.1753101944923401,0.1752682626247406,-0.003934293985366821,0.6879085960582713,-0.43583898870323134,0.4514971304332958,0.36465939377424256
1681143242432966400,4.03996630859375,0.8430569767951965,0.2802409827709198,0.12406192719936371,0.9399847388267517,0.2673533260822296,-0.21201729774475098,-0.1821109652519226,0.16994836926460266,0.01466020941734314,0.6889155694278305,-0.4331006931318886,0.4543293345805159,0.3624972658602557
1681143242443025700,4.050025634765625,0.8249738216400146,0.25108975172042847,0.14059562981128693,0.9409191012382507,0.2642861306667328,-0.2117174118757248,-0.19345200061798096,0.1730002760887146,0.024858370423316956,0.6898681267138594,-0.43037955124366595,0.4570719122308533,0.36047298201817884
1681143242453084400,4.06008447265625,0.8275935649871826,0.23417247831821442,0.1314230114221573,0.9417935609817505,0.26124781370162964,-0.21160005033016205,-0.1976376175880432,0.18821510672569275,0.024603739380836487,0.6908452299754358,-0.42764014073044004,0.45969977951415364,0.35851495346950113
1681143242463143700,4.070143798828125,0.8183146119117737,0.2060209959745407,0.10822901129722595,0.9425829648971558,0.2583385705947876,-0.21165691316127777,-0.195787250995636,0.1957477331161499,0.027620747685432434,0.6918762702285021,-0.424894683620636,0.4622078034734688,0.35656097097632744
1681143242473202400,4.080202392578125,0.84457927942276,0.1852966547012329,0.0802081897854805,0.9432461857795715,0.25567734241485596,-0.2119336724281311,-0.19370388984680176,0.20570269227027893,0.03599996864795685,0.6930124908064699,-0.42214247569725394,0.4645738812761999,0.3545428364174127
1681143242483261700,4.09026171875,0.8841460943222046,0.1774672269821167,0.04042322188615799,0.9437934756278992,0.2532478868961334,-0.21241390705108643,-0.19838625192642212,0.21606674790382385,0.0501672625541687,0.6943030705437004,-0.4193090281643685,0.46687576979905543,0.35234982587256797
1681143242493320400,4.100320556640625,0.9486222267150879,0.16740772128105164,0.0008272924460470676,0.9442145228385925,0.2511073648929596,-0.21308289468288422,-0.19328361749649048,0.22492113709449768,0.056543052196502686,0.6957805586278846,-0.41637512580763414,0.4691378339738217,0.3499015180679932
1681143242503379500,4.11037939453125,1.036338448524475,0.15111714601516724,-0.04876609519124031,0.9445013403892517,0.24919962882995605,-0.21404938399791718,-0.18133288621902466,0.23854762315750122,0.06562721729278564,0.697507396956828,-0.4132414419977712,0.47138818397447113,0.34714309062849225
1681143242513438500,4.1204384765625,1.1259077787399292,0.12834590673446655,-0.09258878231048584,0.9446246027946472,0.2475508749485016,-0.21541382372379303,-0.16700613498687744,0.2544327974319458,0.0709894448518753,0.699537714448785,-0.40985767892325486,0.4736135278815823,0.3440262035820669
1681143242523497500,4.13049755859375,1.1586748361587524,0.10091882199048996,-0.14482589066028595,0.9445806741714478,0.24618969857692719,-0.21715958416461945,-0.15356487035751343,0.2633318305015564,0.0698971152305603,0.7018167151965127,-0.40630546715626853,0.47574791165891167,0.3406365398684607
1681143242533556500,4.140556396484375,1.1479638814926147,0.07493828982114792,-0.21396522223949432,0.9443347454071045,0.2453504502773285,-0.21916939318180084,-0.13308590650558472,0.2550463080406189,0.0784071832895279,0.7042593092400201,-0.4027984883127853,0.4776700535415465,0.33705139505822723
1681143242543614700,4.15061474609375,1.110040545463562,0.04612794518470764,-0.27951815724372864,0.9438570141792297,0.24519991874694824,-0.22138510644435883,-0.11928713321685791,0.23647433519363403,0.08536839485168457,0.7068141425256881,-0.3994834522594943,0.47929157678754375,0.3333265180589084
1681143242553673500,4.160673583984375,1.0472102165222168,0.018237855285406113,-0.34819111227989197,0.9431520104408264,0.24576573073863983,-0.22374959290027618,-0.10234677791595459,0.22568513453006744,0.09511807560920715,0.7094215464860919,-0.39645116173879563,0.4805743207168073,0.3295393054660827
1681143242563732700,4.170732666015625,0.9649028778076172,0.006498640403151512,-0.4134736955165863,0.9422327280044556,0.2471170425415039,-0.22612181305885315,-0.08207929134368896,0.21865756809711456,0.1088733971118927,0.7120227671996237,-0.3937978546110344,0.4815208624136938,0.3257065858790681
1681143242573791500,4.18079150390625,0.8813043832778931,-0.007593061774969101,-0.47662535309791565,0.9411211013793945,0.249238520860672,-0.22841134667396545,-0.05168604850769043,0.20599226653575897,0.12089803814888,0.7145666006975443,-0.39157594093361225,0.48214376033039974,0.3218704441446886
1681143242583850500,4.1908505859375,0.8157999515533447,-0.017614535987377167,-0.5114325881004333,0.9398430585861206,0.2519671618938446,-0.23066791892051697,-0.00882798433303833,0.19955569505691528,0.12904448807239532,0.7170607745977741,-0.3897036895505883,0.4824904888309748,0.3180532145112097
1681143242593909500,4.200909423828125,0.7421504259109497,-0.03135368227958679,-0.5501158237457275,0.9384351968765259,0.25516098737716675,-0.23287922143936157,0.0412251353263855,0.20396077632904053,0.13009610772132874,0.7194837945480687,-0.3881417280856179,0.48260376051260423,0.3142975615828351
1681143242603968500,4.210968505859375,0.6714416146278381,-0.04513926804065704,-0.6018445491790771,0.9368621110916138,0.2589288055896759,-0.23504416644573212,0.08031946420669556,0.20580819249153137,0.12852263450622559,0.7218496959214178,-0.3869264268144566,0.4824581391050928,0.31057268700592605
1681143242614027500,4.221027587890625,0.5958016514778137,-0.047682106494903564,-0.659187376499176,0.9350937008857727,0.2633722722530365,-0.23713916540145874,0.11359715461730957,0.2011510729789734,0.1260552704334259,0.7241735532261578,-0.3860830162034497,0.48204804950421376,0.30682621030018836
1681143242624086500,4.23108642578125,0.48944538831710815,-0.03796769306063652,-0.7223852872848511,0.9331425428390503,0.2685665190219879,-0.2389918565750122,0.14272421598434448,0.19527018070220947,0.12987639009952545,0.7263924300175976,-0.38570872815326296,0.481386384725062,0.30306765122273444
