,seconds_elapsed,rotationRateX,rotationRateY,rotationRateZ,gravityX,gravityY,gravityZ,accelerationX,accelerationY,accelerationZ,quaternionW,quaternionX,quaternionY,quaternionZ
0,7.77722,0.8739911317825317,-0.3640865385532379,-1.3601068258285522,0.5698131918907166,0.7785282135009766,-0.2630715072154999,0.1137651801109314,-0.6252995133399963,0.2107947468757629,0.1663488562569623,-0.4531030991340335,-0.4039329440738604,0.7770866883585767
1,7.78722,0.7526748532820452,-0.3332708007669482,-1.1758007737288785,0.5623192848932979,0.7819748330645467,-0.268833830944782,0.13630836736425636,-0.621156134360297,0.21760250748967305,0.17052520742633712,-0.44990768236645373,-0.40393323868884917,0.7780299551200104
2,7.79722,0.6006121948955793,-0.26972156172292644,-0.8888407265443566,0.5533940712568093,0.7859051486640407,-0.27583085387937173,0.17224829240249706,-0.6031514683687503,0.22919240608991914,0.17545626803515105,-0.4460572116239991,-0.40387487385336757,0.7791828590403809
3,7.80722,0.4547575703935324,-0.18264756581915736,-0.5727148799879436,0.5470100083269916,0.788466393950752,-0.2812265379894124,0.2116710239528324,-0.5730852557886289,0.24169134678160162,0.17902174824529218,-0.4432317932272081,-0.4036471363341906,0.7801039662896045
4,7.81722,0.31533302098502436,-0.07954983843906108,-0.2239037055932347,0.5434869575712289,0.7895657522565999,-0.2849630735465582,0.26202499014883973,-0.5370006487052245,0.24666181117930738,0.18116839366109566,-0.44157171934815564,-0.40315314386482126,0.7808064755728427
5,7.82722,0.18805465395865653,0.018581718487251285,0.16192708117727106,0.5431343515530817,0.7890288930314874,-0.2871192963961514,0.3248283817254901,-0.48805271634200204,0.25002440191990216,0.1817950226605695,-0.44115602844985363,-0.40227043445177835,0.7813514541990453
6,7.83722,0.07007814441139369,0.11060642590170922,0.5898327688409883,0.5462613858654065,0.7866200305611455,-0.2877883575156392,0.3978697782208613,-0.4414479101249459,0.2517098984467482,0.1807456803375677,-0.4420379043507537,-0.40088344355892286,0.7818085122961111
7,7.84722,-0.030615218766622765,0.22568216591044693,1.0160959681002861,0.5530462700473252,0.7821326443042783,-0.28703811549057423,0.4747301127616501,-0.41344471014169376,0.24639830922444997,0.17798059728469529,-0.44427802893915774,-0.3988679926917935,0.7822018512283879
8,7.85722,-0.1636281657546405,0.3304488595549311,1.4231613316981897,0.5633532593339303,0.7755775778483103,-0.28473878321724416,0.5460070757900208,-0.3945800993837858,0.22611081556511814,0.17354032696229832,-0.447878276681626,-0.3962714842320738,0.7824630069079896
9,7.86722,-0.2869612956513773,0.41494793054529744,1.7992156955543424,0.5768500043285562,0.7670132353540844,-0.28084653105383844,0.6111504023246377,-0.37256569193577865,0.19814928832024417,0.16745125251972284,-0.45271925690625975,-0.39321093415806496,0.7825438763037811
10,7.87722,-0.4048733875818483,0.48495533435249133,2.120490690810331,0.5930622608562703,0.7564717308945496,-0.27557638107414556,0.6846055830472595,-0.3327197988130943,0.18178444671844343,0.15985924222149103,-0.45860934485212645,-0.389717085811687,0.7824453998425399
11,7.88722,-0.5493449759202156,0.4880855795330124,2.3868894663682076,0.6113380713430161,0.7441532314310569,-0.26905993587005433,0.7673000179754266,-0.2860732787477177,0.16125903231464842,0.15088341348651593,-0.4652773176590605,-0.38597308757067444,0.7821427314313945
12,7.89722,-0.7601235589655901,0.4622894569759648,2.580226870821223,0.6309466049005032,0.730402370381396,-0.26132770623485846,0.8455180163013897,-0.24420701958005278,0.1443964129133679,0.14055332152974304,-0.4723920861334163,-0.38232109055321745,0.7815923284437386
13,7.90722,-1.062667758930841,0.4647459376662642,2.7170063714375874,0.6512875080266766,0.7157221611142262,-0.25184326179682065,0.9067429996800631,-0.21828009402966955,0.15318201102313259,0.12891424674982102,-0.4798364468651432,-0.37923997662435627,0.780560743930518
14,7.91722,-1.447067944094449,0.5727937261320765,2.852848651529222,0.6722601897939513,0.7003517804900513,-0.23960608575841447,0.9378427218533258,-0.22087075308930143,0.1716797368818058,0.11599661302790269,-0.48785833957410274,-0.3770646939890255,0.7786614724289779
15,7.92722,-1.89082873190404,0.7417622597673081,2.9798042928826796,0.6939842476591787,0.6842536474871819,-0.22357902372286875,0.9310491326357581,-0.249902847441092,0.20504497369793667,0.10178165589833542,-0.4968076174028236,-0.3760008143043677,0.7754919726435044
16,7.93722,-2.3152862462579282,0.8652865626524232,3.0791263415344234,0.7162048071613225,0.6673434099383909,-0.20365109559644273,0.9196803649555574,-0.29285773637302903,0.24918685950994235,0.0862807598953511,-0.5066172876292682,-0.3761576621853483,0.7709278924663662
17,7.94722,-2.6378271191663716,0.9079022573612625,3.1440109976292554,0.7384267632570264,0.6494438406394071,-0.18081252212348378,0.9294078073661206,-0.3162993069906936,0.28739278385632466,0.06963278223790671,-0.5168712170478362,-0.3773826051463034,0.7651780521524995
18,7.95722,-2.802557652609685,0.8976031208019654,3.173502272562742,0.7601973396275811,0.6303345136676761,-0.15656101089472732,0.9525057150259099,-0.3010138897407312,0.3041570000885863,0.052162451072533714,-0.5271300714216928,-0.3792536203959665,0.7586129368694824
19,7.96722,-2.794317613467067,0.9052194356532093,3.181749639779033,0.781230573735218,0.6098634416700011,-0.13220409854395682,0.9499371495499636,-0.24682263703031268,0.2748934941909324,0.03438784506263533,-0.5371856106836098,-0.38119621956758204,0.7515663443598799
20,7.97722,-2.6439944949470378,0.9578412261723337,3.188969793817718,0.8014407411339263,0.5879246256701236,-0.10850460994870059,0.88698185710313,-0.17113332559276778,0.19897062653229441,0.016852198992351887,-0.5471007077702632,-0.382636107948308,0.7442466037293636
21,7.98722,-2.410811824287006,1.039013009430532,3.2145736861097065,0.8208688631607829,0.5644050977223197,-0.08578718667099045,0.7660114944359904,-0.10661937953687278,0.09734179963901071,-8.717423044050758e-05,-0.557043439198254,-0.3831332034735413,0.7367716639459774
22,7.99722,-2.1212361488073217,1.1173884775625678,3.2500374080732106,0.8395403558783977,0.539243267160592,-0.0642569362994966,0.6288879588936064,-0.06860891840915265,-0.0028376255639913917,-0.016262768780873925,-0.5671125727797033,-0.382408585923466,0.7292516305169082
23,8.00722,-1.7687529803525055,1.1683432154651416,3.269740507265879,0.8573393464889506,0.5125977447188386,-0.044258995382123495,0.5228952608856966,-0.044706331973001945,-0.08866053479516157,-0.031500546398958225,-0.5772706147008724,-0.38027564490137533,0.7218637859654208
24,8.01722,-1.3588825639394,1.1699378702982555,3.275055085089488,0.8741086253254128,0.48477030744846944,-0.02625436887159681,0.4622891381796151,-0.02004839163847196,-0.1484904018764077,-0.045620550702100054,-0.5873951331303363,-0.37658829638336366,0.7148450327776685
25,8.02722,-0.886200995361832,1.1146113964100535,3.2887538514188956,0.88979295430696,0.45598582244226393,-0.010811241746209826,0.4463314882112711,0.014740895481553426,-0.1797884656578852,-0.05850760959447102,-0.5973396083600284,-0.371155674869067,0.7084827068755195
26,8.03722,-0.37497159495581817,0.9987995805853928,3.3255598587752426,0.9044751464643225,0.42626965541371586,0.0015263582447797835,0.4653484327161951,0.06429717386893662,-0.1864247772644975,-0.07016118849149906,-0.6069807572676326,-0.36374540769320735,0.7030554076734016
27,8.04722,0.12346922613922756,0.8569776822126091,3.365279288044771,0.9182301406497194,0.39564374784985534,0.010536761465101723,0.5041670352021266,0.1195063758355015,-0.17225964535071012,-0.0806386910336186,-0.6162317157084949,-0.35425286216926366,0.6987188530498772
28,8.05722,0.561183340138105,0.7250328455727075,3.3887499251516657,0.9310739206694787,0.3641743474882807,0.016535972623731094,0.5318127752560516,0.16792249023736203,-0.14775169657666745,-0.09005531527803286,-0.6250772374240192,-0.3427957597393124,0.6954177292522266
29,8.06722,0.8815043198558596,0.6185292174106959,3.3972444013105267,0.9430499472290802,0.3317168992923049,0.020303335801809805,0.5215718172363443,0.20438420295554932,-0.11693475270945114,-0.09870332944620366,-0.6335973749729696,-0.3296401530306141,0.6928870616614388
30,8.07722,1.0787904548911096,0.5347366339476023,3.3977372996908564,0.9537734745329057,0.29934380071575006,0.022660565140673977,0.4647934677085484,0.22377971917648287,-0.07985093876761365,-0.106510767069743,-0.6416404570930679,-0.3155675112162403,0.6908796004356907
31,8.08722,1.179446083241191,0.460294126592094,3.372902662308448,0.9632905501671788,0.2670079991033891,0.02423589451248224,0.3775245725160039,0.22993280882066483,-0.04685017275140797,-0.11381807293901589,-0.6492277837660014,-0.30095747886247276,0.6891431110031654
32,8.09722,1.2043664054748537,0.38613999658941567,3.3147651688838637,0.9716073963606,0.23484934257599294,0.025332327640899176,0.28637640001805587,0.22866255833276067,-0.028147916926236968,-0.12083535391614536,-0.6563123011641016,-0.286138924142044,0.6875492892504581
33,8.10722,1.1546263312660945,0.30943434186387747,3.2299758009518222,0.9787089738889705,0.20315687741796584,0.026132453511670116,0.20924013880344305,0.2313729741557465,-0.020819875250065248,-0.127707619461563,-0.6628202844488866,-0.27146527614179217,0.6860147260997933
34,8.11722,1.0059712236144285,0.2183681205551296,3.108005390247295,0.984612065572074,0.17223955883464034,0.026684508817470677,0.1491787579070063,0.2418960958938203,-0.017609516863058075,-0.13462958808338435,-0.6686435415460874,-0.2573337675305177,0.6844882474641047
35,8.12722,0.7269925672292206,0.12172079727443008,2.9526086163129364,0.9893553994402843,0.14248583044309057,0.026995821937565213,0.10165587479458674,0.25088473104719927,-0.021661376471179078,-0.14186392396403938,-0.6736480517394458,-0.24426562425055892,0.6829110555374042
36,8.13722,0.3040139638921106,0.012184389400228784,2.7685815250301777,0.9930267521764745,0.11420139019642532,0.02697728687922252,0.06407663453096883,0.2396416959989258,-0.026708391087673006,-0.14979160060906369,-0.6776823379581084,-0.23283725094044785,0.6812215294847382
37,8.14722,-0.24217848863378766,-0.10875518193001615,2.5731686352518635,0.995749260413595,0.08759467348838253,0.026441097244861607,0.028456692115466784,0.2080307829529655,-0.027356613274286356,-0.15882334206792548,-0.6806014383359755,-0.22358158023165278,0.6793674986771722
38,8.15722,-0.866425311610818,-0.24549623379786975,2.3715347086768492,0.9976657822635602,0.06275793332234028,0.02506809511601814,-0.005504734739795535,0.16532728102030747,-0.030090374893622814,-0.16929630126837086,-0.6822757136070324,-0.21685821716883028,0.6773370947372835
39,8.16722,-1.518433921126371,-0.3903674145758905,2.1683602663165424,0.9989154320553595,0.03976433609819256,0.022470538056889224,-0.03852339355382915,0.12226331487624163,-0.0352569998867808,-0.18139932346192317,-0.6825912475132785,-0.21284399038976426,0.6751547767160966
40,8.17722,-2.117358547455503,-0.5302220095209345,1.9559735333732118,0.9996209801742321,0.01874359111276275,0.018362041035489284,-0.0732238226237746,0.10168858962484345,-0.03734916527396956,-0.19507028793493617,-0.6815041742785294,-0.2115010333529499,0.6728560784117978
41,8.18722,-2.615049509490334,-0.6562047408290098,1.735894477091176,0.9998912043038413,-0.00013670059669632778,0.012614485619453617,-0.11622472854351829,0.11248693400334414,-0.038581236277106884,-0.20999021792815514,-0.6790602091893203,-0.2125629258523701,0.6704927481563262
42,8.19722,-3.0106196619026715,-0.7711131169192332,1.5084689108588447,0.999823392713083,-0.0166544706352386,0.005212300308893485,-0.16201063340567173,0.14645201879721192,-0.04281833350338937,-0.22573880291149706,-0.6753344019136416,-0.21569726178379878,0.6681289968504847
43,8.20722,-3.336760872417324,-0.8786171385269371,1.2843038605683301,0.9995012961682707,-0.03068473980003583,-0.003817851097319664,-0.20420691516225348,0.1949209652184752,-0.05316746044757565,-0.24200383923481342,-0.6703844841143158,-0.22060718661522666,0.6658091611097899
44,8.21722,-3.615247727881134,-0.9845032005143513,1.0593081012994463,0.9989897478908106,-0.0421341739909134,-0.01443306226504412,-0.23373598286708852,0.24895006917140877,-0.05009705912471152,-0.25857243714892053,-0.6642374254995266,-0.2270666284812574,0.6635621771312346
45,8.22722,-3.858450238640568,-1.0686448255524026,0.8312638700442696,0.9983380907195355,-0.05087654196464157,-0.02645965092325566,-0.2568035228713617,0.2938373918995704,-0.03122865024581989,-0.2752659321089744,-0.6569321928277981,-0.2349300919372292,0.6613746154334691
46,8.23722,-4.05164371829515,-1.1207668684411278,0.6088288381122213,0.9975850838759868,-0.056829494196073235,-0.039546335446282964,-0.28635900043517704,0.31898200646673386,-0.006021482036611889,-0.2919005138879296,-0.6485644749973855,-0.2440643004470296,0.6591858060955454
47,8.24722,-4.160045659086796,-1.1399208824743265,0.4012384664644605,0.9967588599767193,-0.06003603427974619,-0.053276354635432524,-0.3292135503900054,0.3266777782773243,0.01719477020691636,-0.30823950607568157,-0.6392956358668065,-0.2542331897074269,0.6569530593658226
48,8.25722,-4.167498151776094,-1.1332857807926542,0.20916592951843158,0.9958795111494279,-0.06068091240794778,-0.06718443940155426,-0.3788249102852547,0.33232591607185263,0.033182516014711116,-0.3239883950540381,-0.6293658585974476,-0.26509367203022,0.6546661931882009
49,8.26722,-4.067758804301303,-1.1055917457754567,0.031322055056984155,0.9949524758992363,-0.05911139948116183,-0.08091978766727838,-0.42366061374755776,0.34429362920697726,0.04226870136281336,-0.3388772537756875,-0.6190358765960093,-0.2762275423344674,0.652372969834899
50,8.27722,-3.873768859764271,-1.0578205509106655,-0.12783474933445613,0.9939966114693105,-0.05553098439623266,-0.0941299008948607,-0.4580549933492497,0.3690893051028114,0.04892714066615376,-0.35258755640299216,-0.6085733231792997,-0.28729949805264854,0.6501696837218859
51,8.28722,-3.614212576068933,-1.0010500063109986,-0.27531598874482865,0.9930563911878025,-0.04991237748963616,-0.10640640266000034,-0.4816442166398409,0.39794479150169454,0.052330316818332695,-0.36479922352369776,-0.5982157834461469,-0.2981669963121113,0.6481545487218492
52,8.29722,-3.311423857017591,-0.928056988051184,-0.4060999316824463,0.9921268100501747,-0.04269787631556033,-0.11762987157111875,-0.4929069421801377,0.4226208989711991,0.05695202865777029,-0.37546200689332226,-0.5881581116778719,-0.3085882289900508,0.6463961224276724
53,8.30722,-2.9805574992301858,-0.8476376521098231,-0.5204645860388453,0.9912110613808655,-0.03427350245483531,-0.12768155159681724,-0.4953131656368068,0.43939978803011753,0.06431920662455488,-0.3845522756893997,-0.5785814278472609,-0.31839872233765704,0.644941433586029
54,8.31722,-2.649091724591995,-0.7566331917794081,-0.620337703053383,0.9903175844436144,-0.024927134674891806,-0.13648260872783877,-0.4919502205358027,0.44541901403889456,0.07251049990453047,-0.3920964090598842,-0.5696116048295854,-0.3275360101095863,0.6438123351827422
55,8.32722,-2.3303743235420997,-0.6736438813922976,-0.7027211557039836,0.9894447540304488,-0.014894844951174857,-0.14407024217704523,-0.48482686837218586,0.44088011007046135,0.07923491379683278,-0.3981908051918817,-0.5612976174444414,-0.33599360945981144,0.6430198668792096
56,8.33722,-2.034881963622477,-0.596498826632559,-0.7766333374247569,0.988579790026328,-0.004387252352542862,-0.1505677665824285,-0.4715899170122748,0.4280552254791849,0.0847301654451027,-0.4029766193962414,-0.5536359060270127,-0.3437850983437845,0.6425658670528036
57,8.34722,-1.7734918781577167,-0.5211125849120922,-0.8415280243531681,0.9877137194837656,0.006513611344129316,-0.1560765914609124,-0.45424909712167566,0.40946880032296457,0.09230415559663009,-0.40658125105411463,-0.5465882856861053,-0.35098456675515566,0.6424394908452554
58,8.35722,-1.5522551587640814,-0.4335983131806621,-0.8977107592999239,0.9868478203412049,0.017723295738104574,-0.16061850454474275,-0.4429514852113228,0.38568124971847395,0.0949815494967745,-0.40915017612313564,-0.5401205660257498,-0.3577005702136497,0.6425764400297861
59,8.36722,-1.38420554761433,-0.32759066303957063,-0.9374704083790472,0.9860119925646094,0.02916598205552725,-0.16404719701281187,-0.44310152138514464,0.35872041732711,0.095837421950908,-0.4108244280852033,-0.5342296654731429,-0.364095793256839,0.6428424575248678
60,8.37722,-1.262829935159456,-0.21628008598496035,-0.9637098364929654,0.9852275691836123,0.040732314048583886,-0.16628271239654935,-0.44723939049198985,0.32890325541445764,0.09988292836109688,-0.4117767105671854,-0.5288855963832608,-0.3703112977847362,0.6431026440555423
61,8.38722,-1.1801908574179765,-0.10854384967470844,-0.970941391989999,0.9845037626884074,0.052303643379886106,-0.16733160890328483,-0.44509308980825385,0.30067053585656983,0.10485998327126622,-0.4121809488793953,-0.5240371806231163,-0.376446319874905,0.6432515352644945
62,8.39722,-1.1256718780962771,-0.005123933852352783,-0.9597451897846322,0.9838477904642212,0.06372873694663002,-0.16723097974882034,-0.430994376616239,0.2748247853897187,0.11260080154223602,-0.4121911509202903,-0.5196472216170173,-0.3825500190663565,0.6432059084970131
63,8.40722,-1.0749602949594468,0.09357325154232739,-0.9418693640955236,0.9832616523788534,0.07491888214266959,-0.16603768517501952,-0.408432051280158,0.2503475935231293,0.117868729787869,-0.41189804156281723,-0.5156859132112362,-0.3886424581430975,0.6429298569031304
64,8.41722,-1.0179431302640447,0.18983648409500767,-0.9090690549948292,0.9827504218851124,0.08575941953224067,-0.16380675938849593,-0.38497188796964804,0.2336637076881798,0.11078559881239837,-0.41132732661204874,-0.5121731334820083,-0.39467662641078816,0.6424275537722376
65,8.42722,-0.9533861593176504,0.2777510580657803,-0.8686550079613946,0.9823206742883667,0.09610655070470711,-0.16061162090693606,-0.3652997291129535,0.22356513177737075,0.09136478463119752,-0.41051945446762894,-0.5091297279007352,-0.4005946213653327,0.6417004277552291
66,8.43722,-0.8765532517433232,0.3499718159079779,-0.8267502518980945,0.9819606378924648,0.10589209321627145,-0.1566121664471766,-0.3488635178521396,0.21742663216176406,0.06279027261036724,-0.4094958218331521,-0.5065429573316661,-0.4063295475289731,0.640795578068139
67,8.44722,-0.7966217722782172,0.4117040121211041,-0.7946495067729322,0.9816515352554963,0.11514130994164393,-0.1519560883170415,-0.3330491651194775,0.21439547464184788,0.029949036653556745,-0.4082395593347778,-0.5043906326875791,-0.41183514187726006,0.6397797866776246
68,8.45722,-0.7203580414304293,0.47410727767596994,-0.775114534546887,0.9813764164530755,0.1239641137094452,-0.14670182440831284,-0.3186534441152839,0.20888299551425493,-0.005408607202910268,-0.4067294013051215,-0.5026359342871678,-0.4171364423702454,0.6386874344147155
69,8.46722,-0.6532666661194092,0.5430925524278184,-0.766996251377731,0.9811195128889936,0.13250810156706055,-0.1408345561004107,-0.31160934197303863,0.20112542746244574,-0.039053094887493485,-0.404931768068765,-0.5012463732064778,-0.4222934069503589,0.6375319739308458
70,8.47722,-0.5886118558999969,0.619908128707717,-0.7730977135759566,0.9808640995898551,0.14092647897240296,-0.13428731485826328,-0.3062319469724395,0.19181743303937573,-0.06308889877657756,-0.4027992921651796,-0.5002030050074149,-0.42737622333640957,0.6363141889828483
71,8.48722,-0.5126234456305584,0.6928534841401606,-0.7882462047655991,0.9805870157680512,0.14930830255059346,-0.1270554566644889,-0.29925806451321585,0.17710017713980572,-0.07647433107707416,-0.400283914236198,-0.4995020241982458,-0.4323971658915193,0.6350587861659991
72,8.49722,-0.41668491882507974,0.7565898430163699,-0.8167666705980346,0.9802467902346236,0.15774771117906816,-0.1192395813908626,-0.2855552600417566,0.15956232052238875,-0.09187524670564702,-0.39732980039221877,-0.49912455851564547,-0.43732410650933096,0.6338357192749285
73,8.50722,-0.27835913341855933,0.8060485790900328,-0.8472915793555773,0.9797986348031075,0.16629736399620595,-0.1110200836545799,-0.2664666908544263,0.1446059899258678,-0.11435366384567995,-0.3938560521672857,-0.4990764184257418,-0.4420525291709605,0.6327606751518169
74,8.51722,-0.10106643160908385,0.8337712718089041,-0.8809371784567689,0.9792011056496929,0.17496487166180127,-0.10265387446351247,-0.2386434379951051,0.14009180712962757,-0.15095900147261215,-0.3897795359158485,-0.49937742018619224,-0.44642286752148996,0.6319786357526836
75,8.52722,0.09544958481432038,0.8336195054855737,-0.9154447595084338,0.9784132013951113,0.18375904494751066,-0.09447633029815615,-0.2008402716339037,0.14467035433917713,-0.1988111745585718,-0.3850789729120658,-0.4999954359343937,-0.450294271635524,0.6316248603242901
76,8.53722,0.2895950532951542,0.813852000396209,-0.9598782766155285,0.9773929113980216,0.19276486255778752,-0.08678116270757884,-0.14885864293013715,0.15130735469381643,-0.24506711656572872,-0.37976784955600845,-0.5008467479090997,-0.4536087119880466,0.6317943046794124
77,8.54722,0.44396293094380807,0.8014112478351114,-0.9928980403012961,0.9761315638892977,0.2020185513118281,-0.07964012967037014,-0.08629458577973106,0.15271097783326393,-0.2799053154009172,-0.37391234828877956,-0.5018646480537372,-0.4564109971418858,0.6324604399413062
78,8.55722,0.5638707633427773,0.8206416988274183,-0.9894622918668717,0.9746905277503694,0.21134019801854242,-0.07280879453166317,-0.01685927349965559,0.14068715365683196,-0.30613365009300364,-0.36764301488589385,-0.5030821180919206,-0.4588064214382675,0.6334344354119176
79,8.56722,0.6226813798677011,0.8157409230571642,-0.9467151081561431,0.9731653875451205,0.22038177085772878,-0.06610015805154486,0.07018995354811185,0.1225846463729461,-0.3140872934931897,-0.3611768742100788,-0.5045381445512317,-0.4608585609391059,0.6345055863145461
80,8.57722,0.6329424053160846,0.7280923791512296,-0.8778652321055559,0.9716080432183117,0.22884317265288714,-0.05999024295408005,0.1857358699464569,0.09567376140313986,-0.32149674222320085,-0.3549053068263902,-0.5060208674515051,-0.4625444019657384,0.6356364649008063
81,8.58722,0.5663613214396769,0.44236644121969204,-0.805608422031739,0.9699912190424481,0.2366856163598953,-0.05558540591452925,0.33979751591225765,0.07048628058193113,-0.3293615727893627,-0.3493053466365558,-0.5070341462089669,-0.463814037204608,0.6370051674240845
82,8.59722,0.4264910944943858,0.08190462679306504,-0.7162475606453982,0.9683101468199189,0.24378070451438985,-0.0542382242537275,0.514949376282879,0.05265017712100505,-0.3324024791041017,-0.344999812847309,-0.5069773909520544,-0.46460172594215304,0.6388211263062924
83,8.60722,0.2104878056860781,-0.20706599204407863,-0.6304100957591231,0.9666136192326142,0.25009321505333354,-0.055746299398500454,0.6619388422085002,0.03782573840918227,-0.3260301284519078,-0.3422042107697683,-0.505739699498749,-0.46513872528729355,0.6409121754875932
84,8.61722,-0.08894886649929365,-0.3286543338956456,-0.5894278537617355,0.9649163262365617,0.255924636268726,-0.05861058105945162,0.7199293333083654,0.018764724500409728,-0.3111678536874796,-0.34073692921138427,-0.5035418374240305,-0.4659826653469148,0.642808751499565
85,8.62722,-0.44939671193764213,-0.3370904192860151,-0.566196867833389,0.9632159980193373,0.26166604324792747,-0.061173510069902105,0.6513054680483633,-0.009361072012022891,-0.2798513719170802,-0.34032610774248107,-0.5006546519700622,-0.46771488899510544,0.6440222258839763
86,8.63722,-0.8340193305290053,-0.36543418192605215,-0.5232548094389803,0.9615533768190735,0.26732563158791345,-0.06284052796577588,0.546048280499043,-0.0427519889582898,-0.22796254330646837,-0.3409861220137125,-0.4971528318221182,-0.4705498526260017,0.6443202108393128
87,8.64722,-1.168751875394032,-0.4543025077855435,-0.4667247675002272,0.9599521159342788,0.2727380727275331,-0.06405554144273548,0.5111927196452465,-0.06780634530658364,-0.16485211592824875,-0.34285390952525857,-0.4929326346829107,-0.4743281050914111,0.6438000343767117
88,8.65722,-1.4004835822187254,-0.6082802348666653,-0.4015239255180482,0.9584152846781446,0.27774704837754743,-0.0655312750814087,0.5679258334715191,-0.0740677644620282,-0.1007551500544509,-0.34585721266781555,-0.4879961437530042,-0.4786344329696187,0.6427655371311849
89,8.66722,-1.5871967020504734,-0.7229757248631622,-0.38616059222066207,0.9568664297976338,0.2825206457008992,-0.06772212223661495,0.6483650156615189,-0.0596007032991624,-0.06923955027684128,-0.3498451783555069,-0.4822890390873329,-0.4832518208921498,0.6414576691640115
90,8.67722,-1.5748289901876902,-0.8161230624796532,-0.4245096053393519,0.9551931723895184,0.2874243548349591,-0.0706423597229211,0.6768619272098031,-0.026039870517994654,-0.053972809578486255,-0.3542801128117147,-0.4760208231814813,-0.48793312129050326,0.640160191562632
91,8.68722,-1.5301936698318093,-0.861528449588393,-0.5337468328604017,0.9531951614018491,0.2931126745924031,-0.07416456746441318,0.6498149195866368,0.004271056921025224,-0.09796243422438487,-0.358461386258062,-0.4694069029118928,-0.4925144800652425,0.6392076437211346
92,8.69722,-1.4941895316416822,-0.8792305099747367,-0.6596035188507767,0.9507493909113484,0.29997207360664246,-0.07802438119202389,0.5648068226689361,-0.013121499409014662,-0.14862332103922313,-0.3622543042416448,-0.4623852319732917,-0.49717507484891976,0.6385789484174236
93,8.70722,-1.3182520956655126,-0.8756800719586706,-0.7514985665350241,0.9478913506666394,0.30782409323690646,-0.08210241517506658,0.4631828856795056,0.011172775017471744,-0.20175906560988832,-0.3654357709669682,-0.45523334567684187,-0.5017039744869112,0.6383629720476935
94,8.71722,-1.119961132531603,-0.860319442309245,-0.8419210841041622,0.9446740321556926,0.31636529910601174,-0.08658860601261245,0.3710151930306449,0.0576999276003948,-0.22790932848748366,-0.36783886148187006,-0.4482193775869772,-0.5057678347393435,0.6387398025393368
95,8.72722,-0.9779015462880001,-0.8421346309274232,-0.988593094553895,0.9409792403622707,0.3259067148633484,-0.09129707622854412,0.29466859009042506,0.027125471568701202,-0.2633454788868116,-0.3694211678770663,-0.4412356932475169,-0.5095672767600866,0.6396688620025879
96,8.73722,-0.7827026888031832,-0.8320523542425241,-1.1648493304488612,0.9366121144719259,0.336857738135347,-0.09630649961915738,0.2317584507241203,-0.008279704541022753,-0.2764517840183173,-0.37006161711073016,-0.4341395325375928,-0.5131919761188913,0.6412545313227765
97,8.74722,-0.520738334906781,-0.8001210558223347,-1.3199658854337828,0.931519972295666,0.3491406628453409,-0.10178226479259739,0.16786642720481829,-0.013159524547795903,-0.26247129200051056,-0.36959338261153674,-0.4270708191838847,-0.5164456160330249,0.6436547135332937
98,8.75722,-0.1935159605029858,-0.7564806085328107,-1.4493691858274032,0.9257502103318641,0.3624152769339519,-0.10783529546213784,0.1125085478848032,-0.027755009671104884,-0.24557259951450577,-0.3679144368731741,-0.42026730369411897,-0.5190905123778321,0.6469588630820009
99,8.76722,0.17354170184401252,-0.7131826462251125,-1.5663719143562502,0.9193376829859266,0.37635820162710204,-0.11470916003022322,0.06422357197121553,-0.039657646972834096,-0.21839336208950613,-0.36496873100181243,-0.4139015727469866,-0.5208922340155437,0.6512687083209787
100,8.77722,0.5186655018876214,-0.6872450234711097,-1.6925386910946638,0.9122291404149756,0.3908899242018713,-0.12258486710455645,0.017991301980723677,-0.045686302044572386,-0.1835771510975929,-0.36077438829440417,-0.40794764961286595,-0.5218089097772178,0.6566063039732288
101,8.78722,0.8373373602177777,-0.6706928825764675,-1.7814717681763506,0.9044029219943714,0.40585802802330767,-0.13159484916248898,-0.02075251356339824,-0.06272569902924277,-0.15621944039492583,-0.3554420583220794,-0.4023403423700886,-0.5218461251118278,0.6629139852692881
102,8.79722,1.0772336639934907,-0.6945885954748992,-1.8302319604800037,0.8959704498008174,0.4208355179290677,-0.14183259920170732,-0.05970679662017182,-0.09137788600833299,-0.12664687147139025,-0.349273263932689,-0.39702072337763594,-0.5210153249688005,0.670015262566245
103,8.80722,1.2100600251822193,-0.8066022253405203,-1.8617628669689759,0.8869337714446518,0.43561020611990303,-0.1535377502589446,-0.0804947342939943,-0.1272747368595934,-0.10696735795110558,-0.34273729383679924,-0.391656859747726,-0.5194561683077772,0.6777136183462709
104,8.81722,1.2273797383408083,-0.9921762177655136,-1.8941160593095427,0.877152996605919,0.4502261743001579,-0.16697090542500106,-0.07788456178850373,-0.17694692439693077,-0.10468373212260419,-0.336284134238642,-0.38578315126678925,-0.5173822004284085,0.6858528054301106
105,8.82722,1.1187085249598814,-1.1819435470025368,-1.912979366045437,0.8665093814050627,0.4647919557923233,-0.18195874261023876,-0.06937440763555544,-0.23870248741810232,-0.127191094894032,-0.3302689111536941,-0.37904742589099866,-0.5151133387535389,0.6941885896385055
106,8.83722,0.8917161241230893,-1.3350467157471404,-1.9241836385414222,0.855038244742067,0.4793946248125348,-0.19765930007962218,-0.06331359955964834,-0.295938647172455,-0.1455386807537879,-0.32491563222081626,-0.3713519390323462,-0.5130943528775573,0.702321907610951
107,8.84722,0.6183993726761858,-1.4645641316918956,-1.954375492347697,0.8427128562801689,0.49428637523995084,-0.21329654207263232,-0.06262307884718638,-0.3357168754019151,-0.134587240636756,-0.3202888655552401,-0.3626418087585065,-0.51170306803453,0.7099723194621955
108,8.85722,0.38594227108753504,-1.5683906737177027,-1.9987028384608374,0.8294249345802243,0.509699239187959,-0.22856236074921665,-0.06745057653783898,-0.3577128675293755,-0.09971816831356087,-0.3162484574260818,-0.3529426406581574,-0.5110257824906556,0.7171233828247708
109,8.86722,0.3866219493335008,-1.6060465526832832,-2.040335853779967,0.815195901187712,0.5254544096013337,-0.24358464524235143,-0.07397161827232986,-0.3770937341457762,-0.0633455255224655,-0.3124022139388067,-0.34260882374131174,-0.5107090733276743,0.7240133144383123
110,8.87722,0.7406660426633618,-1.660071320780334,-2.0550599175365867,0.8001668510484624,0.540607588364921,-0.25972508695171026,-0.07836568859261193,-0.3664615765691186,-0.03100000035104617,-0.3081804925771511,-0.3323006062676625,-0.5096183785588814,0.7313584942924017
111,8.88722,1.2562056674901494,-1.6970045054996874,-2.053863349010355,0.784369285270032,0.5542287317681696,-0.2785243625315808,-0.07971625503642532,-0.3065979954403585,-0.008888148862613646,-0.30327751807962383,-0.3223895172378543,-0.5067545858474486,0.739785388235117
112,8.89722,1.895719499934955,-1.7049441434370585,-2.033760829380719,0.7679748113485101,0.5655543069245451,-0.3005716265312059,-0.07396420019311035,-0.1990041744605676,-0.01661519720898849,-0.29748194025451125,-0.3132287006618386,-0.5015969476045408,0.7495247817567133
113,8.90722,2.6042098562433678,-1.733944907211875,-2.011877288103002,0.7510614224653714,0.5738461332568459,-0.3264761291139642,-0.05020570500796867,-0.055284504518685884,0.012550478948437714,-0.2906521059009424,-0.3050108137676415,-0.4936878862653828,0.7607600288135931
114,8.91722,3.286779729976714,-1.7820480222862818,-2.008791690447915,0.7334708051768107,0.5786722241085017,-0.35656280571539195,-0.02855646255569895,0.04020210310333372,-0.008774936602736602,-0.2828457663483466,-0.2975555358694855,-0.48288325163012963,0.7734828626088304
115,8.92722,4.000251096740168,-1.786695682585728,-1.9789694051834734,0.7152178020121985,0.5795049137569154,-0.3906588381470658,-0.014661657202744005,0.08295666855119313,-0.07243444306605701,-0.2739274138815385,-0.29090641864321864,-0.46908462298098835,0.787584201248067
116,8.93722,4.625634582261471,-1.792125464991777,-1.870409017212274,0.6967571335370768,0.5753989918273625,-0.42827805007159137,0.005940998797606961,0.14524118624269589,-0.11793309458738066,-0.2641672759876914,-0.2851643885409372,-0.4522588556759818,0.8027143865562054
117,8.94722,5.136067986177347,-1.8204943418094368,-1.7291846174462202,0.6783756558896452,0.5658539157776034,-0.4686080104046256,0.04978167645769814,0.21413662551336954,-0.15102819737742512,-0.2539649018485377,-0.28018597192202016,-0.4326515711552893,0.8184142996545269
118,8.95722,5.4864753894178415,-1.9153833277567438,-1.5470350588626545,0.6600837857137615,0.5507204191699784,-0.51085828747908,0.11450685079131318,0.2921805422874145,-0.1712356410056643,-0.24370842485492866,-0.2756585206424827,-0.4105835967562571,0.8342854469438765
119,8.96722,5.551934599454197,-2.052032502705184,-1.3501449111630655,0.6416690429292321,0.5306359818691126,-0.5537781147348009,0.17358307126182637,0.33117152322890875,-0.2091588388941659,-0.2339902010433619,-0.271026964337597,-0.3868484146904202,0.8497855475944154
120,8.97722,5.380071310310458,-2.1640109178878335,-1.1680865688386302,0.622984334914705,0.5070716492235975,-0.5956163404273902,0.22273953485383285,0.31001096347136536,-0.24916306903909421,-0.22520013078658802,-0.2659033095540508,-0.3626085142529995,0.8643448037157452
121,8.98722,4.977905077432272,-2.290262632148771,-0.9968932942814744,0.6038910032169273,0.4816993865940879,-0.6350413454616868,0.2443565107431565,0.26138011824820123,-0.2322493351519212,-0.21757070539665296,-0.26003701594130535,-0.33890880370875576,0.8776009025421762
122,8.99722,4.422714753942824,-2.3714248155673507,-0.8760796520642417,0.5842170438184872,0.4564529131791013,-0.6710732759351595,0.22485705125011501,0.15709463772774315,-0.2002254027675222,-0.21126772981385794,-0.2532062314310144,-0.31677997794664253,0.8893269424694508
123,9.00722,3.959206280796418,-2.415075193055794,-0.8002642576672053,0.5638843838412723,0.43237497517491785,-0.7036193172052141,0.18275541787571806,0.04702935156215006,-0.17527834667582534,-0.20601035972683274,-0.24549167869280591,-0.2965177597258124,0.8996493374227047
124,9.01722,3.7445995633177667,-2.4067967665000025,-0.7207972491887804,0.543051578383932,0.4086542777099101,-0.7335438240656822,0.14166544680138432,0.0017717027195093514,-0.1568429726733016,-0.20147038217470364,-0.2372435323714399,-0.2773828812120959,0.9089449634805407
125,9.02722,3.712547605531885,-2.41910943394628,-0.64390222820415,0.5221026241068085,0.3841182434729839,-0.7614772551195425,0.11528009608753309,0.014810246061974681,-0.15186116633270083,-0.1973000686195453,-0.2289234226440654,-0.25855760478125484,0.9175023165406547
126,9.03722,3.821233001932864,-2.3687663024325913,-0.6112247510909199,0.5010798086449965,0.3579826775009902,-0.7878759118336561,0.12222842772162573,0.07213414362661309,-0.14541093062119095,-0.1931981567139426,-0.2207108161179566,-0.23946647238273763,0.9255330756547565
127,9.04722,3.944019244478003,-2.2881283159324353,-0.6062089320684462,0.4802754853195134,0.329752522024072,-0.8127579933272329,0.1535617631998381,0.14851979468269755,-0.11574912826154977,-0.18886831953625546,-0.21286454421678772,-0.21978157943475693,0.9331166597581247
128,9.05722,3.994189959391126,-2.203655222361625,-0.6255959256144267,0.4597912116378305,0.2997872054818466,-0.8358786015652669,0.18494309253427724,0.1732324420745892,-0.0726276065265789,-0.18418577812187248,-0.20539839964026635,-0.1996633958193687,0.940220038776464
129,9.06722,3.9097341306032285,-2.1112443820953994,-0.6243671566111118,0.4397012112756505,0.26902746057359206,-0.8568889626226596,0.20506161733946188,0.16617563573841976,-0.013824656699853147,-0.1792879812859518,-0.1982041429211613,-0.17962006690138566,0.9467307367412849
130,9.07722,3.7253408376332415,-1.952505093115965,-0.5689497721006334,0.4204988873826439,0.23842124205508297,-0.875390516272296,0.20751934073260037,0.14991585688294481,0.05267219437531655,-0.17444180690688926,-0.19139162541371396,-0.1602088038796873,0.9525042933276986
131,9.08722,3.3942365655778572,-1.7107785819665746,-0.47081522656961666,0.4030805433849302,0.20900695112369955,-0.8909647441844478,0.192880449839464,0.12813625142518428,0.11664089679485895,-0.16998490037502506,-0.18528809763077245,-0.14205508686711907,0.9573854106852681
132,9.09722,2.966458674759765,-1.3946676464892822,-0.35030274332915473,0.3882825816458559,0.18203050471279725,-0.9033728397612796,0.1647175177279859,0.09304410377625706,0.18796218623867852,-0.16614583980869926,-0.18021032670308595,-0.12582835742144677,0.961291566549756
133,9.10722,2.490709101479999,-1.0969640660612612,-0.23902668412907002,0.3765153670194854,0.158320005448803,-0.9127740267183679,0.12491847313444196,0.07730938017684913,0.24573570265398426,-0.1630437303180556,-0.17631228310139124,-0.11190671410633596,0.9642631189034642
134,9.11722,2.089150074204317,-0.9622687973275227,-0.20183597652521065,0.36684544731281116,0.13815810782758323,-0.9199590197857426,0.0995074709964414,0.08836430960041677,0.23068357394799438,-0.16056822839377835,-0.17312111782574247,-0.10023147088261715,0.9665386483026962
135,9.12722,1.8461952661855558,-1.0304397414155515,-0.2844663562504018,0.3574263205188372,0.12087709900258993,-0.9260796595428359,0.1376149018288064,0.14936202284353464,0.15460680666483487,-0.15821446368198763,-0.16979805219381505,-0.09014273688253577,0.9685079425751744
136,9.13722,1.6652860183052056,-1.2068014167169783,-0.449296713043057,0.34660549224131915,0.1058245201652972,-0.9320159115669259,0.2431560526732737,0.23117399156143217,0.04002216193838247,-0.15545802445043524,-0.16559010177137576,-0.08104787920539455,0.9704844734488032
137,9.14722,1.5799038306081028,-1.327514739299127,-0.6083765103440757,0.33414417711757194,0.09247062272388137,-0.9379680978301661,0.35579816698174016,0.285423463143982,-0.09762029101433427,-0.15205855849982217,-0.16043129668474154,-0.07262489309753038,0.9725540871785284
138,9.15722,1.5786479863513692,-1.3060478342396513,-0.7347501614747043,0.3210765192842447,0.07981092349140141,-0.943677589658284,0.41118775050131057,0.319310015868971,-0.15854023832537206,-0.14800269738135496,-0.15492345722097756,-0.06447070213755542,0.9746450598927712
139,9.16722,1.688053508966238,-1.1491583075495642,-0.8325086135805577,0.30884452363058384,0.06690793149632564,-0.9487492075765092,0.39921478559179513,0.31030317260388957,-0.10657569402276999,-0.14330526234739896,-0.14986047418385598,-0.056244810284718526,0.9766457684402805
140,9.17722,1.8805131787045564,-0.9908271274044161,-0.8417625782591301,0.2982075604862118,0.05246040739175281,-0.9530503719359641,0.34795697540760034,0.29090939334639154,0.02829163994577335,-0.1381390288548228,-0.14569137388725686,-0.04737637749914854,0.9784894098202643
141,9.18722,1.959523836424872,-0.9448265685821833,-0.7531688200097924,0.28867327432050705,0.03633763644623215,-0.9567294718591102,0.31515733178950056,0.3061722175111053,0.16168842868121222,-0.13302886938798833,-0.1421258570544055,-0.03782839497422735,0.9801361849011956
142,9.19722,1.7989060135035924,-0.9999180847434739,-0.6134417840552314,0.27919417781519595,0.020093407366956497,-0.9600168826444568,0.34549154258470255,0.3219295559995538,0.24533303358103417,-0.12850921312491448,-0.13850183156388998,-0.028369310476039005,0.9815768186754436
143,9.20722,1.4310382961327104,-1.092983145127767,-0.49026105468204534,0.26905242139375535,0.005983920233203351,-0.9631009008691768,0.4143159746425889,0.27170554963492355,0.29751053466442623,-0.12482058033182308,-0.13432144658476913,-0.020104094211346988,0.9828375597596659
144,9.21722,1.016300100830865,-1.160528443940802,-0.3828707986380061,0.2581625523643049,-0.004656073917665393,-0.9660852815302964,0.44358675904310846,0.15308229773413676,0.3276530622789531,-0.12196085418312634,-0.12948964195537782,-0.013685008400738684,0.9839551554738998
145,9.22722,0.6762600131458046,-1.1970338030175585,-0.285896915262037,0.2467621795200388,-0.011950915762515012,-0.9689978995554125,0.4056086839010515,0.03343527125525567,0.33599170582689136,-0.11985826176722059,-0.12416544586780325,-0.009043477199899026,0.9849531179665376
146,9.23722,0.48304137001436753,-1.1912592191079043,-0.2069827052071228,0.2352207680819134,-0.016896612159756942,-0.9717907880372599,0.34789838325792405,-0.045025498629499186,0.33041580600037423,-0.11834584980385794,-0.11861849044187552,-0.005670408844098125,0.9858445288584052
147,9.24722,0.4342805582274408,-1.1594222379962928,-0.1117063672979332,0.22384772274431433,-0.020963398461155035,-0.9743944554237206,0.3068092342568386,-0.0693428874732096,0.331573813265772,-0.11731251113454882,-0.11310501233641036,-0.0028249726652099173,0.9866280140426158
148,9.25722,0.4056503411453466,-1.1313489356230844,0.003628456417912048,0.21276902287677135,-0.025023724594018172,-0.9767779612103581,0.29364813712266163,-0.06953596512871642,0.34421451225191996,-0.116822980767543,-0.10774524095669936,-7.628614137902506e-05,0.9872898023190532
149,9.26722,0.32251154402337756,-1.1153602593215004,0.12471937013140927,0.20194640499345456,-0.0288747886788862,-0.9789668230892343,0.3052395618471266,-0.0731252524035587,0.36635059883997223,-0.11694359452149161,-0.10251101677786031,0.0024797478741881086,0.987829693707714
150,9.27722,0.21131326546999255,-1.1016687964237901,0.2581806171187204,0.1912024366460063,-0.031950574095593806,-0.9810264838919767,0.3214990042106921,-0.10205082425583291,0.4026597435410342,-0.11773921873422326,-0.09728263962419645,0.00457547966458339,0.9882563319945544
151,9.28722,0.09556995000937529,-1.084394569717308,0.37674690118780496,0.18043300061655845,-0.03404485156620716,-0.9829940158898796,0.3256737736939586,-0.16144001392866808,0.43061610423165714,-0.11921306606665735,-0.0919978563192632,0.006125718375204513,0.9885772251244208
152,9.29722,0.018179568194221635,-1.0571930584129885,0.4733322911272771,0.1697882043505041,-0.03533873739413246,-0.9848429800900329,0.3216260128295532,-0.21208952918929494,0.4445842225294524,-0.12125710840736467,-0.08674321448971584,0.007233016907741349,0.9887961031930675
153,9.30722,0.012117383353342627,-1.0153429399197813,0.553369811222733,0.15939595379786442,-0.03631772353654069,-0.9865428564653799,0.3078738445179697,-0.22790983310000237,0.4654785455740237,-0.12375968615601766,-0.08161141417371064,0.008149944399612995,0.9889157340296876
154,9.31722,0.04941968423841967,-0.967519770421124,0.6147725190603003,0.14941528981093657,-0.037530996613768734,-0.9880585554286551,0.28529070053011224,-0.22263228918319158,0.47377890748896917,-0.12660146566189068,-0.07671551905667583,0.009155483460640997,0.9889390517390797
155,9.32722,0.06399277092663569,-0.9254385088636681,0.656913968586619,0.13984779561776067,-0.03905901475853207,-0.989399106194627,0.25876186308486454,-0.1990616457501863,0.46648747937841095,-0.12968196296827733,-0.07206125845118175,0.010300086117494556,0.988878759358986
156,9.33722,0.009023066738579446,-0.8862412052090803,0.7028658771024857,0.1306440747194636,-0.040406217051465104,-0.9906025875509094,0.23454323030571644,-0.1766217471774048,0.46855685550164455,-0.1329774887825158,-0.06759133074288022,0.011343809511938424,0.9887452946564697
157,9.34722,-0.11843686343441426,-0.8445230005366364,0.7529469287892016,0.12178616801634629,-0.0408314134247572,-0.9917133135044314,0.2161272856284036,-0.18661753023267658,0.4864271133541508,-0.13653516579107997,-0.06324494750227536,0.011918368308765135,0.9885411000206531
158,9.35722,-0.31749193842990553,-0.8011140849305516,0.812373190428061,0.11332665992498371,-0.03963709539617618,-0.9927637952853952,0.19790878284682437,-0.22493688626476027,0.5102404334486139,-0.14041706636202525,-0.058994313455879854,0.0116731045866493,0.9882628323744486
159,9.36722,-0.587474018287033,-0.7551899005494762,0.8703568343249133,0.10529399175153684,-0.036101868534401844,-0.9937817606024937,0.1719538288346352,-0.2771206453140214,0.5278455683194738,-0.14466542349415518,-0.05479124694225096,0.0102499241668384,0.9879073551415493
160,9.37722,-0.8362765179526284,-0.7016832902130357,0.933680951057267,0.09775854704264182,-0.029876142612600208,-0.9947568643545298,0.14724191681899343,-0.3198236009762227,0.5365859557808488,-0.14927381214180943,-0.05062798248229737,0.007475841392983864,0.9874682562883378
161,9.38722,-0.9717928535216782,-0.673309885224057,1.02601134387088,0.09071150381185296,-0.02175597906846328,-0.9956340994234391,0.13732323558760487,-0.34590101904222315,0.5417767955947497,-0.15430421516630904,-0.046540722258324216,0.0037472028152452735,0.9869166819843886
162,9.39722,-1.0381904098940622,-0.6426898958626112,1.0840389774107357,0.08397903346509962,-0.012629385395819082,-0.9963818033240672,0.13716064003399844,-0.3534982149117598,0.5180462136639663,-0.15974101216136535,-0.04249535765300931,-0.00047854019728007634,0.98624072726304
163,9.40722,-1.0669772483526412,-0.5903867171843528,1.127769425348603,0.07774756343657527,-0.0030413239006500882,-0.9969627033586479,0.1432650723863319,-0.31468208634236233,0.4830141593728328,-0.1654089159064001,-0.03861620316504346,-0.004937095937832603,0.9854532206069044
164,9.41722,-1.1209378275239508,-0.5299204457768323,1.1686741947031987,0.07218379988921406,0.0069558278974331325,-0.9973606949523298,0.1474152189695935,-0.24915346172066982,0.47931153809223137,-0.17129198014024885,-0.0349819814755404,-0.009617251597212887,0.9845485771865026
165,9.42722,-1.2630362025515114,-0.4726549427128813,1.1897020482664582,0.0673517297860787,0.01796981532690178,-0.9975592771085449,0.14388161079763293,-0.217961321027538,0.4644446146412933,-0.17732318173050793,-0.031563204218929525,-0.014824704797595433,0.9835305955800733
166,9.43722,-1.5161889834228177,-0.4238933840983242,1.2000232258723151,0.06318721444526205,0.030951771846952053,-0.9975092498561375,0.13232348670931326,-0.22123710258946658,0.4407896548252115,-0.18343400551283418,-0.02822938416955492,-0.02102312727868962,0.9823964383908647
167,9.44722,-1.9501616872413419,-0.3881780152561607,1.2043152618541233,0.05961593028193875,0.0473422478783474,-0.9970760647561264,0.12301253767884737,-0.23449451071201213,0.41505208412658423,-0.1896161336640223,-0.024786474620528003,-0.028916420823418974,0.981111541892885
168,9.45722,-2.6398614602261583,-0.3751415276390306,1.2084683448324498,0.05652740634158461,0.06936576913384113,-0.9959473313736515,0.12922897049380902,-0.2680934147045641,0.4038807811699374,-0.19585673121938266,-0.020927497821157267,-0.039589164564197254,0.9795966603472553
169,9.46722,-3.487949879336989,-0.38169922488221397,1.2200827732790103,0.05379991101142019,0.0991177257774909,-0.9935494029953431,0.14275998189315636,-0.3343368589091256,0.40653230130714757,-0.20216250445546155,-0.016321123534898032,-0.05406483278149358,0.9777015098393502
170,9.47722,-4.374177816800034,-0.3970130678035626,1.248253210699861,0.05139272566543957,0.13744360742852943,-0.9890657060119838,0.15000817549957446,-0.43142025637980924,0.40976284078538583,-0.20857648223576272,-0.010767370155689961,-0.07277525561764524,0.9752043045810211
171,9.48722,-5.133145090138858,-0.39232515375981464,1.2677433818424844,0.04948834784147525,0.18383045614397311,-0.9815677070181853,0.15249073703639376,-0.5361548186736494,0.41428476343262255,-0.2150541062425876,-0.00430036370071458,-0.09553372529913115,0.9718690436697033
172,9.49722,-5.454651474611616,-0.4441674817528132,1.3062853832809393,0.048236571306188435,0.23515664791994983,-0.9706044770874129,0.14570551550620756,-0.6009897189313252,0.4183142081666014,-0.22153211818300755,0.0027745481167710446,-0.12089088058296005,0.9675838499375536
173,9.50722,-5.353336224694472,-0.550844569058383,1.337836095862288,0.046864474972567696,0.28675586037855444,-0.9567061991725536,0.1253714540153739,-0.5932416494164913,0.39659881298629285,-0.22808101378506,0.010397710021903268,-0.14651667912526317,0.9624573082175468
174,9.51722,-5.129634107429547,-0.550510528501407,1.350028015722677,0.04577114706025525,0.33590582309038314,-0.9406401975627569,0.10945723656459017,-0.48487228672973776,0.3435790025332618,-0.23460132584126678,0.018066660910335236,-0.17113558475794932,0.9566992697204216
175,9.52722,-4.9855236685344195,-0.4742412466257476,1.3753822413015229,0.045891627530186954,0.38228090934483805,-0.9227607381605254,0.10935242547675544,-0.2740482301519031,0.32148395095340637,-0.24101431376333152,0.025258848603172363,-0.19472144798654575,0.9504118972466958
176,9.53722,-5.094981779389461,-0.4288306917386808,1.4234773997809351,0.04750364511411583,0.4275092279508732,-0.9026012327430011,0.09647185798639307,-0.08644640633857445,0.26319657678602393,-0.2473762283293213,0.032056391469044425,-0.2181789311007937,0.9434481005712352
177,9.54722,-5.039942560251546,-0.5078747398228343,1.4605244875159606,0.04992043794441175,0.4724273752069333,-0.8798124414960995,0.07791636703184489,-0.0674693029745152,0.17557862000967414,-0.2537807693130678,0.038958307276926424,-0.2419014010589846,0.9356758893382472
178,9.55722,-4.251132960438001,-0.7103981243692766,1.4338823846395918,0.05176204158701276,0.512175482354153,-0.8572222389670074,0.08150855219305142,-0.1694270560478828,0.08181204425334063,-0.26034553666744165,0.045960250139418915,-0.26312849658214804,0.9278039406108372
179,9.56722,-3.1298482458891734,-0.8037851700050608,1.369442881384673,0.05268118204260239,0.5429506953520796,-0.8380675063953117,0.10822014682982545,-0.24093025787443012,-0.03684117012185159,-0.26694506526732603,0.052477693517959424,-0.2796333374672373,0.9207414599293785
180,9.57722,-1.4058570643581818,-0.772798128865324,1.425018055735444,0.05378050071583032,0.5614226519824332,-0.8257769659150991,0.14117870938629332,-0.07337526311086545,-0.13759958286786003,-0.2738207565595889,0.057239268507953744,-0.28954079722818576,0.9153701941970245
181,9.58722,0.4531114560363804,-0.6602957547249567,1.5110122594601858,0.056132217300451655,0.564304880316367,-0.8236469809995931,0.165349164800224,0.38519093179385444,-0.15411622590467783,-0.2814659327881928,0.05900611784222851,-0.29101880877805225,0.912465053680177
182,9.59722,1.609948842519437,-0.49599807260955336,1.4700867756311162,0.05976752788419595,0.5544561515628809,-0.8300359108530186,0.1855022022715517,0.6745822075705019,-0.23759023581387317,-0.2894657779658192,0.05791883532299539,-0.28568800340411343,0.9117129314564417
183,9.60722,1.9785685595980447,-0.3255869346898733,1.2894463244231893,0.06390154152407,0.5382096117630937,-0.8403538111173465,0.18274396971988954,0.7041207957818061,-0.21116982769249176,-0.2968755067426259,0.05514321830876795,-0.2770759203630803,0.9121604059469294
184,9.61722,1.7345976000231054,-0.10153307612957321,1.155715052874019,0.06845752018396929,0.5214636427682804,-0.8505004950355098,0.1459197364717148,0.5478160080090355,-0.10800143320339521,-0.30322100711675654,0.05167288287475644,-0.26846186399160643,0.9128544045171194
185,9.62722,1.310355628527156,0.1796906117046666,1.157017519547431,0.07473485419039959,0.5076944046155055,-0.8582730695311063,0.07821943990203109,0.28077664067202235,-0.042835747318805406,-0.30879988805146374,0.0476414077147555,-0.2618936177732749,0.9131130562818873
186,9.63722,0.986769008580123,0.38904859055262975,1.2179960076076803,0.08321177015174407,0.49693427401948687,-0.8637748833488711,0.02297802451637514,0.11569720807630313,-0.04564856127336366,-0.314090067396472,0.04298943786624779,-0.2574100152519688,0.9128149673507479
187,9.64722,0.8175826727140825,0.5014576963097951,1.2775211493649212,0.09326440563729563,0.48811231976257236,-0.8677686052703419,0.012038361567428256,0.09009171850920358,-0.13687689163771027,-0.319400495370725,0.0379265367083935,-0.25430822531032343,0.9120656374642281
188,9.65722,0.8504089512050143,0.5388299602967898,1.2722303159643753,0.10403770033859008,0.47968081877512836,-0.8712376408969997,0.053849413708006034,0.1956464672909769,-0.2617670089237883,-0.3247131564299807,0.0325791577510094,-0.2516241856859144,0.9111401534760006
189,9.66722,0.9059901508132463,0.4905125064345875,1.2180904815261495,0.11447973107053222,0.47057473435431274,-0.8748873506788116,0.11972806378872587,0.33640648145429247,-0.35506100132597457,-0.3298707410055496,0.02721049339265796,-0.24861837798760153,0.9102886898989924
190,9.67722,0.8189214429084748,0.44793146368842646,1.1822509814071862,0.12415942399453202,0.46148937390297234,-0.8784020353805891,0.1698622581682214,0.3773850046416491,-0.4610318907968923,-0.33485370317886964,0.02215410952521065,-0.24556927536644815,0.909434174960281
191,9.68722,0.5738920243083793,0.43645811022500874,1.2044371858931526,0.13347735624603987,0.45373616513719256,-0.8810734600985803,0.18455690790850549,0.35285531551231847,-0.48598373441373843,-0.3397987572250167,0.01750907714772532,-0.24321598012496104,0.908333444179684
192,9.69722,0.2103067415391744,0.45092426250389717,1.2539554709360463,0.14292422771446558,0.44852670840617653,-0.8822598126592852,0.15773594822627665,0.27355129145075424,-0.44676635410553067,-0.34487010110815275,0.013328737102302724,-0.24226111875605635,0.9067469519293938
193,9.70722,-0.1703906947642581,0.47343226205572597,1.3002580107596242,0.15273958531520976,0.4464796334995489,-0.8816528001581835,0.11967232276051501,0.15505702712193145,-0.41552822390449495,-0.3500951837874105,0.009645371872033428,-0.24306050346105126,0.9045742786684776
194,9.71722,-0.508767716528471,0.479496294051015,1.350197991717404,0.16288522184328352,0.4474005391507596,-0.8793650954967028,0.10180287703092741,0.06779134744860901,-0.38232811917747556,-0.35548443711645544,0.0064670592960162305,-0.2455049937031765,0.9018355701983967
195,9.72722,-0.8281263851282642,0.46537154802192876,1.41922847567953,0.17326399127053682,0.45091953085161807,-0.8755722437985477,0.11953577299106218,0.03508502908807419,-0.3322961174158483,-0.3611132997145865,0.0038159850991290076,-0.24938913178820052,0.8985411420813344
196,9.73722,-1.159511301477229,0.47040452667412486,1.532496796296351,0.1840281029612499,0.45695173692209634,-0.8702266737635361,0.15948402585375776,0.031062315397281985,-0.2718662362330678,-0.36711970030523045,0.001676651437691139,-0.2547101306327474,0.8946102437980602
197,9.74722,-1.5000638309705738,0.4640735007878579,1.6828417199077423,0.1955089839413504,0.4653875038448312,-0.8632165166266382,0.1808773077978948,0.001271252369628946,-0.208104466683509,-0.3736837467322925,-3.261051999843529e-05,-0.2614995803003754,0.8899196860675488
198,9.75722,-1.8799501083761119,0.4414810979258936,1.8142183650763728,0.20766993160837408,0.47634374700009213,-0.8543447195817039,0.1773860703046001,-0.07348490881552641,-0.14625327732407228,-0.38086075919954104,-0.001191915573506841,-0.2698378508250762,0.8843659360162488
199,9.76722,-2.2656014177238983,0.4017461311171585,1.8967485761007608,0.22024490223289492,0.4899316548264599,-0.8434299060186395,0.16550427616608215,-0.1479844710661843,-0.071253324119449,-0.38848622051439846,-0.0016259750249360623,-0.2797565226308899,0.8779387918518579
200,9.77722,-2.6798166101987495,0.3443900968234241,1.949767600309656,0.23298646571852855,0.5062081565336944,-0.8302764409024612,0.16094157581819518,-0.19148133891146163,0.01449418920414865,-0.3963862379985769,-0.0011745854274653935,-0.2912647234560671,0.8706298991055482
201,9.78722,-3.182550190000528,0.25680733789996024,1.996415569501214,0.2456922084171398,0.5255000374281835,-0.8144536295448249,0.15935279620094878,-0.2394841054526302,0.08818545852820196,-0.40449650861065134,0.00041466509375781774,-0.304529243123458,0.8623141885292525
202,9.79722,-3.7974225891624673,0.14607385242341397,2.014517976382218,0.2581367346005339,0.5484314015685189,-0.7952244415227683,0.15745672503743532,-0.31275404023957376,0.14515325047021713,-0.41276857674289397,0.0035173717507087274,-0.3198849550285523,0.8527639481674801
203,9.80722,-4.41874301235625,0.03567930454179581,1.9810085381313747,0.27008747220383594,0.5753578357879504,-0.7718470872733912,0.14979517949082016,-0.3949233438941693,0.17130034607813124,-0.4209760039306603,0.008426138655012749,-0.33755210247276723,0.8418255642060523
204,9.81722,-4.908557960629032,-0.06740818723574465,1.9492633152670817,0.2815848289573163,0.6053297758716204,-0.7442880312831558,0.13756786927884837,-0.4332792049424382,0.15908996968007325,-0.4289417832838494,0.015002034978051876,-0.3571476929920345,0.8295272536388786
205,9.82722,-5.2706757178126695,-0.19426567795077118,1.954429773055307,0.292771822642465,0.6368323616382753,-0.7129995136113808,0.13313016230103034,-0.4253158929397516,0.16276795196479524,-0.4367281635733431,0.02297524391265316,-0.3780039740918942,0.8159197304928525
206,9.83722,-5.516881498200788,-0.33980201848766184,1.967760993464042,0.3037289017536339,0.6685347995811299,-0.6785453866139668,0.1491989053604141,-0.4027274080065197,0.16566759413959017,-0.44444088597157955,0.03213645357483976,-0.3995046743918826,0.8010592701868063
207,9.84722,-5.643641753515153,-0.4801838961243882,1.9692793656206473,0.31449687606358107,0.6993218353339871,-0.6415961185480048,0.16494221727001776,-0.3759790080827899,0.17744226815215444,-0.4520608539362896,0.042247894956016566,-0.42110028306772634,0.7851020387056789
208,9.85722,-5.598891878895195,-0.5889496317937922,1.9599146334198383,0.3251905665860788,0.7281141144303438,-0.6030976437353106,0.15852209059720726,-0.3643366902829601,0.19115929505993187,-0.459519975832244,0.05293309466298511,-0.442226350139122,0.7683320931985048
209,9.86722,-5.286226781700482,-0.6789903672298656,1.9480704058301024,0.3359977211986879,0.7535297495893886,-0.5647824009832295,0.13032334460700298,-0.3721916720389348,0.2029662148039507,-0.4667939015838323,0.0635408807840187,-0.4620606446270468,0.7512921333487352
210,9.87722,-4.806474536057499,-0.7875025801110763,1.9243179211386063,0.34678890240575977,0.7745615460988455,-0.5287143124352041,0.09319070857513266,-0.3739414887400287,0.20707984056207898,-0.4739902790791196,0.07358089674260904,-0.4797637271330908,0.7346010595323959
211,9.88722,-4.238671753543433,-0.8546642565377125,1.941693165245731,0.3576773589337325,0.7909772209710032,-0.4962175319812893,0.05701509960617735,-0.33656715896049594,0.21518487272491812,-0.48125017268861936,0.08267260747540846,-0.4949914696685209,0.7186508796462939
212,9.89722,-3.6265468139918484,-0.8717076483165745,2.004144883300997,0.3692261276394552,0.8027891666342292,-0.468042430708065,0.026410724154179284,-0.24948189276704064,0.2466130941330651,-0.48873820090755754,0.09033574070807371,-0.5077320057901357,0.7036422138354812
213,9.90722,-3.0224559328145704,-0.8646050879878632,2.0775080770256764,0.3817498683138623,0.8102815082876809,-0.4445347213851007,-0.008365813583253705,-0.180839708382143,0.2556471509910252,-0.49653297888831566,0.09628739270551487,-0.518116838011509,0.6896973466125222
214,9.91722,-2.471717999863074,-0.8448305453768248,2.1448967593587085,0.39519712820904335,0.8140109435794481,-0.4255932254246077,-0.048300121174655035,-0.18522678573175586,0.24994882788054268,-0.5046385022343732,0.10054641346882842,-0.5263880140649874,0.6768308382709514
215,9.92722,-1.8509007512464113,-0.8006918450977506,2.221144792841595,0.40951768329180266,0.8143509536044692,-0.4111810147503232,-0.0866809268812926,-0.239803321304311,0.2442525850276356,-0.5130350457516665,0.10306745317731668,-0.5327127637740858,0.6650964147482673
216,9.93722,-0.930641488941694,-0.763705144939899,2.3340192268908,0.424865565407253,0.8105989160617642,-0.4029424145086352,-0.11871950880512643,-0.2950796245668094,0.2547091628508089,-0.5219042640097926,0.10318782801962478,-0.5365443878410642,0.6550265931753708
217,9.94722,0.29065861746923843,-0.7010547633353835,2.454925005896139,0.4412313932616706,0.8015296482966338,-0.40344703187236125,-0.14188832678288618,-0.30546091214007276,0.26237413239661117,-0.5315086503726054,0.09999822840797779,-0.5369067090429392,0.6474559777679274
218,9.95722,1.751304751618759,-0.5546638630303101,2.5378709557308308,0.4584910217406037,0.7861642729596291,-0.4141669641791019,-0.15344081362774084,-0.21262894867677923,0.241152261754208,-0.5417382303696574,0.0926629422990624,-0.5331974915566355,0.6431044729586781
219,9.96722,3.2892271318999184,-0.3672401213839259,2.5144630226696627,0.47617187284157,0.7634935264270056,-0.43586947171903234,-0.16100711189990066,0.0661216774789038,0.17850298728510072,-0.552196834182456,0.08051718761448788,-0.5248929262639467,0.6426454958246972
220,9.97722,4.941099327350751,-0.15880727890908486,2.276826821944711,0.49292932932285016,0.7330868119834297,-0.4680306299677047,-0.1689971272543449,0.4812383983884496,0.09563051686431183,-0.5621562658702792,0.06368459917307098,-0.5116673728969876,0.6465077384780075
221,9.98722,6.26914021199212,0.2320854160173182,2.107983052023733,0.5087412678582203,0.6945894547367814,-0.5079265373921683,-0.1701184388239419,0.8728652717671374,0.03084483165710365,-0.5706156928321773,0.04210599564407409,-0.4940431344404116,0.6544718499542412
222,9.99722,7.117124777364815,0.5383570690976001,2.0577971843890683,0.5248359125041928,0.6481453736724646,-0.5509890925967672,-0.1578561719946475,1.0687731922738726,-0.04281620684054151,-0.5774964080142868,0.01645272539067033,-0.47329058268209134,0.6648038041820402
223,10.00722,7.446144158078671,0.6793979466133871,1.996769224733299,0.5410544291212088,0.5954161942538198,-0.5931637109733019,-0.10853785221892336,0.9501562694353191,-0.061436001722753014,-0.5829515123083256,-0.011564093829318469,-0.4505942624930571,0.6758142506864617
224,10.01722,7.281562587282846,0.658357699105853,1.873784191866679,0.5563939803770753,0.539464650041563,-0.6313314067226896,-0.025122638518903305,0.67215024910615,-0.10937915957147132,-0.5870714488758398,-0.039864149894836616,-0.4272139611174518,0.6862899621995889
225,10.02722,6.547197766411768,0.5182968045703493,1.5434604496659128,0.5690553738992999,0.4848027681844371,-0.6637234299375703,0.04191019606196132,0.41901192410270627,-0.20969261479730206,-0.5899949529353132,-0.06592368623223037,-0.40449286358622316,0.6955249250746023
226,10.03722,5.532054707940426,0.3284132178669812,1.0829769418322703,0.5780117496612819,0.43652943574182185,-0.6891426640067766,0.10786251746676179,0.2483839919105478,-0.32549341868976855,-0.591445778333935,-0.0878086407040308,-0.3841759707945615,0.703387345678449
227,10.04722,4.7985170085046125,0.10725966376533413,0.7527093630408079,0.5833447605175136,0.39522823737859336,-0.709356086351034,0.15700664908261175,0.2705032856749277,-0.4574440131961773,-0.5917350596274606,-0.10555440594003297,-0.36617654572100206,0.710295871179908
228,10.05722,4.118900625389426,-0.1589547856356427,0.6159768776464775,0.5857148232411014,0.3592780618498108,-0.726372974568856,0.19426918504364582,0.4634481100819657,-0.5984561460212185,-0.5916827301201304,-0.11986917281631736,-0.3498211521370665,0.7163049803737718
229,10.06722,3.5260237347162926,-0.38465415010745574,0.521901033056968,0.5856580563995702,0.3279701955952408,-0.7411168606088228,0.2503060716100534,0.5860706852727113,-0.7127572849078482,-0.5918137083464177,-0.13113949761961402,-0.33494905162061006,0.7213258767339135
230,10.07722,3.157778111679509,-0.5384475519311759,0.3849475723826207,0.5836153064708618,0.3004005670869837,-0.7543192919007068,0.2718363873540347,0.5803318635626834,-0.7132371900188469,-0.5919791403673789,-0.14005915224425752,-0.32121575595442053,0.7257524541827034
231,10.08722,3.053635562429434,-0.654038728590443,0.20653347915729858,0.57993513792568,0.2751584623755268,-0.7666911063810126,0.20054017163546017,0.4559191334689846,-0.7120909473964052,-0.5917816477338543,-0.14750130228060315,-0.3079852472413082,0.7301613595159344
232,10.09722,3.2063177605626305,-0.7929009122212736,0.029284261750853482,0.5746764730001173,0.25037649943835916,-0.7790336715187082,0.1086372759404818,0.3156325281589916,-0.7151100708190019,-0.5909395552696814,-0.15425785131149206,-0.29434485389384557,0.7350518213925322
233,10.10722,3.4492704432808985,-0.9619183870099461,-0.09333849872979792,0.567702057315566,0.22438049828522574,-0.7919449202673204,0.08629107637268266,0.2802436294556462,-0.7163386012615635,-0.5894427809503525,-0.16080721956658842,-0.2794849632849751,0.740622686375706
234,10.11722,3.5461594072574765,-1.1251804822675613,-0.1253171541790762,0.5591044905235463,0.19693035691023392,-0.8052426722708549,0.12512689850709413,0.3329757478117733,-0.7135892502917418,-0.5875566556696112,-0.16711044290627194,-0.26342437889209147,0.746586086412707
235,10.12722,3.434000937599163,-1.236586180402768,-0.09943633811451216,0.5492668428599219,0.1690687605852351,-0.8182439728316625,0.16250956027273963,0.36340275973330327,-0.7065535091481511,-0.5856689034993809,-0.1728140205121618,-0.2468921416532907,0.7524012017766866
236,10.13722,3.143731196576754,-1.2901016304313617,-0.0272127155971006,0.5386953808146662,0.14212166070150822,-0.8303198541240439,0.16155241121368896,0.3233302426304486,-0.6739753269088661,-0.584072313076287,-0.17761989009561102,-0.23073943325447316,0.7576377161252218
237,10.14722,2.7782973247156546,-1.2867351791107784,0.05455518606438674,0.5278468506526602,0.11693080954986089,-0.8411597708730236,0.1333464760167201,0.22260281281196737,-0.6049937662598435,-0.582954660930521,-0.18144534480297042,-0.2155334550204644,0.7620634811614696
238,10.15722,2.4086648381746,-1.3115898355238025,0.14026108389497627,0.5168615907964944,0.09395762402870197,-0.8508227407108736,0.10466250266336255,0.13771037864512792,-0.5244862048572172,-0.5823924647571317,-0.18424595034143612,-0.2015137791513562,0.765655517495951
239,10.16722,2.0698338366925837,-1.4134400468612451,0.1780503810395112,0.5053645746934478,0.07387006425888952,-0.8596731771823788,0.10337057976688954,0.1028165270519591,-0.46627880603403704,-0.5822818275739797,-0.18573992114949064,-0.18877174094143626,0.7686240407775904
240,10.17722,1.7688794410741357,-1.5801273000064364,0.14880542206665281,0.4925430885743125,0.056394371340915725,-0.8683990865988258,0.14906146126856254,0.10389585899962434,-0.4181423678101764,-0.5825225909967027,-0.18573715926304188,-0.17684889013706695,0.7712752469792297
241,10.18722,1.539636914640285,-1.7589087553726452,0.05505517970473959,0.47801055406291926,0.04143016756465996,-0.8773173181508813,0.20790309126581166,0.12030505775179948,-0.36584627626803945,-0.5828333930591788,-0.18419610842184644,-0.16548972757239175,0.7739265250154643
242,10.19722,1.4275002137727029,-1.9032344914777026,-0.08006819894311984,0.46180727108199726,0.028420577007590517,-0.8864648136567468,0.2360286471474307,0.14413739624098057,-0.2916954576992826,-0.1400263220414153,-0.13333929765510225,-0.04690999410385174,0.5550197511678876
243,10.20722,1.436500180618569,-1.9182112602092474,-0.2144894352620964,0.44468842018002563,0.016386766966781853,-0.8954775482501032,0.226466966993817,0.16788279418333507,-0.19473535123460967,0.9735172324704879,-0.008240680486162904,0.2283996903104279,-0.000784487948000697
244,10.21722,1.5580672537916544,-1.7855709252719747,-0.27371716380119565,0.4279435377505093,0.0040167831782079435,-0.9037420944138731,0.19226713100420936,0.19523369920558126,-0.0517983578163613,0.9756307314579711,-0.0012501492493569512,0.21931956564754254,-0.0036337861139257893
245,10.22722,1.6952977918206424,-1.592114392864869,-0.22434342318871528,0.4126276927271594,-0.009750437592572212,-0.9107961327537942,0.13344551668177393,0.21660331665826527,0.11016768287700297,0.9774209812070079,0.006416093591542013,0.21103378840148415,-0.006648439885754064
246,10.23722,1.6652113598577825,-1.4299237216539438,-0.1391433512184866,0.3988825663259495,-0.02451564573749082,-0.9166289711376626,0.08811223040992508,0.21434122480216103,0.2389716669809607,0.9788898745099454,0.014464042979227286,0.20360189378337784,-0.009363145431209032
247,10.24722,1.434417967298032,-1.3397778448492905,-0.07523845451769742,0.3862142425159804,-0.03845769255283755,-0.9215705571513977,0.09227682687600129,0.18302692581256186,0.3219977237191512,0.9801277858964729,0.021938219990491933,0.19676240139708695,-0.011574462717250995
248,10.25722,1.0826072039869281,-1.307482870220292,-0.021029081569564834,0.3740131990203526,-0.0499531628398656,-0.9260489544898574,0.12909580245444138,0.14692423888833964,0.3616922711005197,0.9812492285129932,0.028008524655737776,0.19020380524638011,-0.013193493280558986
249,10.26722,0.7323045345490876,-1.2856748104188833,-0.005192850370585567,0.36197795781554376,-0.058313483337238015,-0.9303387351129657,0.16240977772479026,0.11186673466300351,0.36098487318492856,0.982326409821514,0.03235135861019639,0.1837757502773206,-0.014281978883679753
250,10.27722,0.5261467340496565,-1.2476391145865746,-0.04108256468537855,0.350172540435392,-0.06401940174055437,-0.934475875155095,0.1700385453863116,0.08826683837489568,0.3382201653163789,0.9833657677960558,0.03528379262683631,0.17750529900746587,-0.015147821220493192
251,10.28722,0.5089126296532956,-1.1980359304986534,-0.10645997905118984,0.3387690165565916,-0.06855145847990674,-0.9383514013339999,0.14722864993210846,0.0971697182418915,0.3103169696197698,0.9843343856283895,0.03763422643841652,0.17146286161412214,-0.01616067000765046
252,10.29722,0.6573690062744685,-1.1465623193204704,-0.17648008509133523,0.3278445788836212,-0.07353975964602082,-0.9418472755808912,0.1159884706485417,0.13405006357975252,0.2881769163392898,0.9851975612339384,0.040274282094052996,0.16566668324069728,-0.017570455020270277
253,10.30722,0.8539505275437127,-1.0925605556088676,-0.22779546314410734,0.31742167952897393,-0.08006889218677096,-0.9448793002144305,0.0992688902051004,0.18010737208796365,0.2784209014885006,0.9859318124933106,0.0437562552129482,0.16011252622246222,-0.01941881142475759
254,10.31722,0.989873158755196,-1.0360291831181665,-0.2608348890425976,0.3075659314090963,-0.08814492716250619,-0.9474158018153304,0.0916392433225603,0.20117425980005385,0.29632345701590973,0.986529393683838,0.04806079476618997,0.1548287769369767,-0.021597964861556965
255,10.32722,1.0102562497198477,-0.9659250045528188,-0.2924429970088829,0.2983228828672107,-0.09697572340574648,-0.949508185806068,0.07247439723737847,0.17560064607566028,0.34670845025121,0.9870045431987393,0.05276322113401806,0.1498416179989277,-0.023975758176559406
256,10.33722,0.9470191381256645,-0.8691219741807653,-0.3340819175020728,0.28992595976159047,-0.10554336011644605,-0.9511971260700671,0.04458219510408141,0.09398522926686127,0.42780196641278173,0.9873683210065625,0.057339887713222557,0.1452776808623421,-0.026477033374322084
257,10.34722,0.9480082702938977,-0.7486215026221131,-0.3877985566777205,0.282654323187342,-0.11371210527641504,-0.9524457412739656,0.015207435832417411,-0.006485876109275876,0.5040983501100509,0.9876087778299685,0.06173789081645158,0.1412750410105389,-0.029157182265975457
258,10.35722,1.0110959682887388,-0.6380986677452892,-0.4151888059095,0.27656007626272505,-0.12197466777980158,-0.9532125658874122,-0.018586432219881658,-0.02971947786912263,0.5338618510711947,0.9877132401892085,0.06621667807090932,0.1378486362841505,-0.032047842179679195
259,10.36722,1.0402030480801303,-0.5780240181696584,-0.4041922900463309,0.2713361969863984,-0.13070345606308936,-0.9535569592542943,-0.03750068620096019,0.013950638139328472,0.513312927489416,0.9877005694671844,0.07094076220355885,0.13484123625566338,-0.03499102692436419
260,10.37722,0.9651265921133777,-0.5666915285176588,-0.36328708499744333,0.2664303097276034,-0.13932860565030655,-0.953720551265562,-0.02373932485552277,0.05607946539521154,0.4619077805249231,0.9876393720767945,0.07558358450301328,0.13198855284004554,-0.03778039203022249
261,10.38722,0.7573778545026506,-0.5800042014999297,-0.29062572922685215,0.26144134331494073,-0.14676858613314608,-0.9539881629620837,0.00969222161640145,0.06179864815665956,0.40896637160991567,0.9876120524239228,0.07955856618586912,0.12912090194551124,-0.0401952307346886
262,10.39722,0.4625854634491499,-0.5932435030143769,-0.20309236877859246,0.2562152528320826,-0.15198876037048237,-0.9545910328972785,0.030056572362179883,0.01681185772652033,0.385354279370937,0.9876877305472843,0.08231334820780992,0.1261998282864407,-0.04204840300224783
263,10.40722,0.21277982937384912,-0.5940523127924245,-0.1050631802667111,0.25078573656993375,-0.15477210077287085,-0.9555859351375174,0.023832954417026923,-0.0523284354013307,0.3797655975459833,0.9878871255244429,0.08373288953449073,0.12326319727484338,-0.04326623684907777
264,10.41722,0.0728904842480539,-0.5946105405373059,0.0008202601514558788,0.24518130438585406,-0.15594491435100283,-0.9568487794085004,-0.00017453635543149097,-0.0977554490098494,0.3767723990980377,0.9881812494881346,0.08424322588856947,0.12031934514159247,-0.04384380611211497
265,10.42722,0.026129903305319942,-0.5826330981870497,0.08838229063866235,0.23947346726767862,-0.15648988894443763,-0.9582044358979455,-0.025136085670559062,-0.09842790197815107,0.37181461201928717,0.9885220214374025,0.08436556016348062,0.11738127728965154,-0.043892130503603126
266,10.43722,0.045674192734984916,-0.570756569057229,0.17130869245335803,0.23375366622751537,-0.15712312675565837,-0.9595121472364818,-0.038117902313511226,-0.06876652311721275,0.3756299384507361,0.9888695092768126,0.08448322627960789,0.1144753201872864,-0.04351086459208164
267,10.44722,0.0737512492010851,-0.566130634927814,0.23997255920126326,0.22797356416106923,-0.1582046492669171,-0.9607242554554848,-0.04180565630592861,-0.04499682773916516,0.3726693594901509,0.9892083739546572,0.08478880912070429,0.11156520304596751,-0.042763287853366395
268,10.45722,0.08118619988079367,-0.5470281497643104,0.2914061352388082,0.22220358048480637,-0.1595628418583162,-0.9618509417431252,-0.04269632799614253,-0.037514766922569005,0.35729902098698413,0.9895370593470848,0.0852092893513902,0.10868329645317897,-0.04173218443797154
269,10.46722,0.04398396335129566,-0.517749790532436,0.34789221602203996,0.21657299920399223,-0.16090160265408462,-0.9629119498604558,-0.040921946261003574,-0.03157421710080648,0.3438502828301543,0.9898597835201373,0.0855994255224529,0.10590138120235064,-0.04041231382315358
270,10.47722,-0.06922343828242425,-0.49678996516816576,0.4075821447861466,0.21108974234962422,-0.16164457071058536,-0.9640047322799968,-0.03387449661290507,-0.0221204605340181,0.32387756785552,0.9902016462383808,0.08566418789344872,0.10323619442085831,-0.0387595916993685
271,10.48722,-0.274061851227137,-0.483304420590814,0.47834066788021584,0.2056581834913328,-0.16098823553866068,-0.9652872325974843,-0.01943595193855468,-0.01701825216083564,0.28859546522405194,0.9906036261857101,0.08498805256850227,0.10065553271107991,-0.036697919394369546
272,10.49722,-0.5922006200568002,-0.4715871027858047,0.5564015852916697,0.20023471910336363,-0.15792702757836147,-0.9669290116014958,0.0014096351003989073,-0.022555319090069255,0.2692554716527629,0.9911095262377826,0.08305330942352336,0.09815425887091873,-0.0341235568330301
273,10.50722,-1.026662695517179,-0.4604436949987676,0.6248192833306098,0.19481768019333137,-0.15132794927649,-0.9690808923634069,0.02383167192757346,-0.057068004046209285,0.27603179357816215,0.991754767319989,0.07928713945520416,0.0957375742890374,-0.03098747621974977
274,10.51722,-1.5618960558976411,-0.4517210914391289,0.6761002578900925,0.18944778673569265,-0.14005911745345856,-0.9718204583986804,0.033654385954440695,-0.10800758513875007,0.28347197489243425,0.9925524490527096,0.07312963808524929,0.09341522250758329,-0.027316345298953507
275,10.52722,-2.116101728101082,-0.44084190018585384,0.7120628407356465,0.18419479105821174,-0.12344110638113093,-0.975055486242986,0.03267886346713366,-0.15607991323818277,0.2877207831747645,0.9934717836511756,0.06425775245843945,0.091193443344423,-0.023172429711239867
276,10.53722,-2.554779068309023,-0.410996930515952,0.744032252412869,0.17921371020926466,-0.10182065622455039,-0.9784534032408241,0.03327917961526845,-0.1916808419024123,0.2871107522142069,0.9944216538931888,0.052869812847382576,0.08910553638549668,-0.018626021941873204
277,10.54722,-2.6425250836860235,-0.37636652204890225,0.8104213943417673,0.17466510411865213,-0.07740934709582085,-0.9815064435549916,0.03276257818820331,-0.2052944431289296,0.2796306965646462,0.9952685000263387,0.04009295387404211,0.08718080251781193,-0.01369858223782069
278,10.55722,-2.26247395478203,-0.3336820953085972,0.909472573737071,0.17060449370132358,-0.05453031546180889,-0.9837805120795504,0.03005083646766959,-0.19102423813642316,0.2585959431617916,0.9958978783777954,0.02810155863428509,0.08540314009312812,-0.008405182886647013
279,10.56722,-1.609595380796326,-0.22376928340693547,0.9527325911988921,0.16738533357319205,-0.037000093998562335,-0.9851753197654065,0.02895746699925598,-0.1211130195668485,0.19857994109696886,0.996279216760574,0.0188196457777267,0.08394057288089697,-0.0029526440487228495
280,10.57722,-0.9546889789033435,-0.09037685155127084,0.9448039357366549,0.16557069030972332,-0.026022479343943784,-0.9858486452877182,0.023870524086560575,0.039979771689508586,0.1277520259967507,0.9964502777250566,0.012866867667553942,0.08310524917213641,0.0022935734062252367
281,10.58722,-0.533341089179214,-0.008834091365801034,0.9696552901314539,0.164915398768025,-0.02046899023673521,-0.9860941426471507,0.00827581840462191,0.2055431615085914,0.07267054187833419,0.9964874657926966,0.009660161063259905,0.0828171954267438,0.0073454474482002215
282,10.59722,-0.43695970576127746,0.0031391641808637127,1.0349513152904715,0.16474312344209063,-0.017535049632535313,-0.9861798500755063,0.003673287230914026,0.23911712152621029,0.004787365831899402,0.9964569406348314,0.007758364445597075,0.08275977562068941,0.012526531389584001
283,10.60722,-0.5498120390006622,-0.023941598745738257,1.084011622631689,0.16449271889045483,-0.014495710023073179,-0.9862700504397293,0.02439063706555332,0.14931312970297186,-0.05509477298423544,0.9963951479815609,0.005780503396457714,0.08264525005119604,0.01800992538038739
284,10.61722,-0.7257455321086982,-0.06741610741270697,1.106011174051724,0.16391752819896985,-0.010040964862087762,-0.9864191780470485,0.053101825191748636,0.043555028164811826,-0.09876430245051979,0.9963124947504314,0.0030785260076502084,0.08233095622260926,0.023732079287172806
285,10.62722,-0.9450654026720822,-0.09766355062763876,1.097822067240347,0.16301373097778837,-0.0036448031945086595,-0.9866097298537131,0.0830393151426813,-0.021180324652017496,-0.1115971798300713,0.9962042482970617,-0.0005973625388064165,0.08179364960014782,0.02956518455374999
286,10.63722,-1.2504835907498086,-0.07629992342139903,1.0705689488227015,0.16213277352059866,0.005360305503570534,-0.9867399265589819,0.10697850320332172,-0.06246632928493362,-0.08399184073618751,0.99604640328344,-0.005576056316663984,0.08118166705370486,0.03540646332795733
287,10.64722,-1.6081384993662893,0.02408319761349255,1.0418681270152887,0.16194456555737463,0.01774342951650472,-0.9866147047935144,0.11414469365966752,-0.12645650138101835,-0.008290427470889282,0.9957903347308416,-0.012256067240262881,0.08079614248822535,0.04124288388990106
288,10.65722,-1.9119191338120811,0.19742860390411662,1.0235911456209803,0.16325696220189237,0.03348217925217549,-0.9859774916090691,0.09699822466093116,-0.2083388520107767,0.06508161686507827,0.9953711715767722,-0.020653595933590282,0.08101819025962922,0.0470845450759105
289,10.66722,-2.1167771183491664,0.39687475446352793,1.0370747552994661,0.1666169826973233,0.051687810350857115,-0.9846181179335752,0.06032147730601846,-0.24075634880134963,0.10310856147295787,0.994732873156417,-0.03035892175442613,0.08211824262383714,0.05298209888763263
290,10.67722,-2.257322280704901,0.5712025021802029,1.084532905856969,0.17207437747401455,0.07141186666917688,-0.9824354321307249,0.02783466790045385,-0.20115955402226068,0.0804552503372098,0.993841071011039,-0.040932776625723574,0.0841220527522621,0.05906035025878959
291,10.68722,-2.3957447146972504,0.6663277950530746,1.1709078485560713,0.17913938810530042,0.09224540886524935,-0.9794246543051274,0.030610963234348497,-0.10875130228641314,-0.005074055023881148,0.9926788162364415,-0.05219623765505088,0.08676842450025885,0.06549700750444867
292,10.69722,-2.551131647300987,0.6657884774778255,1.2821766174006988,0.18698789671472554,0.1141723137609367,-0.975632297957698,0.08325423218471897,-0.006678437126420217,-0.1329148182373664,0.9912369777557062,-0.06415196242042064,0.08960944608331259,0.07246982802205697
293,10.70722,-2.666101732236292,0.5958903976145663,1.3939080135852675,0.1948516434222508,0.13703158796634266,-0.9711365203126187,0.16867381495227138,0.07035666119430334,-0.2594635371473783,0.9895156078291427,-0.07671491805791783,0.09222683676081958,0.0800686998101991
294,10.71722,-2.7135891196780246,0.4991476063399952,1.4495136962902069,0.20229051598646766,0.16028351648775194,-0.9660426732861297,0.24688704601486697,0.12498202527317051,-0.358101019589377,0.9875385212771531,-0.08959041339360091,0.09439889648435601,0.08815718483527794
295,10.72722,-2.7089788121891454,0.3902518105676673,1.4230076345837959,0.20905071465746264,0.18346028490444874,-0.9604661548858253,0.290237145432058,0.1738574702054228,-0.40728821521463293,0.9853595853794717,-0.10249254290842849,0.09603219111513941,0.09634638494546888
296,10.73722,-2.6457868569469047,0.30209314948088956,1.334296876189556,0.21501819767718772,0.20619611615885744,-0.9545227534034655,0.29395855865821097,0.20392241377195403,-0.4015459654915602,0.9830440946490372,-0.1151860240581557,0.09712403885799048,0.10426071306080995
297,10.74722,-2.517764014475184,0.2825358297332872,1.1706096656556715,0.220477546798279,0.22806454872584364,-0.9482885006029441,0.26767694796662184,0.20426386330780172,-0.3515074208194571,0.9806609587708521,-0.12742247763662207,0.09790346137613981,0.11151749549813712
298,10.75722,-2.2943409237452737,0.3290925350992277,0.9562723412193496,0.2258691900699297,0.24848134767014377,-0.9418772450554086,0.2176061624896074,0.19162303140721215,-0.28252611982552756,0.978301056904355,-0.1388818763594964,0.09871401317476398,0.1177167453881094
299,10.76722,-1.9707197292970808,0.4130822625909901,0.745107597216389,0.23153315911463832,0.2665949012527073,-0.9355406837632934,0.14661868737447956,0.194153075296387,-0.23371798430471094,0.9760732568452002,-0.14912014135054474,0.09985559987941287,0.12266207921681155
300,10.77722,-1.6382972281271166,0.4942855628026267,0.5603455338389762,0.23756722696181312,0.281862663236328,-0.9295444063123092,0.08117791637112266,0.22481000085723385,-0.21210653329326143,0.9740603194172645,-0.15785477403744147,0.10145844378673548,0.1263943370489498
301,10.78722,-1.4036107829614468,0.5522020771655346,0.3979417623628223,0.24381188079276442,0.2947318013725847,-0.9239254068222738,0.05541593000350363,0.2621941892156345,-0.20222507997499203,0.9722666388716206,-0.1653045906034793,0.10343637952019519,0.12906794931298698
302,10.79722,-1.3027428710228743,0.5902119989194524,0.2831381719237182,0.2500988934115978,0.30628243578261843,-0.9184739235847208,0.06817316915940903,0.278881301497495,-0.17968295400145926,0.9706151453208499,-0.1720293572597657,0.10562838002452442,0.13092796740460613
303,10.80722,-1.2873688472027358,0.615307593636676,0.22473480524015851,0.25641018170674584,0.3174580181214442,-0.9129217576455474,0.08631005623343851,0.25053504113403546,-0.14489074641729444,0.9689972216813706,-0.17854700121425207,0.10792768303421707,0.13230397536091748
304,10.81722,-1.3026214764335586,0.6180212026208766,0.20604996193457578,0.2627356984819175,0.3286672738939348,-0.9071375927577158,0.08727104552696485,0.1943705101338229,-0.12134219818631366,0.9673412729964702,-0.18510033101998066,0.11025942110501659,0.13348686703823054
305,10.82722,-1.3265928596310261,0.5950525904707108,0.19822184419129185,0.2689138995699038,0.33999161001250894,-0.9011333496530731,0.07840712538818301,0.15436808900561555,-0.11796713168772639,0.9656295107664621,-0.1917365139983719,0.11250946254980589,0.13463037021424823
306,10.83722,-1.3619071436218904,0.5521892219338742,0.1809771100005787,0.27473146223562706,0.35150830950889717,-0.8949380166047145,0.07901553195246104,0.14053809762170258,-0.12275736311133055,0.9638672117039843,-0.1984808368060789,0.11456044751810439,0.13574949483137264
307,10.84722,-1.4236963336045596,0.48537957171400525,0.16265299757821045,0.27997849994331164,0.3634120463608786,-0.8885330339157204,0.09070625301911435,0.12830575704437552,-0.12238387616967455,0.9620483329889483,-0.2054200678853424,0.11628930704922799,0.1368516044016308
308,10.85722,-1.5096304857428922,0.4005575128983899,0.15221545477667334,0.28449228384615377,0.3759372304678925,-0.8818610196783631,0.1017509330003396,0.10182835786609216,-0.12866663668686193,0.960148999916975,-0.2126736885352514,0.11758188187121536,0.13799699128927992
309,10.86722,-1.5872880173017705,0.31575494985224134,0.1531382712595714,0.2882369112115677,0.38908546037402103,-0.8749129369304337,0.11111931098650764,0.07169057586592804,-0.13672454090102784,0.9581563434788298,-0.22025047362434466,0.11839981186344148,0.13925358603155907
310,10.87722,-1.6647632211753711,0.25389964632747425,0.166338545378732,0.29135562942711507,0.4027655135908443,-0.8676566337959202,0.12568522675279617,0.039132069825634525,-0.118654403398021,0.9560543945840914,-0.2281242182896829,0.11880681493328137,0.14066540245228978
311,10.88722,-1.7444361268839466,0.2159820030641582,0.18849823836423804,0.2941213250505039,0.41696020696877406,-0.8599815587263685,0.13667590409261274,-0.013400131962944652,-0.0741835581154493,0.9538094185953107,-0.23631947777232376,0.1189331215234443,0.14225507246807761
312,10.89722,-1.8115624985194643,0.18876195465502124,0.22266089137455433,0.296736051736665,0.431562972532368,-0.8518381955429261,0.12539441329156414,-0.0724691000397539,-0.01658752944138112,0.9514023332758041,-0.24480797901654572,0.1188764091380274,0.1440499520002813
313,10.90722,-1.8513435183564162,0.17055463131903767,0.2731567340062177,0.2993611353774933,0.4463437190995679,-0.8432589294258401,0.09584139064735231,-0.12464281986783077,0.04502597248864351,0.9488321615805952,-0.2534920538335332,0.11871591316430033,0.14609614992832456
314,10.91722,-1.8711719983949922,0.16131169617409458,0.331692896441439,0.3021340384038955,0.4610235614480908,-0.8343245543040455,0.06827382564570798,-0.17393216233801523,0.1040646383494044,0.946112349502342,-0.26224149118973145,0.11852516119563825,0.14842584859094848
315,10.92722,-1.8976416955540203,0.16299462466669878,0.386385644801116,0.305178472982922,0.4755292484767461,-0.8250221826306519,0.045095648143334735,-0.21648182484198844,0.16101322120843375,0.9432381416713712,-0.27103209794048766,0.11836913588859567,0.15102594115430787
316,10.93722,-1.9420407334477892,0.1651144298605451,0.43885047377583986,0.30853905007207066,0.4899756221251409,-0.8152594173355664,0.022591461920641067,-0.24934979911222857,0.21736325789974192,0.940183846290492,-0.2799374408122501,0.11825962742917141,0.1538808647789796
317,10.94722,-2.011711221328715,0.1674622061648947,0.4923041266629754,0.31222783190984343,0.5045046656337481,-0.8049248996619275,-0.0004739267520581635,-0.28364547405128215,0.2560434400510774,0.9369148401314622,-0.2890488676270352,0.11818263358008682,0.15699536895619862
318,10.95722,-2.103812333850524,0.1674652052290621,0.5477587110343566,0.31624825189790556,0.5192885661027158,-0.7938727257848167,-0.02285418072348236,-0.32115680105762806,0.2642421161671591,0.9333826015067577,-0.29848116227133736,0.11810850295601145,0.16039579455616199
319,10.96722,-2.1764919402744307,0.17808072713082668,0.6065323147444672,0.3206551211196497,0.5343136738923948,-0.7820425026534342,-0.03999570815729153,-0.3426217416224565,0.25654956351997493,0.929564195527016,-0.3082493286505804,0.11805404796604375,0.1640857075154833
320,10.97722,-2.2120041109689312,0.19653135614811945,0.6744285500375277,0.32559064971103097,0.549267481618807,-0.7695414605544314,-0.048790654923141434,-0.34352056422391514,0.25477531484561966,0.9254831763624269,-0.3182051151778014,0.11810995306532843,0.168056601532304
321,10.98722,-2.2226842789304317,0.2078090335234493,0.7471660929983359,0.33110910232625734,0.5638454890930324,-0.7565331761692652,-0.052330139021003835,-0.342881632523065,0.25019201369766575,0.9211743126318568,-0.32819230371027885,0.11831552186506986,0.1723218373700612
322,10.99722,-2.2081676115553512,0.22820579851090336,0.828977871676269,0.3372468331863557,0.5778248788077937,-0.7431561406028719,-0.05916657794906358,-0.3416451689064928,0.2445693020781413,0.9166662209468356,-0.33809563307922286,0.11869801485649033,0.17689073649950565
323,11.00722,-2.157020296542016,0.2606072912709045,0.9285005010172537,0.34418133896728387,0.5909107383113071,-0.7295649932676602,-0.06958223300056016,-0.3349231638011792,0.2533113061534248,0.9119889256509295,-0.3477745644694545,0.1193638459540284,0.18178779182756638
324,11.01722,-2.0758841833224095,0.3005958213358529,1.0228618130932021,0.3520422219909779,0.6028079676721473,-0.7159571427824232,-0.07880868510634942,-0.3368551102035124,0.26378914009578963,0.9071901135213466,-0.35707422756745816,0.12041018332299402,0.18700762366004337
325,11.02722,-1.9550587105906767,0.34496601453965847,1.0928757528074964,0.3607774642609508,0.6133541640639673,-0.7025296643057721,-0.08666182166060123,-0.3416765654894241,0.2530608396267599,0.9023404493163235,-0.3658738609404426,0.12187214036197302,0.19244056657841052
326,11.03722,-1.7427216629368123,0.3885254949772069,1.159821183601664,0.37029175241416684,0.6221573367276835,-0.6897301403782191,-0.08829039238861201,-0.3148893152004004,0.2226829207248105,0.8975866379105846,-0.3738897045263089,0.12379940889241828,0.19796582632313411
327,11.04722,-1.4602826450978954,0.4285294804758385,1.2517749957612037,0.38062755872759596,0.6286053872602655,-0.6781694247679928,-0.07236149302634823,-0.24839910186894107,0.19062916640522487,0.8930979109997047,-0.3807265891742003,0.12629803080768648,0.2035886274929232
328,11.05722,-1.1822559634725338,0.4651526851846572,1.3635082991426253,0.3918809839785934,0.6324433166086053,-0.6681225268250653,-0.029473869882687343,-0.17401892594598253,0.15429202882479115,0.8889326700286301,-0.38623320908820624,0.1294366427002157,0.20939774461273114
329,11.06722,-0.9589978310416404,0.509055150372874,1.4900535850789103,0.40413967644731225,0.6338448434439892,-0.6594352918135272,0.033488386730987876,-0.11435844828983986,0.1309668565839079,0.8850278306297209,-0.39054257034548834,0.13323317667780815,0.21547676371488833
330,11.07722,-0.8284074680859546,0.5838228034550248,1.6399961678757529,0.4176034237305075,0.633230215886806,-0.6515842832366235,0.09452601491146773,-0.08209368273333023,0.14165959193987468,0.8812106704292402,-0.3939923044661912,0.13773009789835444,0.2219128557897713
331,11.08722,-0.8024374478088402,0.7176256551926039,1.8170336955172357,0.4327019627695309,0.6311128167331769,-0.6437259475062234,0.13381103011081522,-0.08971960648340895,0.1733421739410376,0.8772114185369118,-0.3970588208337864,0.1430755123334302,0.2287928887904537
332,11.09722,-0.877291698860099,0.9187085966273052,2.0182010127766516,0.44998145963421105,0.6279656085221997,-0.634873665077289,0.14868168399458598,-0.13291350275167177,0.21144111197616125,0.8727208061359414,-0.40024928818341593,0.14949442634368193,0.23616738632105158
333,11.10722,-1.048732176442053,1.1543030884822019,2.235752289635784,0.46982368784230044,0.6241924101426694,-0.6240979979658181,0.15339916412166285,-0.19386732986259744,0.24713207441390572,0.867439726099154,-0.4040289800029104,0.15713127695592846,0.2440746612890323
334,11.11722,-1.3024113080860626,1.372560977130434,2.463166043589206,0.4922668769537168,0.6200851208322692,-0.6107118949730049,0.17043219434327958,-0.25434999908656414,0.2800434491825178,0.8611132985664327,-0.4087576250300277,0.16592967478328607,0.252603426872153
335,11.12722,-1.63638622280256,1.5362079662538235,2.6794626494445426,0.5169534543972346,0.6158918505272406,-0.5942959885431778,0.21781488169599278,-0.30363547993281165,0.31356391903511427,0.8535370232665744,-0.41470810270096414,0.17559456877889532,0.26188249871633285
336,11.13722,-2.057958703661581,1.6466006828512476,2.877857282719283,0.5433406107493057,0.611868434586695,-0.5745406056515213,0.2935737517910606,-0.3385472627046637,0.34126595854651126,0.8445258153329372,-0.42213129041251973,0.185720032026556,0.272020190695159
337,11.14722,-2.5733646066843194,1.7090500823318697,3.0671422650095126,0.5709480790737521,0.6082470979902235,-0.551084736510232,0.38241800656706676,-0.3574865421460686,0.3610056040776086,0.833856868838496,-0.4313072070334816,0.19591014423215897,0.2831228157464113
338,11.15722,-3.159627881495685,1.7110660782027673,3.258956389912179,0.5993454734821424,0.6050642325750828,-0.5237000702746791,0.4737197159333964,-0.3609871219379143,0.37269345331364756,0.8212972733982902,-0.4424407562278241,0.20575909949912133,0.29535466447132275
339,11.16722,-3.7751091867557234,1.6731311547899088,3.4635662592743985,0.6282448073285402,0.6019700072280506,-0.49239555480096825,0.5607757320993026,-0.3482203007744923,0.37937490841181787,0.8066431702615413,-0.4555526698362846,0.2149544976337627,0.3088900101425698
340,11.17722,-4.385724575364525,1.6154625341062003,3.6648809568237977,0.6574807617886118,0.5983501720860247,-0.4573187680693267,0.6387898866492697,-0.3241494565622034,0.3791206052783466,0.7897339641379276,-0.4705205333303227,0.22332297296531922,0.3237882975323405
341,11.18722,-4.95294548496222,1.5085036995208005,3.8436474075780676,0.6867528580254446,0.5934950584116758,-0.41895257755324294,0.7072139042369133,-0.29271210347214116,0.36525838882684586,0.77052049649984,-0.4870622389246277,0.23067071225624328,0.3400022250317535
342,11.19722,-5.444305767819009,1.3057165348454922,3.9905964569820553,0.7155467468665495,0.5866821593631657,-0.3783596500105511,0.773751010996805,-0.2484181205875673,0.3397021683841011,0.7491186644204716,-0.5046927892617393,0.23668075736990762,0.35748446887723645
343,11.20722,-5.833937697125111,1.0161105466924414,4.108670266792629,0.7433415241905066,0.577254261660989,-0.3370221973205988,0.8469315041544464,-0.18424337629944604,0.309488456836068,0.7257807024793188,-0.5227858418757646,0.24103713168710955,0.37618624872807993
344,11.21722,-6.1091681946210095,0.6928072402719734,4.2097113282793295,0.76985579705216,0.564657284304246,-0.2964335136621958,0.9196810875615282,-0.10198879066085278,0.2884409091768279,0.7008076826991161,-0.5406975404040846,0.2436207055886537,0.396004331665731
345,11.22722,-6.2771048944814805,0.3945932698259179,4.306326130827224,0.7951060326526198,0.548461797428001,-0.2577072830030089,0.9681667567891065,-0.014501316912554081,0.27979407140416007,0.6744569442936875,-0.5578968909728409,0.24459697217490486,0.41673831816032436
346,11.23722,-6.346695692235412,0.1526202551492179,4.38553832592251,0.8192102660983014,0.5284602708801094,-0.22151009785846398,0.9751341625458703,0.06520065469376209,0.2768429848768722,0.6469475190744615,-0.5740178664507194,0.2443119842071147,0.43806927981729776
347,11.24722,-6.333150170358596,-0.06511326385869504,4.4157058816427455,0.8421017661086769,0.5048307387680752,-0.18836828803994263,0.9443035303760027,0.12720008350832163,0.2771949722048548,0.6185588544000555,-0.5888094575895333,0.24304145341708233,0.45961885381961193
348,11.25722,-6.211511472361203,-0.30197314340336423,4.3807587483865795,0.8634793142459601,0.4781470921424263,-0.15904609693302413,0.8938443896238709,0.16964311312679617,0.2753940873841951,0.589722043683762,-0.6020149208265551,0.24086347119852342,0.48107263361077407
349,11.26722,-5.932704578931899,-0.570776515229905,4.285576586003191,0.8830036464080224,0.44916817656575414,-0.13463997330598765,0.8463991048824941,0.20305114821357653,0.2669223046240948,0.5610982454902019,-0.6132453196649181,0.23786893256552258,0.5021771742743362
350,11.27722,-5.497291247029589,-0.83310852420796,4.141726444862494,0.9004743607904491,0.41869978272213576,-0.11606216156649289,0.8099494476570656,0.23873391514485262,0.24835430368568873,0.53344400958049,-0.6221213974572305,0.234341091425169,0.5226730593317788
351,11.28722,-4.9198974394439965,-1.023625656215421,3.9543147078810303,0.9158384132401592,0.3875741699333141,-0.10348715309761579,0.762283152644751,0.28098452772509314,0.21758398000502183,0.5074254312562846,-0.6284965917097837,0.23073497945860177,0.5422334578273984
352,11.29722,-4.227977945015493,-1.0869091016476455,3.7169407276946305,0.9291228484166248,0.35664525228874266,-0.09622305424814849,0.6771276769968171,0.32807108281814257,0.1827892524035227,0.4836065104317925,-0.6325113490941189,0.227626406964725,0.5603876164630972
353,11.30722,-3.46600607604624,-1.01788970364076,3.4286657213690463,0.9404079591969753,0.32673436480597423,-0.09294328144819108,0.5513931323634644,0.3679416595490062,0.14691287849694484,0.4624264217322592,-0.6345454022381372,0.22556500806959365,0.5766093976961456
354,11.31722,-2.6814055220491655,-0.8720143112390389,3.1166427896870865,0.9498520622689838,0.29842945915622754,-0.09228421794817583,0.40699495528022755,0.38553671020736946,0.11208740567711217,0.44414368100221413,-0.6350334338825627,0.22492315117316314,0.5905649053241375
355,11.32722,-1.9231522400331593,-0.7098040226140409,2.812483181872422,0.9577033950432854,0.27188154160897443,-0.09331618092536621,0.27733830611030746,0.3799353942296479,0.08684005717605044,0.42880536838540484,-0.6342825910132466,0.22589021243458265,0.6022520736940872
356,11.33722,-1.225171785327054,-0.5621379613166798,2.5395828173907438,0.9642604768568536,0.24681509761749312,-0.0955293303541247,0.18691904819540678,0.36235767193451063,0.0769581349407819,0.41624080720462286,-0.6324583540166202,0.22853368917197922,0.6119290935460551
357,11.34722,-0.6220715007354832,-0.4272218456374176,2.302242895681387,0.9696813114207611,0.2234037579182334,-0.09836637282235283,0.14125953441580358,0.3418736284840265,0.08431372557269833,0.4062569927294456,-0.6298374740289296,0.23262459322771728,0.6197637053545316
358,11.35722,-0.14907002665533772,-0.29427529552274934,2.0944341997877327,0.9741038025006951,0.20191988092042898,-0.1011929376289776,0.12476697381432415,0.32294265154985785,0.10356653241821173,0.39853828083652215,-0.6267764973376955,0.23779110728218816,0.625895547845127
359,11.36722,0.18833471474332925,-0.16309230337437683,1.9139702314041083,0.9777673147084771,0.18209663341365143,-0.10352899248642136,0.11377003914272257,0.30958453226805976,0.12532522661573775,0.3925458136522925,-0.6235405808904245,0.24376290834060704,0.6306038807499612
360,11.37722,0.41481878230489344,-0.042255130734456164,1.7635453599280952,0.9808690638271004,0.16362203476771206,-0.10508495254686487,0.09466428457853424,0.30542731116919863,0.13999476586947418,0.3877747025469912,-0.6203180722933264,0.25029866182174476,0.634165929686466
361,11.38722,0.559744886569314,0.05712137530024726,1.646237903173662,0.983539051252585,0.14625453476140152,-0.1057782762798698,0.0702356474348583,0.30704655011257664,0.14488338702508952,0.38384231019791293,-0.6172126697997441,0.2571869117677138,0.6368278981908626
362,11.39722,0.6424777504148512,0.11995896685370533,1.5613084786726874,0.9858620536053742,0.12973032648646807,-0.1057402956474225,0.053301445685112206,0.3140133377472252,0.13979120178698767,0.3804503845589274,-0.6142341414508491,0.26425706379390607,0.6388462462505949
363,11.40722,0.666013156317488,0.14284924577633673,1.5056048227222953,0.9878819405653005,0.11381414707635913,-0.1052369098300648,0.04964716486385763,0.3307660474124548,0.12482971735978807,0.3773625963085211,-0.6113425568424137,0.2713441600204917,0.6404789647012943
364,11.41722,0.6165713696852267,0.1436806021701763,1.4651192796462238,0.9896179298627797,0.09837028884743707,-0.10450966643745362,0.05169775729959699,0.35225361501660346,0.10921980076055045,0.37435265768900833,-0.6085335487939876,0.27824276938462,0.6419596887712599
365,11.42722,0.489574239545118,0.14434457589437075,1.434070656940137,0.9910902826855179,0.08336344508413299,-0.10361706952876289,0.04321677530933384,0.3661742813673542,0.0994354443894984,0.37117040945672625,-0.6058972512215461,0.2847259496295745,0.6434577429830238
366,11.43722,0.2938294148882229,0.16112769624388626,1.4088326339443706,0.9923304617653498,0.06880212610756178,-0.10244822350528159,0.009153017961740062,0.3653284271221946,0.09459974793654435,0.3675575360636174,-0.6035922072659439,0.29059196616617133,0.6450746680479021
367,11.44722,0.05012013185839098,0.1978367129361857,1.3897063339451208,0.9933775153651624,0.05468002973286213,-0.10081144123004784,-0.04658527389438004,0.35279563111868145,0.09302548177072596,0.36328645990541153,-0.6017851688922332,0.29570719426229464,0.6468560335111208
368,11.45722,-0.20807355951366374,0.24228122699947735,1.3789357607532566,0.9942600108323651,0.04095143965009109,-0.0986088167823973,-0.10722054838556305,0.33719818258807177,0.08935595243426864,0.3582224462647241,-0.6005662950933678,0.30001944653998597,0.6488242788196359
369,11.46722,-0.44342429626178764,0.27421499360529916,1.3720451720967173,0.9949832296767053,0.027539028066788193,-0.0959442226892937,-0.15975066698464607,0.32846931947309826,0.07933415303776083,0.3523654549890786,-0.5999002218874656,0.30355403857052016,0.6509994484727201
370,11.47722,-0.6270063752400685,0.28590900150988174,1.364240821977388,0.9955362778356348,0.014376737555032805,-0.09304704055024134,-0.19597075258453703,0.3318013538216388,0.06067599592712575,0.34584381367455946,-0.5996588100680058,0.3064052395748892,0.6533783019817561
371,11.48722,-0.7385473947873837,0.2766976491201224,1.3532526222280197,0.9959018728516382,0.0014095401213232344,-0.09019844578329544,-0.2165653367955129,0.3478899659387868,0.03348617791726771,0.33888318961191577,-0.5996535660394765,0.3087317141157695,0.6559296880686852
372,11.49722,-0.7783957428044976,0.27048511699668415,1.3375639262535928,0.9960755250211925,-0.011407353149126324,-0.08753725458720713,-0.2290023039358325,0.37331531630497533,3.094556547153515e-05,0.3317268997720009,-0.5997233222100573,0.31074494095792915,0.6585679857016269
373,11.50722,-0.7625851288211006,0.2835740362397965,1.3156871159400743,0.9960716750666606,-0.024135651035736783,-0.08496161494367048,-0.23958048986913696,0.4026068334993218,-0.028278164956658313,0.32454735996288114,-0.5997944477282401,0.31267381448234716,0.6611626021874789
374,11.51722,-0.7050532078230759,0.31226979232198915,1.2819189512221785,0.9959173702050141,-0.03664125772374566,-0.08226618777117947,-0.2547164441177191,0.43109195707352677,-0.0476472578487438,0.3175208679297406,-0.5998789649510593,0.3146603731619815,0.6635517865558506
375,11.52722,-0.6233816340172615,0.34628963343728536,1.238471794390283,0.9956409116868644,-0.0487383749925122,-0.07929487649974415,-0.2730559732438897,0.4575485099701607,-0.06426003694989314,0.310795382374567,-0.6000064255274715,0.3167707694234839,0.6656144044106761
376,11.53722,-0.5309182127958321,0.3691854843149948,1.1987803782021584,0.9952529783043752,-0.060442124956646935,-0.07605207891471205,-0.2805469328363726,0.4830243151246568,-0.07680358804555491,0.30442650507247465,-0.6001452188478891,0.31905851259601137,0.667338645217631
377,11.54722,-0.4385624757336381,0.3693392684279114,1.1641318570911467,0.9947470212937218,-0.07184666056290523,-0.07268783010495526,-0.2690098701458613,0.5092005335819937,-0.07858086875663392,0.2984308680001676,-0.6002182970155948,0.3215470549201489,0.668785860151808
378,11.55722,-0.34975333885657783,0.3574037272244221,1.120933775995386,0.9941207543089727,-0.08293995178844586,-0.06938211859771355,-0.24446371562814456,0.5349314496779849,-0.0712406230881894,0.29283758726784825,-0.600168041010065,0.3241998119038574,0.6700223619413318
379,11.56722,-0.2690182409058467,0.3634083705115067,1.0578405262875328,0.9934024036587624,-0.09356232398675034,-0.06610187898813505,-0.2225318747320383,0.553583230809443,-0.06156994151100361,0.2876793860306711,-0.6000382836988774,0.3269575922602859,0.671033126383314
380,11.57722,-0.20213112142927153,0.3997287130348281,0.975583610046752,0.9926463509140365,-0.10350238537508992,-0.06257333303949593,-0.21861302873516922,0.5646050475908908,-0.05547050213376774,0.28294659718411636,-0.5999738097817074,0.32976186479965985,0.6717313437762921
381,11.58722,-0.1592166252343184,0.44368333863382436,0.8836574813201681,0.9918989945210122,-0.11261413521844256,-0.058586134928474504,-0.23088716918987323,0.5720282463963107,-0.05668499985623683,0.27858768737166567,-0.6001034993848159,0.33253710081987103,0.6720698689482708
382,11.59722,-0.14143812561500269,0.46949160559658054,0.777623908011098,0.9911897827950974,-0.12076898844792995,-0.05421065838965285,-0.23607143667345623,0.5770924503929334,-0.061254793555393525,0.27458127278785827,-0.6004651888748473,0.3351636167464595,0.6720915399122531
383,11.60722,-0.15854769615372524,0.4433341437221305,0.6513374465322591,0.9905428982908776,-0.12777807216827752,-0.04983065051690735,-0.2162793633496481,0.5833065568117531,-0.06900022523941779,0.270961178594028,-0.6010116699785997,0.3374440857928389,0.6719319777004868
384,11.61722,-0.22502452088215213,0.3649396072599814,0.5151983065635517,0.9899777623607048,-0.13346601850390893,-0.0460648024194283,-0.17183328848006557,0.5885831967154831,-0.08534106009369605,0.2677476292756819,-0.6016408497729022,0.3391096245896448,0.6718195534184824
385,11.62722,-0.34260127847840316,0.30693150990994716,0.35648110839500524,0.9895358933631582,-0.13766735905394548,-0.04315167177207989,-0.11942030914980287,0.5886762913104506,-0.10113874219767428,0.2648658559106265,-0.6023925669260357,0.3399222746966151,0.6718781825498487
386,11.63722,-0.48837018587844727,0.3116663990367925,0.1682784313284189,0.9893009361743881,-0.14009045622582492,-0.0407027763436544,-0.09405080644136848,0.5823694464328775,-0.10082927506009604,0.2622122120813883,-0.603521257984915,0.33972078782880893,0.6720080395988888
387,11.64722,-0.6404937447346226,0.36321979394420006,-0.026806203524934583,0.9893376200004014,-0.14054486788007384,-0.038168443000117826,-0.11312347753487607,0.5680424074261121,-0.0915055453581264,0.25970124415696255,-0.6052736482824904,0.33846419824462015,0.6720403239721324
388,11.65722,-0.756919422456013,0.4191831875850014,-0.2093216501944985,0.9896492928858852,-0.13909563253981302,-0.03526518038190908,-0.14634787922828363,0.5483215732016713,-0.07702229563364141,0.25731453188952147,-0.6077025464269931,0.3362467063232003,0.671878455196944
389,11.66722,-0.7962018303904767,0.4528095626865491,-0.3716101999407427,0.9901969229871029,-0.1359410559977326,-0.032002212970443644,-0.15082093853215497,0.5375146043199686,-0.05865655042003797,0.25517888133335986,-0.6106649886432421,0.3332904675132057,0.6714788772246475
390,11.67722,-0.7320341698683721,0.46583931246527854,-0.5323887213720901,0.9909391637275786,-0.1312216771408342,-0.028475396292210225,-0.11795045917239563,0.5476372024380616,-0.046517048088570434,0.25357533725327625,-0.6139396418366879,0.3299014691317065,0.6707731825383084
391,11.68722,-0.5726460935672394,0.484041893946724,-0.7079083327702648,0.9918571099269784,-0.12489322031211696,-0.024621894799264996,-0.06623470713970483,0.576754019959922,-0.05459314335800347,0.25285301299729457,-0.617377858986963,0.3263862407376162,0.6696087305919834
392,11.69722,-0.34480901416867393,0.5119264464422008,-0.8921406394825449,0.9929345153203193,-0.11682836594187085,-0.020240459413768296,-0.024939752063200624,0.611545782918719,-0.08247016263624926,0.2532998428213075,-0.6209272996999472,0.32299159509399916,0.6678010921193507
393,11.70722,-0.09161307266196811,0.512031800335336,-1.058540677451498,0.9941176706268646,-0.10706362048411697,-0.01539477979509338,-0.0073075287863461095,0.6361728591553926,-0.12203933464839599,0.2550580249818339,-0.6244856360934921,0.3198677060027638,0.6653119870584808
394,11.71722,0.15062699745652283,0.49128690049117524,-1.205329382306497,0.9953286834514092,-0.0957868742939766,-0.010398093011295365,0.007975239539723187,0.6466115660130785,-0.16605151900091314,0.25812336570272326,-0.6279081880155544,0.3170615639525464,0.6622433462870511
395,11.72722,0.37103687313612715,0.49952202151518027,-1.366905941558035,0.9965127081285329,-0.08299302892578962,-0.005267459025176622,0.03162917651203966,0.6391927282417106,-0.19426739863579764,0.2624219820773606,-0.631220876295781,0.31451969213673014,0.6586046467967074
396,11.73722,0.5934690053867256,0.527140099385095,-1.5363347862475472,0.9976216453773313,-0.06849667122137641,0.000196999263469993,0.04308874594004765,0.6168578771386986,-0.20158303461657845,0.2679190797094609,-0.6345404950667826,0.3121748736791392,0.6542998190128062
397,11.74722,0.8508895946039254,0.5303210265009966,-1.6766357467353485,0.998574468030959,-0.05238195290550881,0.005916256978655124,0.04490365805385781,0.5945254941246357,-0.20685952854058523,0.27463635119135144,-0.6377983428751675,0.3101099881644602,0.6493066663786409
398,11.75722,1.1437217372409385,0.4857420882475736,-1.7854625937202475,0.9992846837291621,-0.034949636661888245,0.011427834730127285,0.07319953141259881,0.581413975174828,-0.2195030141554766,0.2826419790105073,-0.6407405019438998,0.308485475053116,0.6437205107376802
399,11.76722,1.460841795544084,0.40063207869590567,-1.8889142847959635,0.9996927190116374,-0.016363375237741673,0.01617508060022682,0.14041318573791944,0.5809463627115339,-0.23356242872352723,0.29203657934780153,-0.6431208465211199,0.3073790439099618,0.6376492209251471
400,11.77722,1.7723313258666809,0.30540818885247384,-1.9948692614483612,0.9997520168334524,0.003385630788498656,0.019779431910393584,0.21911959013490015,0.5873497461138503,-0.24031383362836614,0.30287513018790796,-0.6448157167010194,0.3067603107969202,0.6311404177662566
401,11.78722,2.0396283011378955,0.21687210503116167,-2.0962007243846568,0.9994099099221044,0.024282170134428092,0.02209798732059457,0.28087183454762643,0.5865127466632329,-0.2330551326159643,0.31507008800391967,-0.645822246104483,0.30653300465621347,0.6242075252070246
402,11.79722,2.235891944799779,0.1323115036256387,-2.190667557478187,0.998609732253235,0.046222659595697706,0.02305598892606832,0.31587818086387903,0.563614971656982,-0.21162706778136553,0.32838791314874693,-0.6462007401908743,0.3065168691897841,0.6169114451181542
403,11.80722,2.3609711805310316,0.045023749963068675,-2.2809551474987684,0.9972934703027996,0.06910802634093742,0.02258179486080111,0.33111096567324205,0.5167548207128649,-0.1815443810268065,0.34255887264927765,-0.646036509303669,0.3064762633769622,0.6093467641070406
404,11.81722,2.450293491944494,-0.03997830517905208,-2.365598477598641,0.9954032888719038,0.09282925381728886,0.020631796141490404,0.33605849575644564,0.4585994536358056,-0.14891676726849587,0.35737517095049165,-0.6453931611605052,0.30624076006470197,0.6015844347326059
405,11.82722,2.540157868572635,-0.12321619305207154,-2.440700513761211,0.9928827755127141,0.11725832153926594,0.017192132898314186,0.3403152946014773,0.39950841620042876,-0.12042854183261947,0.37274497484552405,-0.6442802600049815,0.30577539785852215,0.593631040501001
406,11.83722,2.6944061604366585,-0.21062479778159068,-2.4924181598105477,0.9896868735451195,0.14221804772927046,0.012092431571256605,0.3526791845367715,0.3504328705914114,-0.10115039389068056,0.38873655962706,-0.6425770085168262,0.30518865726015415,0.5854615792685574
407,11.84722,2.7647365684326304,-0.2871634372020765,-2.5216223952538135,0.9858186616682163,0.16727722331090253,0.005251046506314226,0.3731847471251705,0.31456991695854686,-0.09204981082371788,0.4052239868050277,-0.6402059274801011,0.30456581948283,0.5771416469535364
408,11.85722,2.861753009352265,-0.3910024598944941,-2.532554196481764,0.9812597095636411,0.1922554831114937,-0.0031478723019862987,0.39639292027622614,0.29017657435545713,-0.07293976072061535,0.4219677302078038,-0.6372855142250637,0.3037943708907285,0.5687181375293878
409,11.86722,2.923487000093262,-0.5493959586156328,-2.559040543742428,0.975973225857162,0.21707193932199564,-0.013731250046713583,0.4241260259399354,0.2680865444565947,-0.06064013795810914,0.43914158815343224,-0.6335794980212601,0.30283277479700765,0.5603033151410617
410,11.87722,2.701922280634909,-0.7464032199411298,-2.6123281390950357,0.969838715911813,0.24190487799659677,-0.026686177562766807,0.4581064123155807,0.187430138675388,-0.06205267549620119,0.45635267534066015,-0.6293336776547879,0.3009831275993405,0.5522758785762173
411,11.88722,2.3991627895406857,-0.8954276998087471,-2.6760539162461736,0.9625950375752836,0.26735196495813907,-0.04156883706301587,0.48368897520065784,0.09035423996650661,-0.029950960685215418,0.47312796335207885,-0.6250966221397044,0.297426107975119,0.5448522743272621
412,11.89722,2.244083540105279,-0.9800249491151107,-2.6731321736055653,0.9544857716538194,0.2923505348102796,-0.057348171663555915,0.47216278203567374,0.08126213553018113,0.0237365068223247,0.48917036824386023,-0.6209166430036068,0.2928820986710372,0.5378877522679713
413,11.90722,2.085293965201598,-1.0423905105602054,-2.6591530455319043,0.9456559354444213,0.31640549433645454,-0.07366552100228546,0.4213881124003871,0.06630868075827986,0.0632600108365103,0.5045386285602806,-0.6166845956852604,0.28785024766985745,0.5312394860802631
414,11.91722,1.8448389115247241,-1.1161551389622866,-2.720793142468554,0.9359057026734832,0.3401778738688782,-0.0903241040107275,0.3693000913523904,-0.0110507361620472,0.08582891099206501,0.5192612087633457,-0.612625480045151,0.28198672634252664,0.5248587098702445
415,11.92722,1.58466600203839,-1.1934434987636218,-2.8158929131514294,0.9249676979570086,0.36433829665137407,-0.107144788908869,0.32175933133662393,-0.06646452118469363,0.12009421525326154,0.5333616463927981,-0.6089564469075607,0.2749277146942546,0.5186993797508334
416,11.93722,1.3284020038839297,-1.2479103389110018,-2.872033432264123,0.9128015692243027,0.3888790810347404,-0.12388309429943492,0.2779594089687214,-0.09793296972768523,0.1577832510613587,0.5468029212235558,-0.6057272216119697,0.2667125057926206,0.5127416967648913
417,11.94722,1.0867308985780364,-1.282076913812494,-2.907804209596094,0.8995017123029838,0.4135415386750442,-0.14020925834612477,0.24527312557370673,-0.14126386273660657,0.1837485798342493,0.5594972237162954,-0.6029541240562678,0.2575295462460305,0.5069794672227032
418,11.95722,0.8832924757616483,-1.3053655099388,-2.9484138405101907,0.8850860744038196,0.4382631345616415,-0.15596260423475014,0.21950342964270575,-0.18405096754760794,0.2008508727969124,0.5714897719279033,-0.6006079110656135,0.24751942666464638,0.5013434434186502
419,11.96722,0.7161966084245472,-1.3177332750476989,-2.9881012139405083,0.8695271240454185,0.4630553041386192,-0.17110065656498347,0.19111618626427615,-0.21768190880256602,0.2148084512037718,0.5828952423351141,-0.5986230997766727,0.2368006135799406,0.49573249877736675
420,11.97722,0.5726136944161258,-1.3102330033104594,-3.015424894945613,0.8528789524610111,0.4878096427611429,-0.18550393330835352,0.1644651848279918,-0.25164458742574386,0.22797727114980856,0.5937556275872278,-0.5969576939221767,0.22552609361959314,0.49007749734256134
421,11.98722,0.4541561295354728,-1.2852428553956918,-3.023269404464787,0.8352442767097799,0.5123653000196572,-0.19905536781113387,0.1425451821456523,-0.2848143828684535,0.24280868411557266,0.6040868687543373,-0.5955736294701469,0.21385858026961876,0.48433322887801256
422,11.99722,0.3696857974931371,-1.2492387531089688,-3.013265332285513,0.8167714445070859,0.5365082851350592,-0.21171230050294096,0.12457981878402595,-0.3097045913148018,0.2608425866985145,0.6139131252223934,-0.5944060015815269,0.20198010974888833,0.4784773577194515
423,12.00722,0.31909439469768924,-1.1985439260486819,-2.9781675821971856,0.7976506423295608,0.5599879932435062,-0.22350272969752535,0.11084497294540108,-0.3298931593606279,0.27744944137839145,0.6232697228360053,-0.5933682607085642,0.1900887890604198,0.4725056539833067
424,12.01722,0.31034081999374635,-1.1484454631077294,-2.9198453979772814,0.77808846900719,0.5825427371014178,-0.2345619165245599,0.10354362795500682,-0.3477301291418613,0.2917157360921634,0.6322129871269289,-0.5923457712941093,0.17837539825266388,0.4664380333376672
425,12.02722,0.3392253452507954,-1.0877423313345378,-2.8378859099636453,0.7582885581465875,0.603932703781115,-0.24509792430989266,0.10113381845964724,-0.3604119521770694,0.3042149119208285,0.640820160401541,-0.5912112251435404,0.16701651606578502,0.46030013742970144
426,12.03722,0.3985459572452982,-1.0177363341113959,-2.7306199353102647,0.7385099572840155,0.623909891707653,-0.2552720189736902,0.100664337589066,-0.36945853614136204,0.3167742869072181,0.6491430760477451,-0.5898650846351298,0.1562050322492645,0.45412324462291026
427,12.04722,0.47679227055190265,-0.9482996249661092,-2.5958629027914486,0.7190366752308206,0.6422399773276911,-0.26524658588799593,0.10279398197259874,-0.37952028526070725,0.32964991354727463,0.6572055501509453,-0.5882265404854834,0.14610300315024452,0.44797762597966767
428,12.05722,0.5590586758925845,-0.8832469984183822,-2.4355553671222023,0.700135442493219,0.658748995792553,-0.2751729361227105,0.11201847039723958,-0.38828763615117906,0.34259182618907746,0.6650023138548836,-0.5862427259217692,0.13680564961256433,0.4419724250603944
429,12.06722,0.6362630166342769,-0.8163337101513193,-2.24853546735806,0.6820741206564206,0.6733303245764802,-0.285096870424884,0.1270688328080859,-0.39753405054809016,0.35746182844891033,0.6724936204246461,-0.583914401781145,0.1283788628970306,0.43621521978754213
430,12.07722,0.7040161722098817,-0.749194619886316,-2.034161088566891,0.6651342060197082,0.6859033399369009,-0.29501077533649267,0.14516912299965481,-0.4079136761744506,0.3738398805637139,0.6796221795570069,-0.5812660733264039,0.12088251668756732,0.43081787045789366
431,12.08722,0.7571065402406082,-0.6774034799130428,-1.7989677288029091,0.6494972705243052,0.6964820889930718,-0.3049288101769798,0.1667405810035833,-0.42100551387885315,0.3899825747746752,0.6863612608096541,-0.5783216402488199,0.11432456300718773,0.425863374884465
432,12.09722,0.7857715468472367,-0.6140203369547774,-1.5542329202726022,0.6354924923952016,0.7050255854275306,-0.3146776396153713,0.19447820782352065,-0.4335216459215752,0.4023997640345423,0.6926001206564572,-0.5751718705824773,0.10877084471651254,0.42146560653070175
433,12.10722,0.7658790042507813,-0.5777147730515517,-1.3070038546807121,0.6233448738888818,0.7116208369734588,-0.32401758278091225,0.22701112190011233,-0.44125250800377924,0.40688966259510534,0.698197266183397,-0.5719551425963078,0.10417706184215367,0.41775767085367455
434,12.11722,0.6746107037972675,-0.5707949434414233,-1.0474424935128914,0.613009565783732,0.7165521303599514,-0.3327695840389009,0.2722570649934282,-0.4426079150436412,0.4088301095750446,0.7030294075114568,-0.5688150563672714,0.10030019703881568,0.4148844331237313
435,12.12722,0.4938603042625853,-0.5713277555068657,-0.7807656752618376,0.6044984833066108,0.7201549489337913,-0.34049032726614953,0.3317562504953784,-0.44041235231523546,0.4297272669673249,0.7068840007511334,-0.5660046900712986,0.09690232571813358,0.4129858968002052
436,12.13722,0.23392103819408316,-0.5696108933973871,-0.5259969257169597,0.5978154576244258,0.7228324449435185,-0.3465768794102974,0.39064939781220137,-0.4473555275686833,0.4761404534633902,0.7095440264242455,-0.5638378735577381,0.0937864403991959,0.41211003424634807
437,12.14722,-0.08238720519251483,-0.5486110707380673,-0.28761373896021775,0.5929019404982725,0.7249886244851229,-0.35050280686260876,0.4318418276726262,-0.46942364900832523,0.5152277683161283,0.7108682039830708,-0.5625849355767345,0.09080168086919387,0.4122107402922538
438,12.15722,-0.4231584488510091,-0.49503529091118015,-0.06335663925452892,0.5897894454435901,0.7269113833608679,-0.3517760661515853,0.4506447328262509,-0.5010183248646037,0.53850291164061,0.7107584103321102,-0.5624758576803217,0.08792812174392235,0.41317112059319405
439,12.16722,-0.7657926314121575,-0.42788503494178676,0.15694360060260007,0.5885075453013191,0.728733849317152,-0.35014871089782623,0.458054849534686,-0.5294702357157924,0.5437867240780665,0.7091855303662744,-0.563619130712101,0.0851901376424123,0.41488418090551754
440,12.17722,-1.0767851599376794,-0.36419539951909685,0.3715314436628293,0.5890550112116386,0.7303987336461546,-0.34572609141870797,0.4673764934254743,-0.5418025139167741,0.5445431552206678,0.7061900642863157,-0.5659593017128031,0.08261078755608918,0.41731929262023154
441,12.18722,-1.3393332599612564,-0.3027620919814615,0.5852162360343174,0.5914166742001202,0.7317102931872713,-0.33884289510834614,0.48853995590563865,-0.5362498733720253,0.5540208889351561,0.7018859166467726,-0.5693269202074739,0.08026239933273116,0.42044235072180813
442,12.19722,-1.57119011543564,-0.25772159390124855,0.8083656473912715,0.5955814334508472,0.7324452923608126,-0.3298275285408153,0.5217857875411345,-0.5213395729990795,0.5541766012080772,0.6963599742259824,-0.5735563416933938,0.07819872076003581,0.4242493673760129
443,12.20722,-1.7744318661346457,-0.24610785393581186,1.0468820037024051,0.6015742545215846,0.7323135077606207,-0.31905348502918135,0.5544364966570479,-0.5089918895924792,0.5407128565371992,0.6896543333645389,-0.5784673665281703,0.0764433597206718,0.42882471050119153
