time,seconds_elapsed,rotationRateX,rotationRateY,rotationRateZ,gravityX,gravityY,gravityZ,accelerationX,accelerationY,accelerationZ,quaternionW,quaternionX,quaternionY,quaternionZ
1681412404804327000,0.108326904296875,-0.04616255685687065,0.06564389914274216,-0.21375997364521027,0.10015391558408737,-0.07192086428403854,-0.9923691749572754,-0.055613480508327484,-0.036096133291721344,0.03022623062133789,0.9980904206511653,0.036029231843541724,0.050172767438362555,9.969524849623912e-18
1681412404814339800,0.11833984375,0.0005631395615637302,0.05782964825630188,-0.21661248803138733,0.10087835788726807,-0.07140156626701355,-0.9923332929611206,-0.05734502524137497,-0.022760428488254547,0.027413249015808105,0.9980813560537732,0.03576941129032262,0.050536140483094225,-2.5121081465263875e-17
1681412404824316000,0.12831591796875,0.09288531541824341,0.033832862973213196,-0.22623910009860992,0.10144083201885223,-0.07155583053827286,-0.9922648668289185,-0.03730813413858414,0.0018231496214866638,0.017747044563293457,0.9980636419548606,0.035903588948718874,0.05077903861264811,-0.001105830017776194
1681412404834293000,0.13829296875,0.1850075125694275,0.042307838797569275,-0.23459875583648682,0.10192796587944031,-0.07267864793539047,-0.9921333193778992,-0.023604601621627808,0.029923513531684875,0.01384657621383667,0.9980287430387415,0.03652759391685076,0.050981179319436826,-0.0022805336526362753
1681412404844269000,0.14826904296875,0.19862523674964905,0.05528249591588974,-0.2332485169172287,0.10255712270736694,-0.07434820383787155,-0.9919447302818298,-0.018343858420848846,0.054267629981040955,0.010987699031829834,0.9979780221399406,0.03742901084360305,0.05125129850482868,-0.0034970331504770775
1681412404854244900,0.158244873046875,0.13096575438976288,0.05575281009078026,-0.2148977518081665,0.10324612259864807,-0.07572890818119049,-0.9917688369750977,-0.022557638585567474,0.05180312693119049,0.005074501037597656,0.9979292349555952,0.038182967511394834,0.051552466562645206,-0.004644690228170958
1681412404864221200,0.16822119140625,0.05227576941251755,0.061950623989105225,-0.21991905570030212,0.10394744575023651,-0.07636339217424393,-0.9916468858718872,-0.027790822088718414,0.02449876070022583,0.009148716926574707,0.9978930537388967,0.03856048765428264,0.05186175927432654,-0.005737328902137911
1681412404874197000,0.178197021484375,0.01013151090592146,0.06978431344032288,-0.21722713112831116,0.103514663875103,-0.07745437324047089,-0.9916075468063354,-0.0167531818151474,-0.0036460980772972107,0.02127063274383545,0.9978765754331698,0.039159813145386135,0.051601693010608206,-0.006772532391500466
1681412404884173800,0.188173828125,0.0017355629242956638,0.07806764543056488,-0.20468860864639282,0.10300813615322113,-0.07811477780342102,-0.9916085004806519,-0.012187816202640533,-0.014094091951847076,0.026398539543151855,0.9978696886940224,0.03953976430343356,0.05130653487347836,-0.007760094585101551
1681412404894150100,0.198150146484375,0.011628140695393085,0.0693010538816452,-0.20424093306064606,0.10215872526168823,-0.07854017615318298,-0.9916627407073975,-0.011338412761688232,0.0014985576272010803,0.027490437030792236,0.9978754867081624,0.03979762652500173,0.05084060939515859,-0.00871323454822853
1681412404904126000,0.2081259765625,0.034886159002780914,0.06835190206766129,-0.2079656422138214,0.10182271897792816,-0.07831734418869019,-0.9917149543762207,-0.004624225199222565,0.01677864044904709,0.029648303985595703,0.9978791565730599,0.03973521375751865,0.050632422110855425,-0.009722412519926867
1681412404914103000,0.21810302734375,0.08200227469205856,0.06168920546770096,-0.2071664184331894,0.10192018747329712,-0.07754595577716827,-0.991765558719635,0.0015191510319709778,0.029908016324043274,0.02933269739151001,0.9978810868860599,0.039401613931730584,0.05064326730530807,-0.010764442391820603
1681412404924078800,0.228078857421875,0.1326940804719925,0.052199456840753555,-0.2107979655265808,0.10208508372306824,-0.07644980400800705,-0.9918336868286133,0.007396727800369263,0.04288046807050705,0.02285480499267578,0.9978858329289528,0.03890808725372366,0.050688440016700684,-0.011855303468467401
1681412404934055200,0.23805517578125,0.20666258037090302,0.04681481420993805,-0.2099180668592453,0.10201268643140793,-0.07606232911348343,-0.9918709397315979,0.01845546066761017,0.05686676502227783,0.0134621262550354,0.9978814163346756,0.03876938826595426,0.05061098810224621,-0.012963317547415719
1681412404944031000,0.248031005859375,0.24499185383319855,0.03518068790435791,-0.2261379212141037,0.10169243067502975,-0.07726313173770905,-0.9918109774589539,0.025398023426532745,0.07140375673770905,0.008961915969848633,0.9978510209429309,0.03942675952736574,0.05039872490050944,-0.014096931828192497
1681412404954006800,0.2580068359375,0.23455439507961273,0.03796182572841644,-0.22094875574111938,0.10174598544836044,-0.07965908199548721,-0.9916159510612488,0.028808221220970154,0.07852992415428162,-0.0038216710090637207,0.9977849124817513,0.0406884596601721,0.0503634475185749,-0.015264880684138046
1681412404963984100,0.267984130859375,0.18636593222618103,0.03965011239051819,-0.1861208826303482,0.10193351656198502,-0.08217339217662811,-0.9913914799690247,0.02364632487297058,0.07014946639537811,-0.006868958473205566,0.9977122439014092,0.04200458097878193,0.05039711622417322,-0.01630627462218884
1681412404973960000,0.2779599609375,0.13820691406726837,0.01943165808916092,-0.15342818200588226,0.10197757184505463,-0.08347099274396896,-0.9912785291671753,0.020764127373695374,0.03845757246017456,-0.008065283298492432,0.9976694450240328,0.04269996133537263,0.05037298602648787,-0.017170905571628963
1681412404983936000,0.28793603515625,0.033553045243024826,0.01363129448145628,-0.1560990810394287,0.10212219506502151,-0.0833188071846962,-0.9912764430046082,0.030934453010559082,0.0061245933175086975,-0.00503087043762207,0.9976543424614644,0.04266662725534529,0.0504115704209248,-0.017994727476406777
1681412404993912000,0.297912109375,0.0015719449147582054,-0.02413472719490528,-0.14911015331745148,0.10233716666698456,-0.0820988267660141,-0.9913560748100281,0.04507800191640854,-0.009850636124610901,-0.0004957318305969238,0.9976594764287177,0.04209726371050492,0.050495335380949524,-0.018800133396418794
1681412405003889200,0.30788916015625,-0.07890985161066055,-0.03806108981370926,-0.2045935094356537,0.10245227813720703,-0.08010740578174591,-0.9915071129798889,0.052836425602436066,-0.025590233504772186,0.005285799503326416,0.9976797607831615,0.041145251867609534,0.05053234019601215,-0.01971178677374392
1681412405013865000,0.317864990234375,-0.12807738780975342,-0.03572016954421997,-0.23509736359119415,0.10277543216943741,-0.07732798159122467,-0.9916943311691284,0.06285873800516129,-0.036304228007793427,0.004832148551940918,0.9977031417115887,0.039812975216683276,0.0506732136420309,-0.020869830715706212
1681412405023841000,0.327841064453125,-0.16118231415748596,-0.025457732379436493,-0.2202438861131668,0.10322657972574234,-0.07408730685710907,-0.9918948411941528,0.05897435545921326,-0.03586753457784653,0.019055485725402832,0.9977284493331952,0.03825162205387206,0.05088615597574227,-0.02203108190222041
1681412405033817000,0.337817138671875,-0.16382524371147156,-0.001214178279042244,-0.16570554673671722,0.10380154848098755,-0.07080282270908356,-0.9920746684074402,0.04977816343307495,-0.03507791459560394,0.02755141258239746,0.997751498324253,0.03666086768532126,0.05117259664315249,-0.023001037665454773
1681412405043794000,0.3477939453125,-0.1241585835814476,0.006128263659775257,-0.13055890798568726,0.10433921962976456,-0.06804463267326355,-0.9922112822532654,0.05183448642492294,-0.029871024191379547,0.03908628225326538,0.9977686445806059,0.0353220991426733,0.05144610887838734,-0.023732925893342038
1681412405053770000,0.35777001953125,-0.01824120804667473,-0.0014867791905999184,-0.10734600573778152,0.10477417707443237,-0.06675299257040024,-0.9922531843185425,0.06324035674333572,-0.01652948558330536,0.05457007884979248,0.997764915786527,0.034710626580420234,0.051658238301680044,-0.02432424533616881
1681412405063746000,0.36774609375,0.08800221234560013,0.004710663575679064,-0.06723290681838989,0.10536537319421768,-0.06719941645860672,-0.992160439491272,0.07236900180578232,0.01040620356798172,0.06543320417404175,0.9977308026883734,0.03496520124739795,0.05193462918924801,-0.02476479147252755
1681412405073721900,0.377721923828125,0.14293895661830902,0.03055264800786972,-0.029742522165179253,0.10631115734577179,-0.06876569241285324,-0.9919522404670715,0.06344287842512131,0.038965269923210144,0.05921298265457153,0.9976719208765832,0.03577758253793771,0.05238178861383918,-0.02503626965603937
1681412405083699000,0.387698974609375,0.10633783787488937,0.034527361392974854,0.022295862436294556,0.10764116793870926,-0.07064647972583771,-0.9916765689849854,0.04076582193374634,0.04083080589771271,0.05214720964431763,0.9976035750039843,0.036737471356333734,0.05302889993020369,-0.02500886789106558
1681412405093675000,0.397675048828125,0.007115647662431002,0.05765797942876816,-0.02913190983235836,0.10917127877473831,-0.0720929428935051,-0.991405189037323,0.018148064613342285,0.0023145005106925964,0.0451924204826355,0.9975339884762117,0.03748701549073442,0.05377854670488565,-0.025067595825659414
1681412405103651000,0.407651123046875,-0.11488532274961472,0.056133002042770386,0.0035170642659068108,0.11078397929668427,-0.07228011637926102,-0.9912126660346985,0.018854700028896332,-0.05302506685256958,0.050859272480010986,0.9974848143272848,0.03760494943325858,0.05458524782060318,-0.02510399353894384
1681412405113627000,0.417626953125,-0.2367641031742096,0.05153132602572441,0.03121393918991089,0.11208226531744003,-0.07117479294538498,-0.9911466836929321,0.009331919252872467,-0.09772475063800812,0.06153547763824463,0.997471837206558,0.03706043891573368,0.05525569048082201,-0.024962982985101224
1681412405123604000,0.42760400390625,-0.3548823297023773,0.04930130019783974,0.07601769268512726,0.11326715350151062,-0.06875378638505936,-0.9911828637123108,0.01957586407661438,-0.11648792028427124,0.07411438226699829,0.9974897914399458,0.03584201496679749,0.05589203096282078,-0.024603733441611427
1681412405133580000,0.437580078125,-0.48136571049690247,0.034068018198013306,0.14019402861595154,0.11430548876523972,-0.06497230380773544,-0.9913187623023987,0.03285028040409088,-0.13763390481472015,0.08091837167739868,0.9975397624372206,0.033922282926566176,0.05647925919648598,-0.02394994499708864
1681412405143555800,0.447555908203125,-0.6375178098678589,0.02297547459602356,0.2423475980758667,0.11512892693281174,-0.0596383735537529,-0.9915586709976196,0.04803330451250076,-0.1547018438577652,0.08746016025543213,0.997625310490814,0.031196297523665636,0.056986467713121346,-0.022865587256451877
1681412405153532000,0.457531982421875,-0.8651477694511414,0.0005383426323533058,0.4240577518939972,0.11555872857570648,-0.05247217044234276,-0.9919137358665466,0.06968297809362411,-0.17102332413196564,0.09770292043685913,0.9977555445150622,0.02750129655973101,0.057330735571740205,-0.020991984714833607
1681412405163509000,0.467509033203125,-1.2440987825393677,-0.025248833000659943,0.5475987792015076,0.11518919467926025,-0.04267964884638786,-0.9924262762069702,0.10131777077913284,-0.20011821389198303,0.12880933284759521,0.9979371875423702,0.022433994816034194,0.05730254968251408,-0.018287040631279967
1681412405173485000,0.477485107421875,-1.7026197910308838,-0.07034467160701752,0.7561344504356384,0.11445971578359604,-0.02889375388622284,-0.9930076003074646,0.15130260586738586,-0.26180145144462585,0.18754196166992188,0.9981429114756293,0.015311707855475965,0.05711167902192168,-0.014644914944327736
1681412405183460900,0.4874609375,-2.2166943550109863,-0.09331012517213821,0.9790075421333313,0.1134704127907753,-0.010497757233679295,-0.9934859275817871,0.1877380907535553,-0.3136904835700989,0.2627120018005371,0.9983224047481479,0.005812977482613437,0.0567736900524984,-0.009764154476680092
1681412405193437200,0.497437255859375,-2.747507095336914,-0.12581665813922882,1.1960053443908691,0.11239180713891983,0.012885629199445248,-0.9935804009437561,0.22145524621009827,-0.3513408601284027,0.3263746500015259,0.9983870427585209,-0.00624733030279585,0.05630953376364301,-0.003650552442362165
1681412405203414000,0.5074140625,-3.2460274696350098,-0.15639561414718628,1.4741283655166626,0.11134885251522064,0.04111703485250473,-0.9929304122924805,0.24669863283634186,-0.3783515691757202,0.38140392303466797,0.9982237232340528,-0.020808052233493076,0.05569393486940641,0.0038168128205474387
1681412405213389800,0.517389892578125,-3.7085094451904297,-0.19126544892787933,1.807725191116333,0.1105712503194809,0.07372453063726425,-0.991129994392395,0.2651153802871704,-0.37709981203079224,0.4291335344314575,0.9976957133785321,-0.0376616137477252,0.05492357333235054,0.012973772299110965
1681412405223366100,0.5273662109375,-4.149506092071533,-0.23545368015766144,2.078463554382324,0.11027170717716217,0.11037266999483109,-0.9877540469169617,0.2946507930755615,-0.3680173456668854,0.46912306547164917,0.9966499773791797,-0.05665963656426026,0.0539691777601921,0.023781921443733894
1681412405233342000,0.537342041015625,-4.581631183624268,-0.281081885099411,2.3364205360412598,0.1105918362736702,0.1508587896823883,-0.9823497533798218,0.3326912522315979,-0.3746442198753357,0.5065349340438843,0.9949268748678152,-0.07772278025256377,0.05276632110938594,0.035990551909399884
1681412405243319000,0.547319091796875,-4.999381065368652,-0.31930091977119446,2.6126604080200195,0.11189465969800949,0.19488117098808289,-0.974423348903656,0.3607921004295349,-0.39878442883491516,0.5448427200317383,0.9923444665015497,-0.10076035160898836,0.051338733798761624,0.049638769268409114
1681412405253294800,0.557294921875,-5.4152512550354,-0.3475179076194763,2.8816184997558594,0.11467836797237396,0.24210946261882782,-0.9634479284286499,0.37555599212646484,-0.4211561679840088,0.5926593542098999,0.9887039765162465,-0.12569529842283708,0.049766851511208354,0.06471601566885853
1681412405263271200,0.567271240234375,-5.810311317443848,-0.38137808442115784,3.1364872455596924,0.11923254281282425,0.29215365648269653,-0.9489098191261292,0.39448511600494385,-0.4361356496810913,0.6258202195167542,0.9838041368421727,-0.15244262110959378,0.048024382976544,0.08114321034988571
1681412405273247000,0.5772470703125,-6.197983741760254,-0.43018290400505066,3.377852201461792,0.12580010294914246,0.3444576561450958,-0.9303350448608398,0.41854190826416016,-0.450719952583313,0.6663427352905273,0.9774464829212451,-0.18086020762784313,0.04606600298116256,0.09882216117344846
1681412405283223800,0.587223876953125,-6.559018611907959,-0.5119776725769043,3.6127986907958984,0.13446535170078278,0.3984060287475586,-0.9072991013526917,0.4530133008956909,-0.45277318358421326,0.6976585984230042,0.9694315108451746,-0.21079715083232214,0.043760863829017116,0.11769377460426349
1681412405293200100,0.5972001953125,-6.888747215270996,-0.6214780807495117,3.8286309242248535,0.14524738490581512,0.4531922936439514,-0.8794997930526733,0.4928751587867737,-0.4434267580509186,0.7225478887557983,0.9595826469660182,-0.2420168485249046,0.04096266786396654,0.13766244235139308
1681412405303176000,0.607176025390625,-7.1765265464782715,-0.7573134899139404,4.06505012512207,0.15825548768043518,0.5078204870223999,-0.8468019366264343,0.5327540636062622,-0.4231342673301697,0.7395479083061218,0.9477435717335859,-0.27420235159548545,0.037577799425438534,0.1586916460821478
1681412405313152000,0.617152099609375,-7.387540817260742,-0.9118841290473938,4.309751033782959,0.17370666563510895,0.561112105846405,-0.8093078136444092,0.5651086568832397,-0.3968666195869446,0.7470366954803467,0.9337815768596005,-0.3069519695787497,0.03356442315505977,0.18084748172651996
1681412405323128000,0.627128173828125,-7.522812843322754,-1.0988082885742188,4.536066055297852,0.191736102104187,0.6117357015609741,-0.7674741744995117,0.595037579536438,-0.36724424362182617,0.7329587340354919,0.9176572126511321,-0.33974486325022724,0.028919658663476552,0.20406407186712539
1681412405333105200,0.637105224609375,-7.594784259796143,-1.3296377658843994,4.7594075202941895,0.21225258708000183,0.6585632562637329,-0.7219717502593994,0.6229066848754883,-0.34244704246520996,0.6969473361968994,0.8993758373203083,-0.3721011302150905,0.023555720457821533,0.2282735506746453
1681412405343081000,0.6470810546875,-7.605945110321045,-1.5976791381835938,4.972703456878662,0.23508836328983307,0.7006440162658691,-0.6736700534820557,0.6535377502441406,-0.3223940134048462,0.6427709460258484,0.878967568772849,-0.4035640731714568,0.017349534336091075,0.25347772617177783
1681412405353057000,0.65705712890625,-7.504059791564941,-1.8600447177886963,5.165348052978516,0.26030346751213074,0.7370545864105225,-0.6236926913261414,0.6821708679199219,-0.288293719291687,0.6000110507011414,0.8565541350371358,-0.4336418704555181,0.01041034814247565,0.27957332777888927
1681412405363033000,0.667033203125,-7.285715579986572,-2.083866834640503,5.327259540557861,0.28791362047195435,0.7669159173965454,-0.5735377669334412,0.6989485025405884,-0.24268507957458496,0.5625056028366089,0.8324183583264346,-0.46175980173712394,0.0030010585235452952,0.30634688070239163
1681412405373010000,0.677010009765625,-6.9553985595703125,-2.2593555450439453,5.471693515777588,0.3179798424243927,0.7896384596824646,-0.5247472524642944,0.6955546736717224,-0.19120419025421143,0.5188115239143372,0.8069162513268908,-0.48744890926770434,-0.004463399146216747,0.3335560172756496
1681412405382986000,0.686986083984375,-6.696963310241699,-2.5659725666046143,5.422496318817139,0.3497876226902008,0.8053572773933411,-0.4785897135734558,0.679539680480957,-0.12353372573852539,0.47457656264305115,0.7803975175154337,-0.510452453603949,-0.011976688800243421,0.3609354633502107
1681412405392962000,0.696962158203125,-6.145174980163574,-2.4506945610046387,5.40662956237793,0.3810693025588989,0.8155702352523804,-0.4354666769504547,0.6638372540473938,-0.024341106414794922,0.42840176820755005,0.7533927696480914,-0.5309057756353847,-0.02014234254132704,0.38746941571146093
1681412405402937900,0.706937744140625,-5.559287071228027,-2.5543212890625,5.880063056945801,0.41686028242111206,0.8173523545265198,-0.3976966440677643,0.6181128025054932,0.07429492473602295,0.4246130585670471,0.7260028387521263,-0.5481644262686319,-0.02583485470413088,0.41444921411664104
1681412405412915000,0.7169150390625,-4.90654182434082,-2.4817793369293213,6.175765037536621,0.4563593566417694,0.810978889465332,-0.36612749099731445,0.5666356086730957,0.14062011241912842,0.3861011266708374,0.6982622854098763,-0.5622122986391827,-0.02921610634815784,0.4421464754535314
1681412405422891000,0.72689111328125,-4.35037088394165,-2.4229044914245605,6.361365795135498,0.4980713725090027,0.7973653674125671,-0.34078291058540344,0.6690122485160828,0.25784069299697876,0.29572364687919617,0.6705351292406663,-0.5733131633321665,-0.03034075468170167,0.46986577380719047
1681412405432867000,0.7368671875,-3.9558067321777344,-2.2462081909179688,6.52808141708374,0.5410028100013733,0.777624785900116,-0.3203364610671997,0.6083959341049194,0.2681819796562195,0.34079837799072266,0.6426895097557677,-0.5822071533158112,-0.029438076787693623,0.4971098902374763
1681412405442843000,0.7468427734375,-3.6430768966674805,-1.9620296955108643,6.746077060699463,0.5851030945777893,0.7521504163742065,-0.3031899929046631,0.5494031310081482,0.24476730823516846,0.31237563490867615,0.6143974102777466,-0.5896710679428618,-0.026325438447655496,0.5235559866543772
1681412405452820000,0.756820068359375,-3.464747428894043,-1.607442021369934,6.939574718475342,0.6302049160003662,0.7210484743118286,-0.2879767417907715,0.4948713183403015,0.20534294843673706,0.30613458156585693,0.5853825379440103,-0.5963017667914001,-0.02087656548743947,0.5489221205345115
1681412405462796000,0.766796142578125,-3.433976888656616,-1.2869027853012085,7.012114524841309,0.6751627922058105,0.6852092742919922,-0.2732093036174774,0.4618762731552124,0.16838258504867554,0.24955809116363525,0.5554131303961706,-0.6026659901750849,-0.013749625357179085,0.5728183304249403
1681412405472771800,0.776771728515625,-3.3912034034729004,-1.0197924375534058,7.035925388336182,0.7187671065330505,0.6454055905342102,-0.25850552320480347,0.4726542830467224,0.20766741037368774,0.1906801164150238,0.5245628878642439,-0.6088646783614051,-0.0055709251959020515,0.5950515016377986
1681412405482748000,0.786747802734375,-3.282228946685791,-0.8082987666130066,7.072310924530029,0.7603810429573059,0.6017164587974548,-0.24445432424545288,0.5307260751724243,0.3235917091369629,0.15053635835647583,0.49306625587030556,-0.6146219739118307,0.0035586508271921186,0.615721338934596
1681412405492725000,0.79672509765625,-3.2381975650787354,-0.6630555391311646,7.106068134307861,0.7995561361312866,0.5542301535606384,-0.23138415813446045,0.623051106929779,0.4173120856285095,0.10202004015445709,0.4609559766612591,-0.6197786190898139,0.013505081101681393,0.6349893388669305
1681412405502701000,0.806701171875,-3.3141767978668213,-0.5336692929267883,7.087205410003662,0.8357076048851013,0.503613293170929,-0.2190120965242386,0.7113198637962341,0.42932426929473877,0.07124584913253784,0.42804025033465265,-0.6244451524976099,0.02371088739045271,0.6529069618492539
1681412405512676900,0.8166767578125,-3.431276559829712,-0.41154658794403076,6.973659515380859,0.8682225346565247,0.45095327496528625,-0.20695559680461884,0.7657342553138733,0.39638248085975647,0.07600456476211548,0.3943530042116996,-0.6288026197174844,0.03360757090902107,0.6693006867511193
1681412405522653200,0.826653076171875,-3.4368796348571777,-0.33210933208465576,6.829837799072266,0.8966987729072571,0.3970722556114197,-0.19561408460140228,0.7954398989677429,0.3653331398963928,0.09746941924095154,0.36027241694600143,-0.6327272751629964,0.04300174324238868,0.6841131497102381
1681412405532630000,0.836630126953125,-3.189342975616455,-0.31237557530403137,6.691164493560791,0.9210377335548401,0.34207987785339355,-0.1862003356218338,0.8262307643890381,0.35822218656539917,0.12147243320941925,0.32650097826229396,-0.6357336064416509,0.05236995680620343,0.6974934453597914
1681412405542605800,0.846605712890625,-2.633303642272949,-0.36047691106796265,6.560100555419922,0.941195011138916,0.2858545184135437,-0.18010786175727844,0.8786290287971497,0.41063281893730164,0.1376425176858902,0.2940426779789981,-0.6372008696958693,0.06261882710719424,0.7096426380951841
1681412405552582100,0.85658203125,-1.8437665700912476,-0.4007524251937866,6.422664165496826,0.9571833610534668,0.22833609580993652,-0.17793944478034973,0.9368289709091187,0.532634973526001,0.12227523326873779,0.26385330470861906,-0.6367485897474547,0.07470952267329257,0.7206601215862216
1681412405562558000,0.866557861328125,-0.9322004318237305,-0.40787920355796814,6.243783950805664,0.9690548777580261,0.1698978990316391,-0.17907293140888214,0.9807740449905396,0.6887904405593872,0.09353204071521759,0.23666798728125565,-0.6344256198363817,0.08926179375944396,0.7304276544161636
1681412405572535000,0.87653515625,0.07028236240148544,-0.3532750606536865,6.019377708435059,0.9769757390022278,0.1110658347606659,-0.18216077983379364,0.9874863624572754,0.8484220504760742,0.07550175487995148,0.2129877980152054,-0.6305178332648882,0.10661553281520249,0.7387262164349716
1681412405582510800,0.8865107421875,1.117166519165039,-0.2684822082519531,5.719644069671631,0.9812102913856506,0.0525377131998539,-0.18565018475055695,0.9452574253082275,1.0051100254058838,0.0524103045463562,0.19327640015992997,-0.6253518811303461,0.12692492229290742,0.7452980972262908
1681412405592487200,0.896487060546875,2.085603713989258,-0.17424997687339783,5.355381488800049,0.9821246862411499,-0.004788181744515896,-0.18816998600959778,0.8667521476745605,1.1523253917694092,0.02316129207611084,0.17773885710801393,-0.6192199443971212,0.149938882945836,0.7499958235832859
1681412405602463000,0.906462890625,2.894688367843628,0.0009352061897516251,4.9419660568237305,0.9802848100662231,-0.05996928736567497,-0.18826882541179657,0.7712714076042175,1.2805198431015015,-0.0036715716123580933,0.166186095953744,-0.6125447996551641,0.1750841292695471,0.7526728585550392
1681412405612439800,0.916439697265625,3.4629456996917725,0.2998577356338501,4.488776683807373,0.9765004515647888,-0.11204611510038376,-0.18409942090511322,0.6557016968727112,1.3866127729415894,0.032991454005241394,0.15800770801291109,-0.6060714298065935,0.20156317786058436,0.7530493246745303
1681412405622416100,0.926416015625,3.7999088764190674,0.650102436542511,4.00886869430542,0.9715799689292908,-0.1599590927362442,-0.17448586225509644,0.5032886862754822,1.428117036819458,0.13415676355361938,0.15249643623530157,-0.600479642753552,0.22843219625607208,0.7509911291908563
1681412405632392000,0.936391845703125,3.8984687328338623,0.9606932997703552,3.513674259185791,0.9661274552345276,-0.20281650125980377,-0.15957136452198029,0.34296971559524536,1.4000515937805176,0.21798187494277954,0.148970457757024,-0.5960951352910736,0.254725153945358,0.7467217493027174
1681412405642368000,0.946367919921875,3.779097080230713,1.173609972000122,3.01177716255188,0.960560142993927,-0.23988355696201324,-0.14064115285873413,0.21952396631240845,1.322616696357727,0.2548835873603821,0.14686513417273953,-0.5929391480730464,0.27946840247508503,0.7407773704118864
1681412405652344800,0.9563447265625,3.5341591835021973,1.2784596681594849,2.5123484134674072,0.955165445804596,-0.2708970010280609,-0.11947241425514221,0.1511881947517395,1.2279587984085083,0.24332785606384277,0.14576701727972208,-0.5908402368762526,0.30194636781646905,0.7338174834637492
1681412405662321200,0.966321044921875,3.244148015975952,1.299052119255066,2.0786314010620117,0.9501165151596069,-0.29624560475349426,-0.09755412489175797,0.13133472204208374,1.1363030672073364,0.18887782096862793,0.14542204501859413,-0.589552818896092,0.32194783840065444,0.7263809749334313
1681412405672297000,0.976296875,2.9392240047454834,1.2668070793151855,1.7363022565841675,0.9454416036605835,-0.31682491302490234,-0.07590749859809875,0.14962047338485718,1.0490636825561523,0.09701025485992432,0.14556107101446578,-0.5888301706876243,0.3395957591142838,0.7188641358632396
1681412405682273000,0.98627294921875,2.599452257156372,1.1556872129440308,1.431641697883606,0.941132664680481,-0.3334541916847229,-0.055474914610385895,0.1874072551727295,0.9682809114456177,-0.007437229156494141,0.14598366085052364,-0.5884226504421942,0.35499482794046266,0.7116362717958865
1681412405692250000,0.99625,2.178837776184082,1.0380237102508545,1.1289963722229004,0.9373229742050171,-0.3464849591255188,-0.03706333786249161,0.22130727767944336,0.9041174650192261,-0.11581462621688843,0.14653086457906528,-0.5882625303054703,0.36798848568687026,0.7050250422940243
1681412405702226000,1.006225830078125,1.6801083087921143,0.9289968609809875,0.8358851075172424,0.9342017769813538,-0.3561217486858368,-0.02107929065823555,0.22055286169052124,0.8501403331756592,-0.21814817190170288,0.1469696295880197,-0.5884892271247927,0.37833950879835415,0.699242128662433
1681412405712202000,1.016201904296875,1.068261742591858,0.837575376033783,0.5769715309143066,0.9318374991416931,-0.3627893328666687,-0.007903805002570152,0.17959725856781006,0.8052637577056885,-0.31549108028411865,0.1469230786229008,-0.5892256297326945,0.3858254200529521,0.6945252862958254
1681412405722178000,1.026177978515625,0.40152302384376526,0.7369818091392517,0.35175466537475586,0.9302112460136414,-0.3670181632041931,0.0021026816684752703,0.12313336133956909,0.7602677345275879,-0.3828706741333008,0.14599407665582295,-0.5905385161004567,0.39027631466974677,0.6911108625656939
1681412405732155100,1.036155029296875,-0.2510177493095398,0.6309803128242493,0.16586095094680786,0.9292651414871216,-0.3693108856678009,0.00870655756443739,0.07624328136444092,0.7187066674232483,-0.4179016351699829,0.1440170859605559,-0.5923586077937354,0.3917455277271073,0.6891340980656019
1681412405742131000,1.046130859375,-0.8234283328056335,0.5180420875549316,0.011107290163636208,0.9289073944091797,-0.3701167404651642,0.012012488208711147,0.052156269550323486,0.6953731775283813,-0.4305918216705322,0.1410048811893791,-0.5945600825101122,0.3905183126677136,0.6885573409254965
1681412405752107000,1.05610693359375,-1.2166807651519775,0.40616610646247864,-0.11529511958360672,0.9290789365768433,-0.36967071890830994,0.012473423033952713,0.04443162679672241,0.7035483717918396,-0.42919111251831055,0.13725192388718754,-0.5969815097785013,0.38710436394413994,0.6891480676777837
1681412405762083000,1.0660830078125,-1.4157048463821411,0.3243243992328644,-0.23343408107757568,0.929701566696167,-0.3681508004665375,0.010938204824924469,0.04623514413833618,0.7640858888626099,-0.4210488796234131,0.13320879555465762,-0.5994725972374043,0.3822325307424683,0.6904970144162782
1681412405772060000,1.076059814453125,-1.4120030403137207,0.2681705951690674,-0.36180830001831055,0.9307877421379089,-0.3654615879058838,0.008455551229417324,0.04563719034194946,0.8538802862167358,-0.4122490882873535,0.12942466361484417,-0.6020016703316177,0.3765923053985421,0.6921135984901965
1681412405782036000,1.086035888671875,-1.2913566827774048,0.23752319812774658,-0.5048726201057434,0.9323641061782837,-0.36147329211235046,0.005845201667398214,0.03283059597015381,0.9445421695709229,-0.409470796585083,0.12640188618936735,-0.604543313094634,0.3707424759310034,0.6936136864483338
1681412405792013000,1.096012939453125,-1.063745141029358,0.2276335507631302,-0.6567172408103943,0.9344486594200134,-0.3560775816440582,0.003763362765312195,0.008361279964447021,1.013441562652588,-0.4094184637069702,0.12441929718272493,-0.6071638385392044,0.3650119923524483,0.6947215217220117
1681412405801989000,1.105989013671875,-0.7456899881362915,0.2467026263475418,-0.8485441207885742,0.9370936751365662,-0.34906673431396484,0.002735243644565344,-0.02342808246612549,1.0490331649780273,-0.4048044681549072,0.123861088806329,-0.6098918007311139,0.35972157742576266,0.6951910720962682
1681412405811966000,1.115966064453125,-0.3990447223186493,0.305553674697876,-1.0758717060089111,0.9404058456420898,-0.34003737568855286,0.003316462505608797,-0.051642656326293945,1.0369826555252075,-0.40030455589294434,0.12496080615520887,-0.6129216337142136,0.35494408315828124,0.6947851312996911
1681412405821942000,1.12594189453125,0.03490406647324562,0.39913874864578247,-1.3188852071762085,0.9444032907485962,-0.3287350833415985,0.005955484230071306,-0.07285189628601074,0.9949033260345459,-0.37856006622314453,0.12792553987747757,-0.6163668515663946,0.3508128368353634,0.6932944809417089
1681412405831918000,1.13591796875,0.582682728767395,0.5286232233047485,-1.563706398010254,0.9490098357200623,-0.315043568611145,0.011284410953521729,-0.07372021675109863,0.9830734729766846,-0.34639811515808105,0.13305055710070932,-0.6202815143756965,0.3476967763429747,0.6904021236979244
1681412405841894000,1.145893798828125,1.185078740119934,0.6260206699371338,-1.8011152744293213,0.9540919661521912,-0.29887843132019043,0.019498271867632866,-0.017949998378753662,0.9961593151092529,-0.32568132877349854,0.14058627082858854,-0.6245910929205052,0.3458830766894961,0.6859200964305854
1681412405851871000,1.15587109375,1.7650761604309082,0.6227127313613892,-1.9421275854110718,0.9593837261199951,-0.28052452206611633,0.029808256775140762,0.11596399545669556,1.023948073387146,-0.3418658971786499,0.15054061345410027,-0.6289212953261638,0.3454882526028168,0.6800244524173175
1681412405861847000,1.165846923828125,2.239464282989502,0.44418826699256897,-1.9552189111709595,0.9644982218742371,-0.260974645614624,0.04043581709265709,0.3310796022415161,1.0671271085739136,-0.36515820026397705,0.1625575921672574,-0.6325691417685722,0.34651722726203205,0.6733178767711288
1681412405871823000,1.175822998046875,2.5483174324035645,0.09007786959409714,-1.8767086267471313,0.9691921472549438,-0.24136218428611755,0.04909567907452583,0.5906983613967896,1.1024919748306274,-0.36687541007995605,0.17612160003600566,-0.6347758159396625,0.3487226732484106,0.6666581841577106
1681412405881799000,1.185798828125,2.654968500137329,-0.2889794409275055,-1.9083783626556396,0.9736113548278809,-0.2217007577419281,0.05412401258945465,0.8094085454940796,1.0964261293411255,-0.35196053981781006,0.1908373570689114,-0.6353394547079371,0.3512915926909876,0.6606958043146641
1681412405891775200,1.195775146484375,2.57350754737854,-0.5447933673858643,-2.1346216201782227,0.9780954122543335,-0.20063455402851105,0.05544961616396904,0.8763202428817749,1.0185056924819946,-0.3202507495880127,0.20652103028451224,-0.6348678027275768,0.353083107712257,0.6554570974981256
1681412405901752000,1.205751953125,2.4187870025634766,-0.6344942450523376,-2.5343971252441406,0.9828157424926758,-0.17642714083194733,0.05428241938352585,0.7137478590011597,0.8736927509307861,-0.2851938009262085,0.2230904241243124,-0.6343506146015021,0.35318622188652454,0.6504532300927962
1681412405911728000,1.21572802734375,2.260303497314453,-0.6160025596618652,-3.0038650035858154,0.987646222114563,-0.14787159860134125,0.051851119846105576,0.4061828851699829,0.7146135568618774,-0.2576618194580078,0.24058110056712,-0.6344858742679315,0.35121679175807424,0.6451317582902593
1681412405921704000,1.225703857421875,2.1520485877990723,-0.5521767139434814,-3.452092409133911,0.9921898245811462,-0.11473996937274933,0.048924028873443604,0.13538861274719238,0.5796599984169006,-0.23338770866394043,0.258963766714457,-0.635507660118323,0.3472636292794868,0.6391208966912324
1681412405931680000,1.235679931640625,2.1610004901885986,-0.5074989795684814,-3.8180196285247803,0.9959458708763123,-0.07747344672679901,0.04570794850587845,0.0006511807441711426,0.4828842282295227,-0.2058185338973999,0.27829080544579443,-0.6372214641657445,0.34176421669243573,0.6322183213828013
1681412405941657000,1.245656982421875,2.280336618423462,-0.5033676624298096,-4.067628860473633,0.9984322190284729,-0.037095800042152405,0.041912782937288284,0.0076863765716552734,0.4352739155292511,-0.17429816722869873,0.29861359864635295,-0.6391300993469482,0.3353641409315527,0.6243984194746164
1681412405951633000,1.2556328125,2.458164930343628,-0.5157782435417175,-4.2487077713012695,0.9992941617965698,0.005421928595751524,0.03716873377561569,0.13518136739730835,0.4218241572380066,-0.13105618953704834,0.3199238540006469,-0.6407998447812199,0.3285725568212044,0.6156819472604914
1681412405961609200,1.265609130859375,2.654118537902832,-0.5863569378852844,-4.353335857391357,0.9983032941818237,0.04933125898241997,0.030928486958146095,0.33056920766830444,0.4183048605918884,-0.0753927230834961,0.34216547502896344,-0.6418872169194385,0.3216287369771678,0.6061834407194097
1681412405971585000,1.2755849609375,2.836880922317505,-0.6602929830551147,-4.3725199699401855,0.9953464865684509,0.09365992993116379,0.022648418322205544,0.5233606696128845,0.4026168882846832,-0.00482630729675293,0.36511620834688857,-0.6420908547324403,0.314711841468601,0.5961256860936244
1681412405981562000,1.28556201171875,3.0133376121520996,-0.7367095351219177,-4.288793563842773,0.990447461605072,0.13733915984630585,0.012303728610277176,0.6906589269638062,0.37245696783065796,0.08907556533813477,0.38841882116002385,-0.6412850637471313,0.3080670892030643,0.5856438965797868
1681412405991538000,1.295537841796875,3.171639919281006,-0.9236046075820923,-4.089509963989258,0.9838204383850098,0.17915447056293488,-0.0008810527506284416,0.8323720693588257,0.34007155895233154,0.1728169322013855,0.4118278462120647,-0.6390970164715638,0.30185174697630296,0.5751853804399797
1681412406001514000,1.305513916015625,3.298872232437134,-1.172433614730835,-3.8493096828460693,0.9754401445388794,0.21946774423122406,-0.018711620941758156,0.9681174159049988,0.30660945177078247,0.22703969478607178,0.4357358212514268,-0.6350987735350396,0.2954551352894055,0.5652344190370104
1681412406011490000,1.315489990234375,3.3599300384521484,-1.3944767713546753,-3.6621127128601074,0.9661016464233398,0.25515446066856384,-0.039287060499191284,1.0770347118377686,0.2766295373439789,0.26639872789382935,0.4587544836042263,-0.6295189435743352,0.2899351135699226,0.5560464918870157
1681412406021467000,1.325466796875,3.3322246074676514,-1.5625284910202026,-3.534522294998169,0.9555621147155762,0.2880510687828064,-0.06266921758651733,1.0867503881454468,0.23871278762817383,0.2817699909210205,0.4812975855853262,-0.6227228095330356,0.2843970715307131,0.5474368808463055
1681412406031443200,1.335443115234375,3.200888156890869,-1.6851401329040527,-3.434974193572998,0.943763792514801,0.3186841607093811,-0.08803457766771317,1.0117566585540771,0.1934007704257965,0.2815616726875305,0.5031617556406685,-0.6151665300645036,0.2784831258832535,0.5393008511830832
1681412406041419000,1.3454189453125,2.9685347080230713,-1.7845091819763184,-3.3412814140319824,0.930727481842041,0.3472999036312103,-0.11458192765712738,0.9042485952377319,0.1491294801235199,0.281940221786499,0.5240436705797799,-0.6072563043560479,0.2719353150190678,0.5316663802504771
1681412406051394800,1.355394775390625,2.638054132461548,-1.9102647304534912,-3.275808095932007,0.916443407535553,0.37422654032707214,-0.1417243927717209,0.8095696568489075,0.10491463541984558,0.28479063510894775,0.5436887419461985,-0.5993399492545601,0.26444173044113395,0.5246566726556434
1681412406061372200,1.3653720703125,2.2311060428619385,-2.0595383644104004,-3.2539920806884766,0.90074223279953,0.4000661373138428,-0.1691456288099289,0.7494041323661804,0.051929622888565063,0.29295533895492554,0.5620081508940249,-0.5916874727073206,0.2556034418931442,0.5183815935827986
1681412406071348000,1.375347900390625,1.7892919778823853,-2.19907808303833,-3.2699875831604004,0.8834086656570435,0.4254515767097473,-0.19641733169555664,0.7079607844352722,-0.015036046504974365,0.3145049810409546,0.5789698431767542,-0.5845527413973169,0.24513145106038745,0.5128375958300136
1681412406081324000,1.385323974609375,1.3156285285949707,-2.2957282066345215,-3.3101425170898438,0.8643024563789368,0.4509136974811554,-0.22284053266048431,0.6656656861305237,-0.09057751297950745,0.34683334827423096,0.5945442102218006,-0.5781997932777584,0.23294791841720877,0.5078752856615714
1681412406091300000,1.395300048828125,0.8255171775817871,-2.3565518856048584,-3.362016201019287,0.8433805108070374,0.47684091329574585,-0.24765260517597198,0.6024963855743408,-0.174045592546463,0.38365405797958374,0.6086730419371639,-0.5728685472727122,0.21907836178071435,0.5033321373354521
1681412406101277200,1.405277099609375,0.31782418489456177,-2.378199338912964,-3.432743787765503,0.8206228613853455,0.5035979747772217,-0.27012407779693604,0.530573308467865,-0.25965577363967896,0.4240241050720215,0.6212997678072455,-0.568775386596554,0.20354978777300772,0.4990476033960126
1681412406111253000,1.4152529296875,-0.16178901493549347,-2.3685781955718994,-3.520073890686035,0.7960143685340881,0.5314561128616333,-0.28968146443367004,0.4624846577644348,-0.3371507525444031,0.4664544463157654,0.6324520427757923,-0.5660335705571777,0.1864544442848648,0.4948181579502145
1681412406121229000,1.42522900390625,-0.574284553527832,-2.3185479640960693,-3.6025898456573486,0.7696185111999512,0.5604177117347717,-0.30597230792045593,0.398701012134552,-0.4035574793815613,0.49621883034706116,0.6422368650881026,-0.5646078010098108,0.16802344809665598,0.4904261275081284
1681412406131205000,1.435205078125,-0.8833295106887817,-2.2318437099456787,-3.659395217895508,0.7416499257087708,0.5901215076446533,-0.31892290711402893,0.3493838906288147,-0.4554474949836731,0.5171497464179993,0.6508129142558268,-0.5643072326156124,0.14864687731133183,0.48569936320414014
1681412406141182000,1.445181884765625,-1.066314697265625,-2.1242105960845947,-3.712122917175293,0.7123388051986694,0.6200492978096008,-0.3288041651248932,0.3135857582092285,-0.4834985136985779,0.5269699692726135,0.6584410383470747,-0.5648145033317715,0.12877304047223018,0.480476245667577
1681412406151158000,1.455157958984375,-1.123990535736084,-1.9994994401931763,-3.7575368881225586,0.6818126440048218,0.6496938467025757,-0.33619824051856995,0.28950077295303345,-0.48463964462280273,0.528062105178833,0.6654598210838994,-0.5657437768084564,0.10878816075620694,0.47461797500351033
1681412406161134000,1.465134033203125,-1.0839641094207764,-1.872165322303772,-3.788742780685425,0.6502220630645752,0.6785461902618408,-0.3417401909828186,0.27801579236984253,-0.47316300868988037,0.5237316489219666,0.6721677135589352,-0.566746251562362,0.08904264566070208,0.46803913836964445
1681412406171110000,1.47510986328125,-0.9566300511360168,-1.7188732624053955,-3.7851741313934326,0.6178469061851501,0.7060545682907104,-0.34605202078819275,0.2755246162414551,-0.4653167724609375,0.5134408473968506,0.6787749338426299,-0.5675302097850966,0.06988172093863546,0.46074988303883985
1681412406181087000,1.4850869140625,-0.7763303518295288,-1.566361665725708,-3.740917682647705,0.5851114988327026,0.7316835522651672,-0.3496905565261841,0.2831898331642151,-0.46737098693847656,0.5061845779418945,0.6853960427209773,-0.5678810571650188,0.05163166582849357,0.45285470921928117
1681412406191063000,1.49506298828125,-0.5572219491004944,-1.4401283264160156,-3.6744678020477295,0.5523036122322083,0.7550885677337646,-0.3532731533050537,0.305759072303772,-0.4752119779586792,0.49792635440826416,0.692136910673463,-0.5676055884818482,0.034457534673857926,0.44450313750975884
1681412406201039000,1.5050390625,-0.308246374130249,-1.3330875635147095,-3.57238507270813,0.5196654200553894,0.7760297656059265,-0.3573869466781616,0.3425323963165283,-0.48498380184173584,0.48992466926574707,0.6990599298551202,-0.5665396285242236,0.018422262565318582,0.4358996887548959
1681412406211015000,1.515014892578125,-0.05709988996386528,-1.2273679971694946,-3.4460337162017822,0.487521767616272,0.7943402528762817,-0.3624168932437897,0.39544326066970825,-0.494428813457489,0.4821372628211975,0.7061842376491314,-0.5646047149072786,0.0036160631947984422,0.42721443002628584
1681412406220992000,1.524991943359375,0.17003455758094788,-1.1189690828323364,-3.288804769515991,0.4562436640262604,0.8100019693374634,-0.36842668056488037,0.4633118808269501,-0.4980972409248352,0.4753144085407257,0.7134507157743972,-0.5618619316031664,-0.009891240322811079,0.4185703563388241
1681412406230968000,1.534968017578125,0.3337630331516266,-1.0321236848831177,-3.089576244354248,0.4262198209762573,0.8231140375137329,-0.3752593994140625,0.5369759202003479,-0.49828511476516724,0.46604910492897034,0.7206881476310658,-0.5584624126574295,-0.022136710770459783,0.4101682880153369
1681412406240943900,1.54494384765625,0.43599560856819153,-0.9643002152442932,-2.8498423099517822,0.3978545665740967,0.833869993686676,-0.38258668780326843,0.6212341785430908,-0.5022507309913635,0.482333242893219,0.7276559370890152,-0.5546198150033166,-0.033219115470476984,0.40225639062385066
1681412406250920000,1.554919921875,0.47359228134155273,-0.9119608402252197,-2.5879030227661133,0.37145811319351196,0.8425533175468445,-0.39002910256385803,0.7120379209518433,-0.5139554142951965,0.5210714936256409,0.7341572345647486,-0.5505596096421883,-0.04323844931701394,0.3950033232063062
1681412406260897000,1.56489697265625,0.457351952791214,-0.8459821343421936,-2.3008129596710205,0.34732142090797424,0.8494986295700073,-0.39713937044143677,0.7919912338256836,-0.5396538376808167,0.5516192317008972,0.7400157150717368,-0.5465332768550782,-0.05226555326420052,0.3885180576362671
1681412406270873000,1.574873046875,0.41917768120765686,-0.7449010610580444,-1.975406289100647,0.32589098811149597,0.8549452424049377,-0.4035636782646179,0.8534607887268066,-0.5676833987236023,0.5709066987037659,0.745113012429848,-0.5427643454858565,-0.060208247780022525,0.38286863225625967
1681412406280849000,1.584848876953125,0.37353503704071045,-0.6384247541427612,-1.6161694526672363,0.3076711893081665,0.8590319752693176,-0.4091483950614929,0.9016488790512085,-0.5900959372520447,0.5855094194412231,0.7493827241687349,-0.5393971079780809,-0.06690706217736338,0.3781529107309584
1681412406290825200,1.5948251953125,0.3382018208503723,-0.5437973141670227,-1.2390305995941162,0.29295074939727783,0.8618566989898682,-0.4139839708805084,0.9341000318527222,-0.5971626043319702,0.5803199410438538,0.7528211191741753,-0.5364522604539292,-0.07229792605297618,0.37450261763997655
1681412406300802000,1.604802001953125,0.29426634311676025,-0.46447446942329407,-0.8571300506591797,0.28180497884750366,0.8635624051094055,-0.4181455075740814,0.9613742828369141,-0.5968847274780273,0.5656216144561768,0.7554332466615381,-0.5339359615176652,-0.07641746016059767,0.3720123653565176
1681412406310778000,1.614778076171875,0.2624838948249817,-0.3749251365661621,-0.4645228683948517,0.27429503202438354,0.8642482161521912,-0.421707421541214,0.9744231700897217,-0.5970974564552307,0.5504304766654968,0.7572399910249576,-0.5318485199380115,-0.07926814323277712,0.37073061809883406
1681412406320754200,1.624754150390625,0.22014527022838593,-0.25192293524742126,-0.06121978908777237,0.27062535285949707,0.8639557957649231,-0.42466703057289124,0.9596602320671082,-0.5985293388366699,0.5267635583877563,0.7582540937654035,-0.5302336925249359,-0.08073853989219254,0.37065355886915263
1681412406330730000,1.63472998046875,0.17717702686786652,-0.10218963772058487,0.35106152296066284,0.27104005217552185,0.8627491593360901,-0.4268500506877899,0.9179552793502808,-0.6056234836578369,0.49508729577064514,0.7584470549670871,-0.5292100317461149,-0.08069516942898931,0.3717296126952635
1681412406340707000,1.64470703125,0.12744252383708954,0.03278277814388275,0.7497265934944153,0.2755766212940216,0.8606423735618591,-0.42819640040397644,0.855984628200531,-0.6037455201148987,0.4538158178329468,0.757805439509801,-0.5288123617292738,-0.07911568954111049,0.37393719194589276
1681412406350683000,1.654682861328125,0.07064395397901535,0.12120052427053452,1.133201003074646,0.2839965224266052,0.8575934767723083,-0.42881152033805847,0.7906036376953125,-0.5962715744972229,0.4154447317123413,0.7563266004984198,-0.5289574048785937,-0.07614661809927155,0.3773271332708442
1681412406360659200,1.6646591796875,0.010384811088442802,0.19928579032421112,1.4927033185958862,0.2959129810333252,0.8536117076873779,-0.42869871854782104,0.7388617992401123,-0.6014145612716675,0.384615957736969,0.7540034513481604,-0.5295922701896341,-0.07199078510650184,0.3818745166546347
1681412406370635000,1.674635009765625,-0.08619099110364914,0.32284367084503174,1.8415920734405518,0.3111950159072876,0.848709762096405,-0.4276089370250702,0.6880573034286499,-0.6222236752510071,0.362850546836853,0.7507935991454747,-0.5308013363633697,-0.06667437970804503,0.3874447721811592
1681412406380612000,1.684612060546875,-0.22789743542671204,0.4953313171863556,2.190258741378784,0.3299681842327118,0.8429144024848938,-0.4249895513057709,0.6276885867118835,-0.6383705139160156,0.3566301167011261,0.7465754856928112,-0.5328166434555013,-0.06009705631471966,0.3938523499464167
1681412406390588200,1.694588134765625,-0.41483935713768005,0.67317134141922,2.5289008617401123,0.35222429037094116,0.8362158536911011,-0.42033421993255615,0.5624179840087891,-0.6435585618019104,0.37129244208335876,0.7412111854487513,-0.5358192010903136,-0.05225581482891079,0.40096497858185914
1681412406400564000,1.70456396484375,-0.6467910408973694,0.8277369141578674,2.852684497833252,0.37771061062812805,0.8286096453666687,-0.4132078289985657,0.48875969648361206,-0.6591303944587708,0.3904110789299011,0.7345314633784104,-0.5399240391447979,-0.043337304628332136,0.40873882591329647
1681412406410540000,1.7145400390625,-0.872102677822113,1.0235705375671387,3.1372501850128174,0.40614020824432373,0.8199838399887085,-0.40333184599876404,0.41476738452911377,-0.681327223777771,0.4098777174949646,0.726469513922132,-0.5451761118941912,-0.033422875161883935,0.41702268735922454
1681412406420516900,1.724516845703125,-1.0311555862426758,1.230469822883606,3.4137563705444336,0.4372634291648865,0.8099910020828247,-0.3907877504825592,0.34500885009765625,-0.6860744953155518,0.40406280755996704,0.7171215293921139,-0.5514565053639531,-0.02240201750678593,0.42559419136105153
1681412406430493200,1.7344931640625,-1.111314058303833,1.33747398853302,3.703054904937744,0.47077059745788574,0.7979859113693237,-0.37628912925720215,0.2939388155937195,-0.6590089797973633,0.3519970178604126,0.7066124567001909,-0.5583459120520584,-0.010260399691112925,0.43456111632768923
1681412406440469000,1.744468994140625,-1.1218717098236084,1.3092502355575562,3.9680473804473877,0.5059424042701721,0.783402681350708,-0.36097440123558044,0.2967308759689331,-0.613480806350708,0.2948884665966034,0.695086192814368,-0.5652482335382749,0.002689808942509076,0.4442323774902668
1681412406450445000,1.754445068359375,-1.1201858520507812,1.2154276371002197,4.213551044464111,0.5420435667037964,0.7659514546394348,-0.34569764137268066,0.34951210021972656,-0.5521912574768066,0.243112713098526,0.6826737588359683,-0.5717436129299571,0.016137463923818568,0.45475830221626873
1681412406460422100,1.764422119140625,-1.1284329891204834,1.1182678937911987,4.450453758239746,0.578650176525116,0.7455134391784668,-0.3307167887687683,0.4097225069999695,-0.49281275272369385,0.20599135756492615,0.6693679551047457,-0.5777084122622373,0.029909903976732266,0.4661596737241895
1681412406470398000,1.77439794921875,-1.157894253730774,1.0703738927841187,4.659984111785889,0.6155398488044739,0.7220380902290344,-0.3158661723136902,0.4333491921424866,-0.44757843017578125,0.18050536513328552,0.6551280215686961,-0.5832056224467251,0.044024067899621204,0.4782678901044366
1681412406480374000,1.7843740234375,-1.2205286026000977,1.0946674346923828,4.832376956939697,0.6524510979652405,0.6956371068954468,-0.30065983533859253,0.40591365098953247,-0.4164014458656311,0.15806636214256287,0.6399074995334597,-0.5884262144409176,0.05852071967135286,0.4907628039549351
1681412406490350000,1.79435009765625,-1.3447892665863037,1.1557906866073608,4.97810697555542,0.6890894770622253,0.6665269136428833,-0.284424364566803,0.34686005115509033,-0.3936236500740051,0.13253828883171082,0.6235974899854809,-0.5936372642627262,0.07336631618598935,0.5033270616805516
1681412406500327200,1.8043271484375,-1.509168267250061,1.204836368560791,5.109059810638428,0.7251138091087341,0.6348337531089783,-0.26682525873184204,0.28936660289764404,-0.3705974221229553,0.10843893885612488,0.606050088080881,-0.5989787861737005,0.08838429011599977,0.5158640195322898
1681412406510303000,1.814302978515625,-1.69425630569458,1.21867036819458,5.223963260650635,0.7601075768470764,0.6006259918212891,-0.247961163520813,0.2729734182357788,-0.33811384439468384,0.08621788024902344,0.5872028313025504,-0.6044309339616688,0.10335696128154054,0.528368532285216
1681412406520279000,1.824279052734375,-1.906981348991394,1.1964387893676758,5.318801403045654,0.7936291098594666,0.5640063285827637,-0.2281438410282135,0.31539487838745117,-0.28474003076553345,0.06746864318847656,0.5670220817097223,-0.6099180497700648,0.11801717182167268,0.5408861093920664
1681412406530255000,1.834255126953125,-2.143322706222534,1.1454129219055176,5.395069599151611,0.8253095746040344,0.525104284286499,-0.20767605304718018,0.393531858921051,-0.2174566388130188,0.057559967041015625,0.5454765704889997,-0.6153882348582912,0.13213360790841985,0.5534376367244995
1681412406540232000,1.84423193359375,-2.4083449840545654,1.075015664100647,5.443793773651123,0.8548102974891663,0.4841157793998718,-0.18689806759357452,0.48129481077194214,-0.14439421892166138,0.05751867592334747,0.5225518398026069,-0.6207971654482886,0.1454711062462206,0.5660286285221214
1681412406550208000,1.8542080078125,-2.6950485706329346,0.9872648119926453,5.472813606262207,0.8818508982658386,0.4412813186645508,-0.1661606729030609,0.5598297715187073,-0.07545197010040283,0.05678553879261017,0.49824168375101835,-0.626112431725242,0.15780648263282976,0.5786495708396047
1681412406560184000,1.86418408203125,-2.9786136150360107,0.8649178743362427,5.486361026763916,0.9062336087226868,0.39676618576049805,-0.14600437879562378,0.6243297457695007,-0.013389140367507935,0.056221529841423035,0.4725728520885089,-0.6312267089394111,0.16896937411961935,0.5913350374361637
1681412406570159900,1.874159912109375,-3.1871328353881836,0.7142699956893921,5.474503517150879,0.9277806282043457,0.3507632911205292,-0.12723204493522644,0.6705774068832397,0.05226707458496094,0.0520671010017395,0.4457651925380737,-0.6359022271556731,0.17891990505676417,0.6040772160016614
1681412406580137000,1.884136962890625,-3.306109666824341,0.5394910573959351,5.444025039672852,0.9463671445846558,0.3035331666469574,-0.1107102483510971,0.6933117508888245,0.1258644163608551,0.04038231074810028,0.41819496476214313,-0.6398384819109034,0.18775407412939418,0.6168209445923654
1681412406590113000,1.894113037109375,-3.26993727684021,0.3888338804244995,5.374627113342285,0.961955189704895,0.25536367297172546,-0.09711433202028275,0.6852918863296509,0.21327942609786987,0.017280228435993195,0.3903622549548905,-0.6427425578433467,0.19576730933831374,0.6294237640540917
1681412406600089000,1.904089111328125,-3.0775790214538574,0.25014880299568176,5.272159099578857,0.9745441675186157,0.206763356924057,-0.086674265563488,0.6496622562408447,0.3222741186618805,-0.014277994632720947,0.3629200912158975,-0.6444319462987198,0.20339698417891056,0.6415809110702468
1681412406610066000,1.91406591796875,-2.7150959968566895,0.13045251369476318,5.157008171081543,0.9842137694358826,0.15811002254486084,-0.07952475547790527,0.5980156660079956,0.4353194832801819,-0.05363880842924118,0.3365079569128994,-0.6447135119878858,0.2111447588757278,0.6530885167796968
1681412406620042000,1.9240419921875,-2.2040867805480957,0.06615351885557175,5.003793239593506,0.9910989999771118,0.10981149226427078,-0.07525937259197235,0.5352985262870789,0.5528014302253723,-0.09231280535459518,0.3117436054223849,-0.6435532068284368,0.21956680539310977,0.6636606622624927
1681412406630018000,1.93401806640625,-1.6128764152526855,0.06318701803684235,4.786789894104004,0.9953746199607849,0.06248650699853897,-0.07296904921531677,0.46650874614715576,0.6706830263137817,-0.12350326031446457,0.2891576998597374,-0.641131048021627,0.22905556923521586,0.6729577732402282
1681412406639994000,1.943994140625,-1.044961929321289,0.09888387471437454,4.531433582305908,0.997292697429657,0.016727952286601067,-0.07160425931215286,0.3922640085220337,0.7695269584655762,-0.15894091129302979,0.2689798273761235,-0.6377630318564318,0.239700199256289,0.6807729594116564
1681412406649971000,1.953970947265625,-0.5644731521606445,0.15247759222984314,4.2614521980285645,0.9971498250961304,-0.027381984516978264,-0.0702996701002121,0.311397910118103,0.8366166353225708,-0.17341387271881104,0.2509824635132269,-0.6337538511222802,0.25140847419378864,0.6871371220412252
1681412406659947000,1.963947021484375,-0.17849819362163544,0.2059756964445114,3.972486734390259,0.9952917098999023,-0.06840521097183228,-0.06866496801376343,0.23680955171585083,0.8660278916358948,-0.15449494123458862,0.2353209636589949,-0.6294875540085338,0.2634633445807096,0.6920667623583645
1681412406669923000,1.973923095703125,0.14187902212142944,0.2843482792377472,3.6357169151306152,0.992122232913971,-0.10631755739450455,-0.06625520437955856,0.16983437538146973,0.8668766617774963,-0.1301560401916504,0.22170525100260308,-0.6252079005605055,0.2756582633997001,0.6956825822132089
1681412406679899000,1.98389892578125,0.44090035557746887,0.40199750661849976,3.256720781326294,0.9880777597427368,-0.14068900048732758,-0.0625179186463356,0.10802185535430908,0.8631774187088013,-0.10734307020902634,0.21010873970070698,-0.6212170111068372,0.2878028261388505,0.6979348469931076
1681412406689876000,1.9938759765625,0.75810307264328,0.5492516756057739,2.875976800918579,0.9835764169692993,-0.17129063606262207,-0.05689287930727005,0.05254101753234863,0.8847000598907471,-0.0828319787979126,0.20054644588331702,-0.6177593338471077,0.2998782514143237,0.6987327512625919
1681412406699852000,2.00385205078125,1.1147233247756958,0.6448810696601868,2.5337886810302734,0.9788943529129028,-0.1983409821987152,-0.04926133528351784,0.017870783805847168,0.9282757043838501,-0.06371492892503738,0.19305700971320996,-0.6148003978722422,0.3120733924197378,0.698111472329554
1681412406709828000,2.013828125,1.4671084880828857,0.7000002861022949,2.2201695442199707,0.9741880297660828,-0.2221708595752716,-0.039972010999917984,0.015771687030792236,0.9659605026245117,-0.07468265295028687,0.1876380418962554,-0.6121322942273886,0.32451201768097726,0.6962599881560726
1681412406719804200,2.02380419921875,1.7840232849121094,0.7451651096343994,1.8990379571914673,0.9696220755577087,-0.24286052584648132,-0.029185215011239052,0.03306347131729126,0.9743210673332214,-0.12216687202453613,0.1842223483439489,-0.6096973976406945,0.33715942177864017,0.6932926498334703
1681412406729781000,2.033781005859375,2.0323832035064697,0.7875272035598755,1.5632187128067017,0.9654204249382019,-0.260145902633667,-0.016952354460954666,0.036303699016571045,0.967299222946167,-0.17794829607009888,0.18269061113158208,-0.6076137049493249,0.3497562120977942,0.6892751653218886
1681412406739757000,2.043757080078125,2.1784112453460693,0.7879769802093506,1.2713394165039062,0.9617151618003845,-0.2740250825881958,-0.0037289659958332777,0.018204092979431152,0.9497606158256531,-0.23011213541030884,0.18281586071885703,-0.6058702728031662,0.36201758177079785,0.6844287333432539
1681412406749732900,2.05373291015625,2.2011077404022217,0.7483243346214294,1.0198628902435303,0.9585005044937134,-0.2849227786064148,0.009786225855350494,0.005351424217224121,0.9270431399345398,-0.29405760765075684,0.18413754068165405,-0.6043839053742932,0.3736485081989293,0.6791172723614555
1681412406759709200,2.063709228515625,2.128195285797119,0.673615038394928,0.8030521869659424,0.955763578414917,-0.2932458519935608,0.022865256294608116,0.014115571975708008,0.9027124643325806,-0.3382340669631958,0.18625751732778095,-0.6030707596005371,0.38436738569967804,0.6737028186397095
1681412406769686000,2.07368603515625,1.9727985858917236,0.5664081573486328,0.601349949836731,0.953519880771637,-0.2993060350418091,0.034860748797655106,0.031709372997283936,0.8771869540214539,-0.36384034156799316,0.1888950040661167,-0.6018695524328421,0.3939332634735548,0.6684968907741419
1681412406779662000,2.083662109375,1.7072999477386475,0.434962660074234,0.4349973201751709,0.9517720341682434,-0.3034627437591553,0.04516679421067238,0.045633792877197266,0.8514516949653625,-0.3923807144165039,0.19172616601057002,-0.6007584638892951,0.4020853953837493,0.6638203894067628
1681412406789637400,2.093637451171875,1.3520995378494263,0.3097709119319916,0.27673736214637756,0.9505122900009155,-0.30607399344444275,0.053337812423706055,0.0540195107460022,0.8303965330123901,-0.4232414960861206,0.1944009956023846,-0.5997845761244466,0.40856745816723405,0.659953970431583
1681412406799613200,2.10361328125,0.9501250386238098,0.1974712759256363,0.09476517140865326,0.949806272983551,-0.3071776032447815,0.05924225598573685,0.04192328453063965,0.8083373308181763,-0.4197465181350708,0.19672705084479442,-0.5991054974393023,0.413150979200627,0.6570214587731962
1681412406809590300,2.11359033203125,0.5307381749153137,0.1126868724822998,-0.09013384580612183,0.949716329574585,-0.3067147433757782,0.062966488301754,0.008443951606750488,0.7831704616546631,-0.3996518850326538,0.19862721082886114,-0.5988799638717861,0.41572350330726227,0.6550296791950021
1681412406819566300,2.12356640625,0.11988446861505508,0.024986427277326584,-0.2486853301525116,0.9502046704292297,-0.3048555850982666,0.06460511684417725,-0.022623062133789062,0.7507479786872864,-0.38249170780181885,0.20001669686594356,-0.5991473753983854,0.41632316828123833,0.6539805969936221
1681412406829542100,2.133542236328125,-0.24958571791648865,-0.07610796391963959,-0.37907159328460693,0.9511842131614685,-0.30188310146331787,0.06414841115474701,-0.028531134128570557,0.7216523885726929,-0.36349546909332275,0.2009024454211217,-0.5997905340022599,0.41512109137928643,0.6538837343621713
1681412406839518200,2.143518310546875,-0.5537662506103516,-0.19225694239139557,-0.5097957253456116,0.952608048915863,-0.2978896498680115,0.06164127215743065,-0.0061664581298828125,0.709648072719574,-0.3429677486419678,0.20143297776711128,-0.6006736372757807,0.4123248934172465,0.6546786526609533
1681412406849495300,2.153495361328125,-0.8087945580482483,-0.298796147108078,-0.6485711932182312,0.9544677138328552,-0.29276978969573975,0.0572463721036911,0.030303895473480225,0.7076410055160522,-0.3309739828109741,0.2017918813728922,-0.60173265233044,0.4080943538895771,0.6562444602482956
1681412406859471400,2.163471435546875,-1.0269337892532349,-0.39763808250427246,-0.7938609719276428,0.956750750541687,-0.28636109828948975,0.05123426392674446,0.05862993001937866,0.7043298482894897,-0.3244277238845825,0.20212020844811174,-0.6029668449932185,0.4025520033176963,0.6584300287238334
1681412406869447200,2.173447265625,-1.2212111949920654,-0.4563831388950348,-0.9457956552505493,0.9594131708145142,-0.2785593867301941,0.043938759714365005,0.07293528318405151,0.7017924785614014,-0.31844449043273926,0.20246146483882133,-0.6044183932155864,0.3957875501923499,0.6610898536407136
1681412406879423200,2.18342333984375,-1.3678905963897705,-0.48505663871765137,-1.1148236989974976,0.9624291062355042,-0.2691555917263031,0.03584739938378334,0.07835739850997925,0.696050763130188,-0.294209361076355,0.20289253769584548,-0.6061843178817033,0.38789724441099094,0.6640110762228018
1681412406889400300,2.193400390625,-1.4585880041122437,-0.5045570731163025,-1.2713186740875244,0.9657328128814697,-0.2580918073654175,0.027360761538147926,0.08015024662017822,0.6986130475997925,-0.2597675323486328,0.203524813281172,-0.6082642875781605,0.37907115113997136,0.6670061316902274
1681412406899376000,2.203376220703125,-1.4893122911453247,-0.5098968744277954,-1.4147034883499146,0.9692306518554688,-0.2454398274421692,0.01873423531651497,0.0879133939743042,0.7109702825546265,-0.22752034664154053,0.20447096249323532,-0.6105834972562295,0.3695333686400804,0.6699435822263836
1681412406909352200,2.213352294921875,-1.4548646211624146,-0.47555431723594666,-1.5853254795074463,0.972872793674469,-0.23110610246658325,0.010415267199277878,0.10068976879119873,0.7227442860603333,-0.2007993459701538,0.20589518136968224,-0.6131632266448794,0.3594975538290088,0.6726065363961801
1681412406919328300,2.223328369140625,-1.3433209657669067,-0.3955177664756775,-1.7887794971466064,0.9766606092453003,-0.21476611495018005,0.0030260055791586637,0.10427182912826538,0.7333208322525024,-0.18275940418243408,0.2080469026680382,-0.6161239747202117,0.34914789217235387,0.6746875589975923
1681412406929305300,2.233305419921875,-1.158003330230713,-0.31726235151290894,-1.9844584465026855,0.9805417060852051,-0.196287140250206,-0.003035753034055233,0.10513627529144287,0.7411937713623047,-0.17518705129623413,0.21116504019533588,-0.619481254694543,0.3387109366203674,0.6759638695616574
1681412406939281200,2.24328125,-0.9051403403282166,-0.2837338149547577,-2.127465009689331,0.9843544363975525,-0.17602244019508362,-0.007881354540586472,0.13911950588226318,0.760006844997406,-0.17571252584457397,0.21540270455240107,-0.6230100271501765,0.3285084912977892,0.676418640003649
1681412406949257200,2.25325732421875,-0.5967899560928345,-0.31460171937942505,-2.2209787368774414,0.9879202842712402,-0.15449406206607819,-0.012047845870256424,0.22577905654907227,0.7887256145477295,-0.17864137887954712,0.22088189009701867,-0.6263522723587183,0.318839941083538,0.6761916355418844
1681412406959234300,2.263234375,-0.2540004253387451,-0.3990224301815033,-2.2789499759674072,0.991095781326294,-0.1321631222963333,-0.016181010752916336,0.3461538553237915,0.8167029023170471,-0.1809016466140747,0.22771179064824013,-0.629163877340875,0.30993920429098293,0.6754537371575486
1681412406969210000,2.273210205078125,0.11039908975362778,-0.4973631203174591,-2.3437278270721436,0.993799090385437,-0.10923715680837631,-0.020745929330587387,0.44925498962402344,0.8314966559410095,-0.17996835708618164,0.23596726380517413,-0.6312552037598668,0.3019004854533831,0.6743087608654357
1681412406979186200,2.283186279296875,0.46104419231414795,-0.5535442233085632,-2.469083070755005,0.9960134029388428,-0.08540534973144531,-0.025752920657396317,0.4887430667877197,0.8175220489501953,-0.17985939979553223,0.2457553188388576,-0.6327025168228495,0.2946371748275932,0.6726669278796915
1681412406989162200,2.293162353515625,0.7710156440734863,-0.5468788146972656,-2.6660220623016357,0.9977210164070129,-0.060006607323884964,-0.030849477276206017,0.43639135360717773,0.7688384056091309,-0.18217861652374268,0.25713015891232655,-0.6337957074719808,0.2878858500917094,0.6703048928218299
1681412406999139300,2.303139404296875,1.0490802526474,-0.48415547609329224,-2.9000134468078613,0.9988363981246948,-0.032512322068214417,-0.03561548888683319,0.31647104024887085,0.6947895288467407,-0.17182791233062744,0.27005361998769006,-0.6348265932521574,0.28140265273086823,0.6669922201919614
1681412407009115100,2.313115234375,1.319534182548523,-0.42561519145965576,-3.1169228553771973,0.9991974234580994,-0.0028378369752317667,-0.03995354101061821,0.19515371322631836,0.6162258982658386,-0.14284688234329224,0.28445499953920794,-0.635873253491148,0.27511531282997914,0.6626175862891377
1681412407019091200,2.32309130859375,1.6026278734207153,-0.3918870687484741,-3.2923314571380615,0.998610258102417,0.02864178456366062,-0.04423770308494568,0.13449198007583618,0.5518635511398315,-0.10661083459854126,0.3002463121977386,-0.636762357968192,0.26910007179108425,0.6572449302072217
1681412407029067300,2.3330673828125,1.8902496099472046,-0.38856157660484314,-3.4352567195892334,0.9969092607498169,0.061469901353120804,-0.0489230677485466,0.1491478681564331,0.4979173243045807,-0.06840194016695023,0.3173348229404484,-0.6372852111844173,0.2634502332951566,0.6509686378785422
1681412407039044000,2.343044189453125,2.1801013946533203,-0.41223856806755066,-3.5546061992645264,0.9939526915550232,0.09530634433031082,-0.054539456963539124,0.21417707204818726,0.452789306640625,-0.03432786464691162,0.3356698961696301,-0.6372341760141058,0.25819154987913306,0.6438907763200693
1681412407049020400,2.3530205078125,2.446866035461426,-0.4099186956882477,-3.6368939876556396,0.9896460175514221,0.12977993488311768,-0.06129969656467438,0.29183274507522583,0.41274628043174744,-0.003382444381713867,0.35511400116799996,-0.6365203681770301,0.2533613491098709,0.63603752351873
1681412407058996200,2.362996337890625,2.6780846118927,-0.4282650947570801,-3.659043312072754,0.9839672446250916,0.1643393635749817,-0.0692894384264946,0.36039310693740845,0.3694283366203308,0.03330903500318527,0.3753879364658509,-0.6351028734774132,0.2489972314078799,0.6274779622572086
1681412407068972300,2.37297216796875,2.8439526557922363,-0.49236443638801575,-3.6200051307678223,0.9769117832183838,0.1984948217868805,-0.07901319861412048,0.42535555362701416,0.3252783417701721,0.07017821073532104,0.3962186870120897,-0.6328445834624447,0.2449512893092021,0.6184798532442333
1681412407078949000,2.38294921875,2.9497649669647217,-0.6060266494750977,-3.5470919609069824,0.968418300151825,0.2320806235074997,-0.09112942218780518,0.5053213238716125,0.2816827893257141,0.12042617052793503,0.4174650534496054,-0.6296003997457057,0.24091206946815288,0.6093337503016762
1681412407088925200,2.39292529296875,2.9856815338134766,-0.7572249174118042,-3.465297222137451,0.959007203578949,0.2631528973579407,-0.10514640808105469,0.581977903842926,0.23396316170692444,0.17037759721279144,0.4382588847168221,-0.6253784420558123,0.2373364693718519,0.6004185122541411
1681412407098901200,2.4029013671875,2.9445645809173584,-0.9099695682525635,-3.3992505073547363,0.9485034942626953,0.29258331656455994,-0.12139210850000381,0.6256235837936401,0.17222988605499268,0.21105259656906128,0.4587180852566387,-0.6202780711733588,0.23357880866986802,0.5918392533225759
1681412407108877000,2.412876953125,2.8376553058624268,-1.0203163623809814,-3.36303448677063,0.9368703961372375,0.3206961154937744,-0.1393834948539734,0.6142006516456604,0.10662621259689331,0.23789411783218384,0.4786857318540112,-0.6145782755049837,0.22935081442954053,0.5835680193254231
1681412407118854400,2.4228544921875,2.695154905319214,-1.0979692935943604,-3.3403239250183105,0.9240817427635193,0.3477764129638672,-0.15850676596164703,0.5586146712303162,0.042863816022872925,0.2557508945465088,0.49804974484090797,-0.608558108481075,0.2245075632626677,0.5754995745896722
1681412407128830200,2.432830322265625,2.52327299118042,-1.1580142974853516,-3.3197858333587646,0.9101722836494446,0.3739068806171417,-0.17826969921588898,0.4767906069755554,-0.017690509557724,0.26451224088668823,0.5166994363945665,-0.6024093299671077,0.2190163309403398,0.5675883433400337
1681412407138806300,2.44280615234375,2.327570915222168,-1.2137463092803955,-3.307178497314453,0.8951408267021179,0.3992323875427246,-0.19833318889141083,0.39903318881988525,-0.06717070937156677,0.27351313829421997,0.5345638474006467,-0.5962788506539562,0.21280257249473003,0.5598284084576173
1681412407148782300,2.4527822265625,2.101200580596924,-1.2695152759552002,-3.310454845428467,0.878950834274292,0.4239395558834076,-0.2184498906135559,0.3449259400367737,-0.10785382986068726,0.27946966886520386,0.5516095108494056,-0.5902806209098179,0.20577620355563706,0.5522243036126898
1681412407158759200,2.46275927734375,1.8423207998275757,-1.3301128149032593,-3.3184316158294678,0.8615363240242004,0.4482627213001251,-0.23835985362529755,0.30971288681030273,-0.14551320672035217,0.2909415364265442,0.5677910642555692,-0.5845422915473985,0.19781400446233582,0.5447871900919032
1681412407168735200,2.4727353515625,1.5497968196868896,-1.3900057077407837,-3.334073781967163,0.8428774476051331,0.472370982170105,-0.257726788520813,0.2894161343574524,-0.18698590993881226,0.30710411071777344,0.5830164435072395,-0.5792077602902023,0.188825248736025,0.5375454734962679
1681412407178711300,2.482711181640625,1.2464402914047241,-1.4188368320465088,-3.3489153385162354,0.8229578137397766,0.49644795060157776,-0.2761879861354828,0.27607160806655884,-0.2366671860218048,0.32939523458480835,0.5972401216885104,-0.5744082750079528,0.17877680129914553,0.5304697537547721
1681412407188688400,2.4926884765625,0.9601920247077942,-1.4194406270980835,-3.351011276245117,0.8018932342529297,0.5205122232437134,-0.2933158874511719,0.2583637237548828,-0.28638142347335815,0.35508331656455994,0.6104391333116136,-0.5702466109325829,0.1678119825042893,0.5234711173808412
1681412407198664200,2.502664306640625,0.7037574052810669,-1.411714792251587,-3.336102247238159,0.7798377275466919,0.5444501042366028,-0.30891236662864685,0.23874729871749878,-0.33375686407089233,0.3816814720630646,0.6226224145580482,-0.5667241046686835,0.1561012652735475,0.5165242198574778
1681412407208640300,2.51264013671875,0.4966905415058136,-1.3891026973724365,-3.3094637393951416,0.7569594979286194,0.5680721998214722,-0.32296454906463623,0.22224265336990356,-0.3698911666870117,0.4105956554412842,0.6338600563539125,-0.5637592293353925,0.14385152136613463,0.5096111983625747
1681412407218616300,2.5226162109375,0.3461041748523712,-1.3487863540649414,-3.261233329772949,0.7334349155426025,0.5911551117897034,-0.33557233214378357,0.21546334028244019,-0.39095979928970337,0.4383401572704315,0.6442764790793509,-0.5612240956182867,0.1313063167601235,0.5026866932464378
1681412407228593400,2.532593505859375,0.2526051104068756,-1.2984545230865479,-3.193373203277588,0.7095031142234802,0.6134072542190552,-0.34689581394195557,0.2103118896484375,-0.40561312437057495,0.4554924964904785,0.6539786803891289,-0.558978324068177,0.11872373094732917,0.4957415157494861
1681412407238569200,2.5425693359375,0.20864753425121307,-1.2439037561416626,-3.1021246910095215,0.6854033470153809,0.634544312953949,-0.357177197933197,0.2064574956893921,-0.4159470796585083,0.47239622473716736,0.66307137617196,-0.5568713187322891,0.10632846516292505,0.4887992981956846
1681412407248545300,2.552545166015625,0.19660845398902893,-1.184922218322754,-2.9979779720306396,0.6613734364509583,0.6543428897857666,-0.3666338324546814,0.2082553505897522,-0.42198216915130615,0.48482832312583923,0.671628620694909,-0.5547896408356686,0.09429498977419169,0.48190429574547905
1681412407258521300,2.562521240234375,0.20875540375709534,-1.1260771751403809,-2.8698439598083496,0.6376209259033203,0.6726495027542114,-0.37547582387924194,0.21351420879364014,-0.429363489151001,0.4921596646308899,0.6797146907004765,-0.5526432400870375,0.08274987350260234,0.4751060875045469
1681412407268498200,2.572498291015625,0.22451917827129364,-1.0690284967422485,-2.723006010055542,0.6144145131111145,0.6893341541290283,-0.38381415605545044,0.22536814212799072,-0.4411500096321106,0.5008336901664734,0.687327380871356,-0.5503981305183366,0.07179712003558972,0.4684956442416191
1681412407278474200,2.58247412109375,0.23627689480781555,-1.0043838024139404,-2.5546209812164307,0.5919984579086304,0.7043645977973938,-0.39167383313179016,0.23994117975234985,-0.4536321759223938,0.5092579126358032,0.6944472491267817,-0.548069801030076,0.06150265179375217,0.46214714237647636
1681412407288450300,2.5924501953125,0.2292136698961258,-0.9406775832176208,-2.364783763885498,0.5706399083137512,0.7177624106407166,-0.3989826738834381,0.2578054666519165,-0.4659619927406311,0.5181384682655334,0.7010070716385824,-0.5457241934761498,0.051901525241102094,0.45615829527118906
1681412407298426000,2.602426025390625,0.20996077358722687,-0.8629375696182251,-2.1538374423980713,0.550626814365387,0.7295582890510559,-0.4056536853313446,0.27615541219711304,-0.4805501699447632,0.5296006798744202,0.7069530596187358,-0.5434327283599678,0.043058396588385714,0.45060432363573255
1681412407308403200,2.6124033203125,0.1751205027103424,-0.7717961668968201,-1.9380933046340942,0.5321801900863647,0.7398804426193237,-0.4115350544452667,0.2982335686683655,-0.4942293167114258,0.5391594767570496,0.7122385428968313,-0.5413012911284001,0.03500540329626912,0.4455150817908114
1681412407318379300,2.622379150390625,0.12398820370435715,-0.6832816004753113,-1.69920814037323,0.5154561400413513,0.7488920092582703,-0.4164921045303345,0.3256540298461914,-0.5049498081207275,0.5410037636756897,0.7168254032612006,-0.5394297397872309,0.02773981782968541,0.4409165086872051
1681412407328355300,2.632355224609375,0.0373356007039547,-0.627409040927887,-1.4521468877792358,0.5004621744155884,0.75678950548172,-0.4204842746257782,0.36428380012512207,-0.5120691657066345,0.5293556451797485,0.7206617230558124,-0.5378766960177443,0.02113120288656541,0.43690803937871503
1681412407338331100,2.6423310546875,-0.09630601108074188,-0.5793717503547668,-1.187258005142212,0.4877951741218567,0.7634727358818054,-0.42327889800071716,0.42635878920555115,-0.5107415914535522,0.519439697265625,0.7235338611372796,-0.536774030796912,0.01530339749797702,0.4337487474968636
1681412407348308200,2.65230810546875,-0.26358768343925476,-0.5116875171661377,-0.9151999354362488,0.4773772358894348,0.7693279981613159,-0.42455291748046875,0.4983459413051605,-0.5086317658424377,0.5295332670211792,0.7253735686168098,-0.5363036119529491,0.010098344272620121,0.43140404777995695
1681412407358284300,2.6622841796875,-0.45845383405685425,-0.4184264838695526,-0.6248707175254822,0.46943747997283936,0.7745067477226257,-0.42399001121520996,0.5561971664428711,-0.5129560232162476,0.5474182367324829,0.7260919431344316,-0.5366321515023665,0.005561941650797825,0.429866636360483
1681412407368260000,2.672260009765625,-0.6526286602020264,-0.302473783493042,-0.31185904145240784,0.46425649523735046,0.7790558934211731,-0.42135199904441833,0.5959851145744324,-0.5270724296569824,0.5536761283874512,0.725614149283098,-0.5378854787296958,0.0017928022151074818,0.42913850085370986
1681412407378237200,2.6822373046875,-0.8169741034507751,-0.15362662076950073,0.021075619384646416,0.462139368057251,0.7828279137611389,-0.41666239500045776,0.6230351328849792,-0.5469271540641785,0.5545254945755005,0.7239446999487994,-0.5400627320111926,-0.001021417342234541,0.42922631070777095
1681412407388213200,2.692213134765625,-0.934822142124176,0.019650358706712723,0.3652268648147583,0.46336111426353455,0.7855779528617859,-0.41007736325263977,0.640474796295166,-0.553522527217865,0.5415775775909424,0.7211516345589563,-0.5430970205063946,-0.002635916553698591,0.4300915804446684
1681412407398189300,2.702189208984375,-0.9917244911193848,0.1772022247314453,0.7123337388038635,0.4679928421974182,0.7869999408721924,-0.40201184153556824,0.6564730405807495,-0.5406774878501892,0.5197333097457886,0.7173643241501663,-0.5467958638901697,-0.002890942589727894,0.4317338306332764
1681412407408165000,2.7121650390625,-1.0226205587387085,0.30151858925819397,1.0537203550338745,0.4758870601654053,0.7868440747261047,-0.39294737577438354,0.6848946809768677,-0.5116367340087891,0.4891692101955414,0.712697848782246,-0.5509293272164917,-0.0017868994125514097,0.43420640902384117
1681412407418142200,2.72214208984375,-1.0510610342025757,0.41253188252449036,1.3966116905212402,0.4868670701980591,0.784980297088623,-0.3831009864807129,0.7227428555488586,-0.4815136194229126,0.46360623836517334,0.7071728637541813,-0.5553819915851314,0.0005963340945386209,0.4375579887844749
1681412407428118300,2.7321181640625,-1.0774931907653809,0.5682522058486938,1.73470938205719,0.5009472966194153,0.7812735438346863,-0.3723752796649933,0.7492815256118774,-0.45742112398147583,0.4398800730705261,0.7007677980046049,-0.5601728093315863,0.0043337592897758756,0.44171494672464817
1681412407438094000,2.742093994140625,-1.101444125175476,0.7520849108695984,2.0851171016693115,0.5181918144226074,0.7755537629127502,-0.3605460822582245,0.7509579062461853,-0.4456740617752075,0.41849884390830994,0.6934534876238184,-0.5653629403872736,0.009575942988433752,0.4465369586836305
1681412407448070400,2.7520703125,-1.1203070878982544,0.9255765676498413,2.447847843170166,0.5386123657226562,0.7675336003303528,-0.3475467562675476,0.7320937514305115,-0.44590896368026733,0.37107568979263306,0.6851689475967859,-0.5709269160061747,0.016403477247238722,0.4520141085410906
1681412407458047200,2.762047119140625,-1.1237232685089111,1.056565761566162,2.798860549926758,0.5619634389877319,0.7569403052330017,-0.3335238993167877,0.7215752601623535,-0.44653093814849854,0.32171353697776794,0.6758854099200452,-0.5767371376521019,0.02474519897589495,0.4581927947407615
1681412407468023300,2.772023193359375,-1.091614842414856,1.1450729370117188,3.119702100753784,0.5877416729927063,0.7435610294342041,-0.3188675045967102,0.7427940964698792,-0.4318546652793884,0.29657432436943054,0.6656854602031411,-0.5825626843297707,0.0344523392022159,0.46507685547360583
1681412407477999000,2.7819990234375,-1.016510248184204,1.1903815269470215,3.403468132019043,0.6153551936149597,0.7272452116012573,-0.30405953526496887,0.770005464553833,-0.3958854675292969,0.2804083228111267,0.6547282603612365,-0.5881413783820532,0.0453866260437432,0.47261033067863223
1681412407487975200,2.79197509765625,-0.9126802086830139,1.196373701095581,3.632673740386963,0.6441092491149902,0.7079840302467346,-0.2896236479282379,0.78310626745224,-0.3507148027420044,0.2552606761455536,0.6431975274621082,-0.5932127669175605,0.05733057000685664,0.4807377223694442
1681412407497952300,2.8019521484375,-0.7986898422241211,1.2286823987960815,3.818974018096924,0.6734727621078491,0.6858810186386108,-0.2756839692592621,0.7571302056312561,-0.3081497550010681,0.20610371232032776,0.6312421964435084,-0.5976874347292495,0.070197934462838,0.4892598965015331
1681412407507928000,2.811927978515625,-0.6662356853485107,1.2631407976150513,3.9654934406280518,0.7030153870582581,0.6610901355743408,-0.2621626853942871,0.6940030455589294,-0.2769044041633606,0.14651617407798767,0.6189674048596696,-0.6015581996723559,0.08394278720803226,0.4979565423000665
1681412407517904400,2.821904296875,-0.560753583908081,1.2730659246444702,4.06794548034668,0.7322525382041931,0.6338427662849426,-0.24909707903862,0.6025862097740173,-0.26032304763793945,0.08672823011875153,0.6064680135435018,-0.6047872091989515,0.09840676794682783,0.5067000522221108
1681412407527881200,2.831881103515625,-0.4820033609867096,1.2406429052352905,4.104720592498779,0.7606063485145569,0.6046097278594971,-0.23648490011692047,0.5073990821838379,-0.25600749254226685,0.03993627429008484,0.5937892011175524,-0.6074006565621568,0.1132342299654746,0.5154191081110677
1681412407537857300,2.841857177734375,-0.4227941334247589,1.2139116525650024,4.08421516418457,0.787537157535553,0.5739772915840149,-0.2243545651435852,0.4261925220489502,-0.24580669403076172,0.005222991108894348,0.5810481303920353,-0.6094364057624938,0.12810147083381693,0.5239848783550132
1681412407547833000,2.8518330078125,-0.37997955083847046,1.2182084321975708,4.0330376625061035,0.8128271698951721,0.5423997640609741,-0.21240119636058807,0.35341721773147583,-0.21787595748901367,-0.012650787830352783,0.5682963816189641,-0.6110459084041509,0.142906610683568,0.5322027049399675
1681412407557809400,2.861809326171875,-0.3656723201274872,1.2567697763442993,3.9660654067993164,0.8364115357398987,0.5102090239524841,-0.20025518536567688,0.2840411067008972,-0.17724710702896118,-0.02345404028892517,0.5555207286683596,-0.6123992758919413,0.1576056396738326,0.5399297301473754
1681412407567786200,2.8717861328125,-0.39937064051628113,1.3168578147888184,3.8913075923919678,0.8582872748374939,0.4776904881000519,-0.18749497830867767,0.22707021236419678,-0.13430678844451904,-0.02710472047328949,0.5426386322579277,-0.6136958446774494,0.1721334360948795,0.547074575767801
1681412407577762000,2.881761962890625,-0.49590688943862915,1.3726850748062134,3.824626922607422,0.8784967064857483,0.4450211524963379,-0.1737797111272812,0.19030499458312988,-0.09954699873924255,-0.022005900740623474,0.5294704876338292,-0.6151266921743243,0.18635797452488606,0.5536701783292192
1681412407587738400,2.89173828125,-0.6464551687240601,1.4136096239089966,3.7703330516815186,0.897080659866333,0.4122784733772278,-0.15897344052791595,0.17300277948379517,-0.07342663407325745,-0.017433524131774902,0.5158142056805194,-0.6168235074103733,0.20010506966625047,0.5598413516315617
1681412407597714200,2.901714111328125,-0.8137238025665283,1.4190698862075806,3.732905626296997,0.9140624403953552,0.37943214178085327,-0.14325106143951416,0.18669116497039795,-0.05983686447143555,-0.013700947165489197,0.5015530327551041,-0.6187913069080783,0.21324114749221357,0.5657472281323914
1681412407607691300,2.911691162109375,-0.9662142992019653,1.3854631185531616,3.705533981323242,0.9294596910476685,0.346350759267807,-0.12706522643566132,0.22949093580245972,-0.04128187894821167,-0.024057909846305847,0.48667769690774476,-0.6209050288375657,0.22570850854364233,0.5715569000285097
1681412407617667000,2.9216669921875,-1.099609375,1.3252509832382202,3.6837234497070312,0.9432565569877625,0.3129803240299225,-0.11095166206359863,0.2831990122795105,-0.00894901156425476,-0.04925048351287842,0.4712862593547221,-0.6229962544961765,0.23748649295227753,0.577377735146043
1681412407627643400,2.931643310546875,-1.2164297103881836,1.2626307010650635,3.645730495452881,0.9554607272148132,0.27934372425079346,-0.09519299864768982,0.3318468928337097,0.03193551301956177,-0.08170229196548462,0.45545487970167575,-0.6249875211132413,0.24858418898360332,0.583230008857416
1681412407637619200,2.941619140625,-1.3177883625030518,1.1855032444000244,3.608344316482544,0.966074526309967,0.24554142355918884,-0.08005747199058533,0.35739636421203613,0.08461296558380127,-0.12203007191419601,0.4392818416668551,-0.6268129237813144,0.25899193655429215,0.5891180551471005
1681412407647596000,2.951595947265625,-1.4118669033050537,1.1032166481018066,3.5847525596618652,0.9751683473587036,0.21147748827934265,-0.06575469672679901,0.35793083906173706,0.14156506955623627,-0.16314256191253662,0.4227939769184078,-0.6283965938039945,0.2687756903803627,0.5950818976461382
1681412407657572400,2.961572265625,-1.4958555698394775,1.0418879985809326,3.556473731994629,0.982875645160675,0.1767466962337494,-0.05211620777845383,0.3333321809768677,0.1929890215396881,-0.1928638219833374,0.4058359955834154,-0.6297446364083994,0.27814311006633224,0.6011283026872823
1681412407667548200,2.971548095703125,-1.5542722940444946,0.9951807260513306,3.509333848953247,0.9890573024749756,0.1421630084514618,-0.0394357405602932,0.28953754901885986,0.24460148811340332,-0.20470505952835083,0.3887522104641708,-0.6308600964785471,0.2868757025684537,0.6071157340046707
1681412407677525200,2.981525146484375,-1.574116826057434,0.954891562461853,3.43584942817688,0.9937483072280884,0.10814126580953598,-0.027741195634007454,0.23455357551574707,0.3007942736148834,-0.20603889226913452,0.3717600147535659,-0.6317603362396422,0.29497165976086887,0.6129151484229963
1681412407687501300,2.991501220703125,-1.5300050973892212,0.9201220870018005,3.339034080505371,0.9970604181289673,0.07471704483032227,-0.016961880028247833,0.17737793922424316,0.35825109481811523,-0.21237784624099731,0.35500500811518687,-0.6324075715418461,0.30262141867400755,0.6184272581806486
1681412407697477400,3.001477294921875,-1.394569754600525,0.8888102173805237,3.2178590297698975,0.9990864396095276,0.042145565152168274,-0.007059976924210787,0.12075597047805786,0.4222099184989929,-0.21695446968078613,0.3388001919683032,-0.6327359872254769,0.3100244861980655,0.6234936247925082
1681412407707453200,3.011453125,-1.1882871389389038,0.8621849417686462,3.0836265087127686,0.9999408721923828,0.01067377720028162,0.002041163621470332,0.07204997539520264,0.48726630210876465,-0.23308992385864258,0.3234761231038278,-0.6326740616226274,0.3174021321814708,0.6279669982983871
1681412407717430300,3.02143017578125,-0.9447948336601257,0.8623970150947571,2.9308128356933594,0.9997541904449463,-0.01946084201335907,0.01061528641730547,0.02690279483795166,0.5488950610160828,-0.259196400642395,0.3092488365977908,-0.6322480013751449,0.32491554008093554,0.6317099498217108
1681412407727406300,3.03140625,-0.7024908661842346,0.8758382201194763,2.7686774730682373,0.9986632466316223,-0.048064880073070526,0.019008902832865715,-0.012289464473724365,0.6054837107658386,-0.282253623008728,0.2961986008589745,-0.6315553911851983,0.3326292821960134,0.6346352361497353
1681412407737382100,3.041382080078125,-0.46547526121139526,0.8949426412582397,2.6042745113372803,0.9968040585517883,-0.07500205934047699,0.02750064805150032,-0.04953855276107788,0.6456197500228882,-0.29005885124206543,0.2843324088349527,-0.6306982421865149,0.3405437578757246,0.6367140028648716
1681412407747358200,3.051358154296875,-0.26230403780937195,0.8970680832862854,2.4375369548797607,0.9943115711212158,-0.10020709037780762,0.036095693707466125,-0.07414567470550537,0.6670863628387451,-0.28153347969055176,0.27361867429944475,-0.6297141826141478,0.3485798255096225,0.6380320649041281
1681412407757335300,3.061335205078125,-0.07595141232013702,0.8930933475494385,2.2876057624816895,0.9913036227226257,-0.12373864650726318,0.04478391259908676,-0.08717471361160278,0.6784566640853882,-0.2711024284362793,0.2639740079143281,-0.628624933403508,0.35668284033753445,0.638690565045534
1681412407767311400,3.071311279296875,0.10080552101135254,0.8820950984954834,2.1235857009887695,0.987896203994751,-0.14557215571403503,0.05356918275356293,-0.09051167964935303,0.6905245780944824,-0.26330137252807617,0.2553675928727975,-0.6274576811875074,0.3648033016767467,0.6387508917662225
1681412407777287200,3.081287109375,0.2759381830692291,0.8749254941940308,1.9565479755401611,0.9842081665992737,-0.1656029224395752,0.062527596950531,-0.09745901823043823,0.7047874927520752,-0.25935089588165283,0.24782017089417463,-0.6262573973669553,0.3729148307624004,0.6382172450293303
1681412407787264300,3.09126416015625,0.4355446398258209,0.8732831478118896,1.7793940305709839,0.9803518652915955,-0.18374904990196228,0.07173619419336319,-0.11288994550704956,0.7261990308761597,-0.26991748809814453,0.2413158099016728,-0.625083504157106,0.3809707481377232,0.6371015585546274
1681412407797239600,3.101239501953125,0.5721881985664368,0.8632180690765381,1.6012629270553589,0.976423978805542,-0.19999873638153076,0.0812181681394577,-0.12715047597885132,0.7501085996627808,-0.2817035913467407,0.235805221918258,-0.6239787634710338,0.3889210538533931,0.6354421125688895
1681412407807215400,3.11121533203125,0.6699329018592834,0.8421156406402588,1.4166922569274902,0.9725492596626282,-0.21424423158168793,0.09081494808197021,-0.13119494915008545,0.7693284749984741,-0.29343652725219727,0.2312580581827826,-0.622978801957271,0.39661679925507914,0.6333342102403064
1681412407817191700,3.121191650390625,0.7092583179473877,0.7994834780693054,1.2329380512237549,0.9688473343849182,-0.2264387011528015,0.1003003716468811,-0.12126749753952026,0.7852613925933838,-0.30534815788269043,0.22758465713999293,-0.6221269396526483,0.40386663378231563,0.6309159415710025
1681412407827168500,3.13116845703125,0.6825452446937561,0.7512839436531067,1.0497757196426392,0.9653967022895813,-0.2367221713066101,0.10941456258296967,-0.10402292013168335,0.7932254672050476,-0.3151031732559204,0.22459169180186656,-0.6214591005569751,0.4104824829230464,0.6283718464641636
1681412407837144300,3.141144287109375,0.6018684506416321,0.6778658032417297,0.8600834012031555,0.9622922539710999,-0.2451694756746292,0.11783631145954132,-0.0889860987663269,0.7873295545578003,-0.32372331619262695,0.22213473676376108,-0.6210052195826534,0.41625793836264074,0.6258897232676751
1681412407847120600,3.15112060546875,0.47907406091690063,0.6044057011604309,0.6724469661712646,0.9596182703971863,-0.25185152888298035,0.12531325221061707,-0.08046799898147583,0.7715506553649902,-0.340798020362854,0.22009188940610144,-0.6208022432215048,0.4210239865653092,0.6236207658720675
1681412407857097500,3.161097412109375,0.3466642498970032,0.5389163494110107,0.47527772188186646,0.9574307203292847,-0.2568080425262451,0.13181735575199127,-0.07760906219482422,0.7545039653778076,-0.35541975498199463,0.21838099381072507,-0.6209156161720738,0.4247028081954456,0.6216115819674222
1681412407867073500,3.171073486328125,0.2407764494419098,0.4746244549751282,0.2804318070411682,0.9557815194129944,-0.26000577211380005,0.13739921152591705,-0.07805031538009644,0.7422293424606323,-0.36216139793395996,0.2170413811510128,-0.6213689223363316,0.4273175301981781,0.619833356488604
1681412407877049300,3.18104931640625,0.1718224138021469,0.4080469310283661,0.09221328049898148,0.9546847343444824,-0.2614825367927551,0.1421394795179367,-0.07585489749908447,0.7437518835067749,-0.3741648197174072,0.2161626743175938,-0.6221158938885462,0.4290006459983881,0.6182263558395246
1681412407887025700,3.191025634765625,0.12544958293437958,0.3280426561832428,-0.09684398770332336,0.9541599750518799,-0.26125368475914,0.14603126049041748,-0.061704039573669434,0.7542804479598999,-0.38579273223876953,0.21583857699962197,-0.6230943740691542,0.4298476827373573,0.6167641527066391
1681412407897002500,3.20100244140625,0.0827469602227211,0.22662511467933655,-0.293076753616333,0.9542624950408936,-0.2592271566390991,0.14894403517246246,-0.033852338790893555,0.7711137533187866,-0.39738786220550537,0.21617842291831438,-0.6242528124940941,0.42986095618025344,0.6154631261799656
1681412407906978300,3.210978271484375,0.01522890105843544,0.13006821274757385,-0.49174219369888306,0.955005407333374,-0.2554142475128174,0.15075825154781342,0.005672574043273926,0.7851994037628174,-0.40794527530670166,0.21716153432679652,-0.6255807558677463,0.4289846652128875,0.6143790847050914
1681412407916954600,3.22095458984375,-0.0760599672794342,0.03494521230459213,-0.6942784786224365,0.9563798308372498,-0.24978947639465332,0.15146729350090027,0.04592400789260864,0.7879212498664856,-0.4129420518875122,0.21871522920918005,-0.627133857840524,0.4271261790760522,0.6135387501172044
1681412407926930400,3.230930419921875,-0.1745023876428604,-0.07247365266084671,-0.8954459428787231,0.9583669900894165,-0.24236270785331726,0.15097235143184662,0.07430189847946167,0.7752454280853271,-0.40129292011260986,0.22079970409839797,-0.6289069866755161,0.42421949243254176,0.6129935983955062
1681412407936907500,3.240907470703125,-0.24704143404960632,-0.1871667355298996,-1.0947608947753906,0.9609270691871643,-0.2331438809633255,0.14920689165592194,0.09263110160827637,0.7532092332839966,-0.38739681243896484,0.223455593809531,-0.6308373782362601,0.4202947179067214,0.6127511712964054
1681412407946883300,3.25088330078125,-0.28703224658966064,-0.27801328897476196,-1.3210930824279785,0.9640173316001892,-0.2219422161579132,0.14632853865623474,0.10176318883895874,0.7212098240852356,-0.3809783458709717,0.22678500759636366,-0.6329398008762342,0.4153931576074822,0.6127023627995403
1681412407956859600,3.260859619140625,-0.2843150198459625,-0.3322657644748688,-1.5618044137954712,0.9675598740577698,-0.20845705270767212,0.1427348256111145,0.09413129091262817,0.6888953447341919,-0.38452577590942383,0.23091478474667976,-0.6352956616365932,0.4095935037559214,0.6126261467591456
1681412407966836500,3.27083642578125,-0.22270067036151886,-0.3843920826911926,-1.7869911193847656,0.9714205265045166,-0.19257427752017975,0.13876929879188538,0.08204609155654907,0.6694725155830383,-0.39427781105041504,0.2359533813804172,-0.6379082545988151,0.4030604275466358,0.6123244261808367
1681412407976812500,3.2808125,-0.10836408287286758,-0.47524258494377136,-1.9679546356201172,0.9754499793052673,-0.17453625798225403,0.13429081439971924,0.10264432430267334,0.6607881188392639,-0.4059126377105713,0.24200699096435974,-0.640552047555912,0.39602838292144893,0.611790001898653
1681412407986788600,3.29078857421875,0.044181790202856064,-0.6059427857398987,-2.1157772541046143,0.9795186519622803,-0.1546221524477005,0.12897668778896332,0.17795193195343018,0.6639605760574341,-0.41753578186035156,0.24919671640321206,-0.6429541685331484,0.3887136214167816,0.6110749231844999
1681412407996764400,3.300764404296875,0.20630605518817902,-0.7600488662719727,-2.234708070755005,0.9835048317909241,-0.13312827050685883,0.12245301902294159,0.2857515811920166,0.672648549079895,-0.4234175682067871,0.25754981650327313,-0.6448955827822455,0.3812298492976461,0.6102797902815702
1681412408006741500,3.310741455078125,0.3697114884853363,-0.9072239398956299,-2.3387396335601807,0.9872781038284302,-0.11026065796613693,0.11456099897623062,0.3768575191497803,0.6747748255729675,-0.41020023822784424,0.26702933220195657,-0.6462807292796781,0.3736331359917797,0.6094380295951263
1681412408016717300,3.32071728515625,0.5175486207008362,-1.0149445533752441,-2.467465400695801,0.990694522857666,-0.08604127168655396,0.10545502603054047,0.4257175922393799,0.657330334186554,-0.3679368495941162,0.2775506692123603,-0.6471772099758051,0.36590869091856687,0.6084717563011477
1681412408026693600,3.330693603515625,0.6735416650772095,-1.0633134841918945,-2.6192333698272705,0.9936011433601379,-0.06023504585027695,0.09553973376750946,0.4171040654182434,0.6226130127906799,-0.31338968873023987,0.2890800259620995,-0.6477656709225161,0.35800768279716005,0.6071759080164219
1681412408036669400,3.34066943359375,0.8552333116531372,-1.0751067399978638,-2.7655763626098633,0.9958212971687317,-0.03278389573097229,0.08523602783679962,0.3672463297843933,0.5763324499130249,-0.25936949253082275,0.3015910704454896,-0.6481600955504186,0.35000929186710233,0.6053303440031333
1681412408046646500,3.350646484375,1.0752079486846924,-1.0750728845596313,-2.8899221420288086,0.997199296951294,-0.003838861361145973,0.0746898502111435,0.312477707862854,0.5239956974983215,-0.22019779682159424,0.3151065164547431,-0.6483211072542184,0.34208868156872624,0.6027958462520925
1681412408056622600,3.36062255859375,1.3361014127731323,-1.0913150310516357,-2.991791009902954,0.9976186156272888,0.026339272037148476,0.06374415010213852,0.2944193482398987,0.4835636615753174,-0.18924784660339355,0.32967904360098227,-0.6481013263942016,0.3344200125669188,0.5995328671314702
1681412408066598400,3.370598388671875,1.6142792701721191,-1.1243067979812622,-3.076084613800049,0.9969891309738159,0.05746687203645706,0.052061304450035095,0.3253527879714966,0.46018755435943604,-0.16753995418548584,0.3453530668041178,-0.647320997854735,0.3271179870077717,0.5955675408366169
1681412408076575500,3.380575439453125,1.879762053489685,-1.1681156158447266,-3.141648530960083,0.9952307343482971,0.08926526457071304,0.039334747940301895,0.38559800386428833,0.44421252608299255,-0.14607012271881104,0.3620841443278062,-0.6458629393406689,0.32020062024532203,0.5909548081042655
1681412408086551600,3.390551513671875,2.0925774574279785,-1.2190909385681152,-3.1751511096954346,0.9922856092453003,0.12134919315576553,0.025365391746163368,0.45456790924072266,0.4174386262893677,-0.11612486839294434,0.3796876694593427,-0.6436768858971618,0.3136283823605014,0.585793852979049
1681412408096527600,3.400527587890625,2.246466636657715,-1.2914447784423828,-3.1594369411468506,0.9881452322006226,0.15320143103599548,0.009900304488837719,0.5266556143760681,0.38212260603904724,-0.08164727687835693,0.3978804834980657,-0.6407137982423978,0.3073043782958669,0.5802937181188648
1681412408106503400,3.41050341796875,2.3293817043304443,-1.3831456899642944,-3.1143651008605957,0.9828203320503235,0.18441985547542572,-0.007303169928491116,0.606412947177887,0.3420845866203308,-0.04213547706604004,0.41639459622821107,-0.6369554395477007,0.3010584378144958,0.5746886653487838
1681412408116480500,3.42048046875,2.336761474609375,-1.512850046157837,-3.0310449600219727,0.97623211145401,0.21506211161613464,-0.026812512427568436,0.6829016804695129,0.30019664764404297,0.007586300373077393,0.4351509098149201,-0.632353422524375,0.2944875085419706,0.5692537159868537
1681412408126456600,3.43045654296875,2.2621421813964844,-1.6414079666137695,-2.9671454429626465,0.9687458276748657,0.24346277117729187,-0.047509368509054184,0.748447597026825,0.25520965456962585,0.05216318741440773,0.4532218193684277,-0.6271341117142676,0.2880071562994706,0.5642202788291468
1681412408136432400,3.440432373046875,2.133643627166748,-1.7462680339813232,-2.9400744438171387,0.9601595997810364,0.2706644535064697,-0.06952717900276184,0.7798610329627991,0.2016255259513855,0.0990985631942749,0.47079043248257413,-0.621493297932413,0.281038236121242,0.5595711107623988
1681412408146409500,3.450409423828125,1.9485772848129272,-1.8139429092407227,-2.95611572265625,0.9503523111343384,0.2971557378768921,-0.09235157072544098,0.7518570423126221,0.14133599400520325,0.13629674911499023,0.4877811207895911,-0.6157185770157685,0.27334016859919763,0.555198411599622
1681412408156385500,3.460385498046875,1.7422289848327637,-1.858277440071106,-2.9936342239379883,0.9392199516296387,0.3233349025249481,-0.11541372537612915,0.6778606176376343,0.08183163404464722,0.1693076491355896,0.5041198534418558,-0.6100726173552184,0.26477261391520557,0.5509718764037846
1681412408166361600,3.470361572265625,1.5153652429580688,-1.8836991786956787,-3.0423295497894287,0.9267089366912842,0.3493969440460205,-0.1383190006017685,0.5934478044509888,0.028151214122772217,0.19619548320770264,0.5197592572614336,-0.6047016447093255,0.2552967289488193,0.5468178167483329
1681412408176337400,3.48033740234375,1.2662510871887207,-1.9112443923950195,-3.1079823970794678,0.9127460718154907,0.3755561411380768,-0.1607860028743744,0.515339195728302,-0.02541273832321167,0.21985262632369995,0.534670479284792,-0.5997175282164694,0.24483848114177248,0.5426973508560031
1681412408186314500,3.490314453125,1.0083236694335938,-1.9357057809829712,-3.1844124794006348,0.8972386121749878,0.4020254611968994,-0.182587668299675,0.45543766021728516,-0.0764792263507843,0.24382108449935913,0.5488512188728459,-0.595200492834504,0.2333292478834137,0.5385685316176922
1681412408196290600,3.50029052734375,0.7573926448822021,-1.9375916719436646,-3.2654335498809814,0.8801252841949463,0.42894208431243896,-0.2034408450126648,0.4053666591644287,-0.12643659114837646,0.26850417256355286,0.5622989355374105,-0.5912190782029451,0.2207704192241278,0.5343597281518395
1681412408206266400,3.510266357421875,0.5240547060966492,-1.927857756614685,-3.3450276851654053,0.8613922595977783,0.45633044838905334,-0.2230823040008545,0.36117231845855713,-0.1803600788116455,0.29260122776031494,0.5750289982732324,-0.5877995291879865,0.20724517147635774,0.5299836610036769
1681412408216243500,3.520243408203125,0.3276146352291107,-1.8998504877090454,-3.419982671737671,0.8410639762878418,0.4841058552265167,-0.2413557916879654,0.3174594044685364,-0.2332209348678589,0.31484198570251465,0.5870974319091706,-0.5849022880701403,0.19290261682773094,0.5253516254178151
1681412408226219500,3.530219482421875,0.18828657269477844,-1.8684054613113403,-3.4882888793945312,0.8191801905632019,0.5121027827262878,-0.25825247168540955,0.27595824003219604,-0.2762935161590576,0.3386662006378174,0.5986004092565103,-0.582424142787566,0.1779209859417742,0.5203879966700069
1681412408236195600,3.540195556640625,0.10609712451696396,-1.8076869249343872,-3.542236566543579,0.7958282232284546,0.5400664806365967,-0.27383461594581604,0.23941946029663086,-0.31005561351776123,0.3631441593170166,0.6096688821767083,-0.5802247500575398,0.16254826483343995,0.5149961214396115
1681412408246171400,3.55017138671875,0.07937602698802948,-1.7383371591567993,-3.585256338119507,0.771131694316864,0.5676966905593872,-0.2882293462753296,0.20761269330978394,-0.331917941570282,0.38625168800354004,0.6204163787171089,-0.5781603838002055,0.14702344963494965,0.5091149677694367
1681412408256148500,3.5601484375,0.08837638050317764,-1.6580924987792969,-3.60571551322937,0.7452607154846191,0.5946789979934692,-0.3015679717063904,0.1774839162826538,-0.3520185947418213,0.4051598012447357,0.6309153602369991,-0.5761138888643234,0.13156290329741666,0.5027222816072227
1681412408266124500,3.57012451171875,0.13868801295757294,-1.5711644887924194,-3.6106996536254883,0.718386709690094,0.6207093596458435,-0.3140701353549957,0.16137385368347168,-0.36994659900665283,0.42196497321128845,0.6412344819218371,-0.5739590227606883,0.11634420474393324,0.4958358318314674
1681412408276100400,3.580100341796875,0.2188471406698227,-1.4909636974334717,-3.59346604347229,0.690719485282898,0.6454825401306152,-0.3259732723236084,0.15475457906723022,-0.38864678144454956,0.43849149346351624,0.6514276325650722,-0.5715795463162102,0.10153908407830542,0.48849610565559104
1681412408286077400,3.590077392578125,0.31803178787231445,-1.4172066450119019,-3.5514438152313232,0.6624633073806763,0.6687283515930176,-0.33755654096603394,0.1602141261100769,-0.40926802158355713,0.4518752992153168,0.6615200188123371,-0.5688658817692948,0.08725443860029022,0.48080068821537153
1681412408296053500,3.600053466796875,0.4180821180343628,-1.356914758682251,-3.483786106109619,0.6338292956352234,0.6902401447296143,-0.349039763212204,0.18073052167892456,-0.4276975989341736,0.4656168520450592,0.671500695867252,-0.5657476799383501,0.07355052209724594,0.4728705460063849
1681412408306029600,3.610029541015625,0.5022465586662292,-1.307602882385254,-3.381798267364502,0.6050900816917419,0.7098556756973267,-0.3605146110057831,0.211361825466156,-0.4449479579925537,0.4792279303073883,0.6812891981870262,-0.5622167528779022,0.06045667772000056,0.46486797855886053
1681412408316005400,3.62000537109375,0.5508327484130859,-1.2524333000183105,-3.2549829483032227,0.5765781402587891,0.7275142073631287,-0.3718608617782593,0.2466486692428589,-0.462194561958313,0.4958079159259796,0.6907543064477331,-0.5583598067767768,0.04799887444041496,0.4569341030634678
1681412408325982500,3.629982421875,0.5676136016845703,-1.1950160264968872,-3.091479539871216,0.5486447811126709,0.7432454228401184,-0.3828509449958801,0.28356945514678955,-0.48517370223999023,0.5192186832427979,0.6997500484035567,-0.5543143587646345,0.03619546589738061,0.44919388071158833
1681412408335958500,3.63995849609375,0.5518283247947693,-1.1301510334014893,-2.8929293155670166,0.5217034220695496,0.7570738196372986,-0.3932744264602661,0.32029175758361816,-0.5126891732215881,0.5416812896728516,0.7081357422552825,-0.5502117106589307,0.02509701034134942,0.4417928760021595
1681412408345934300,3.649934326171875,0.5003665089607239,-1.0645654201507568,-2.6656692028045654,0.4961390495300293,0.7691118717193604,-0.40288078784942627,0.3610539138317108,-0.5407641530036926,0.5569638609886169,0.7157822682801487,-0.5462072462729718,0.014739533458752516,0.43485185647305596
1681412408355911400,3.659911376953125,0.3977504074573517,-1.0099724531173706,-2.4127914905548096,0.47225308418273926,0.7795632481575012,-0.4114096760749817,0.4100557565689087,-0.5613017082214355,0.5605795383453369,0.7225515896682039,-0.5424659751889935,0.005082742391988256,0.4285135205991248
1681412408365887500,3.669887451171875,0.24017862975597382,-0.9526304006576538,-2.110407829284668,0.450430691242218,0.7886775732040405,-0.41844916343688965,0.4730311930179596,-0.5730404853820801,0.5649334788322449,0.7282405490507298,-0.5392217436401938,-0.003914520571190361,0.4229541104898065
1681412408375863600,3.679863525390625,0.04735657945275307,-0.8950097560882568,-1.7565934658050537,0.43119701743125916,0.7966024875640869,-0.4236665964126587,0.552582859992981,-0.5816063284873962,0.5873017907142639,0.7326601951393398,-0.5366730577922499,-0.012195283206299793,0.41838042945589066
1681412408385839400,3.68983935546875,-0.17388471961021423,-0.8353314995765686,-1.3761094808578491,0.4149421453475952,0.8035097718238831,-0.4268428683280945,0.6340384483337402,-0.5973637104034424,0.6283046007156372,0.7357004756203447,-0.5349672802903459,-0.01971227119257838,0.41492893185021956
1681412408395816400,3.69981640625,-0.4322424829006195,-0.7793532609939575,-1.0036168098449707,0.4017397165298462,0.8097250461578369,-0.4277268946170807,0.7096951007843018,-0.6227898001670837,0.6509629487991333,0.7372871268672755,-0.5342573322967574,-0.02656429301781424,0.4126389300834658
1681412408405792500,3.70979248046875,-0.6959609389305115,-0.6937310099601746,-0.6323535442352295,0.3918852210044861,0.8154101967811584,-0.4260656237602234,0.7683625221252441,-0.6471364498138428,0.6576634645462036,0.7373646139632165,-0.5346967599539209,-0.03265824272385643,0.4114923852226358
1681412408415768300,3.719768310546875,-0.926580011844635,-0.5865952372550964,-0.2639731466770172,0.38550397753715515,0.820601761341095,-0.4218997359275818,0.805856466293335,-0.6517786979675293,0.6591127514839172,0.7359992133711327,-0.5362972962530154,-0.03788593041043895,0.4114061450635952
1681412408425745400,3.729745361328125,-1.0966978073120117,-0.47134244441986084,0.1141698881983757,0.38267970085144043,0.8251305222511292,-0.415590763092041,0.8192397356033325,-0.640331506729126,0.638780951499939,0.7333254686039813,-0.5389168659626941,-0.04210981502926503,0.4123456992484301
1681412408435721500,3.739721435546875,-1.2534559965133667,-0.37060996890068054,0.48285311460494995,0.3834323585033417,0.8288152813911438,-0.40748581290245056,0.8222255706787109,-0.6247749328613281,0.5948941707611084,0.7294446858564314,-0.5424105257378696,-0.045253900351612905,0.414310523756299
1681412408445697500,3.749697509765625,-1.4234135150909424,-0.2874780595302582,0.8347997069358826,0.38759732246398926,0.8316508531570435,-0.39764928817749023,0.8299930095672607,-0.6159833073616028,0.5575460195541382,0.7243617519593406,-0.5467421478472757,-0.04741714566747867,0.4172823015137561
1681412408455673300,3.75967333984375,-1.5977249145507812,-0.2116844803094864,1.1624764204025269,0.39492693543434143,0.8336493968963623,-0.38608458638191223,0.8338785767555237,-0.6127175092697144,0.5308904051780701,0.718073250630761,-0.5518900768011265,-0.04873451612309937,0.4212041921603438
1681412408465650400,3.769650390625,-1.7603132724761963,-0.07656475156545639,1.4976247549057007,0.4054226279258728,0.8347090482711792,-0.3726838529109955,0.8194613456726074,-0.6294021606445312,0.5109894275665283,0.710573950637132,-0.5578917922070192,-0.049140833642172074,0.42594193357110216
1681412408475626500,3.77962646484375,-1.881271243095398,0.1383426934480667,1.855423927307129,0.4194749891757965,0.8344650268554688,-0.35736358165740967,0.7805066704750061,-0.6627122163772583,0.5015132427215576,0.7018868292531111,-0.5647918455843153,-0.04825324216866632,0.4313196245591774
1681412408485602300,3.789602294921875,-1.8979653120040894,0.3791348338127136,2.2390494346618652,0.43740785121917725,0.8323211073875427,-0.3404642939567566,0.7184911370277405,-0.6832275986671448,0.48798614740371704,0.6921317589023775,-0.5724371478904973,-0.045646001942405916,0.4372479683545431
1681412408495579400,3.799579345703125,-1.8235516548156738,0.5973181128501892,2.624441385269165,0.45919543504714966,0.8276100754737854,-0.3228018879890442,0.6635004281997681,-0.67670077085495,0.46151942014694214,0.6815198048235227,-0.5804420017667596,-0.04106255970400209,0.44376985922843815
1681412408505555500,3.809555419921875,-1.66192626953125,0.7881386280059814,3.005432605743408,0.48452821373939514,0.819831371307373,-0.3051373064517975,0.6439354419708252,-0.6413952112197876,0.4302135109901428,0.6702647111158363,-0.5884281475788422,-0.03440442423790109,0.45090326986338997
1681412408515531500,3.819531494140625,-1.4098138809204102,0.9415726065635681,3.406928539276123,0.513161301612854,0.8084219694137573,-0.2883039712905884,0.6539528965950012,-0.5808678269386292,0.39957094192504883,0.6585687368335528,-0.5959830817393691,-0.025537918310228676,0.458736364054908
1681412408525507300,3.82950732421875,-1.1067018508911133,1.0395984649658203,3.796687602996826,0.5447607636451721,0.7929157614707947,-0.27298349142074585,0.6700523495674133,-0.5070273280143738,0.3622930943965912,0.6465662761441644,-0.6027437661519448,-0.014429589589904541,0.46737947296127613
1681412408535484700,3.839484619140625,-0.8052490949630737,1.1157795190811157,4.111520767211914,0.5785742402076721,0.7732586860656738,-0.25946587324142456,0.6704643368721008,-0.43875569105148315,0.2993522584438324,0.6343946145808719,-0.6084944255708791,-0.0012664209981298096,0.47673489629841775
1681412408545460500,3.84946044921875,-0.5258020162582397,1.189893364906311,4.350383758544922,0.6136792898178101,0.7497396469116211,-0.24756421148777008,0.6375108361244202,-0.36961281299591064,0.22467589378356934,0.6221596471692087,-0.6132138536384522,0.01366257819076304,0.48651761316553055
1681412408555436300,3.859436279296875,-0.30299606919288635,1.2864552736282349,4.532832622528076,0.6493305563926697,0.722720205783844,-0.23673900961875916,0.573371410369873,-0.31590569019317627,0.14678829908370972,0.6098622606097118,-0.6170287514230327,0.030100127290298637,0.49642473450600366
1681412408565413400,3.869413330078125,-0.13868889212608337,1.3799655437469482,4.65831184387207,0.6849046945571899,0.6926000118255615,-0.22629773616790771,0.4913952350616455,-0.2903020977973938,0.07511353492736816,0.5974220918449484,-0.6201361055012561,0.047773869423682815,0.5061972489096113
1681412408575389400,3.879389404296875,-0.01008850522339344,1.4493625164031982,4.739602088928223,0.7197642922401428,0.6598027944564819,-0.21586933732032776,0.4166492223739624,-0.2829412817955017,0.017123430967330933,0.584805521331167,-0.6226263496633523,0.06634578282921978,0.5156909523181523
1681412408585365500,3.889365478515625,0.08769344538450241,1.4952887296676636,4.780970096588135,0.7533925175666809,0.6247035264968872,-0.20529285073280334,0.3689829707145691,-0.278268039226532,-0.014266043901443481,0.5720064797963295,-0.6245316801371597,0.08552048043172532,0.5248380449138834
1681412408595341600,3.899341552734375,0.15964224934577942,1.5263192653656006,4.793862342834473,0.785390317440033,0.5876707434654236,-0.19443528354167938,0.34472137689590454,-0.26065969467163086,-0.026420563459396362,0.559023892206441,-0.6258960074432722,0.10505495552786341,0.5335821407143381
1681412408605318700,3.909318603515625,0.1957121044397354,1.571471095085144,4.791231632232666,0.8155089616775513,0.5490220189094543,-0.1830838918685913,0.3251922130584717,-0.2196916937828064,-0.03778719902038574,0.5458313099031652,-0.6268055652257918,0.12479116323254667,0.5418579111476232
1681412408615294500,3.91929443359375,0.19704852998256683,1.623726487159729,4.791451930999756,0.8436390161514282,0.5089839100837708,-0.17090408504009247,0.3107644319534302,-0.1655544638633728,-0.04058288037776947,0.5323302733051954,-0.627399141247092,0.14463152207564972,0.5496146908417772
1681412408625270300,3.929270263671875,0.13210813701152802,1.6806875467300415,4.790682792663574,0.8697157502174377,0.46772098541259766,-0.1575792133808136,0.29578089714050293,-0.11980545520782471,-0.046842917799949646,0.5183526149812221,-0.6278274212306546,0.1644479397635806,0.5568661763155333
1681412408635247400,3.939247314453125,0.010601891204714775,1.7157167196273804,4.787477493286133,0.893627941608429,0.42543667554855347,-0.14294321835041046,0.29175108671188354,-0.09191006422042847,-0.06082279980182648,0.5037087251442642,-0.6282266992439561,0.18400980029376102,0.5636924153018669
1681412408645223400,3.949223388671875,-0.15005463361740112,1.7160189151763916,4.78621244430542,0.9152500033378601,0.38229674100875854,-0.1271478682756424,0.3044765591621399,-0.06526491045951843,-0.07983775436878204,0.4882838836654118,-0.628635143894469,0.20308599580767667,0.5702216785741584
1681412408655199500,3.959199462890625,-0.3327695429325104,1.6822881698608398,4.799413204193115,0.934514045715332,0.3383157551288605,-0.11057090014219284,0.33846569061279297,-0.03213292360305786,-0.10360158979892731,0.4720048193992676,-0.6290019398230788,0.22151999739971492,0.5766254479275408
1681412408665175600,3.969175537109375,-0.5209905505180359,1.626847505569458,4.807624340057373,0.9513627290725708,0.29350122809410095,-0.09362544864416122,0.38414740562438965,0.01330721378326416,-0.12559771537780762,0.4548505894528733,-0.6292575145845198,0.23921174024215297,0.5830296295686744
1681412408675152600,3.979152587890625,-0.7081348896026611,1.5570263862609863,4.802361488342285,0.9657174348831177,0.2479988932609558,-0.07672112435102463,0.4331319332122803,0.075853630900383,-0.14852923154830933,0.43687612355531924,-0.6293428478414546,0.25606057593911236,0.5894910522768837
1681412408685128400,3.98912841796875,-0.891576886177063,1.4699716567993164,4.766001224517822,0.9775185585021973,0.20206868648529053,-0.060211632400751114,0.4699452519416809,0.1480746865272522,-0.17018097639083862,0.4181942228561391,-0.6292214230370055,0.27198269041220435,0.5960027203693514
1681412408695104500,3.9991044921875,-1.149229645729065,1.352247953414917,4.699965000152588,0.9867309331893921,0.15613298118114471,-0.044543273746967316,0.4904264211654663,0.2226969450712204,-0.1909305453300476,0.398901207172586,-0.6288915000080444,0.2867470033879995,0.602618642652311
1681412408705081300,4.009081298828125,-1.1016496419906616,1.186380386352539,4.618505954742432,0.9934340715408325,0.11033818125724792,-0.030233221128582954,0.5050705075263977,0.2943706512451172,-0.20992499589920044,0.37941422499170985,-0.6281043581235651,0.3006132141087239,0.6092301619595258
1681412408715057400,4.019057373046875,-1.859170913696289,1.0920099020004272,4.436359405517578,0.9976999163627625,0.06538558751344681,-0.01787315309047699,0.5137287974357605,0.3524610698223114,-0.22019463777542114,0.35913712817700516,-0.6272601257827082,0.3124230431009536,0.6164065334215161
1681412408725033500,4.029033447265625,-2.070816993713379,0.8142662048339844,4.3105292320251465,0.9997332692146301,0.02191193588078022,-0.007275174371898174,0.5027689933776855,0.38359037041664124,-0.1836276650428772,0.3377618962111983,-0.6268174116220041,0.3216556314098658,0.62414287218404
1681412408735009500,4.039009521484375,-2.235337495803833,0.6877648830413818,4.140695571899414,0.999774158000946,-0.021239537745714188,0.000511779566295445,0.4609038233757019,0.5545647144317627,-0.22086405754089355,0.316238459400892,-0.6257085875292103,0.3297645421720202,0.6322477470670796
1681412408744986600,4.048986572265625,-2.3200149536132812,0.5969992876052856,3.9770469665527344,0.9980483055114746,-0.062152981758117676,0.006019873544573784,0.43267661333084106,0.5067483186721802,-0.34043169021606445,0.2949744963616128,-0.6244730167499125,0.33621925608078845,0.6402967734025926
1681412408754962400,4.05896240234375,-2.086609125137329,0.5637657642364502,3.769411563873291,0.9948333501815796,-0.10102511942386627,0.010018193162977695,0.37200307846069336,0.47636082768440247,-0.22644901275634766,0.2745952280996343,-0.6229091281745013,0.3420428547468598,0.6477563610436362
1681412408764938500,4.0689384765625,-1.8197519779205322,0.5603071451187134,3.485786199569702,0.9904361367225647,-0.13733072578907013,0.013267474249005318,0.2830926775932312,0.6888902187347412,-0.1644212007522583,0.25575459116879545,-0.6210436645538856,0.34776213708160025,0.6541831601988451
1681412408774915600,4.07891552734375,-1.648122787475586,0.564437747001648,3.143601179122925,0.9852481484413147,-0.17036214470863342,0.016197672113776207,0.1884118914604187,0.8048073649406433,-0.1948477029800415,0.23851488546992425,-0.6192207439985596,0.3530786119255833,0.6595540835684172
1681412408784891400,4.088891357421875,-1.5051331520080566,0.5384202599525452,2.780028820037842,0.9796696901321411,-0.19973880052566528,0.018749423325061798,0.09656304121017456,0.8478863835334778,-0.21569478511810303,0.222871122787665,-0.6176070883866694,0.3576816960351636,0.664043438615831
1681412408794868500,4.098868408203125,-1.3763517141342163,0.4826662540435791,2.4332237243652344,0.9740268588066101,-0.22548586130142212,0.020682353526353836,0.029253780841827393,0.8605566620826721,-0.2484961748123169,0.20884178077418697,-0.6161716689290774,0.36148810664077774,0.6678651816684711
1681412408804844500,4.108844482421875,-1.2088098526000977,0.4622379541397095,2.1054847240448,0.9685573577880859,-0.24780017137527466,0.022171104326844215,-0.012029767036437988,0.8552373647689819,-0.2788088321685791,0.19641303618790235,-0.6149334268258448,0.36461271661852307,0.6710710152167735
1681412408814821400,4.1188212890625,-0.980255663394928,0.49358388781547546,1.7970752716064453,0.9634212851524353,-0.2669193744659424,0.023945277556777,-0.045101702213287354,0.8528416752815247,-0.2695509195327759,0.18561222361021879,-0.6140040978036039,0.3673848213652674,0.6734800772153433
1681412408824797700,4.128797607421875,-0.7304220795631409,0.5504940152168274,1.5170269012451172,0.9587206244468689,-0.2831006646156311,0.026617325842380524,-0.08956485986709595,0.8459821939468384,-0.25015878677368164,0.17642878463844558,-0.6134752886147535,0.37007665793256245,0.6749548577168135
1681412408834773500,4.1387734375,-0.48201805353164673,0.5804858803749084,1.2657580375671387,0.954495906829834,-0.2966802418231964,0.03030010126531124,-0.1264473795890808,0.8349798917770386,-0.23940670490264893,0.16878838445287775,-0.6133118035002365,0.37282527044838404,0.6755444185589656
1681412408844750600,4.14875048828125,-0.25189805030822754,0.559139609336853,1.05644690990448,0.9507299065589905,-0.3080786466598511,0.03463999927043915,-0.12524479627609253,0.8361548185348511,-0.23376739025115967,0.16259436747447145,-0.6133318413602495,0.37569143207144606,0.6754575717876826
1681412408854726700,4.1587265625,-0.04809900373220444,0.5080406069755554,0.8803918957710266,0.9474939107894897,-0.3173590898513794,0.03921792283654213,-0.08886682987213135,0.8510658740997314,-0.24379265308380127,0.1578546218833692,-0.6134119219473679,0.37859579504552465,0.6748872057429539
1681412408864702500,4.168702392578125,0.13073332607746124,0.4638451635837555,0.7162482142448425,0.9447234272956848,-0.3249136507511139,0.043915096670389175,-0.044866979122161865,0.872215986251831,-0.2658238410949707,0.15436989890943217,-0.6134833494883187,0.38157008296232575,0.6739527173538479
1681412408874679600,4.178679443359375,0.2773779332637787,0.4310724139213562,0.5527677536010742,0.9424354434013367,-0.33080723881721497,0.04880140721797943,-0.02732032537460327,0.8926817178726196,-0.2871590852737427,0.15200912659460789,-0.6136129288405727,0.3845515265707814,0.6726754812107036
