time,seconds_elapsed,rotationRateX,rotationRateY,rotationRateZ,gravityX,gravityY,gravityZ,accelerationX,accelerationY,accelerationZ,quaternionW,quaternionX,quaternionY,quaternionZ
1681249311990053400,0.137053466796875,-0.6111690402030945,0.2319953590631485,0.5691604018211365,0.08415073901414871,-0.022999655455350876,-0.9961875677108765,0.14230500161647797,-0.0037947911769151688,-0.11120378971099854,0.9990464504536294,0.01151080414416999,0.04211552760206412,-2.8651948232060777e-18
1681249312005086500,0.15208642578125,-0.675718367099762,0.157635897397995,0.6802211403846741,0.08704240620136261,-0.013987484388053417,-0.9961063861846924,0.11954638361930847,0.035899095237255096,-0.10429638624191284,0.9990139444289055,0.006784755851916661,0.043597756525826654,0.004946961869048185
1681249312020120300,0.167120361328125,-0.6486984491348267,0.1280689537525177,0.7316574454307556,0.08922047913074493,-0.004839192144572735,-0.9960001707077026,0.12107619643211365,0.011507268063724041,-0.10135090351104736,0.9989443844461843,0.0019529521027858055,0.044677891829279975,0.010490771074460208
1681249312035153200,0.182153076171875,-0.5619989633560181,0.07943031191825867,0.6974680423736572,0.09083448350429535,0.003323543816804886,-0.9958604574203491,0.09680252522230148,0.02722453884780407,-0.10455763339996338,0.9989645657500271,-0.0016634943064512218,0.045464317046891724,-3.3972731274026474e-17
1681249312050187000,0.19718701171875,-0.4870278239250183,0.012541827745735645,0.6344384551048279,0.09158988296985626,0.010275319218635559,-0.9957438111305237,0.09883948415517807,0.037866152822971344,-0.0997610092163086,0.998922046109133,-0.005379701651774517,0.04581659160580531,0.005156273085248832
1681249312065220000,0.21222021484375,-0.4613863229751587,-0.038395658135414124,0.5597661137580872,0.09160066395998001,0.016504989936947823,-0.9956590533256531,0.08141842484474182,0.03371167927980423,-0.0586928129196167,0.9988658875257165,-0.008711597715279028,0.04576672749497788,0.009815483589658018
1681249312080253200,0.227253173828125,-0.5027180314064026,-0.09334971755743027,0.48124489188194275,0.09070791304111481,0.022984856739640236,-0.9956122636795044,0.06178809702396393,0.008906008675694466,-0.028710246086120605,0.9988061032079265,-0.012134790728138318,0.045239551145755605,0.01387887875297017
1681249312095287300,0.242287353515625,-0.580281138420105,-0.1342819631099701,0.4332962930202484,0.08900635689496994,0.030548064038157463,-0.9955624938011169,0.018750891089439392,-0.04972836375236511,0.06340306997299194,0.9987384569513675,-0.016064860341756235,0.044279474178465714,0.017402243927745975
1681249312110320400,0.2573203125,-0.6401719450950623,-0.09758360683917999,0.3666059374809265,0.08764895051717758,0.03913829103112221,-0.9953822493553162,-0.0060452669858932495,-0.08552500605583191,0.10844987630844116,0.9986331423492807,-0.02049101209464644,0.043462460808441704,0.020566214580152432
1681249312125354200,0.272354248046875,-0.6264560222625732,-0.0838579460978508,0.3241865634918213,0.08664843440055847,0.04822114109992981,-0.9950712323188782,-0.09259968250989914,-0.10133698582649231,0.15000897645950317,0.9984936851585292,-0.02514852177847375,0.04280108033213993,0.023365544867993346
1681249312140387300,0.28738720703125,-0.5733057260513306,-0.09796657413244247,0.27622756361961365,0.08558956533670425,0.05693810433149338,-0.9947022199630737,-0.10712003707885742,-0.09841148555278778,0.15064698457717896,0.9983404700280504,-0.0296057919010438,0.04209981074147648,0.025834050723762016
1681249312155421200,0.302421142578125,-0.43080613017082214,-0.08464384078979492,0.23640507459640503,0.0845932587981224,0.06425241380929947,-0.9943417906761169,-0.14283637702465057,-0.06710579991340637,0.14767736196517944,0.9981937146176779,-0.0333439752391189,0.041440089548699724,0.027932850117564106
1681249312170454300,0.317454345703125,-0.2527267336845398,-0.029242372140288353,0.19502541422843933,0.08401206880807877,0.0692020133137703,-0.9940589070320129,-0.16750848293304443,-0.0694919228553772,0.15346741676330566,0.9980722080724379,-0.035887909952489826,0.041019737961421616,0.02968619743053706
1681249312185488100,0.332488037109375,-0.07019852101802826,0.016731780022382736,0.11117870360612869,0.08414945751428604,0.07137381285429001,-0.9938936829566956,-0.2122015357017517,-0.05547415465116501,0.15227991342544556,0.9979935894234852,-0.03702896509153738,0.0410123868122104,0.030911727454452455
1681249312200521200,0.347521240234375,0.06113606318831444,-0.0024214088916778564,-0.050797946751117706,0.08459080010652542,0.07137761265039444,-0.9938559532165527,-0.2232019603252411,-0.04485783725976944,0.14822912216186523,0.9979767584804118,-0.03704791145804383,0.04122477080059689,0.031149890959278247
1681249312215555000,0.36255517578125,0.1677127331495285,0.09975076466798782,-0.11350207775831223,0.08530132472515106,0.06967023760080338,-0.993916392326355,-0.22719311714172363,-0.04829266667366028,0.1361129879951477,0.9980110365739581,-0.036178112616573145,0.04162884762284084,0.030532581649981645
1681249312230588200,0.377588134765625,0.24037441611289978,0.12530964612960815,-0.21745456755161285,0.08683150261640549,0.06682118773460388,-0.9939795136451721,-0.25696730613708496,-0.040438733994960785,0.11353206634521484,0.9980668502199987,-0.034717950081910046,0.04248436054104266,0.029192923431932506
1681249312245622300,0.392622314453125,0.2929730713367462,0.14814600348472595,-0.3109546899795532,0.0886741355061531,0.06311338394880295,-0.994059145450592,-0.2500208914279938,-0.04625241458415985,0.06261688470840454,0.9981471973640635,-0.032794990647055135,0.04353059189219163,0.027050810676238327
1681249312260655000,0.407655029296875,0.2824530601501465,0.1343207210302353,-0.3731760084629059,0.09047107398509979,0.05928722023963928,-0.9941328167915344,-0.24591267108917236,-0.040595199912786484,0.03253912925720215,0.9982351309700208,-0.03078322668301624,0.04456451842540806,0.024353185767053184
1681249312275689200,0.422689208984375,0.2478046864271164,0.10303790867328644,-0.43693259358406067,0.09190823882818222,0.055925220251083374,-0.9941957592964172,-0.2158251851797104,-0.038957446813583374,-0.008062541484832764,0.9983228764150295,-0.02897410066342304,0.04541598795544466,0.02120171795728536
1681249312290722000,0.43772216796875,0.24416574835777283,0.0633421540260315,-0.47429943084716797,0.09281646460294724,0.0529235303401947,-0.994275689125061,-0.1969427615404129,-0.030752509832382202,-0.022005438804626465,0.9984114608335574,-0.027318127147708763,0.04599848731768586,0.01767374742220935
1681249312305756400,0.45275634765625,0.2787921130657196,-0.009044157341122627,-0.5286697149276733,0.09290117770433426,0.04964914545416832,-0.9944366812705994,-0.15927723050117493,-0.00793161615729332,-0.035745203495025635,0.9985123579945604,-0.02550126660833396,0.04616643440816701,0.013835983350025317
1681249312320789000,0.4677890625,0.28089413046836853,-0.13044089078903198,-0.6062946915626526,0.09146739542484283,0.046202365309000015,-0.9947356581687927,-0.1319797933101654,0.007661152631044388,-0.044738829135894775,0.9986379249891707,-0.023566030125281766,0.045571990912339995,0.009495917641113946
1681249312335823400,0.4828232421875,0.25228962302207947,-0.22161448001861572,-0.666560173034668,0.08831895142793655,0.043062616139650345,-0.9951609969139099,-0.08099505305290222,-0.00010913237929344177,-0.03906452655792236,0.9987786216196447,-0.021763366394378363,0.04411197728464833,0.0046580905992672774
1681249312350856200,0.497856201171875,0.21386708319187164,-0.2719098925590515,-0.7055619359016418,0.084177166223526,0.04051687940955162,-0.9956267476081848,-0.06934594362974167,-0.012547530233860016,-0.04503798484802246,0.9989059062650985,-0.02025754377500245,0.0421457774193272,-0.0005471525438588734
1681249312365890300,0.512890380859375,0.20159266889095306,-0.2891290783882141,-0.7539986968040466,0.07951059937477112,0.038354046642780304,-0.9960958957672119,-0.06817363947629929,-0.0115291066467762,-0.055005788803100586,0.999005310706788,-0.01895563100140443,0.039909105180430136,-0.006019845636507662
1681249312380923400,0.52792333984375,0.21879136562347412,-0.2853170335292816,-0.8371255397796631,0.07470984011888504,0.036062657833099365,-0.9965530037879944,-0.05659797787666321,-0.002218678593635559,-0.06678622961044312,0.9990652766257218,-0.01759501880810986,0.03760192313281443,-0.012040759172377269
1681249312395957200,0.542957275390625,0.2615797221660614,-0.20596814155578613,-0.8777890801429749,0.07046937942504883,0.033511437475681305,-0.9969508647918701,-0.040196262300014496,0.037243541330099106,-0.12959027290344238,0.9990662676393574,-0.016113111312497916,0.03556584825297435,-0.018491134811367802
1681249312410990300,0.557990234375,0.41144469380378723,0.009698903188109398,-0.705778181552887,0.0684366449713707,0.029420524835586548,-0.9972215890884399,-0.044404372572898865,0.049314796924591064,-0.17248672246932983,0.9990019927372205,-0.013872732908401662,0.0345942587531705,-0.024610275043780803
1681249312426023200,0.573023193359375,0.5252965688705444,0.18023842573165894,-0.6205897331237793,0.06979496777057648,0.022946851328015327,-0.9972974061965942,-0.044023193418979645,0.13276906311511993,-0.35081660747528076,0.9988832042490731,-0.010438943576591378,0.035246680118069716,-0.02968053506732807
1681249312441057300,0.588057373046875,0.48131683468818665,0.19922515749931335,-0.5776087641716003,0.07259080559015274,0.0158518236130476,-0.9972358345985413,-0.002385444939136505,0.18109333515167236,-0.42012256383895874,0.9987192221614578,-0.006679360714525114,0.036571473731406456,-0.03431924718218405
1681249312456090000,0.603090087890625,0.3077625632286072,0.08639608323574066,-0.5824903249740601,0.07469432801008224,0.010495067574083805,-0.997151255607605,0.12148759514093399,0.16076955199241638,-0.406840443611145,0.9985357969350638,-0.0037979120964510235,0.0375493289826136,-0.03875388559341851
1681249312471124200,0.618124267578125,0.11677391827106476,-0.08461987227201462,-0.6673154234886169,0.07470843195915222,0.0079233068972826,-0.9971739649772644,0.1648237109184265,0.11317040026187897,-0.33720719814300537,0.9983484608190906,-0.0023355862832313452,0.0375176446875901,-0.04344420676638301
1681249312486157000,0.633156982421875,-0.06906598806381226,-0.2929973304271698,-0.8090430498123169,0.07174044102430344,0.008523690514266491,-0.9973869323730469,0.2134307473897934,0.06337568163871765,-0.1996040940284729,0.9981433118258943,-0.002498693633195365,0.03605966754817421,-0.04902404979627397
1681249312501191200,0.648191162109375,-0.17469148337841034,-0.3732074797153473,-0.8612883687019348,0.06646416336297989,0.011285902932286263,-0.9977250099182129,0.22838109731674194,0.0698755532503128,-0.12132412195205688,0.9978998580041717,-0.00379760164844112,0.0335124789798633,-0.055302540098651015
1681249312516224300,0.663224365234375,-0.27356091141700745,-0.35107848048210144,-0.8758233785629272,0.060743317008018494,0.015488963574171066,-0.9980332255363464,0.16287392377853394,0.08184680342674255,-0.00039511919021606445,0.9975989507691643,-0.0058562452718482205,0.030807241367648005,-0.061748386550406424
1681249312531258000,0.678258056640625,-0.26038891077041626,-0.2314964085817337,-0.8969273567199707,0.0560622476041317,0.02041146159172058,-0.9982185959815979,0.11083807051181793,0.08452317863702774,0.0380592942237854,0.997217978681806,-0.008270029810104836,0.028675786858806097,-0.0683053010930019
1681249312546291200,0.693291259765625,-0.09800272434949875,-0.09155847132205963,-0.8651683330535889,0.05333302170038223,0.02404516562819481,-0.9982872605323792,0.0175895094871521,0.12044024467468262,0.03054434061050415,0.9967599384946708,-0.00999428539799478,0.02750441647497499,-0.07492178164976876
1681249312561323500,0.708323486328125,0.14827921986579895,0.03126651048660278,-0.841172456741333,0.05258726328611374,0.024350376799702644,-0.9983193874359131,-0.01087004691362381,0.16734573245048523,0.00010466575622558594,0.996272842947899,-0.01000210191416832,0.027207616105775656,-0.08124071529782026
1681249312576356400,0.7233564453125,0.35690823197364807,0.08275233954191208,-0.8825627565383911,0.0532168485224247,0.021150991320610046,-0.998358964920044,-0.03730224445462227,0.22950506210327148,-0.042839765548706055,0.995728971656766,-0.008201667992586493,0.027445494906323344,-0.08776877914932467
1681249312591390500,0.738390380859375,0.4664160907268524,0.10049352049827576,-0.931582510471344,0.0543646514415741,0.015595456585288048,-0.9983993768692017,-0.042356301099061966,0.22433367371559143,-0.05511319637298584,0.9951098536964433,-0.005191321461805839,0.02780960587315667,-0.0946361220384709
1681249312606423300,0.75342333984375,0.43480658531188965,0.11174271255731583,-0.9754067063331604,0.05577031150460243,0.009436951950192451,-0.998399019241333,-0.0495145209133625,0.19257408380508423,-0.03420901298522949,0.9943975489660561,-0.001853460500030203,0.02823209679324019,-0.10184859542484494
1681249312621457400,0.76845751953125,0.28518009185791016,0.10616259276866913,-1.0492026805877686,0.05735207349061966,0.004853896331042051,-0.9983422160148621,-0.05227120593190193,0.1563093513250351,0.0049797892570495605,0.9935723027904844,0.0007286279063499059,0.028781265302888763,-0.1094772098041928
1681249312636490200,0.783490234375,0.160447895526886,0.06001800298690796,-1.1434228420257568,0.058569446206092834,0.002554531442001462,-0.9982800483703613,-0.04355510696768761,0.09858063608407974,0.11040163040161133,0.9926169525711217,0.002180644397783375,0.029243986387678413,-0.11769292545325014
1681249312651524400,0.7985244140625,0.07104552537202835,0.0013208650052547455,-1.2498440742492676,0.05897945538163185,0.001882747164927423,-0.9982573986053467,-0.034046903252601624,0.09252329170703888,0.15443110466003418,0.9915087969204406,0.002803792266966825,0.029384148104604164,-0.12664509712036726
1681249312666557400,0.813557373046875,0.006413268856704235,-0.0310200322419405,-1.3856823444366455,0.05863773077726364,0.002494251122698188,-0.9982762336730957,-0.03712315112352371,0.09526871144771576,0.2127537727355957,0.9902155361605101,0.0027672316656321802,0.02922732548858796,-0.1364230664493258
1681249312681591300,0.82859130859375,0.18237043917179108,-0.0342901274561882,-1.427925944328308,0.05800868570804596,0.002567337127402425,-0.998312771320343,-0.050547439604997635,0.08477386832237244,0.22319680452346802,0.9887033260611907,0.0029982844411659245,0.02888982100097402,-0.147044259605716
1681249312696624400,0.843624267578125,0.3889849781990051,-0.05115858465433121,-1.3932950496673584,0.057407278567552567,-0.0004522243398241699,-0.9983507394790649,-0.06381627172231674,0.08425338566303253,0.14869558811187744,0.987090715189642,0.004749850230025328,0.028320821999776324,-0.15756678562044157
1681249312711658200,0.858658203125,0.6329302191734314,-0.1377992033958435,-1.3841990232467651,0.056052833795547485,-0.00694319000467658,-0.9984036684036255,-0.04386135935783386,0.16813692450523376,0.11955845355987549,0.9853831696999421,0.008135613350240146,0.02705514266313656,-0.16799399223396846
1681249312726691300,0.87369140625,0.7442770600318909,-0.1850668489933014,-1.3172167539596558,0.0537821426987648,-0.01619415171444416,-0.9984213709831238,-0.021616913378238678,0.14473406970500946,0.09519261121749878,0.9835949557666916,0.012766037527804835,0.025026858457895457,-0.17818994429814305
1681249312741725200,0.88872509765625,0.8238299489021301,-0.187971293926239,-1.2103172540664673,0.051295991986989975,-0.02695092000067234,-0.9983197450637817,-0.027721460908651352,0.13599009811878204,0.09248179197311401,0.9817962063621253,0.018059790437412158,0.022670627687062177,-0.18771311187727993
1681249312756758300,0.90375830078125,0.8015621900558472,-0.1908954530954361,-1.0846703052520752,0.04900616779923439,-0.038344722241163254,-0.9980621337890625,-0.03084850311279297,0.09800645709037781,0.13584905862808228,0.980051400991867,0.02362253881030805,0.020270542475189255,-0.1962918119802043
1681249312771792400,0.91879248046875,0.7638416886329651,-0.12897029519081116,-1.0160335302352905,0.04705241695046425,-0.048974741250276566,-0.9976910948753357,-0.025720924139022827,0.07908019423484802,0.16599559783935547,0.9783463009145287,0.028793643097182218,0.01803808647520993,-0.2041670566861545
1681249312786825200,0.9338251953125,0.8229222297668457,-0.039658524096012115,-0.9011284708976746,0.046802375465631485,-0.05987468734383583,-0.9971081018447876,-0.029407642781734467,0.04138088971376419,0.2079998254776001,0.9766750324939103,0.03423390471962069,0.016552661360190974,-0.21132897795371525
1681249312801858300,0.9488583984375,1.1506627798080444,-0.06411353498697281,-0.7481586337089539,0.04692606255412102,-0.07380137592554092,-0.996168315410614,-0.031240314245224,0.06524105370044708,0.196302592754364,0.9750637253739087,0.04116414233013861,0.014878120433653672,-0.21756593760990514
1681249312816892400,0.963892333984375,1.4430532455444336,-0.07661893963813782,-0.5196471810340881,0.046604715287685394,-0.09281730651855469,-0.9945918321609497,-0.0013169161975383759,0.14578041434288025,0.1665583848953247,0.973575257879351,0.05050055392718864,0.01240038053701369,-0.22236695567066594
1681249312831925500,0.978925537109375,1.5302283763885498,-0.0868164524435997,-0.37540507316589355,0.046129949390888214,-0.11503692716360092,-0.9922895431518555,0.005047746002674103,0.18704301118850708,0.14696788787841797,0.9722042354684949,0.06136321243281999,0.009475512822557961,-0.2257515568300592
1681249312846959400,0.99395947265625,1.3214120864868164,-0.12705254554748535,-0.27996936440467834,0.045143064111471176,-0.13632832467556,-0.98963463306427,0.03182198852300644,0.11003726720809937,0.07561790943145752,0.9709278375880162,0.07170697298975397,0.006387199972525851,-0.22829051877059928
1681249312861992400,1.008992431640625,1.0641679763793945,-0.119903564453125,-0.19885185360908508,0.0438404344022274,-0.1538882553577423,-0.987115204334259,0.05544821918010712,0.056704893708229065,0.04071938991546631,0.9698401051707111,0.08018496377608403,0.0035736491650318926,-0.23014725096301591
1681249312877026300,1.0240263671875,0.7514491677284241,-0.11823002994060516,-0.13442546129226685,0.04245246946811676,-0.16720642149448395,-0.9850075244903564,0.06585413217544556,-0.009215861558914185,0.003958940505981445,0.96899335922943,0.08657211050033496,0.0012297631233117298,-0.23142098578603135
1681249312892059400,1.039059326171875,0.44274812936782837,-0.11602120846509933,-0.08822787553071976,0.041022930294275284,-0.17588108777999878,-0.9835562705993652,0.06513218581676483,-0.017432644963264465,0.01115947961807251,0.9684077314547166,0.09067267720040932,-0.0005700535744375236,-0.23230270856455895
1681249312907093200,1.05409326171875,0.2773560881614685,-0.08320919424295425,-0.0572822131216526,0.0396568737924099,-0.18098193407058716,-0.9826865792274475,0.08004803955554962,-0.04635891318321228,0.03551250696182251,0.9680404633690336,0.09302216088514323,-0.0018967711639347297,-0.2328970647227326
1681249312922126300,1.069126220703125,0.30930978059768677,0.01687532290816307,0.056790564209222794,0.03920542821288109,-0.185098797082901,-0.9819375872612,0.08039267361164093,-0.03267478942871094,0.04996126890182495,0.9678252751029823,0.09499676349329177,-0.002614435145478079,-0.2329872077555448
1681249312937160200,1.08416015625,0.4198080897331238,0.1152477040886879,0.10772138833999634,0.03989951312541962,-0.19060832262039185,-0.9808549880981445,0.0552082359790802,0.0616866797208786,-0.010325372219085693,0.9677135343671383,0.09779739253553753,-0.0028598041510839345,-0.23228868946066053
1681249312952193300,1.099193359375,0.436332643032074,0.2372782677412033,0.15600503981113434,0.04205414280295372,-0.19709503650665283,-0.9794819951057434,0.0582721121609211,0.09866045415401459,-0.07851660251617432,0.9676169541307811,0.10125673167018943,-0.002464377042683508,-0.23121074064535105
1681249312967227100,1.11422705078125,0.34629663825035095,0.40000325441360474,0.26486465334892273,0.046118367463350296,-0.20312324166297913,-0.9780665040016174,0.06798657029867172,0.07635307312011719,-0.20757192373275757,0.9676733721368945,0.104717521427222,-0.0009992364648693354,-0.2294374312807466
1681249312982260200,1.12926025390625,0.15989640355110168,0.5070250630378723,0.36582350730895996,0.051976174116134644,-0.20715045928955078,-0.9769273996353149,0.06986497342586517,0.03182683885097504,-0.2640393376350403,0.9680007105240063,0.10739392338303926,0.0016850277416360518,-0.22680034362765597
1681249312997294000,1.144294189453125,-0.09900066256523132,0.4936778247356415,0.3911363184452057,0.05824723467230797,-0.2080320417881012,-0.9763861894607544,0.12241654843091965,-0.017645597457885742,-0.3092583417892456,0.9686371425274539,0.10854335538436959,0.005025931556904331,-0.22346198202002282
1681249313012327200,1.1593271484375,-0.42214784026145935,0.34950491786003113,0.3440236747264862,0.06342847645282745,-0.20435859262943268,-0.976839005947113,0.16101276874542236,-0.02148689329624176,-0.29015928506851196,0.9694471571284246,0.1072908482070294,0.008317692427931669,-0.22043515817823628
1681249313027361300,1.174361328125,-0.5263492465019226,0.18319426476955414,0.27807819843292236,0.0663752406835556,-0.1972421556711197,-0.9781052470207214,0.2042391002178192,-0.06809306144714355,-0.15827780961990356,0.9703466914388454,0.1040674446350222,0.010832630495898265,-0.21789919585912543
1681249313042394400,1.189394287109375,-0.44893643260002136,0.050419166684150696,0.20152245461940765,0.06736510992050171,-0.1900840401649475,-0.9794539213180542,0.20752167701721191,-0.05854278802871704,-0.08245092630386353,0.9711070382588921,0.10060666405687818,0.012301780750659191,-0.21605137005811856
1681249313057428500,1.204428466796875,-0.22562667727470398,-0.02965010143816471,0.16082243621349335,0.0669669508934021,-0.18518298864364624,-0.9804196357727051,0.14851737022399902,0.048189446330070496,-0.011599957942962646,0.9716518003307364,0.09811667903218645,0.012778579660350202,-0.21471523467802253
1681249313072461300,1.21946142578125,-0.015824871137738228,-0.02952652983367443,0.18129175901412964,0.0660128965973854,-0.1836426705121994,-0.9807739853858948,0.12417236715555191,0.08200372755527496,-0.01141345500946045,0.9720079308853038,0.09723305388266028,0.01259864894506052,-0.21351238704893025
1681249313087495400,1.234495361328125,0.068552166223526,-0.004325835965573788,0.20489268004894257,0.06519966572523117,-0.184335395693779,-0.9806984663009644,0.08184900134801865,0.08757928013801575,-0.050063252449035645,0.9722947008732413,0.09746969691601733,0.012264976605043568,-0.21211371461952072
1681249313102528300,1.2495283203125,0.053117550909519196,0.022035198286175728,0.2046455442905426,0.06479424983263016,-0.18546096980571747,-0.9805130958557129,0.07283974438905716,0.06271913647651672,-0.06350851058959961,0.9725732390482568,0.09796495999505972,0.012096184824517782,-0.210613040168032
1681249313117562400,1.264562255859375,0.061618998646736145,0.04033137857913971,0.16545607149600983,0.06477319449186325,-0.18649573624134064,-0.9803181886672974,0.06973272562026978,0.016299083828926086,-0.06153661012649536,0.9728241443198251,0.0984585673878889,0.012116542372363983,-0.20921829610874618
1681249313132595200,1.27959521484375,0.06155167147517204,0.03428094461560249,0.11881372332572937,0.06500047445297241,-0.18754379451274872,-0.9801031947135925,0.0735643059015274,0.021314412355422974,-0.06039363145828247,0.9729949939302804,0.09898976258736553,0.012224194786799222,-0.208164507103356
1681249313147629300,1.29462939453125,0.09424405544996262,-0.03782440721988678,0.12549985945224762,0.0646534115076065,-0.18867987394332886,-0.9799081087112427,0.08357018232345581,0.02792838215827942,-0.011363863945007324,0.9731250941160982,0.09950616265012036,0.01202009301645637,-0.2073203437686229
1681249313162662100,1.309662109375,0.05035915598273277,-0.10446655005216599,0.03528660535812378,0.06333928555250168,-0.18986310064792633,-0.9797653555870056,0.08799709379673004,0.025693640112876892,0.032209813594818115,0.9731850162203591,0.09994854834516553,0.011296579885309263,-0.2068662564598426
1681249313177696300,1.3246962890625,0.01962377317249775,-0.17171908915042877,0.04207420349121094,0.0611676350235939,-0.190431147813797,-0.9797930717468262,0.05017545446753502,-0.019316285848617554,0.11774784326553345,0.9732318306055322,0.09999820144051577,0.010189012634605995,-0.20667917864819113
1681249313192729300,1.339729248046875,-0.046234600245952606,-0.21088886260986328,0.040250468999147415,0.05831297114491463,-0.19017793238162994,-0.98001629114151,0.03911410644650459,-0.018837079405784607,0.14104235172271729,0.9733230605972437,0.09956854794140613,0.008829160358320955,-0.20651963835018722
1681249313207762200,1.35476220703125,-0.09289456903934479,-0.23864884674549103,0.04955209046602249,0.05499327927827835,-0.18910160660743713,-0.9804164171218872,-0.009186681360006332,-0.03793404996395111,0.1683589220046997,0.9734574970849988,0.09868194893967291,0.00732604176584834,-0.20637055558201778
1681249313222796300,1.36979638671875,-0.10163106769323349,-0.2502687871456146,0.05443446710705757,0.05129857361316681,-0.18763309717178345,-0.9808987379074097,-0.02894473820924759,-0.0489850789308548,0.17805755138397217,0.9736264800653645,0.09756184151228858,0.005686161102633914,-0.2061573320389801
1681249313237829000,1.3848291015625,-0.024095796048641205,-0.23253263533115387,0.0478692390024662,0.04768909886479378,-0.18658925592899323,-0.9812798500061035,-0.07001300156116486,-0.03376305103302002,0.2006707787513733,0.9737654709677105,0.09666295211286302,0.004041583269508439,-0.20596303219122097
1681249313252863500,1.399863525390625,0.04986327514052391,-0.21049311757087708,0.03789863362908363,0.04430796205997467,-0.18676526844501495,-0.9814049005508423,-0.07812172919511795,-0.01767212152481079,0.19002306461334229,0.9738318197829181,0.09639452943981164,0.0023781461428186257,-0.20580074995798334
1681249313267896300,1.414896240234375,0.053119413554668427,-0.1927628517150879,0.01887301169335842,0.041292186826467514,-0.18762481212615967,-0.9813724756240845,-0.084429070353508,-0.0017521530389785767,0.16929972171783447,0.9738374798219378,0.09650447733932421,0.0008130338159628368,-0.20573482260922424
1681249313282930400,1.429930419921875,0.010233200155198574,-0.18147078156471252,-0.0009896433912217617,0.03851678594946861,-0.18805956840515137,-0.9814020991325378,-0.0836525708436966,-0.009694471955299377,0.15732067823410034,0.9738302525164347,0.09642921107092278,-0.0006030024264530556,-0.20580501785743405
1681249313297963300,1.44496337890625,0.021612994372844696,-0.14864599704742432,-0.019565990194678307,0.03608193248510361,-0.18814463913440704,-0.9814783334732056,-0.08159919083118439,-0.0436212420463562,0.15333807468414307,0.9738076448911207,0.09621590671668631,-0.0018277932482452606,-0.20600425385913101
1681249313312997400,1.459997314453125,0.05097072571516037,-0.10441195219755173,-0.052288517355918884,0.034286316484212875,-0.18865522742271423,-0.9814446568489075,-0.08590708673000336,-0.040913403034210205,0.13857972621917725,0.9737247323559601,0.09627996359860883,-0.0027982330878251202,-0.20635515824084327
1681249313328030500,1.475030517578125,0.059425726532936096,-0.06503818184137344,-0.07204757630825043,0.03323976695537567,-0.18955038487911224,-0.9813081622123718,-0.08621857315301895,-0.0227605402469635,0.1326143741607666,0.9735815065930485,0.09661238692927168,-0.0034571415627910208,-0.20686469454580902
1681249313343064300,1.490064208984375,-0.0012485389597713947,-0.04378695785999298,-0.1158834770321846,0.03273504972457886,-0.18991264700889587,-0.9812551140785217,-0.07986974716186523,-0.04481342434883118,0.1245352029800415,0.9734161784787548,0.09673622097324153,-0.0038141177391183495,-0.20757735405660213
1681249313358097400,1.505097412109375,-0.06858033686876297,-0.05088934302330017,-0.1630488485097885,0.032443609088659286,-0.1893104612827301,-0.9813811779022217,-0.037662405520677567,-0.07813046872615814,0.09640192985534668,0.9732202919168448,0.09640244661576794,-0.003999201264829285,-0.2086452105980566
1681249313373131300,1.52013134765625,-0.13155445456504822,-0.07254323363304138,-0.20192061364650726,0.03207553178071976,-0.1877056062221527,-0.9817014932632446,-0.01657288894057274,-0.08251242339611053,0.08588850498199463,0.9730075487087038,0.09556200512349552,-0.004143717845985058,-0.21001688221276094
1681249313388164400,1.535164306640625,-0.15211555361747742,-0.08930783718824387,-0.24184033274650574,0.031530898064374924,-0.18540553748607635,-0.9821560978889465,0.0009700357913970947,-0.06544908881187439,0.04201632738113403,0.9727593083408821,0.09435689553933069,-0.004327907961705788,-0.21170113712206962
1681249313403198200,1.5501982421875,-0.14872507750988007,-0.1359666883945465,-0.28932103514671326,0.030546750873327255,-0.18308624625205994,-0.9826221466064453,0.005280597135424614,-0.05637006461620331,0.014818251132965088,0.9724385530863173,0.09309310311271024,-0.004753061706225118,-0.21371547024488044
1681249313418231300,1.565231201171875,-0.11961203813552856,-0.1667291224002838,-0.34044522047042847,0.029011845588684082,-0.18102571368217468,-0.9830503463745117,0.011637281626462936,-0.04297342896461487,-0.015622079372406006,0.972011945029542,0.09189371483096993,-0.005510551365761906,-0.21614366604734284
1681249313433265200,1.58026513671875,-0.0860683023929596,-0.18139249086380005,-0.37331074476242065,0.02738255076110363,-0.17955493927001953,-0.9833667874336243,0.006110202521085739,-0.04906764626502991,-0.024949252605438232,0.9714836236633163,0.09097047311020164,-0.006401779607305531,-0.2188677123124568
1681249313448298200,1.59529833984375,-0.07525506615638733,-0.22734373807907104,-0.4134310185909271,0.025391725823283195,-0.17854075133800507,-0.9836048483848572,0.0011582784354686737,-0.04826603829860687,-0.04436451196670532,0.9708662122757222,0.09022590344912076,-0.007541254637580691,-0.22185882201456633
1681249313463332400,1.610332275390625,-0.07128402590751648,-0.20478808879852295,-0.45249584317207336,0.02330172248184681,-0.17733049392700195,-0.9838754534721375,0.021726684644818306,-0.057655006647109985,-0.04087424278259277,0.9701641822470756,0.08936419501446471,-0.00873543577496825,-0.22520952461915916
1681249313478365200,1.625365234375,-0.1434738039970398,-0.07304311543703079,-0.390576034784317,0.02225414104759693,-0.1756240725517273,-0.9842057228088379,-0.006125882267951965,-0.05595873296260834,-0.058778226375579834,0.9694935851075297,0.08837297660230195,-0.009345984881577537,-0.22844023194539712
1681249313493399300,1.6403994140625,-0.20810025930404663,0.14944082498550415,-0.29476481676101685,0.02369561232626438,-0.17293468117713928,-0.9846482276916504,-0.028548190370202065,-0.059990882873535156,-0.08906698226928711,0.9690191982502592,0.08719374112911356,-0.008552303725920566,-0.2309242927858034
1681249313508432400,1.655432373046875,-0.2938935458660126,0.3631648123264313,-0.23327134549617767,0.02820328064262867,-0.1690567433834076,-0.9852027297019958,-0.032125070691108704,-0.07029277086257935,-0.19808584451675415,0.9687441515940826,0.08580224028938345,-0.0060512437641998115,-0.2326716299547391
1681249313523466200,1.67046630859375,-0.3908640444278717,0.5080951452255249,-0.14559262990951538,0.03525802865624428,-0.1639653891324997,-0.9858357906341553,-0.0011701807379722595,-0.054006561636924744,-0.27788180112838745,0.9686320554138759,0.08412881664757024,-0.0021077486482380774,-0.23381581147905464
1681249313538499300,1.685499267578125,-0.514876663684845,0.5170052647590637,-0.07139057666063309,0.04329739883542061,-0.1570626199245453,-0.9866390824317932,0.08072575181722641,0.01305001974105835,-0.3736361861228943,0.9687433653183776,0.08169284094389426,0.002596286479759699,-0.23421348372330547
1681249313553533400,1.700533447265625,-0.5751818418502808,0.383095383644104,-0.05847424268722534,0.05032006651163101,-0.14889514446258545,-0.9875718355178833,0.1300385445356369,0.0029141753911972046,-0.3297803997993469,0.9689251523670215,0.07852100499913849,0.006966772260916852,-0.2344563994149566
1681249313568567300,1.7155673828125,-0.6089730858802795,0.2018265426158905,-0.23786236345767975,0.05488911643624306,-0.1399616301059723,-0.9886343479156494,0.19904737174510956,0.026817545294761658,-0.1847664713859558,0.9689942372645601,0.07469324907493802,0.01018480027973759,-0.23530299372794147
1681249313583601200,1.73060107421875,-0.6130040287971497,0.09903810173273087,-0.2597125470638275,0.05755983293056488,-0.1306726485490799,-0.989753246307373,0.18378815054893494,0.030269652605056763,-0.09995317459106445,0.9688568885810828,0.07048496294646274,0.012459451307291104,-0.2370504490743637
1681249313598634200,1.74563427734375,-0.6533970236778259,0.094711534678936,-0.21298684179782867,0.0593990795314312,-0.12105870991945267,-0.9908665418624878,0.10936285555362701,0.04116353392601013,-0.004098057746887207,0.968741636969821,0.06602782107359334,0.014389134686830623,-0.23869006751081906
1681249313613668000,1.760668212890625,-0.7185029983520508,0.16855166852474213,-0.15761972963809967,0.061615392565727234,-0.11061734706163406,-0.9919512867927551,0.06152275577187538,0.0022797882556915283,0.04967528581619263,0.9687246904611337,0.06121574987338094,0.01664305007438079,-0.23989191709612045
1681249313628701200,1.775701171875,-0.6883456110954285,0.2837408185005188,-0.10289124399423599,0.06521522253751755,-0.09981396794319153,-0.9928666353225708,-0.01292363554239273,-0.012170441448688507,0.0940629243850708,0.9687723893648778,0.05639674290378418,0.019649231160321398,-0.24065183367371268
1681249313643735300,1.7907353515625,-0.5789192318916321,0.3778068721294403,-0.05173404887318611,0.0703074112534523,-0.09020338952541351,-0.9934386014938354,-0.03780646622180939,0.018593735992908478,0.09301745891571045,0.9688435433540484,0.052338817899769616,0.023267071485450836,-0.24095982430665075
1681249313658768100,1.80576806640625,-0.45239555835723877,0.44805121421813965,-0.013236455619335175,0.0766114816069603,-0.08243460953235626,-0.9936474561691284,-0.03411604464054108,0.08139686286449432,0.06843078136444092,0.968900613080775,0.04932177440393875,0.027269904140321263,-0.2409466158859639
1681249313673802200,1.82080224609375,-0.34301480650901794,0.49259310960769653,-0.01549375057220459,0.083672434091568,-0.07637286186218262,-0.9935623407363892,-0.02907676249742508,0.09672793000936508,0.05262911319732666,0.9689248260009479,0.04722431437627377,0.03144356553569493,-0.24076080876648376
1681249313688835000,1.8358349609375,-0.27194273471832275,0.5058698058128357,-0.04051654785871506,0.09124467521905899,-0.07172682136297226,-0.9932420253753662,-0.016385339200496674,0.10250364243984222,0.04643416404724121,0.9688577467612892,0.04588279322654553,0.03568990165341497,-0.24069804044629342
1681249313703869200,1.850869140625,-0.2915569245815277,0.5079553127288818,-0.08588722348213196,0.09888844192028046,-0.06744170933961868,-0.9928104877471924,-0.015835121273994446,0.09519728273153305,0.05277752876281738,0.9686924079501242,0.04473783518958387,0.039915848169931205,-0.2409155471286798
1681249313718902000,1.865902099609375,-0.3646338880062103,0.497004896402359,-0.14030252397060394,0.10654190182685852,-0.06226307153701782,-0.9923568367958069,-0.008992746472358704,0.06528414785861969,0.09388881921768188,0.9684373000230726,0.0431772671928985,0.04424132445081711,-0.2414697387852011
1681249313733936000,1.88093603515625,-0.46776771545410156,0.48180118203163147,-0.19464139640331268,0.11404760181903839,-0.055760059505701065,-0.9919092655181885,-0.009479396045207977,0.03369569033384323,0.11089730262756348,0.9680901152818233,0.04097854488603471,0.04864291373939707,-0.24239697785189304
1681249313748969000,1.895968994140625,-0.5469050407409668,0.44369933009147644,-0.24895790219306946,0.12117704749107361,-0.04768747091293335,-0.9914847612380981,-0.006736397743225098,0.021106496453285217,0.11396706104278564,0.9676632153617833,0.03799750037854961,0.05304535572381429,-0.24366031501442953
1681249313764003300,1.91100341796875,-0.6090152859687805,0.373869925737381,-0.25154757499694824,0.12744736671447754,-0.038521118462085724,-0.9910970330238342,-0.005499392747879028,0.02033247798681259,0.12226152420043945,0.9671842527780324,0.034404127822961594,0.057165096856913726,-0.2451595916312367
1681249313779036200,1.9260361328125,-0.6223535537719727,0.293101042509079,-0.2472260445356369,0.13252010941505432,-0.028790101408958435,-0.9907621145248413,-0.0032631754875183105,0.030651511624455452,0.13201266527175903,0.9667342601254421,0.03039555013001526,0.06078698466731026,-0.24658845573085364
1681249313794070300,1.9410703125,-0.6353800296783447,0.22803470492362976,-0.2519899308681488,0.13647982478141785,-0.01895066909492016,-0.9904615879058838,-0.005956441164016724,0.028410956263542175,0.1318342685699463,0.9662768354894092,0.02620922894907706,0.06389279676162425,-0.24807235461697347
1681249313809103400,1.956103271484375,-0.6891767382621765,0.17370222508907318,-0.21235008537769318,0.13953980803489685,-0.008640502579510212,-0.9901787638664246,-0.008360296487808228,0.029331253841519356,0.11545342206954956,0.9658623116210299,0.02167971968313456,0.06663788564013644,-0.24939826248347335
1681249313824137200,1.97113720703125,-0.7523716688156128,0.14798566699028015,-0.17447780072689056,0.14188137650489807,0.0025081548374146223,-0.9898805022239685,-0.006414130330085754,0.01992209628224373,0.11701667308807373,0.9655224744804758,0.016637801831525263,0.069158793252589,-0.2504128284106436
1681249313839170300,1.98617041015625,-0.7710489630699158,0.1502043604850769,-0.11389888823032379,0.1440993696451187,0.014283612370491028,-0.9894601106643677,-0.026042401790618896,-0.03901827707886696,0.12404263019561768,0.9652540923147903,0.011252064695220545,0.07171698673799269,-0.25102710544054296
1681249313854204200,2.0012041015625,-0.7163578867912292,0.145956352353096,-0.08412181586027145,0.14629222452640533,0.025622887536883354,-0.9889095425605774,-0.032675549387931824,-0.04936572536826134,0.12149310111999512,0.9650412728641455,0.0060513756442332495,0.0742200596058044,-0.251296895652901
1681249313869237200,2.0162373046875,-0.6074404716491699,0.1357726901769638,-0.06364583224058151,0.14835184812545776,0.03567250818014145,-0.9882910251617432,-0.04370734095573425,-0.025754466652870178,0.12349915504455566,0.9648408585218807,0.001450966527695944,0.0765007791863204,-0.2514511211495865
1681249313884271000,2.03127099609375,-0.4725465476512909,0.16496412456035614,-0.04419064521789551,0.15049512684345245,0.04386459290981293,-0.9876371622085571,-0.05390726029872894,-0.023662123829126358,0.13807350397109985,0.9646541256294232,-0.00224489938657307,0.07859002581860478,-0.2515172136502695
1681249313899304200,2.04630419921875,-0.3298335373401642,0.24524378776550293,0.012285149656236172,0.15349699556827545,0.04981745406985283,-0.9868925213813782,-0.09847407042980194,-0.05149608477950096,0.14616376161575317,0.9644882413006841,-0.0047597764664178656,0.08081505047225646,-0.25141330267353224
1681249313914338000,2.061338134765625,-0.21087419986724854,0.3283977806568146,0.050724416971206665,0.1578056961297989,0.05365758016705513,-0.986011266708374,-0.11927752196788788,-0.05725881829857826,0.12620896100997925,0.964362561417896,-0.0061093157961429004,0.08340887646902873,-0.25101878768563246
1681249313929371100,2.07637109375,-0.1273047924041748,0.37501347064971924,0.08905476331710815,0.16315150260925293,0.05603686720132828,-0.9850083589553833,-0.12617972493171692,-0.05838688462972641,0.07793432474136353,0.9642587767919277,-0.006638765034317893,0.0863235233841076,-0.2504177819034904
1681249313944404200,2.091404296875,-0.06274071335792542,0.3836993873119354,0.11110706627368927,0.16887781023979187,0.057148758322000504,-0.983978807926178,-0.11930228769779205,-0.055653560906648636,0.06048637628555298,0.9641923457784155,-0.0065237344630136385,0.0892638523344818,-0.24964465580152292
1681249313959438000,2.10643798828125,-0.011381387710571289,0.3690069913864136,0.133503720164299,0.17456507682800293,0.05736187472939491,-0.9829733967781067,-0.09895806014537811,-0.04958005249500275,0.023149728775024414,0.9641608869611179,-0.005991841789951949,0.09207286855337532,-0.24875772255558506
1681249313974471200,2.12147119140625,0.05069056153297424,0.3430619537830353,0.15268753468990326,0.17997567355632782,0.05670792981982231,-0.9820351004600525,-0.0936722457408905,-0.044058557599782944,0.009653449058532715,0.9641788775597286,-0.005090140631373117,0.09463895994991821,-0.2477432035000784
1681249313989505000,2.136505126953125,0.0883064866065979,0.3181041181087494,0.2232900708913803,0.185059055685997,0.055030111223459244,-0.9811854362487793,-0.08151319622993469,-0.03412573039531708,-0.01829582452774048,0.9642803959628063,-0.003760250410486088,0.09691826742157941,-0.24648727058183192
1681249314004538000,2.1515380859375,0.07978357374668121,0.29082509875297546,0.2571936845779419,0.18968184292316437,0.05306973680853844,-0.9804103374481201,-0.08253489434719086,-0.02871686965227127,-0.03838855028152466,0.9645257955691221,-0.0024062384341865185,0.09893961533051382,-0.2447350287072861
1681249314019572200,2.166572265625,0.11927568912506104,0.38437530398368835,0.34157595038414,0.1946772336959839,0.050889428704977036,-0.9795463681221008,-0.06250587105751038,-0.02118072658777237,-0.045417070388793945,0.9648092793587112,-0.0009321532837031249,0.10112348330480327,-0.24272665383876077
1681249314034605300,2.181605224609375,0.2862307131290436,0.578028678894043,0.4544244706630707,0.20203234255313873,0.04683143272995949,-0.9782585501670837,-0.07530836760997772,0.0035376623272895813,-0.06779253482818604,0.9651622140831658,0.0016600936530800435,0.10424960255794018,-0.23998150129356013
1681249314049639200,2.19663916015625,0.4457216262817383,0.7466102242469788,0.5188644528388977,0.21216405928134918,0.03977251797914505,-0.9764243960380554,-0.07013551890850067,0.09693081676959991,-0.17855918407440186,0.9654894469521775,0.0059836022295203795,0.10840669148147977,-0.23673229359467052
1681249314064672300,2.21167236328125,0.5463275909423828,0.9016866087913513,0.5493672490119934,0.2244601994752884,0.030731849372386932,-0.9739985466003418,-0.052326083183288574,0.13973918557167053,-0.24624687433242798,0.9657201125498486,0.01148257547597535,0.11344107043731116,-0.23320371387859698
1681249314079706000,2.2267060546875,0.5591663718223572,1.0397837162017822,0.5527343153953552,0.23889455199241638,0.02058502286672592,-0.9708272814750671,0.010815247893333435,0.10897719860076904,-0.35903722047805786,0.965775572436908,0.017737065724116614,0.11946440935414823,-0.22954565315856637
1681249314094739200,2.2417392578125,0.34643155336380005,0.9727895855903625,0.5462782382965088,0.254023015499115,0.01162381935864687,-0.967128336429596,0.05179336667060852,0.11558855324983597,-0.44734621047973633,0.9656875062334821,0.02345963863885378,0.12603762255183668,-0.2258578733680442
1681249314109773000,2.25677294921875,-0.12294381111860275,0.6711413264274597,0.5140960812568665,0.26618635654449463,0.007733904290944338,-0.963890552520752,0.21855458617210388,0.13507294654846191,-0.5329967141151428,0.9657616535537691,0.026276250979018707,0.1317735949013063,-0.221922667909848
1681249314124806100,2.27180615234375,-0.6032800674438477,0.28549665212631226,0.3409929871559143,0.27316057682037354,0.011481606401503086,-0.9618999361991882,0.29266557097435,0.07933855056762695,-0.46803176403045654,0.9660705293113802,0.024741630201439022,0.1357861886478692,-0.21830617037067493
1681249314139840000,2.286840087890625,-0.7945868372917175,0.04683642089366913,0.19078566133975983,0.27537375688552856,0.020879369229078293,-0.9611104726791382,0.27671945095062256,-0.03650452196598053,-0.2279459834098816,0.9664757154630119,0.019983060445593413,0.13800521896886936,-0.21559204325469075
1681249314154873000,2.301873046875,-0.7284567952156067,-0.07751429080963135,0.07396741956472397,0.27511414885520935,0.0314604714512825,-0.9608966708183289,0.20646822452545166,-0.010723914951086044,-0.13897216320037842,0.9667994507816704,0.014496964448448049,0.13907369922467105,-0.213885819174473
1681249314169907200,2.3169072265625,-0.6311401724815369,-0.14656180143356323,0.022501567378640175,0.2735304832458496,0.04108134284615517,-0.9609856605529785,0.0860120952129364,0.0681867003440857,-0.06960833072662354,0.9670471972417776,0.009433049134129866,0.13934919739294505,-0.2128672106696575
1681249314184940000,2.33193994140625,-0.5708408951759338,-0.22406485676765442,0.014040172100067139,0.27081498503685,0.049732331186532974,-0.961345911026001,0.07229384779930115,0.08131001144647598,-0.061817049980163574,0.9673006434262179,0.004764071851504048,0.13894010856635838,-0.21213785015172457
1681249314199974100,2.34697412109375,-0.48417943716049194,-0.26679369807243347,0.017737172544002533,0.2672484815120697,0.057364124804735184,-0.9619187116622925,0.09182104468345642,0.08104820549488068,-0.029689013957977295,0.9675926761276518,0.0005160813819379136,0.13798688062750586,-0.21147966404221438
1681249314215007000,2.362007080078125,-0.41745075583457947,-0.2954200208187103,-0.010071288794279099,0.2631565034389496,0.06376422196626663,-0.9626436233520508,0.08680355548858643,0.06718656420707703,-0.009249746799468994,0.9678886884150331,-0.003156686730500452,0.13663167661862896,-0.2109817371540546
1681249314230041300,2.377041259765625,-0.37909695506095886,-0.27423563599586487,0.01155544351786375,0.2590082287788391,0.069526806473732,-0.9633694887161255,0.0663241446018219,0.03606386482715607,0.03546720743179321,0.9681636105403335,-0.006504793417734976,0.1351774506163747,-0.21058023547136348
1681249314245074200,2.39207421875,-0.4204483926296234,-0.2637939155101776,0.034704968333244324,0.25511881709098816,0.07516922801733017,-0.963983416557312,0.052787959575653076,0.025599665939807892,0.06470662355422974,0.968444343776987,-0.009785122883827975,0.13383779594317202,-0.21001741631022244
1681249314260108300,2.4071083984375,-0.4642890989780426,-0.2441810518503189,0.08786699175834656,0.25149667263031006,0.08133194595575333,-0.964434802532196,0.03146204352378845,-0.007296435534954071,0.13811028003692627,0.9687573796936828,-0.013337540074696475,0.13268268909952038,-0.2091089208911976
1681249314275141000,2.42214111328125,-0.4969697594642639,-0.20320723950862885,0.1400473713874817,0.2483777403831482,0.08787598460912704,-0.9646689891815186,0.014164701104164124,-0.034226223826408386,0.17929905652999878,0.9691071849901328,-0.01708045238202375,0.13180953142692362,-0.20776345492020118
1681249314290175200,2.43717529296875,-0.5068463087081909,-0.17144770920276642,0.18672166764736176,0.2459009736776352,0.09455431997776031,-0.9646720886230469,-0.025976315140724182,-0.048747576773166656,0.23717868328094482,0.9694660784346864,-0.020863775753232384,0.13125803739417174,-0.20608595792368617
1681249314305208300,2.452208251953125,-0.47311872243881226,-0.13661277294158936,0.2374493032693863,0.24402424693107605,0.10094098746776581,-0.9645014405250549,-0.03421618044376373,-0.03892940282821655,0.25156497955322266,0.9698656318508673,-0.024495286028464684,0.13095513087086422,-0.20398863319859806
1681249314320242200,2.4672421875,-0.4516278803348541,-0.1220354288816452,0.2765847146511078,0.24254494905471802,0.10676615685224533,-0.9642473459243774,-0.0496893972158432,-0.007690988481044769,0.26898056268692017,0.9702907683423349,-0.0278411865401397,0.13077154586595752,-0.20164197712223317
1681249314335275300,2.482275146484375,-0.44751229882240295,-0.08845029771327972,0.33231693506240845,0.24154846370220184,0.11219824105501175,-0.9638806581497192,-0.051439493894577026,-0.013931773602962494,0.2754650115966797,0.9707477045276409,-0.030987259353155282,0.13076494631243998,-0.19897007100651992
1681249314350309000,2.49730908203125,-0.4650610089302063,-0.04962807148694992,0.37391898036003113,0.24115997552871704,0.11759763211011887,-0.9633341431617737,-0.07160459458827972,-0.027357272803783417,0.2778635025024414,0.9712256680998393,-0.03410722399739606,0.13103292642870656,-0.1959278748702237
1681249314365342200,2.51234228515625,-0.4690496027469635,0.005580324679613113,0.4000594913959503,0.24150127172470093,0.1229245737195015,-0.9625833630561829,-0.0824897289276123,-0.03216542303562164,0.2771890163421631,0.9716972375461476,-0.03716093617968389,0.13163356268885873,-0.19260366430662842
1681249314380376000,2.5273759765625,-0.48580148816108704,0.09080760926008224,0.45979633927345276,0.24286672472953796,0.1283448338508606,-0.9615317583084106,-0.10576678812503815,-0.04654259979724884,0.25318819284439087,0.9721374716475295,-0.04020888527092631,0.13273038060521639,-0.18898353494443382
1681249314395409200,2.5424091796875,-0.4749869406223297,0.1917712390422821,0.4869097173213959,0.2458716779947281,0.1335439831018448,-0.9600589275360107,-0.12471717596054077,-0.05708232522010803,0.2370973825454712,0.9725103037235632,-0.04304351507289184,0.13460235618888416,-0.1850764662891774
1681249314410443000,2.557443115234375,-0.41733255982398987,0.28657495975494385,0.48763543367385864,0.2503567337989807,0.13824871182441711,-0.9582321047782898,-0.1589416265487671,-0.06763114035129547,0.18395531177520752,0.9727861974086648,-0.04552205146201193,0.1371556811572369,-0.18111630273953813
1681249314425476000,2.57247607421875,-0.36032333970069885,0.35320085287094116,0.4837157726287842,0.2559587061405182,0.14202409982681274,-0.9561977982521057,-0.16512343287467957,-0.0688583105802536,0.16414451599121094,0.9729736714306506,-0.04744637179107089,0.1401782009006539,-0.17725991625587428
1681249314440510200,2.58751025390625,-0.2700047492980957,0.4104801416397095,0.4508949816226959,0.26251259446144104,0.14481256902217865,-0.9540002346038818,-0.1701819896697998,-0.054114460945129395,0.12074822187423706,0.9730624381766624,-0.048787075613690556,0.14359562435560455,-0.17363630008668454
1681249314455543300,2.602543212890625,-0.16391457617282867,0.4440807104110718,0.4055898189544678,0.26954659819602966,0.14618979394435883,-0.9518262147903442,-0.18165630102157593,-0.05186009407043457,0.09622007608413696,0.9730704338286321,-0.04934546697179546,0.14714589183179286,-0.17043141560278927
1681249314470577200,2.6175771484375,-0.0676080733537674,0.453067809343338,0.3444039523601532,0.27685245871543884,0.14624403417110443,-0.9497185945510864,-0.17451205849647522,-0.05139550566673279,0.044368743896484375,0.9729993539074285,-0.04916628704718458,0.15074277133480307,-0.16772446740033323
1681249314485610200,2.6326103515625,-0.02327069640159607,0.4424830675125122,0.2894720137119293,0.2839701175689697,0.14565175771713257,-0.9477059245109558,-0.18004277348518372,-0.05310732126235962,0.017438530921936035,0.9728578979802006,-0.048617521344281975,0.15421857207673825,-0.1655309225893937
1681249314500644000,2.64764404296875,0.029444605112075806,0.3961898684501648,0.21896137297153473,0.29054632782936096,0.14442269504070282,-0.9458990097045898,-0.18205663561820984,-0.05944661796092987,-0.030770421028137207,0.9726835163941605,-0.04773160886576397,0.1573918478489565,-0.1638178902820831
1681249314515678200,2.66267822265625,0.05312569811940193,0.35864970088005066,0.19501928985118866,0.29628100991249084,0.14302481710910797,-0.9443312287330627,-0.18112322688102722,-0.05397464334964752,-0.0678606629371643,0.9724994146612073,-0.0467728910925698,0.16014581965635855,-0.16251314140567918
1681249314530711300,2.677711181640625,0.1547158658504486,0.2951660454273224,0.16350875794887543,0.3013876974582672,0.14073069393634796,-0.9430590271949768,-0.1797754466533661,-0.017287209630012512,-0.15430742502212524,0.9723631457932208,-0.04539606162492101,0.1625105757544449,-0.16136729558799562
1681249314545744100,2.692744140625,0.2120654433965683,0.16991254687309265,0.039955925196409225,0.3049642741680145,0.13765369355678558,-0.9423631429672241,-0.16574335098266602,0.01375916600227356,-0.21175074577331543,0.9722571321246477,-0.04363637137741566,0.16405579570771747,-0.16092739283717644
1681249314560778200,2.7077783203125,0.20760981738567352,0.015883028507232666,-0.10934381186962128,0.3061996102333069,0.13479086756706238,-0.9423763751983643,-0.10138118267059326,0.044667646288871765,-0.2718724012374878,0.972170640738327,-0.04200927374306097,0.16445983265043215,-0.16146951307569835
1681249314575812000,2.72281201171875,0.1683775633573532,-0.06634419411420822,-0.17736467719078064,0.30540207028388977,0.13273033499717712,-0.9429274797439575,-0.07545241713523865,0.02966885268688202,-0.28784656524658203,0.9720902196717077,-0.040817746973821865,0.16392123959792357,-0.16280156377435057
1681249314590846000,2.737845947265625,0.0008295256411656737,-0.03553302586078644,-0.18287794291973114,0.30421164631843567,0.1323125660419464,-0.9433709383010864,-0.06620532274246216,0.014949902892112732,-0.2934608459472656,0.9719639306171582,-0.04046689878058008,0.1633308767592296,-0.16423051991281654
1681249314605879000,2.752879150390625,-0.1397629976272583,0.0697353407740593,-0.1763681173324585,0.3039855659008026,0.13428938388824463,-0.9431644082069397,-0.08726528286933899,-0.00907588005065918,-0.2922940254211426,0.9716981288693649,-0.04126463402822111,0.16344729006127726,-0.16548407777662408
1681249314620913200,2.7679130859375,-0.08185123652219772,0.2703690826892853,-0.15056714415550232,0.30597636103630066,0.13689161837100983,-0.9421460032463074,-0.09810617566108704,-0.021809950470924377,-0.3381580114364624,0.9712602655386137,-0.042225676526629036,0.16475429083990273,-0.16651275139934482
1681249314635946200,2.7829462890625,0.10587114840745926,0.38904115557670593,-0.18457970023155212,0.3105025291442871,0.13738183677196503,-0.9405925869941711,-0.10490590333938599,0.015846818685531616,-0.4163106083869934,0.9706294322161761,-0.04185725884988135,0.16718755546924136,-0.16785358147141352
1681249314650980400,2.79798046875,0.254309743642807,0.3188748359680176,-0.3058454394340515,0.31525948643684387,0.13603198528289795,-0.9392054080963135,-0.04710179567337036,0.14556884765625,-0.5951880216598511,0.9699121605117529,-0.040413423825202556,0.16959971268336763,-0.1699208336763835
1681249314666014200,2.81301416015625,0.4081011712551117,-0.02061080001294613,-0.49803245067596436,0.31670528650283813,0.13328917324543,-0.9391122460365295,0.021902233362197876,0.16360096633434296,-0.60111004114151,0.9692820379676089,-0.038314180262666406,0.17022312348206015,-0.17334506585550047
1681249314681047300,2.82804736328125,0.49693629145622253,-0.35494646430015564,-0.6431664228439331,0.3127541244029999,0.12944559752941132,-0.9409722089767456,0.17857858538627625,0.17569954693317413,-0.41718220710754395,0.9689076862494276,-0.035926790851084675,0.16799749574342124,-0.17805656563150196
1681249314696080100,2.843080078125,0.47222229838371277,-0.5050458908081055,-0.7507752180099487,0.30510562658309937,0.12585900723934174,-0.9439650774002075,0.19011807441711426,0.1840773969888687,-0.27986621856689453,0.9686356146248619,-0.03388878572348764,0.16391769886760746,-0.18365079313920354
1681249314711114200,2.8581142578125,0.4530484676361084,-0.44559380412101746,-0.8163943886756897,0.2966645359992981,0.12290719151496887,-0.9470396041870117,0.08686482906341553,0.12675698101520538,-0.030514836311340332,0.9682433186726868,-0.03220098103757537,0.15950957368481794,-0.1898018514156799
1681249314726148000,2.873148193359375,0.4816471040248871,-0.24528785049915314,-0.841693103313446,0.29014772176742554,0.11994325369596481,-0.9494355916976929,0.038816213607788086,0.11534713208675385,0.02989506721496582,0.9675612719335007,-0.030311119454434578,0.15608794899343795,-0.19632369309401881
1681249314741181200,2.88818115234375,0.5230291485786438,-0.040742963552474976,-0.8688762784004211,0.2866719663143158,0.11647064983844757,-0.9509226083755493,-0.028752923011779785,0.16075089573860168,0.004969120025634766,0.9665516087584846,-0.027863251009145773,0.15415039120555446,-0.2030747600270391
1681249314756215000,2.903215087890625,0.6689932346343994,0.02897592820227146,-0.9601070880889893,0.2851235568523407,0.11192004382610321,-0.9519340395927429,-0.022443771362304688,0.18208616971969604,-0.029312968254089355,0.9652446491473888,-0.02461103052042026,0.1530596813991442,-0.21040391448950085
1681249314771248000,2.918248046875,0.7947044372558594,0.05387914925813675,-1.0272243022918701,0.28413528203964233,0.10558884590864182,-0.9529523253440857,0.03155353665351868,0.20802488923072815,-0.08327209949493408,0.9637271213868538,-0.020327501076737618,0.1520217974805537,-0.21841775419331247
1681249314786282000,2.933281982421875,0.8759303092956543,0.02950350008904934,-1.1208044290542603,0.28309398889541626,0.09812434017658234,-0.9540594220161438,0.04548850655555725,0.23079396784305573,-0.07723641395568848,0.961992469481752,-0.0153977584319034,0.15077530019492796,-0.22715684659084734
1681249314801315000,2.948315185546875,0.8682565093040466,0.020413599908351898,-1.1866012811660767,0.28181737661361694,0.09043940901756287,-0.9551961421966553,0.03658750653266907,0.1745293140411377,0.004649817943572998,0.9600331435058739,-0.010317965337590655,0.14931665582702772,-0.23650486095521414
1681249314816349200,2.96334912109375,0.7666676044464111,-0.003688008524477482,-1.2260866165161133,0.28036126494407654,0.08374742418527603,-0.9562342762947083,0.022220253944396973,0.15126828849315643,0.0712701678276062,0.9578810271248337,-0.0057324715536437205,0.14781750479506775,-0.24613245934874037
1681249314831382300,2.97838232421875,0.5978682041168213,-0.04717370122671127,-1.2729337215423584,0.2785172164440155,0.07913663238286972,-0.9571653604507446,-0.0006396770477294922,0.09324173629283905,0.19353920221328735,0.9555683312614077,-0.002225119148749939,0.1463296339923435,-0.25587478210228726
1681249314846416100,2.993416015625,0.426926851272583,-0.12511083483695984,-1.3464607000350952,0.2757595181465149,0.07720406353473663,-0.9581211805343628,-0.00024706125259399414,0.07863377034664154,0.23017007112503052,0.9531104761605896,-0.00014894544700255868,0.14470446602875095,-0.26578358431856824
1681249314861449200,3.00844921875,0.25438013672828674,-0.16108162701129913,-1.2715022563934326,0.27206236124038696,0.07779267430305481,-0.9591299891471863,0.0057236552238464355,0.06541087478399277,0.2670522928237915,0.9505951306586842,0.0005208461934731416,0.14295008366719517,-0.27556088549530405
1681249314876483300,3.0234833984375,0.17132088541984558,-0.1868533045053482,-1.200626015663147,0.26807495951652527,0.07976145297288895,-0.9600905776023865,0.007574796676635742,0.06821809709072113,0.2842940092086792,0.9481881603174244,0.0003363807126447442,0.1412607368370354,-0.28457786580383215
1681249314891516200,3.03851611328125,0.16041642427444458,-0.23414091765880585,-1.125396490097046,0.26361191272735596,0.08208643645048141,-0.9611298441886902,0.005797028541564941,0.05925554037094116,0.2953583002090454,0.9458739772100112,-0.0001977877063075586,0.13940960285096618,-0.2930654414619417
1681249314906550300,3.05355029296875,0.1799142211675644,-0.2738302946090698,-1.0513815879821777,0.25863251090049744,0.08386681973934174,-0.9623281955718994,0.004810243844985962,0.05248553305864334,0.28416651487350464,0.9436989211052245,-0.0006617571897859757,0.13724232717727017,-0.300992504021097
1681249314921583000,3.0685830078125,0.18686731159687042,-0.29472386837005615,-0.9822912216186523,0.2531610131263733,0.08527882397174835,-0.9636581540107727,-0.0017422139644622803,0.03030630201101303,0.26652979850769043,0.9416650187027166,-0.0011382914314593405,0.13479478002354178,-0.3083763553628799
1681249314936617200,3.0836171875,0.25988394021987915,-0.25466060638427734,-0.9075719714164734,0.24781563878059387,0.08574938774108887,-0.9650049209594727,-0.007856175303459167,0.025654815137386322,0.2806329131126404,0.9397255443008815,-0.0012432265652642955,0.13227246816750726,-0.3153067499328423
1681249314951650000,3.098650146484375,0.336467981338501,-0.1530841588973999,-0.7559124231338501,0.24366997182369232,0.08459050208330154,-0.9661622047424316,-0.04522965848445892,0.027866579592227936,0.26508182287216187,0.9379243403298402,-0.0005051663347374954,0.1300716949466588,-0.3215260799799348
1681249314966684200,3.11368408203125,0.4162062406539917,-0.05611313134431839,-0.5849782228469849,0.24135461449623108,0.08157990127801895,-0.9670019149780273,-0.04765978455543518,0.05005745589733124,0.24477285146713257,0.9363910351717101,0.001239254453308544,0.12844265867092833,-0.3266078284633904
1681249314981717000,3.128717041015625,0.4773949086666107,0.030499257147312164,-0.4439694881439209,0.24059592187404633,0.07695034146308899,-0.9675702452659607,-0.02469956874847412,0.0532221719622612,0.1953839659690857,0.9351313785672907,0.0038569718265418695,0.12727916689779933,-0.3306271335437994
1681249314996751000,3.143751220703125,0.4805130362510681,0.10469013452529907,-0.3353729546070099,0.241127610206604,0.07136034965515137,-0.9678663015365601,-0.0044487714767456055,0.05583669990301132,0.16662722826004028,0.9340767969735951,0.007031159356649414,0.12655992145948894,-0.3338167093730474
1681249315011784200,3.1587841796875,0.461163729429245,0.22597607970237732,-0.21579061448574066,0.2431727945804596,0.06552489101886749,-0.9677672386169434,0.030600175261497498,0.0695304349064827,0.10566085577011108,0.9331929102166356,0.010473202339464291,0.1265175055130965,-0.3362061562794998
1681249315026818300,3.173818359375,0.4234376549720764,0.40054255723953247,-0.06104898825287819,0.24751007556915283,0.05967583879828453,-0.967045783996582,0.033602356910705566,0.08012497425079346,0.06613630056381226,0.9325007061852882,0.014188052713045518,0.12757666391795092,-0.33758750756126965
1681249315041851400,3.188851318359375,0.43436333537101746,0.6117845177650452,0.10033271461725235,0.2549140155315399,0.05341841280460358,-0.9654870629310608,0.04510405659675598,0.08928157389163971,-0.035657405853271484,0.9320091643365981,0.018479425086637278,0.1300575547695436,-0.33779044569682515
1681249315056885200,3.20388525390625,0.36897674202919006,0.7182151079177856,0.20098716020584106,0.26482993364334106,0.04683184623718262,-0.9631572365760803,0.059785306453704834,0.11262229084968567,-0.11641740798950195,0.9316668053695181,0.023237362737715716,0.1337213532015712,-0.3370097733015471
1681249315071918300,3.21891845703125,0.1628720611333847,0.6673910617828369,0.22403095662593842,0.2751022279262543,0.04191315546631813,-0.960500955581665,0.17629829049110413,0.18112435936927795,-0.2790316343307495,0.9314525091315182,0.027182920186610872,0.1378790040019266,-0.3356288831293624
1681249315086952200,3.2339521484375,-0.13505549728870392,0.6021214723587036,0.2382836639881134,0.28449758887290955,0.040770675987005234,-0.9578093886375427,0.23629990220069885,0.17381346225738525,-0.32104504108428955,0.9313626905579044,0.02912058598354486,0.14229294566583972,-0.3338687303236328
1681249315101985300,3.2489853515625,-0.4223315119743347,0.6083958745002747,0.22121334075927734,0.29311004281044006,0.043948695063591,-0.955068051815033,0.29870185256004333,0.07819771021604538,-0.2977701425552368,0.9313441645893247,0.028817724459716323,0.1470901233744457,-0.3318616185029599
1681249315117019100,3.26401904296875,-0.6535413861274719,0.6753237843513489,0.2717862129211426,0.30247795581817627,0.05070548132061958,-0.9518067240715027,0.2898527681827545,0.0422966293990612,-0.2779296636581421,0.9313318421619391,0.02685809236977249,0.15288975872176389,-0.32943042490538865
1681249315132052200,3.27905224609375,-0.894219696521759,0.7069693207740784,0.3450513780117035,0.3126866817474365,0.06029617786407471,-0.9479406476020813,0.2826805114746094,0.030264534056186676,-0.26031142473220825,0.9314202540112394,0.023536168142327233,0.1596112033997361,-0.32623118325902056
1681249315147086000,3.294086181640625,-1.1322776079177856,0.6556563377380371,0.3998536467552185,0.32283496856689453,0.07293817400932312,-0.9436406493186951,0.29955554008483887,0.015394747257232666,-0.2502986788749695,0.9316570003881179,0.018560790448339963,0.16683879749504912,-0.3222354738969317
1681249315162119200,3.309119140625,-1.3183951377868652,0.5311546325683594,0.4270192086696625,0.3317749798297882,0.08842264115810394,-0.9392054080963135,0.3298916518688202,-0.0005627274513244629,-0.19125735759735107,0.9320288396264399,0.011854421869058947,0.1739447168881955,-0.31768703899637707
1681249315177153000,3.324153076171875,-1.2964491844177246,0.40068796277046204,0.41352763772010803,0.33891555666923523,0.10495172441005707,-0.9349445700645447,0.31824973225593567,-0.0010700896382331848,-0.1408306360244751,0.9325064832379896,0.004226056760307635,0.18030487341559856,-0.31289607937251646
1681249315192186000,3.33918603515625,-1.0222055912017822,0.3729652464389801,0.40062808990478516,0.34486517310142517,0.11946500092744827,-0.9310188889503479,0.2500900328159332,0.042766258120536804,-0.02585989236831665,0.9329285737211908,-0.0026264562554237886,0.18569778777147386,-0.30847003281527424
1681249315207220000,3.354219970703125,-0.6179504990577698,0.408162921667099,0.4534305930137634,0.3511860966682434,0.12863993644714355,-0.9274265766143799,0.1985725462436676,0.08969786763191223,-0.006640255451202393,0.9333289906243095,-0.006843671167621629,0.1903677191719634,-0.304319308230798
1681249315222253000,3.369253173828125,-0.3332878351211548,0.35206130146980286,0.47586503624916077,0.35747230052948,0.1326669305562973,-0.9244528412818909,0.18361937999725342,0.17966502904891968,-0.05830484628677368,0.9337995421907954,-0.008572260363905473,0.1941651428240492,-0.30040765129002994
1681249315237287200,3.384287109375,-0.16788534820079803,0.28517335653305054,0.4938688278198242,0.3627750277519226,0.13337239623069763,-0.9222831130027771,0.2167229950428009,0.19316548109054565,-0.07715243101119995,0.934410457051986,-0.008841936917624502,0.19692708729784109,-0.2966793540522111
1681249315252320300,3.3993203125,-0.14584369957447052,0.2942541837692261,0.5067330002784729,0.3677540719509125,0.1326696127653122,-0.9204106330871582,0.27418291568756104,0.13290941715240479,-0.09312403202056885,0.9350805691446519,-0.008496585331779096,0.1993050307912343,-0.2929670882196188
1681249315267354400,3.414354248046875,-0.2276778370141983,0.2737678289413452,0.4979306757450104,0.3727068603038788,0.13238541781902313,-0.9184572696685791,0.2812693417072296,0.08344997465610504,-0.08412158489227295,0.9357437371648419,-0.008396169237988388,0.20174459799623085,-0.28915790651697626
1681249315282387200,3.42938720703125,-0.3072390556335449,0.20160922408103943,0.4873698949813843,0.3770425319671631,0.1333731710910797,-0.9165427088737488,0.3315753936767578,0.03470221161842346,-0.02210181951522827,0.9364180370335229,-0.009039745557009489,0.20407578810352606,-0.2852940512250287
1681249315297421300,3.44442138671875,-0.31879904866218567,0.057109564542770386,0.4270258843898773,0.3797924220561981,0.13505949079990387,-0.9151593446731567,0.3536820709705353,0.03065076470375061,-0.0049152374267578125,0.9371775146506442,-0.010254467035202256,0.2057064954143521,-0.28156375380829757
1681249315312454100,3.4594541015625,-0.31656351685523987,-0.07136611640453339,0.3622588515281677,0.380450576543808,0.13719670474529266,-0.9145678877830505,0.370663046836853,0.06943763792514801,0.029084980487823486,0.9379936943104419,-0.0119137382588284,0.2063349729970644,-0.27830153578923494
1681249315327488300,3.47448828125,-0.3285581171512604,-0.1498824954032898,0.3069290220737457,0.37956327199935913,0.1397804468870163,-0.9145452976226807,0.3512103855609894,0.05736292898654938,0.05179798603057861,0.9388291716521886,-0.013935161088194767,0.20623568226518124,-0.2754493670396562
1681249315342521000,3.48952099609375,-0.2636035680770874,-0.2122659832239151,0.2780390679836273,0.37769442796707153,0.14227324724197388,-0.914934515953064,0.2591308653354645,0.03509475290775299,0.08185029029846191,0.9396785440302017,-0.01599031734642544,0.20561381292531514,-0.27289443701120214
1681249315357555200,3.50455517578125,-0.17512089014053345,-0.29991117119789124,0.23951484262943268,0.374739408493042,0.1438063532114029,-0.915909469127655,0.2176828384399414,0.027870118618011475,0.08816581964492798,0.9405711486865708,-0.017650404260935986,0.2042883627134191,-0.27070419743276647
1681249315372589000,3.519589111328125,-0.12842071056365967,-0.3696308434009552,0.23104892671108246,0.3706246018409729,0.1445520967245102,-0.9174650311470032,0.167949378490448,0.027337968349456787,0.09580963850021362,0.9415368280871169,-0.01902819398314234,0.20225086203569975,-0.26877663320119566
1681249315387622100,3.5346220703125,-0.0946907103061676,-0.3937798738479614,0.24245098233222961,0.3658273220062256,0.1447998434305191,-0.9193494319915771,0.1457233428955078,0.01590554416179657,0.1068493127822876,0.9425804128372441,-0.020245988079759636,0.19978836336884198,-0.26686463303936525
1681249315402656000,3.549656005859375,-0.05068836361169815,-0.4043044149875641,0.25011342763900757,0.36086833477020264,0.14447788894176483,-0.9213578104972839,0.08050712943077087,-0.011177301406860352,0.13621670007705688,0.9436580159027231,-0.021199890445329914,0.19715900192245744,-0.26493083442070753
1681249315417689000,3.564689208984375,-0.004155432339757681,-0.4243082106113434,0.2328643947839737,0.3556683361530304,0.14357227087020874,-0.9235188364982605,0.055311620235443115,-0.014681458473205566,0.14471012353897095,0.9447408841009441,-0.02186651309380035,0.19432560985434386,-0.2631045248293847
1681249315432723200,3.57972314453125,0.06655607372522354,-0.453548401594162,0.2135056108236313,0.350046306848526,0.14193297922611237,-0.9259171485900879,0.02829509973526001,-0.012172430753707886,0.17045444250106812,0.9458198964032685,-0.022173954923311326,0.19117982812927783,-0.2615020732869812
1681249315447756000,3.594756103515625,0.09918326139450073,-0.4868600070476532,0.18520686030387878,0.34389546513557434,0.13974818587303162,-0.928550660610199,0.01972121000289917,-0.02217938005924225,0.17162305116653442,0.9468931456299583,-0.022228274399722508,0.18769807821232465,-0.2601320920495398
1681249315462790100,3.6097900390625,0.12869513034820557,-0.5206983685493469,0.16025970876216888,0.3372105360031128,0.1372443437576294,-0.9313715696334839,-0.0011054575443267822,-0.029868409037590027,0.16843199729919434,0.9479508702300197,-0.022143493066176526,0.18391267080436702,-0.2589882946634319
1681249315477823200,3.6248232421875,0.1726464480161667,-0.520988941192627,0.15083451569080353,0.3301679790019989,0.13448072969913483,-0.9342933297157288,-0.010252445936203003,-0.030675366520881653,0.1683782935142517,0.9489858404094165,-0.021936461202010017,0.1799225487751209,-0.2580164471841852
1681249315492857300,3.639857421875,0.23305445909500122,-0.48214462399482727,0.14536890387535095,0.32340574264526367,0.1308365762233734,-0.9371715784072876,-0.03457236289978027,-0.034248605370521545,0.17746686935424805,0.9499792579734674,-0.02123138748791415,0.1759643451937377,-0.2571481644683029
1681249315507890200,3.65489013671875,0.28855472803115845,-0.41828814148902893,0.13550110161304474,0.3173242211341858,0.12655656039714813,-0.9398344159126282,-0.04455837607383728,-0.03108249604701996,0.1796414852142334,0.950881765011266,-0.020093609566831025,0.17227601245595592,-0.25640037777295527
1681249315522924300,3.66992431640625,0.3442579507827759,-0.3577752709388733,0.08467519283294678,0.312090665102005,0.12147361785173416,-0.9422545433044434,-0.058230429887771606,-0.023756496608257294,0.1832669973373413,0.9516380811846722,-0.018390080526659972,0.16892171058174366,-0.255953539159061
1681249315537957000,3.68495703125,0.4336817264556885,-0.3100772500038147,0.027258506044745445,0.30745941400527954,0.11585021018981934,-0.9444826245307922,-0.05794796347618103,-0.008535318076610565,0.16628426313400269,0.9522187398364554,-0.016258424932650853,0.16581420032232325,-0.2559704025773058
1681249315552991200,3.6999912109375,0.5815658569335938,-0.2616513967514038,-0.07805060595273972,0.30337628722190857,0.10875479131937027,-0.9466441869735718,-0.05905282497406006,0.021448276937007904,0.1333354115486145,0.9525775215012294,-0.01320576052333686,0.16279898778864607,-0.2567453537429094
1681249315568023300,3.715023193359375,0.7352563738822937,-0.2003539353609085,-0.1521381437778473,0.2999234199523926,0.09990039467811584,-0.9487180113792419,-0.05736997723579407,0.034849800169467926,0.10493737459182739,0.9526826041881308,-0.009073777723909705,0.15987076917270254,-0.2583697368493936
1681249315583057200,3.73005712890625,0.8181080222129822,-0.12578195333480835,-0.21047601103782654,0.29732194542884827,0.08951617777347565,-0.9505716562271118,-0.054249703884124756,-0.008934691548347473,0.07863861322402954,0.952562702493484,-0.003993126627854478,0.1571566536442276,-0.2605959396080037
1681249315598090200,3.74509033203125,0.7567169070243835,-0.04787038266658783,-0.2674972414970398,0.2958276867866516,0.07922317832708359,-0.9519504308700562,-0.0465908944606781,-0.02670259028673172,0.04922515153884888,0.9521935717835035,0.0012510352121007943,0.15499422326463125,-0.26325378350745426
1681249315613124000,3.7601240234375,0.6668117046356201,-0.006193510256707668,-0.2940913140773773,0.29518288373947144,0.07030827552080154,-0.952850341796875,-0.019731491804122925,-0.02738548070192337,0.011154115200042725,0.9516390417813478,0.005960290014101816,0.1534252055130111,-0.2660982686675468
1681249315628157200,3.7751572265625,0.5003170371055603,0.00956521276384592,-0.33091774582862854,0.29495060443878174,0.0633605569601059,-0.9534094333648682,-0.00559842586517334,-0.030157610774040222,0.0011236071586608887,0.9509704094792277,0.009771197716420382,0.15231479799760952,-0.2689981483947536
1681249315643191000,3.79019091796875,0.3963277339935303,-0.008118176832795143,-0.3354869484901428,0.29469892382621765,0.05853752791881561,-0.9537954926490784,0.01204824447631836,-0.0070850662887096405,-0.006928443908691406,0.9502490428580193,0.012540029252922507,0.1514760289689285,-0.2718906384210297
1681249315658224000,3.80522412109375,0.32364189624786377,-0.023601794615387917,-0.35005122423171997,0.294174462556839,0.054939474910497665,-0.9541714191436768,0.01666209101676941,-0.00165596604347229,0.005730748176574707,0.9495246892377254,0.014665341759280708,0.15066264239405736,-0.2747518647568999
1681249315673258200,3.82025830078125,0.3421967625617981,-0.02471393160521984,-0.3293563425540924,0.2935678958892822,0.05177818611264229,-0.9545348882675171,-0.0006909668445587158,0.01659626141190529,0.028036415576934814,0.9488018141416005,0.016554848958026693,0.14986153613836098,-0.2775653097377493
1681249315688291300,3.835291259765625,0.3218046724796295,-0.015356382355093956,-0.3106803894042969,0.2930731773376465,0.048393942415714264,-0.9548644423484802,-0.007673025131225586,0.03171451389789581,0.03710925579071045,0.9481075314956404,0.018539812039508496,0.14907731722462453,-0.28022175158598633
1681249315703325200,3.8503251953125,0.26440754532814026,-0.011876696720719337,-0.292364239692688,0.29273054003715515,0.04549765586853027,-0.9551119208335876,-0.024221867322921753,0.0518074668943882,0.04100358486175537,0.94743807703438,0.020278928026995498,0.14843449548379717,-0.28269612084206447
1681249315718358300,3.865358154296875,0.140291228890419,-0.0210891030728817,-0.2876983880996704,0.29230567812919617,0.043826911598443985,-0.9553201198577881,-0.027855873107910156,0.046886395663022995,0.042585134506225586,0.9468059296578032,0.02138178190947885,0.1479281760888516,-0.28498866258576816
1681249315733392100,3.88039208984375,0.007619947195053101,-0.03556098788976669,-0.2707359194755554,0.2917247712612152,0.04395405575633049,-0.955491840839386,-0.01587662100791931,0.05814231559634209,0.03743147850036621,0.9462268823347216,0.021554949132793846,0.14761251533583514,-0.28705492421697104
1681249315748425200,3.89542529296875,-0.10247620195150375,0.0017448398284614086,-0.2510319650173187,0.29123061895370483,0.04590309411287308,-0.9555509686470032,-0.008668631315231323,0.0557049885392189,0.0384976863861084,0.9456958304292248,0.02081858956330776,0.14761811719711357,-0.2888507260446917
1681249315763459300,3.910459228515625,-0.13499754667282104,0.09335997700691223,-0.2135663479566574,0.29177969694137573,0.04868226870894432,-0.955245852470398,-0.006272763013839722,0.061836954206228256,0.047256290912628174,0.9451529115416137,0.019797483124012787,0.14827384643300417,-0.29035992546926054
1681249315778492200,3.9254921875,-0.07019969820976257,0.2049938291311264,-0.18526573479175568,0.29377907514572144,0.051129575818777084,-0.9545049071311951,-0.0017871260643005371,0.0807214230298996,0.030646204948425293,0.9445686910348268,0.01912329080914252,0.14960562541254283,-0.2916203829136968
1681249315793526300,3.9405263671875,0.022898182272911072,0.3171011805534363,-0.16808675229549408,0.2974112331867218,0.05228552594780922,-0.9533167481422424,0.02848571538925171,0.15170902013778687,-0.06566524505615234,0.9438908924278678,0.019315080027036895,0.15155381421896827,-0.2927942933312231
1681249315808560000,3.95556005859375,0.035314638167619705,0.40189915895462036,-0.16442038118839264,0.30253225564956665,0.05244237557053566,-0.9516953229904175,0.05310407280921936,0.18455694615840912,-0.1353408694267273,0.9431073314530486,0.02022100499202682,0.1540890578820767,-0.2939323946294983
1681249315823593200,3.97059326171875,-0.14634448289871216,0.37149810791015625,-0.228522390127182,0.3081098198890686,0.0540333017706871,-0.9498150944709778,0.1122543215751648,0.20310762524604797,-0.2313830852508545,0.9422223602106523,0.020531714360617844,0.15706970505884102,-0.295168900672836
1681249315838627000,3.985626953125,-0.36605456471443176,0.24836526811122894,-0.3432990610599518,0.3123248815536499,0.059022076427936554,-0.948140025138855,0.146811842918396,0.17629878222942352,-0.2233993411064148,0.9412525544696325,0.01907235232330755,0.15989440296009652,-0.2968392707126886
1681249315853660200,4.00066015625,-0.6410033702850342,0.11313315480947495,-0.48297733068466187,0.3145003914833069,0.06814180314540863,-0.9468084573745728,0.1783735156059265,0.09567636996507645,-0.1175074577331543,0.9401880610192512,0.015407574604424391,0.1623526775471605,-0.29908295386917605
1681249315868694300,4.0156943359375,-0.8194096088409424,-0.03488560765981674,-0.6201176047325134,0.3144349157810211,0.08131682872772217,-0.9457897543907166,0.1696498692035675,0.07542124390602112,-0.07171213626861572,0.9389457653565009,0.00958200574947388,0.16435726857593883,-0.30211865801139065
1681249315883727400,4.030727294921875,-0.8462629914283752,-0.11324139684438705,-0.7302467226982117,0.31244945526123047,0.09654595702886581,-0.9450154304504395,0.13470911979675293,0.06811144202947617,0.016746938228607178,0.9375265088948805,0.002597457227044874,0.16578759738951745,-0.30586221780842976
1681249315898761200,4.04576123046875,-0.6768462657928467,-0.14146530628204346,-0.821895956993103,0.30943095684051514,0.11116544157266617,-0.9444018006324768,0.10029780864715576,0.08281934261322021,0.045369088649749756,0.935894099213736,-0.004121658715150782,0.16667969407582595,-0.31032746277640444
1681249315913794300,4.060794189453125,-0.3863172233104706,-0.14773838222026825,-0.9307222962379456,0.3058357238769531,0.12288763374090195,-0.9441202878952026,0.046245306730270386,0.12004733830690384,0.03165990114212036,0.9339786657093612,-0.009353616174448647,0.1668902601453268,-0.31582273549672213
1681249315928828200,4.075828125,-0.04575406014919281,-0.10110856592655182,-0.9934983253479004,0.3021688759326935,0.1303991824388504,-0.9442933797836304,0.03949040174484253,0.1508811116218567,0.020602524280548096,0.9318043690745282,-0.012401855621503134,0.1664316641254191,-0.3223154055931461
1681249315943861200,4.090861328125,0.2662471830844879,-0.018670152872800827,-1.0276981592178345,0.29929104447364807,0.13339261710643768,-0.9447916746139526,0.023126929998397827,0.1605067104101181,-0.0022451281547546387,0.929412409011497,-0.013035932079926647,0.16563284041096443,-0.3295273414232722
1681249315958895000,4.10589501953125,0.45760050415992737,0.03919661045074463,-1.0497983694076538,0.29740044474601746,0.1326838880777359,-0.9454882144927979,0.019173413515090942,0.1574312448501587,-0.011436283588409424,0.9268260392278729,-0.011655977789921735,0.16468160267071416,-0.33725005713909534
1681249315973928200,4.12092822265625,0.48822885751724243,0.050360314548015594,-1.063603401184082,0.2959974706172943,0.13054928183555603,-0.9462253451347351,0.052619874477386475,0.12651531398296356,0.00037866830825805664,0.9240908725074417,-0.009484299071858635,0.1636990467231117,-0.3452084224319326
1681249315988962000,4.135962158203125,0.44466567039489746,0.05376676470041275,-1.0749410390853882,0.29467132687568665,0.1286116987466812,-0.9469043612480164,0.07317209243774414,0.10110914707183838,0.024556219577789307,0.9212387609988382,-0.0073939589097411825,0.16276717470302246,-0.3532299973909621
1681249316003995100,4.1509951171875,0.3613136410713196,0.050722233951091766,-1.07900071144104,0.2933604419231415,0.12766781449317932,-0.9474389553070068,0.09038260579109192,0.06372292339801788,0.06395500898361206,0.9182965536068689,-0.005792773669701807,0.16200915605752722,-0.36117975015326625
1681249316019029200,4.166029296875,0.30204159021377563,0.048676393926143646,-1.0694578886032104,0.29200851917266846,0.12774673104286194,-0.9478458762168884,0.09409964084625244,0.05981406569480896,0.08439671993255615,0.9152997480182586,-0.004712939600271369,0.1614151677354809,-0.3689839990075819
1681249316034062000,4.18106201171875,0.2704508900642395,0.0445421040058136,-1.0508649349212646,0.29066577553749084,0.12834851443767548,-0.9481772184371948,0.08932363986968994,0.05162866413593292,0.11980801820755005,0.9122794963105164,-0.003912499127270397,0.1609225767314931,-0.3766094429516058
1681249316049096200,4.19609619140625,0.23550674319267273,0.034053511917591095,-1.0209310054779053,0.2892512083053589,0.12927472591400146,-0.948483943939209,0.08246791362762451,0.04917655885219574,0.1363043189048767,0.9092800657417449,-0.0033236545886849932,0.16045867227938326,-0.3839943751572855
1681249316064129000,4.21112890625,0.17465980350971222,0.003945942502468824,-0.998674750328064,0.28755462169647217,0.13078519701957703,-0.9487926959991455,0.07554328441619873,0.029080882668495178,0.16084402799606323,0.9063203678217948,-0.0031112451946382394,0.1599811787492424,-0.39112609877616406
1681249316079163400,4.226163330078125,0.11440210789442062,-0.0172517541795969,-0.9598788619041443,0.28548330068588257,0.1329766809940338,-0.9491135478019714,0.07566151022911072,0.015964120626449585,0.17039638757705688,0.9034231562693072,-0.0033447363375637353,0.15947429833715293,-0.39797401344000294
1681249316094197200,4.241197265625,0.07850375771522522,-0.02085261419415474,-0.9106271862983704,0.2833200991153717,0.13572488725185394,-0.9493726491928101,0.05766788125038147,-0.008360013365745544,0.17913943529129028,0.9006205288371364,-0.003925170407390002,0.1590542573111239,-0.4044365444489041
1681249316109230300,4.256230224609375,0.061035823076963425,-0.00307548139244318,-0.8874065279960632,0.2813127040863037,0.13865183293819427,-0.9495466351509094,0.04189878702163696,-0.019450411200523376,0.18656134605407715,0.8978849817972419,-0.004612364450272272,0.15876208716077894,-0.41058005470359854
1681249316124264200,4.27126416015625,0.11013305932283401,0.029735196381807327,-0.8804612755775452,0.27962765097618103,0.14127632975578308,-0.9496574997901917,0.008915871381759644,-0.028544634580612183,0.20901107788085938,0.8951240138063561,-0.005107637763693249,0.15857224863443545,-0.4166314920729908
1681249316139297300,4.28629736328125,0.22155919671058655,0.09252694249153137,-0.890193521976471,0.2785891890525818,0.14272043108940125,-0.9497467875480652,-0.005640178918838501,-0.026265621185302734,0.2205444574356079,0.8922650289692176,-0.004905577241597454,0.15843782775174625,-0.4227723929193013
1681249316154331100,4.3013310546875,0.36312511563301086,0.18168264627456665,-0.883613646030426,0.2786523401737213,0.14234112203121185,-0.9497851729393005,-0.03504595160484314,-0.011878728866577148,0.22270381450653076,0.8892718306467996,-0.0036018318991362405,0.1584122474224903,-0.42905489334110575
1681249316169364200,4.3163642578125,0.49279654026031494,0.28988927602767944,-0.8539013266563416,0.28020957112312317,0.13994038105010986,-0.9496837854385376,-0.04435467720031738,0.0013252049684524536,0.21385914087295532,0.8861636802444146,-0.0010321587094032276,0.15860971662379678,-0.43538021186147596
1681249316184398000,4.331398193359375,0.5326440334320068,0.39156317710876465,-0.8070770502090454,0.2834949791431427,0.13636785745620728,-0.9492283463478088,-0.045183390378952026,0.01379363238811493,0.1844272017478943,0.8829876692565457,0.0024419278390593433,0.15931062002226615,-0.44152811599888614
1681249316199431200,4.34643115234375,0.5262894630432129,0.48707982897758484,-0.7626624703407288,0.28825628757476807,0.132390558719635,-0.9483570456504822,-0.04732018709182739,0.015344783663749695,0.17757445573806763,0.8797996654812978,0.006403971544689094,0.1605629866143323,-0.44736021227396616
1681249316214465000,4.361465087890625,0.5548676252365112,0.5831078290939331,-0.7342414855957031,0.29454347491264343,0.1282072514295578,-0.9469989538192749,-0.04809892177581787,-0.0017884522676467896,0.16542845964431763,0.8765632488569712,0.010797551209283093,0.16243129941090523,-0.45291986136328
1681249316229498000,4.376498046875,0.5837735533714294,0.6541330218315125,-0.7259079217910767,0.3020235598087311,0.12353833764791489,-0.9452618956565857,-0.05031472444534302,0.007915861904621124,0.14473998546600342,0.8732367228304225,0.015707706424284325,0.16468854194171723,-0.4583543806037523
1681249316244532200,4.3915322265625,0.6748086214065552,0.7119100689888,-0.7169602513313293,0.3104760944843292,0.11798496544361115,-0.9432306885719299,-0.03163716197013855,0.048976436257362366,0.11069583892822266,0.8697841794944796,0.021289692901831754,0.16712690613541145,-0.4637788309925146
1681249316259565000,4.40656494140625,0.7320588827133179,0.7322962880134583,-0.713410496711731,0.3195543885231018,0.11140979826450348,-0.9409956932067871,-0.021519899368286133,0.06580548733472824,0.07919448614120483,0.8662263727509185,0.02752667739069176,0.1695418767800008,-0.46920109832367796
1681249316274599400,4.421599365234375,0.7240855097770691,0.7171133160591125,-0.7166885733604431,0.32866737246513367,0.10462452471256256,-0.9386327862739563,0.012061208486557007,0.11171431094408035,0.03306937217712402,0.8625869312152183,0.03391203474375573,0.17185339602825236,-0.4746158105975505
1681249316289632300,4.43663232421875,0.6933579444885254,0.6993370056152344,-0.7059017419815063,0.3375626504421234,0.09817361831665039,-0.9361695051193237,0.02623724937438965,0.12027093023061752,0.017437756061553955,0.8589189052199768,0.04012399835413339,0.17408417905137147,-0.479940635478316
1681249316304666400,4.451666259765625,0.652180552482605,0.6874774098396301,-0.697790801525116,0.34632009267807007,0.09246507287025452,-0.9335483908653259,0.04319086670875549,0.1138639897108078,-0.028594613075256348,0.8552271903298759,0.04599574282916851,0.17638083154943868,-0.4851397065275723
1681249316319699200,4.46669921875,0.6157217621803284,0.6845535039901733,-0.6880382895469666,0.35498306155204773,0.08724412322044373,-0.9307929277420044,0.04311862587928772,0.1251426786184311,-0.05365842580795288,0.8515416262070593,0.05164325774552451,0.1787078889076331,-0.49017670496388255
1681249316334733300,4.4817333984375,0.6150455474853516,0.7007032036781311,-0.6611198782920837,0.3638326823711395,0.08238862454891205,-0.9278134703636169,0.05560073256492615,0.13604065775871277,-0.10358911752700806,0.8478415795882056,0.057195209188786456,0.1811683303111718,-0.4950467348200812
1681249316349766100,4.49676611328125,0.5643776059150696,0.7057525515556335,-0.6199575066566467,0.372920960187912,0.07771926373243332,-0.9246024489402771,0.06558600068092346,0.1513148844242096,-0.13774502277374268,0.8442084543641812,0.06271682407338423,0.1837535785295581,-0.49961316414332413
1681249316364800300,4.51180029296875,0.46786046028137207,0.6722760796546936,-0.6018104553222656,0.3818468153476715,0.07416100054979324,-0.9212454557418823,0.12237972021102905,0.18743538856506348,-0.20122164487838745,0.8406730979019444,0.06769487809686933,0.18653332267915382,-0.5038765258057706
1681249316379834000,4.526834228515625,0.2963692545890808,0.6073298454284668,-0.5871692299842834,0.3901198208332062,0.0725260078907013,-0.9179033041000366,0.15275722742080688,0.19032159447669983,-0.21431416273117065,0.8372835151286045,0.07163873062033674,0.18951577154597865,-0.5078465611641688
1681249316394867200,4.5418671875,0.05704060196876526,0.602007269859314,-0.5436731576919556,0.3977818489074707,0.0736454501748085,-0.9145195484161377,0.19940125942230225,0.15685352683067322,-0.19101035594940186,0.8341319947688828,0.07415833689683385,0.1929786998588682,-0.5113546982967571
1681249316409901000,4.556901123046875,-0.12673482298851013,0.6340187191963196,-0.4827618896961212,0.4056709408760071,0.07731527835130692,-0.9107433557510376,0.20333772897720337,0.1220252588391304,-0.17334789037704468,0.831272606986107,0.07552482027146254,0.1972924903135907,-0.5141571928014791
1681249316424934100,4.57193408203125,-0.2687010169029236,0.7093531489372253,-0.4068191945552826,0.4142836928367615,0.08289703726768494,-0.9063647985458374,0.1988295614719391,0.09654602408409119,-0.16536682844161987,0.828648097012286,0.07615845172453994,0.20252777314618509,-0.5162604284882465
1681249316439968000,4.586968017578125,-0.36640602350234985,0.766977846622467,-0.30956506729125977,0.42392653226852417,0.08950372785329819,-0.9012632369995117,0.18747776746749878,0.11032508313655853,-0.17606842517852783,0.8262940896615396,0.07650260837764145,0.20860426337675073,-0.5175614108869467
1681249316455001000,4.6020009765625,-0.5085433721542358,0.7091366052627563,-0.2463860809803009,0.4336429536342621,0.09718621522188187,-0.8958284854888916,0.20827892422676086,0.10390907526016235,-0.21818530559539795,0.8242769867878801,0.0762646637382026,0.21510337825447431,-0.5181523215986158
1681249316470035200,4.61703515625,-0.6785787343978882,0.5448275804519653,-0.1905939280986786,0.4418138265609741,0.10657719522714615,-0.8907535672187805,0.23450139164924622,0.08513393253087997,-0.22452670335769653,0.822722734370431,0.07470718607297692,0.22145443279177915,-0.518173863476613
1681249316485068300,4.632068359375,-0.8925184011459351,0.34878215193748474,-0.11454203724861145,0.447517991065979,0.11808545887470245,-0.8864442706108093,0.25812458992004395,0.023912549018859863,-0.15702807903289795,0.8217991913053893,0.07133781567785584,0.22735164609907213,-0.5175598716025367
1681249316500102400,4.647102294921875,-1.098088026046753,0.1879437416791916,-0.005117010325193405,0.4509003460407257,0.1317814588546753,-0.8827924728393555,0.23392927646636963,-0.021552279591560364,-0.09673035144805908,0.8216164097310497,0.06608727848078749,0.2328867603005914,-0.5160839766930133
1681249316515135200,4.66213525390625,-1.2389942407608032,0.08947575837373734,0.10602628439664841,0.45283713936805725,0.14701879024505615,-0.8793884515762329,0.1536080539226532,-0.09108035266399384,0.02568960189819336,0.8221101656420222,0.059450713745265754,0.2382674979271581,-0.5136429944609774
1681249316530169300,4.67716943359375,-1.279636025428772,0.023691684007644653,0.2504766583442688,0.4539760649204254,0.16250789165496826,-0.8760690689086914,0.11148402094841003,-0.11548060178756714,0.06272971630096436,0.8232175192067019,0.05216151147973646,0.24340225199093768,-0.5102426804601857
1681249316545202200,4.6922021484375,-1.2207720279693604,-0.038509905338287354,0.39623546600341797,0.4546959698200226,0.17691466212272644,-0.872899055480957,0.07762205600738525,-0.13824915885925293,0.07413184642791748,0.8249185450977589,0.044904339259425295,0.24806063076621368,-0.505923699755852
1681249316560236300,4.707236328125,-1.1216018199920654,-0.07576832175254822,0.5421884655952454,0.455238401889801,0.1890357881784439,-0.8700709939002991,0.08002454042434692,-0.1367289274930954,0.06362861394882202,0.8271849435376044,0.038295795488508956,0.25198797560143,-0.5008000754641632
1681249316575269000,4.72226904296875,-1.0197088718414307,-0.12066096067428589,0.6904889345169067,0.45577824115753174,0.1988621950149536,-0.8675944209098816,0.0847337543964386,-0.11170424520969391,0.01694732904434204,0.8299557913274802,0.03241516497826808,0.2552490055610131,-0.4949451134871366
1681249316590303200,4.73730322265625,-0.8686613440513611,-0.15613533556461334,0.8242595195770264,0.4562932848930359,0.20597751438617706,-0.8656614422798157,0.08791133761405945,-0.10705505311489105,0.009383857250213623,0.833246667502457,0.027455041231302255,0.25771204327779895,-0.4883961740834534
1681249316605336000,4.752336181640625,-0.7422941327095032,-0.19261664152145386,0.9271584749221802,0.4567829370498657,0.2104034274816513,-0.8643377423286438,0.09607338905334473,-0.1030733734369278,0.012149512767791748,0.8369314923687784,0.023486727286751635,0.2593829016604761,-0.4813674873502263
1681249316620370200,4.7673701171875,-0.6773400902748108,-0.2324327677488327,1.0275384187698364,0.4571519196033478,0.2128598839044571,-0.8635408282279968,0.09079107642173767,-0.10873416066169739,0.021102964878082275,0.8409680098867283,0.020186101615873822,0.2604267649320351,-0.47385992828841134
1681249316635404000,4.782404052734375,-0.6716522574424744,-0.2703700363636017,1.1065953969955444,0.4573194086551666,0.21423399448394775,-0.8631122708320618,0.09225624799728394,-0.14749231934547424,0.04643124341964722,0.8453297932712236,0.017134263096673832,0.2610560931690715,-0.4658044798204941
1681249316650437000,4.79743701171875,-0.6796976327896118,-0.3155905306339264,1.1543503999710083,0.4572581946849823,0.21519918739795685,-0.8629045486450195,0.09010496735572815,-0.16940781474113464,0.05719459056854248,0.8499091928165021,0.014061972737466167,0.2614382889588825,-0.45728188362374234
1681249316665471000,4.812470947265625,-0.6935309171676636,-0.3866306245326996,1.1622709035873413,0.4564702808856964,0.21619689464569092,-0.8630722761154175,0.07682424783706665,-0.1478072553873062,0.05968165397644043,0.8546060819587027,0.01072433745026908,0.2614361105485535,-0.4485361035005112
1681249316680504000,4.827504150390625,-0.6647835969924927,-0.4535859525203705,1.149755597114563,0.45476794242858887,0.21710845828056335,-0.863741934299469,0.0733996331691742,-0.13349054753780365,0.06500518321990967,0.8593526133501598,0.00719713090767726,0.26091617008469953,-0.43975465994046176
1681249316695538200,4.8425380859375,-0.5829225182533264,-0.4758313298225403,1.1084553003311157,0.4523857831954956,0.21753035485744476,-0.8648858666419983,0.043051689863204956,-0.09478890895843506,0.08047717809677124,0.8640037905239395,0.003820763492025303,0.259889313988927,-0.43120791367693034
1681249316710571300,4.8575712890625,-0.4622357487678528,-0.46469026803970337,1.0444401502609253,0.44974657893180847,0.21709369122982025,-0.8663707971572876,0.01784360408782959,-0.07608745992183685,0.08901160955429077,0.868396275399833,0.0009623349575742818,0.25848343668726725,-0.4231703860239012
1681249316725605400,4.87260546875,-0.31224438548088074,-0.43332433700561523,0.9543240666389465,0.4471740424633026,0.21534109115600586,-0.8681379556655884,-0.02989211678504944,-0.05207228660583496,0.10849428176879883,0.8724202501857966,-0.001016808939741884,0.25676832973489433,-0.415874723846779
1681249316740638200,4.88763818359375,-0.1669183075428009,-0.3859781324863434,0.8510589599609375,0.44473889470100403,0.2124588042497635,-0.8700968623161316,-0.04361599683761597,-0.040202587842941284,0.10772186517715454,0.876002376586077,-0.0021420332551277074,0.2548469634135564,-0.40947311262546665
1681249316755672300,4.90267236328125,-0.0319700725376606,-0.36114922165870667,0.7307026982307434,0.442415714263916,0.20844030380249023,-0.8722505569458008,-0.05981701612472534,-0.02557922899723053,0.11486512422561646,0.879127143535373,-0.002395543792874045,0.2527231623702011,-0.4040554309244253
1681249316770705200,4.917705078125,0.11034472286701202,-0.33784788846969604,0.6120109558105469,0.4398946762084961,0.20358991622924805,-0.8746678233146667,-0.05970689654350281,-0.025962620973587036,0.1187320351600647,0.881813605577487,-0.001981324636972498,0.25032412057768416,-0.399673036140045
1681249316785739300,4.9327392578125,0.19748985767364502,-0.32758378982543945,0.4883379638195038,0.4371821880340576,0.19785909354686737,-0.8773388862609863,-0.05731484293937683,-0.024916216731071472,0.12019765377044678,0.8840829843763115,-0.0008849639466597905,0.2476485013256376,-0.39631641568797427
1681249316800772000,4.947772216796875,0.21438659727573395,-0.3131422698497772,0.39083003997802734,0.4342716336250305,0.19225114583969116,-0.8800270557403564,-0.054343223571777344,-0.009924113750457764,0.1135932207107544,0.8859670626319941,0.000365199377014468,0.2449210767900583,-0.39379677392049517
1681249316815806200,4.96280615234375,0.16496753692626953,-0.29221516847610474,0.3316205143928528,0.4313293695449829,0.187390998005867,-0.8825188875198364,-0.058557331562042236,-0.015546754002571106,0.12150192260742188,0.8875758438383667,0.0014075725902937704,0.24236043625382514,-0.39175052859756015
1681249316830839000,4.977839111328125,0.09915018081665039,-0.2852637767791748,0.27319157123565674,0.42838889360427856,0.18369315564632416,-0.88472580909729,-0.05779886245727539,-0.03809402883052826,0.12424290180206299,0.8889764188249766,0.0019970404225225216,0.24006896010401468,-0.3899792010506874
1681249316845873200,4.992873046875,0.053925659507513046,-0.27429449558258057,0.23271526396274567,0.4253869652748108,0.18108247220516205,-0.8867102265357971,-0.05827593803405762,-0.050040215253829956,0.14818471670150757,0.8902105441876739,0.002137492912555868,0.23799224529961402,-0.38843305709584874
1681249316860907000,5.007906982421875,0.04335908964276314,-0.24428410828113556,0.2150137573480606,0.4225466847419739,0.17906589806079865,-0.8884760737419128,-0.05752614140510559,-0.04536862671375275,0.15892267227172852,0.891325065701075,0.0020780517511687934,0.23613059518457857,-0.38701112432083895
1681249316875940000,5.022940185546875,0.06975778192281723,-0.20330817997455597,0.211435005068779,0.42015907168388367,0.1771160066127777,-0.8899978995323181,-0.062584787607193,-0.03331741690635681,0.15849143266677856,0.8923234799463384,0.0021200935833824365,0.2345134195850003,-0.38569142491063035
1681249316890974200,5.03797412109375,0.08991631120443344,-0.15813083946704865,0.21936377882957458,0.41836345195770264,0.17467626929283142,-0.8913249969482422,-0.06400877237319946,-0.018975824117660522,0.15035808086395264,0.893248828710703,0.002534044943896096,0.23309028243482485,-0.3844075608936454
1681249316906007300,5.05300732421875,0.04602677747607231,-0.11050420254468918,0.2452230602502823,0.41743704676628113,0.17247778177261353,-0.8921870589256287,-0.06347912549972534,-0.02216370403766632,0.1277826428413391,0.8941000728559626,0.0029913814927842865,0.23215842152871735,-0.38298626112711187
1681249316921041200,5.068041259765625,-0.04225211217999458,-0.08866308629512787,0.27473700046539307,0.4169510006904602,0.1709536612033844,-0.8927075266838074,-0.06107047200202942,-0.034464031457901,0.11496692895889282,0.8949916323609769,0.0031468946720609034,0.23159520921356577,-0.38123963689252727
1681249316936074200,5.08307421875,-0.11973119527101517,-0.07176106423139572,0.29794245958328247,0.4168015718460083,0.17036974430084229,-0.8928889036178589,-0.04486876726150513,-0.045766681432724,0.09686827659606934,0.8959218095062349,0.002852788090094215,0.23140311067417813,-0.3791683876915191
1681249316951108000,5.098108154296875,-0.1886593997478485,-0.04404022544622421,0.31203722953796387,0.4168491065502167,0.17059652507305145,-0.8928233981132507,-0.04047602415084839,-0.048892661929130554,0.08941751718521118,0.8968878480656841,0.0021539286806645723,0.2314814347987699,-0.37683409702112564
1681249316966141200,5.11314111328125,-0.2350246012210846,-0.00026877596974372864,0.3239500820636749,0.41743582487106323,0.17146751284599304,-0.8923823237419128,-0.04466378688812256,-0.040684640407562256,0.08233886957168579,0.8978171927025026,0.0012196752524022759,0.23196410053937688,-0.37431998715222203
1681249316981175300,5.12817529296875,-0.26529204845428467,0.03583942726254463,0.33035606145858765,0.4185599982738495,0.17282596230506897,-0.891593337059021,-0.0503503680229187,-0.03949488699436188,0.07013636827468872,0.8986996291188568,0.00012999758957237087,0.23281603507447532,-0.37166601498355584
1681249316996208000,5.1432080078125,-0.28422191739082336,0.06389210373163223,0.3361801207065582,0.4201813042163849,0.1744539439678192,-0.8905130624771118,-0.044449061155319214,-0.03270001709461212,0.046320438385009766,0.8995257707454815,-0.0010092613281136574,0.23397105655837155,-0.3689307347418594
1681249317011227100,5.15822705078125,-0.32059699296951294,0.0728248804807663,0.3237745761871338,0.4220379889011383,0.1764267385005951,-0.8892454504966736,-0.03827953338623047,-0.035984888672828674,0.025643765926361084,0.971916973182092,-0.09076225098927623,0.2171162750619518,-9.30434590567817e-18
1681249317026260200,5.17326025390625,-0.3547268807888031,0.07822203636169434,0.3110004663467407,0.4239371716976166,0.1789858341217041,-0.8878295421600342,-0.02240222692489624,-0.03143337368965149,-0.01810002326965332,0.9715486180803662,-0.0927466716577756,0.2179065755369651,0.0028222504027983417
1681249317041294000,5.188294189453125,-0.36646586656570435,0.0888400599360466,0.2966518998146057,0.42589062452316284,0.1818939447402954,-0.8863022923469543,-0.016009122133255005,-0.03367011249065399,-0.040287673473358154,0.9711437538538834,-0.09490431104012428,0.2187281787048277,0.005572024610168214
1681249317056328000,5.203327880859375,-0.3476879298686981,0.1078137531876564,0.28033336997032166,0.42800119519233704,0.18486396968364716,-0.8846696019172668,-0.0131453275680542,-0.025836914777755737,-0.07547450065612793,0.9707045990347495,-0.09707693894774252,0.21963897537972493,0.008200015082200172
1681249317071361000,5.218361083984375,-0.3162463903427124,0.15354421734809875,0.26015618443489075,0.43047869205474854,0.1875506192445755,-0.8829002380371094,-0.016492575407028198,-0.022816762328147888,-0.09245681762695312,0.9702253401786489,-0.09907054322985764,0.22075982796668975,0.010624397542336753
1681249317086395100,5.23339501953125,-0.29376131296157837,0.203303262591362,0.2314462661743164,0.4335733652114868,0.1900281459093094,-0.8808537721633911,-0.012125730514526367,-0.02045726776123047,-0.1361750364303589,0.9696715522584559,-0.10091878924423936,0.22223524964967198,0.012797267625058359
1681249317101428000,5.248427978515625,-0.24853801727294922,0.28647616505622864,0.20844906568527222,0.43746158480644226,0.19222119450569153,-0.8784522414207458,-0.0077742040157318115,-0.025122255086898804,-0.15864187479019165,0.9690256858346984,-0.10257679547884424,0.22416929468711522,0.014671746423914918
1681249317116462300,5.26346240234375,-0.17911522090435028,0.34607237577438354,0.17114883661270142,0.4423021376132965,0.19385415315628052,-0.8756650686264038,0.009937763214111328,-0.0265720933675766,-0.2083650827407837,0.9682824994796339,-0.10388717266290227,0.22666033473191907,0.01616980984845554
1681249317131495200,5.2784951171875,-0.06558917462825775,0.34009119868278503,0.10125283896923065,0.44736722111701965,0.19464020431041718,-0.8729133605957031,0.026067137718200684,-0.012587636709213257,-0.24212265014648438,0.9675556464879848,-0.1046389638045214,0.2293338134649547,0.017110070792666958
1681249317146529300,5.293529296875,0.04274262115359306,0.33159518241882324,-0.016178982332348824,0.4519875943660736,0.1945328414440155,-0.8705539703369141,0.08486229181289673,0.03733968734741211,-0.3264523148536682,0.9669447525813492,-0.1047086535918222,0.23186013693496985,0.017170107848061788
1681249317161562000,5.30856201171875,0.10212881863117218,0.3456183075904846,-0.14110146462917328,0.4562583565711975,0.19403572380542755,-0.868434488773346,0.10477671027183533,0.06305958330631256,-0.36021852493286133,0.9664132344413642,-0.10431949161692614,0.23430791382398108,0.01620891818061232
1681249317176596200,5.32359619140625,0.07635778933763504,0.3498553931713104,-0.21071596443653107,0.4602362811565399,0.19407200813293457,-0.866324782371521,0.13677901029586792,0.06164999306201935,-0.3806387186050415,0.9658950173548297,-0.10400689188306846,0.23668580661855473,0.01446531326916722
1681249317191629000,5.338629150390625,0.013193996623158455,0.41080132126808167,-0.27216869592666626,0.4644838273525238,0.19517108798027039,-0.8638072609901428,0.15097934007644653,0.05017493665218353,-0.36861467361450195,0.9652724869751355,-0.1041583308848162,0.23926429968032067,0.012352966423172686
1681249317206663200,5.3536630859375,0.012949411757290363,0.38212332129478455,-0.36578893661499023,0.46885448694229126,0.19728340208530426,-0.8609614968299866,0.12474280595779419,-0.0002314448356628418,-0.3390507102012634,0.9645651436953571,-0.10470709081570717,0.24198280435835906,0.00973254175104015
1681249317221696300,5.3686962890625,0.08458540588617325,0.23280282318592072,-0.4939255714416504,0.4716469645500183,0.19976477324962616,-0.8588615655899048,0.13310453295707703,0.0007204115390777588,-0.3329567313194275,0.9640493787684561,-0.1051996104292057,0.24393085924062827,0.0062937144812301215
1681249317236730000,5.383730224609375,0.20742328464984894,0.018331807106733322,-0.6345921158790588,0.4715900719165802,0.2019018530845642,-0.8583929538726807,0.14567366242408752,0.03689815104007721,-0.2765100598335266,0.9639465495365241,-0.1051939628992122,0.24441310136411534,0.0018429148679090536
1681249317251764000,5.398763916015625,0.3659950792789459,-0.17140483856201172,-0.807246208190918,0.46831271052360535,0.20335207879543304,-0.8598436713218689,0.12487262487411499,0.044679492712020874,-0.23138868808746338,0.9643170133734581,-0.10447516400733096,0.24323467003852614,-0.003818786164417911
1681249317266797000,5.413797119140625,0.557803750038147,-0.26689034700393677,-0.9512052536010742,0.4627024233341217,0.20351970195770264,-0.8628361225128174,0.05109143257141113,0.05551345646381378,-0.09155541658401489,0.9650382538384229,-0.1027209944203689,0.2408948555327195,-0.01091830024769064
1681249317281831200,5.4288310546875,0.7593228816986084,-0.2890729010105133,-1.0103607177734375,0.45602697134017944,0.20180198550224304,-0.8667844533920288,0.0062074363231658936,0.041514620184898376,-0.02567160129547119,0.9659345616502102,-0.09976777607450615,0.23802132721889332,-0.01903966661307256
1681249317296864000,5.443864013671875,0.939441442489624,-0.2632141411304474,-1.0197805166244507,0.44931554794311523,0.19757409393787384,-0.8712520003318787,-0.0486961305141449,0.04166841506958008,0.06023204326629639,0.9668796472319514,-0.09542531502530999,0.23509152111578224,-0.027743471187822045
1681249317311898000,5.458898193359375,1.0725488662719727,-0.2244850993156433,-0.9913768768310547,0.4431762099266052,0.19112418591976166,-0.8758232593536377,-0.05674746632575989,0.05611391365528107,0.06808394193649292,0.9677643488543826,-0.08994311385210625,0.23237600155627958,-0.036657619788951774
1681249317326931200,5.47393115234375,1.1744308471679688,-0.1917998492717743,-0.9663509130477905,0.43768641352653503,0.182698592543602,-0.8803702592849731,-0.06143525242805481,0.06197604537010193,0.06910622119903564,0.968558523025458,-0.08349175133558988,0.22987820829703748,-0.0456008686150486
1681249317341965300,5.48896533203125,1.218711495399475,-0.17410367727279663,-0.9314261674880981,0.4327150881290436,0.1729675680398941,-0.8847823739051819,-0.05036047101020813,0.06328418850898743,0.06588894128799438,0.969238299530932,-0.07643967599182859,0.22752097558929008,-0.054480781291610055
1681249317356998100,5.503998046875,1.1957978010177612,-0.16242572665214539,-0.8887266516685486,0.4281861484050751,0.16272059082984924,-0.8889198899269104,-0.03156450390815735,0.04673677682876587,0.0721626877784729,0.9697841216975192,-0.06924353416893597,0.22526734057666317,-0.06307622002301601
1681249317372032300,5.5190322265625,1.1202412843704224,-0.1552003026008606,-0.8395844101905823,0.42399361729621887,0.15277446806430817,-0.8926866054534912,-0.026029258966445923,0.04761914908885956,0.08587813377380371,0.9701881199206486,-0.062348191740568326,0.22309058877040097,-0.07126145716584906
1681249317387065000,5.534065185546875,1.0326427221298218,-0.14400836825370789,-0.7796925902366638,0.4201904833316803,0.1434539407491684,-0.8960250616073608,-0.027536123991012573,0.04880675673484802,0.12600553035736084,0.9704579951312753,-0.05594153321236563,0.22103847000060384,-0.07889152292014728
1681249317402099200,5.54909912109375,0.9181432723999023,-0.15110009908676147,-0.6972208619117737,0.4166625440120697,0.1349010169506073,-0.898996114730835,-0.030615270137786865,0.05162237584590912,0.14496779441833496,0.9706322442929965,-0.05011444177608695,0.2190673116123018,-0.08585403446667261
1681249317417132000,5.564132080078125,0.7927892804145813,-0.18146972358226776,-0.6064276099205017,0.4131772518157959,0.12742535769939423,-0.9016913771629333,-0.02812179923057556,0.0472724586725235,0.15222537517547607,0.9707668836444747,-0.045066851787788055,0.21707901410666094,-0.09196314928425217
1681249317432166100,5.579166259765625,0.6564447283744812,-0.21363511681556702,-0.515778660774231,0.4094780683517456,0.12105867266654968,-0.9042524695396423,-0.02205750346183777,0.047596678137779236,0.16156136989593506,0.9709180213621829,-0.04082651245424359,0.21495805769320717,-0.0971824000016878
1681249317447200000,5.594199951171875,0.4976915419101715,-0.24941973388195038,-0.4246967136859894,0.4055061638355255,0.11603865027427673,-0.9066972136497498,-0.018497586250305176,0.04269847273826599,0.18341529369354248,0.971107889624406,-0.03751794503911952,0.21270591500874542,-0.10147979561411391
1681249317462233000,5.609233154296875,0.3353802561759949,-0.2828139364719391,-0.3267238140106201,0.40124940872192383,0.11265932023525238,-0.9090141654014587,-0.01834544539451599,0.04261407256126404,0.19981616735458374,0.971351402918323,-0.03529560389582482,0.21035001440036766,-0.10480259108776403
1681249317477267200,5.62426708984375,0.17710453271865845,-0.31790268421173096,-0.24175643920898438,0.3966778516769409,0.11080856621265411,-0.9112454056739807,-0.02706429362297058,0.03115914762020111,0.22199058532714844,0.9716651928637222,-0.03408745573473582,0.2078830346351222,-0.10718858479836436
1681249317492300000,5.639300048828125,-0.013723744079470634,-0.34816044569015503,-0.15366625785827637,0.3917728662490845,0.11087565124034882,-0.9133567810058594,-0.029636114835739136,0.028574369847774506,0.2231253981590271,0.9720422861878253,-0.034074413402651944,0.20533033871985246,-0.10868366268147449
1681249317507334100,5.654334228515625,-0.18803851306438446,-0.3603297770023346,-0.0754375159740448,0.38670873641967773,0.11300212144851685,-0.9152523279190063,-0.0352226197719574,0.010609269142150879,0.22587549686431885,0.9724657578791378,-0.03531719144862303,0.20279675789092047,-0.1092537207753257
1681249317522367200,5.6693671875,-0.31064900755882263,-0.3834545314311981,-0.03060745634138584,0.3815400302410126,0.11674430221319199,-0.9169503450393677,-0.042779743671417236,-0.0027611926198005676,0.22371304035186768,0.9729154157829639,-0.03752966266891334,0.20029064540290217,-0.1091362106077231
1681249317537401000,5.684401123046875,-0.37207454442977905,-0.40664398670196533,0.003296980634331703,0.3760613799095154,0.12166979163885117,-0.9185718894004822,-0.055932044982910156,-0.004695974290370941,0.2083209753036499,0.9733947033753326,-0.04044769971323622,0.19768168741842468,-0.10857515453582546
1681249317552434200,5.69943408203125,-0.3314536213874817,-0.40240105986595154,0.008925039321184158,0.37048134207725525,0.12659384310245514,-0.9201725721359253,-0.058683305978775024,0.0062796324491500854,0.20691567659378052,0.9738819497328554,-0.04339012220251911,0.1950154167208501,-0.10788922201546826
1681249317567469300,5.71446923828125,-0.2592940032482147,-0.3578234612941742,0.022925009950995445,0.36528944969177246,0.13072679936885834,-0.9216691851615906,-0.09311854839324951,0.024088799953460693,0.19963854551315308,0.9743386289671822,-0.04589841661283107,0.19250647319137335,-0.10723173122471091
1681249317582502400,5.72950244140625,-0.1803557127714157,-0.29719340801239014,0.04319033399224281,0.36087292432785034,0.13365395367145538,-0.92298823595047,-0.10801962018013,0.027280449867248535,0.19283992052078247,0.9747499635717582,-0.0477496489962043,0.19033086499672167,-0.1065670807652728
1681249317597536300,5.744536376953125,-0.12834954261779785,-0.23186232149600983,0.05311167240142822,0.3574257493019104,0.13566885888576508,-0.9240350723266602,-0.11398711800575256,0.025479167699813843,0.17063230276107788,0.9750897168249864,-0.049080832662615946,0.1886094950948179,-0.1059130853707786
1681249317612570400,5.7595703125,-0.10445327311754227,-0.16468141973018646,0.04677281901240349,0.35480189323425293,0.13701075315475464,-0.9248479008674622,-0.10704502463340759,0.023206472396850586,0.15847522020339966,0.9753642331022268,-0.050016475533383155,0.18728160346745829,-0.10530184082227212
1681249317627603200,5.774603271484375,-0.09343519061803818,-0.09925953298807144,0.0338389091193676,0.3530561625957489,0.13824543356895447,-0.9253321290016174,-0.09014731645584106,0.01814185082912445,0.13291263580322266,0.9755404906398997,-0.05082629151252036,0.18641520154293356,-0.10481769673532734
1681249317642637600,5.789637451171875,-0.07381024956703186,-0.0371524915099144,0.01537361741065979,0.352189302444458,0.13931436836719513,-0.9255021214485168,-0.08560308814048767,0.01664566993713379,0.12122654914855957,0.9756185330305593,-0.051475002485514745,0.18600876306512193,-0.10449623740323646
1681249317657670400,5.80467041015625,-0.04631076753139496,0.01638183929026127,-0.016600826755166054,0.35207462310791016,0.1401616334915161,-0.9254178404808044,-0.06847482919692993,0.02486211061477661,0.08450597524642944,0.975604803674125,-0.051925059678767205,0.18599694104681372,-0.10442366183277176
1681249317672704500,5.81970458984375,-0.020661598071455956,0.058665379881858826,-0.039423853158950806,0.3525679111480713,0.14077410101890564,-0.9251370429992676,-0.05558618903160095,0.03161962330341339,0.06957674026489258,0.9755136925337545,-0.05217702880497063,0.1863036362305639,-0.10460153305341974
1681249317687737300,5.8347373046875,-0.012545295059680939,0.09303107857704163,-0.053204379975795746,0.3535570800304413,0.14126336574554443,-0.9246848225593567,-0.029506266117095947,0.021837785840034485,0.03816443681716919,0.9753602769975646,-0.05230804621202469,0.18687282050954465,-0.10495100023236717
1681249317702771500,5.849771484375,-0.009768471121788025,0.09851586073637009,-0.0743088647723198,0.35478338599205017,0.14175985753536224,-0.9241389632225037,-0.016068875789642334,0.01737399399280548,0.020833909511566162,0.9751687940218227,-0.052405429047569195,0.18757445116812943,-0.10542899572717966
1681249317717804500,5.864804443359375,-0.005369940306991339,0.07637646794319153,-0.09252089262008667,0.35584115982055664,0.14232942461967468,-0.9236446022987366,0.012917906045913696,0.023991316556930542,-0.022812306880950928,0.9749729600142132,-0.052517394877079425,0.1882009921485032,-0.10606572277723703
1681249317732838400,5.87983837890625,-0.016924330964684486,0.05422695726156235,-0.09878890961408615,0.3564993739128113,0.1429976224899292,-0.9232875108718872,0.026435136795043945,0.031333982944488525,-0.03911483287811279,0.9748031561579239,-0.0526840563884901,0.1886282614266325,-0.10678267321996693
1681249317747872300,5.894872314453125,-0.0407237783074379,0.045185260474681854,-0.10073035210371017,0.35689544677734375,0.143971785902977,-0.9229830503463745,0.04007712006568909,0.02907809615135193,-0.05893528461456299,0.9746466952403964,-0.053020109573254925,0.18893736836695305,-0.10749604385765642
1681249317762905300,5.9099052734375,-0.06400997936725616,0.051984839141368866,-0.09719420969486237,0.3573177754878998,0.14528237283229828,-0.9226142764091492,0.042050451040267944,0.024090111255645752,-0.0672539472579956,0.9744784392075733,-0.053534683657606975,0.18927998893403417,-0.10816141540021863
1681249317777939200,5.924939208984375,-0.06246374547481537,0.06920990347862244,-0.09240105003118515,0.3579198718070984,0.14676836133003235,-0.9221455454826355,0.05316704511642456,0.020788326859474182,-0.090412437915802,0.9742872554485952,-0.05413416589237451,0.1897280330981904,-0.10879759484461331
1681249317792972300,5.93997216796875,-0.048295460641384125,0.06698962301015854,-0.07551714032888412,0.3586461544036865,0.14798113703727722,-0.9216694235801697,0.0608026385307312,0.028547734022140503,-0.1108928918838501,0.9741006878416185,-0.05459948820977314,0.19022141313920116,-0.10937345007602191
1681249317808006400,5.95500634765625,-0.11675862222909927,0.12832674384117126,-0.00911547988653183,0.3598109185695648,0.14932399988174438,-0.9209986329078674,0.08843117952346802,0.026152029633522034,-0.15778255462646484,0.9738974206639096,-0.05516557014028127,0.19093835265160355,-0.10965000933946428
1681249317823039200,5.970039306640625,-0.24162226915359497,0.2477671355009079,0.1214878037571907,0.3625284731388092,0.1514766961336136,-0.9195802807807922,0.10080459713935852,0.0018282979726791382,-0.17598551511764526,0.9735971320099542,-0.05622705043587556,0.19247954293057426,-0.10908094698695472
1681249317838073600,5.985073486328125,-0.3616866171360016,0.34042462706565857,0.2487432211637497,0.3670510947704315,0.15468402206897736,-0.917249321937561,0.1453694999217987,-0.03528404235839844,-0.20227277278900146,0.9731822309033584,-0.05794961551783688,0.1949799333468446,-0.10742887374545669
1681249317853106400,6.0001064453125,-0.45530471205711365,0.4052685797214508,0.40017375349998474,0.3730834424495697,0.15856847167015076,-0.9141470193862915,0.17176207900047302,-0.036589786410331726,-0.2083810567855835,0.9726943413704062,-0.060192677259488424,0.19825067624413176,-0.10459061813322243
1681249317868140500,6.015140625,-0.5336522459983826,0.4511098563671112,0.5372387170791626,0.3801566958427429,0.16272921860218048,-0.9104943871498108,0.23507758975028992,0.011342987418174744,-0.2280859351158142,0.9721720449587764,-0.06278021902450376,0.20201840742136531,-0.10064151120678425
1681249317883173400,6.03017333984375,-0.6162070631980896,0.4939904808998108,0.6772357225418091,0.3881687819957733,0.16710127890110016,-0.9063124060630798,0.2445063292980194,-0.001680806279182434,-0.24218618869781494,0.9716114945703197,-0.06571489591221545,0.206216763592812,-0.09553682285481502
1681249317898207500,6.04520751953125,-0.6614406704902649,0.4799817204475403,0.7856360077857971,0.39674532413482666,0.17151445150375366,-0.9017626643180847,0.2604811191558838,-0.010686889290809631,-0.2547467350959778,0.9710227829718506,-0.06891891477279712,0.21063914401872025,-0.08942016164021271
1681249317913241300,6.060241455078125,-0.6868712306022644,0.39689189195632935,0.8510929942131042,0.4048968255519867,0.17569305002689362,-0.8973240852355957,0.25734978914260864,-0.003100961446762085,-0.2514186501502991,0.9704841904540007,-0.07224069915086166,0.21475393002081508,-0.08259718773308336
1681249317928274400,6.0752744140625,-0.7240744233131409,0.27032676339149475,0.8885954022407532,0.411743700504303,0.17987696826457977,-0.8933708071708679,0.24790892004966736,0.0013821572065353394,-0.20562827587127686,0.9700613682147134,-0.07578977158722416,0.21810666299672207,-0.07527395666261943
1681249317943308300,6.090308349609375,-0.7600765228271484,0.1394108235836029,0.907512903213501,0.41696226596832275,0.18422457575798035,-0.8900582790374756,0.2276756763458252,-0.017842799425125122,-0.16598725318908691,0.9697738732192918,-0.07961448491479789,0.220527530430967,-0.06758447842561356
1681249317958341400,6.10534130859375,-0.7705432176589966,0.02607015334069729,0.897347092628479,0.42058998346328735,0.18876340985298157,-0.8873964548110962,0.15913709998130798,-0.03310856223106384,-0.07901901006698608,0.9696002924883093,-0.08365117027621823,0.2220456372254921,-0.05977827144034731
1681249317973375200,6.120375244140625,-0.753852128982544,-0.05016043782234192,0.8751744031906128,0.4229438304901123,0.19333724677562714,-0.8852904438972473,0.11636269092559814,-0.039589762687683105,-0.043191611766815186,0.9695033369617178,-0.08774784594734421,0.22283420996571143,-0.05204224233724777
1681249317988408300,6.135408203125,-0.6948614120483398,-0.10975319147109985,0.8436760902404785,0.4244028627872467,0.19757439196109772,-0.8836552500724792,0.05164074897766113,-0.03752501308917999,0.015689492225646973,0.9694570922119038,-0.09165838757825634,0.22309443277111052,-0.044502773164840644
