seconds_elapsed,rotationRateX,rotationRateY,rotationRateZ,gravityX,gravityY,gravityZ,accelerationX,accelerationY,accelerationZ,quaternionW,quaternionX,quaternionY,quaternionZ
5.0,0.04891649554753021,-0.26006783996778027,0.22432372819412505,0.4240405083769304,0.18012649967520444,-0.8875473400264503,-0.05792049115781132,-0.0478256126675272,0.15327512737732057,0.8907388917090562,0.0021093143714425596,0.23710971570091774,-0.3877589788943825
5.01,0.047034482473036404,-0.23857918049478508,0.21451550083106888,0.42221426615767144,0.17879442184630132,-0.8886879519493499,-0.05823043810983619,-0.04369078109729812,0.15886263236765488,0.8914640712442191,0.0020839050808355844,0.23590544177391226,-0.3868273874258844
5.02,0.06459474029736693,-0.21132222935412248,0.21213493545885617,0.42062603972433094,0.1774973653029901,-0.889700261686504,-0.061595420382759024,-0.03567438585059619,0.15857577427003974,0.8921282106408345,0.0021118710651066167,0.23482970589371996,-0.3859495309908749
5.029999999999999,0.07922406411701383,-0.1820932665226413,0.21515829305398335,0.4193158631936195,0.17597032571375565,-0.8906210937377497,-0.06325347932804917,-0.0265827210088806,0.1546720764888235,0.892758016236618,0.002314481791894563,0.23384512589767797,-0.38508853275942373
5.039999999999999,0.08400174463827537,-0.15171265976746548,0.22284858325384563,0.4182386093196876,0.17438000046337254,-0.8914411686756741,-0.06393739700363843,-0.01940542375999183,0.14731580814874623,0.8933635426238731,0.0025956757526960565,0.23296470458308263,-0.384216026116091
5.049999999999999,0.054806679978120255,-0.1200316956200722,0.24005002808612144,0.41762236993030494,0.17291757924685755,-0.8920146073302433,-0.0635850789586615,-0.021525983093554267,0.13229875700209381,0.8939297853189139,0.0028998933868791977,0.23234483608376205,-0.3832705857101339
5.059999999999999,0.004965961978440556,-0.10034532936357482,0.25895076410453566,0.4172109740514975,0.1717688735190879,-0.8924291420632202,-0.062358797896467776,-0.02788490733701034,0.12182171984777038,0.8945147604498277,0.0030637147310771658,0.23189645678212237,-0.38217386061188807
5.0699999999999985,-0.05234735673766837,-0.08646081389533541,0.2777605879360009,0.4169315306519862,0.17087757894095496,-0.8927311594429125,-0.05895944841886863,-0.035936725907725335,0.11260873995512798,0.8951128310818279,0.0031085736471787727,0.23157017946802763,-0.3809697606060526
5.079999999999998,-0.103886832879091,-0.07521750372512925,0.29319697616935403,0.4168321298323557,0.17048915447764798,-0.8928518122925876,-0.048181992857815395,-0.043455305574290254,0.10056942528551814,0.8957315896018403,0.002912932468171779,0.23144239455250484,-0.37959195520981565
5.089999999999998,-0.15148480128277686,-0.05899072442955529,0.30443558928779685,0.41682346996856606,0.17047421687990372,-0.8928587267693436,-0.04284513361102234,-0.04720674727858112,0.0934358866097563,0.8963668407970069,0.0025308399628641977,0.23143919276005834,-0.3780930347670204
5.099999999999998,-0.19449429940218477,-0.038531740476789915,0.31353642067432835,0.41692294301417504,0.17070613586074962,-0.892767890434753,-0.04100303955403313,-0.0478597109137741,0.08852669395569986,0.8970048028621226,0.002036356129863079,0.23154217660671078,-0.37651770502154597
5.109999999999998,-0.22533666484828607,-0.009414751917202716,0.3214609101498153,0.4173132309950418,0.17128552131230765,-0.8924744855423454,-0.0437887604102044,-0.042399693674254384,0.08381794192565534,0.8976230075933298,0.0014148860458740812,0.23186324828734833,-0.37484530647943815
5.119999999999997,-0.24883320243201665,0.016204492325279346,0.3268726151120771,0.4179486947570305,0.17208726404935876,-0.8920223725910659,-0.047258116384726975,-0.04014185163863659,0.07677184989910203,0.8982197774488658,0.0007225429974569012,0.23235276973114438,-0.37310919315893715
5.129999999999997,-0.2675898014089644,0.03924452850543293,0.3310629997575329,0.4187567962829847,0.17302357062915658,-0.8914622107358136,-0.0496340532223801,-0.03867010936694368,0.06724553350684578,0.8987999081736101,-8.288393972215893e-06,0.23295623435616278,-0.3713340000985978
5.139999999999997,-0.2801822500340432,0.05790561318685357,0.3349372562098808,0.4198353146739654,0.17410652981495336,-0.8907435949746969,-0.045708410430018574,-0.03415005429347534,0.051402799751019905,0.899349470667951,-0.0007661414694328498,0.23372457294031174,-0.36951444836085323
5.149999999999997,-0.30067164921888345,0.06793173195687974,0.3305700188090615,0.4210209441255141,0.1753460916953428,-0.889939816186664,-0.04165904420847504,-0.03418551934283107,0.036969922636784794,0.9322629086853598,-0.0415978398315144,0.22634889684527704,-0.2020908985880012
5.159999999999997,-0.32462212037861965,0.07346139707825908,0.3222680543984379,0.4222619700864702,0.1767285468739947,-0.8890784645550623,-0.03640703436839936,-0.035448103207586255,0.020484817681252824,0.9718735310171458,-0.09099628475071916,0.21720947959049433,0.0003328436797628493
5.169999999999996,-0.3473251248783949,0.07705155403686009,0.31377079021982107,0.42352529552728724,0.1784308425190614,-0.8881366104971704,-0.02584554169826386,-0.03242046169610544,-0.008613298556709795,0.9716285033283273,-0.09231630993231163,0.21773518290763974,0.002210188367605862
5.179999999999996,-0.3599894937145887,0.08298211948732812,0.3045679726770498,0.42481290885966855,0.1802895464544277,-0.8871448727379933,-0.019536184103837916,-0.03243610857232959,-0.028046795245864856,0.9713671165646501,-0.09371394609856032,0.2182749020289835,0.004054980177049439
5.189999999999996,-0.3643352120510779,0.0909929261341803,0.2948003039845733,0.42613010221431036,0.18223094113964497,-0.8861170377425145,-0.015684179253866105,-0.032781312068102225,-0.044280176664845586,0.9710939247798427,-0.09515083010846828,0.2188315230220756,0.00587021177811848
5.199999999999996,-0.3518446425764378,0.10361370751041775,0.2839456646260055,0.4275339960499233,0.1842065204322444,-0.885031016760995,-0.013779261500924685,-0.027570883370835093,-0.06768549092328649,0.9708018110153209,-0.0965960027203759,0.21943736003860406,0.007618279103046675
5.2099999999999955,-0.33373337235107553,0.12811010006046314,0.27137822017986024,0.4291007715167621,0.1860563733125052,-0.8838843130793951,-0.014630921568821717,-0.024496494057096956,-0.08301168625596213,0.9704918917254347,-0.09796175139781865,0.22013643835798172,0.00927601787960545
5.219999999999995,-0.3137951922969641,0.1589686716379881,0.25702638886687723,0.43081605610582313,0.18782070541843854,-0.8826771437125793,-0.016016526270743275,-0.0225595433569454,-0.0972227346250604,0.9701649693004558,-0.09927202872807143,0.22092067023041323,0.010861271750512696
5.229999999999995,-0.2988389771987779,0.19206648896473863,0.2379296472511792,0.43287451454944836,0.18946866157536696,-0.8813159127379371,-0.013111867754092055,-0.020990097645567623,-0.1263024248146935,0.9697966107169924,-0.10050141141939593,0.22190206440919089,0.012306581979458806
5.239999999999995,-0.2738917061153067,0.2398466601274183,0.22134206378649512,0.4352817191363238,0.1909916982718993,-0.8797986197036027,-0.010213814998516712,-0.02250690750314725,-0.14604621539887563,0.9693877801069607,-0.10164726184953309,0.2230850044924319,0.013620851050543076
5.249999999999995,-0.24127906750247127,0.2927076325675197,0.20454889883190153,0.43796772013265034,0.19239193906571983,-0.8781608105309795,-0.005922214652250379,-0.025273852311517606,-0.16384100660020948,0.96894797717553,-0.10271381044593014,0.22442976150071733,0.014828386140557733
5.2599999999999945,-0.19510317332638072,0.33234746938432425,0.17973901619257268,0.4411873665003409,0.1934780855447982,-0.8763069498002954,0.005858727159905608,-0.026238198067133185,-0.1969139121661513,0.9684536540384677,-0.10358539501680454,0.2260866524286848,0.0158248083790596
5.269999999999994,-0.12974372535138104,0.3434712135929647,0.14075167182082154,0.44450489861733355,0.19419600000406448,-0.8744683746054528,0.016952288670799547,-0.020490374128980363,-0.22304595681083034,0.9679663974006661,-0.10421412012758309,0.2278230075079798,0.016578721200066093
5.279999999999994,-0.05474543982480427,0.3392407692535734,0.08949821495981121,0.4478297086244417,0.19462945756295855,-0.8726771916844476,0.03195238178832499,-0.007590039673100666,-0.2505638332132756,0.9674944975753429,-0.10464593957342234,0.22958669196234202,0.01711608034787073
5.289999999999994,0.017311564969360177,0.33358963534366953,0.01138831888133221,0.4509029546179665,0.19455804504253293,-0.8711078408400176,0.0710600386853496,0.025619171001783896,-0.3066557959675186,0.9670881608683635,-0.10469229380674228,0.23126707860300164,0.01715601405668806
5.299999999999994,0.06830490032896376,0.3376313163316657,-0.06995079301205008,0.453825907314469,0.19431886142171512,-0.8696416576828595,0.09343428237441964,0.04841059588825818,-0.3409866902708588,0.966715965158376,-0.10454114215870698,0.23291376149511356,0.016756372002639037
5.309999999999993,0.09966387282834231,0.34602357608790185,-0.14775994796570313,0.45663883685387957,0.19403919432652225,-0.868232699706982,0.10783766426892386,0.06292475890652605,-0.3621716743438487,0.9663636680457864,-0.10428959209707526,0.23453535436571496,0.016042145966770695
5.319999999999993,0.0825222463284523,0.3488418778967784,-0.1940641037323357,0.45928475746147324,0.19406332888408456,-0.8668294263354531,0.12912402687016306,0.06198716851343987,-0.3757541870559705,0.9660189754205112,-0.10408166606429173,0.23611701219075124,0.01488238537611159
5.329999999999993,0.04945098815373186,0.37581741824604026,-0.2368938799376989,0.46204567030344257,0.19454019919092208,-0.8652523571042295,0.1428281316948797,0.05676179607250001,-0.3755166609501248,0.9656298290176902,-0.10407140256136056,0.23778420488099958,0.013565486102778645
5.339999999999993,0.013171694474344001,0.4081863556166554,-0.2807053342524273,0.46488236018995877,0.19536369655948888,-0.8635477737337861,0.14858699627295147,0.04557869715409654,-0.3659189225538413,0.965207988809918,-0.10420836883625964,0.23951218294843313,0.012114026451202563
5.3499999999999925,0.013009005958681886,0.3891108448271612,-0.3429779443726598,0.46778955609760386,0.19676872726382297,-0.8616548800524987,0.13113545536614857,0.01205029646973644,-0.34625410270606427,0.9647374910632881,-0.10457338299318475,0.24132042848039134,0.010371019994934217
5.359999999999992,0.04314597963449978,0.3191805700782551,-0.4198020991061685,0.4700315940747142,0.19832936918191751,-0.8600763172914083,0.12826750691259997,0.0001697891526237846,-0.336481928275566,0.9643477344053313,-0.10491470155833335,0.24280396377962896,0.008282980223576784
5.369999999999992,0.09523764565288015,0.21420435250832104,-0.5061238752025299,0.4716420309417662,0.19995009627076155,-0.8588209285777747,0.1341945011500231,0.0038576682164216747,-0.3280617959399494,0.9640404616360161,-0.10519912068740793,0.2439726782526194,0.005907750598494258
5.379999999999992,0.17694471322721914,0.07154642011897358,-0.5996898905674486,0.4716041881338995,0.20137160019318748,-0.8585092259528944,0.14255500624053702,0.02792171943454731,-0.2905156249390801,0.9639720635564771,-0.1051953641660527,0.2442934473034002,0.002947248606554886
5.389999999999992,0.27355538146794367,-0.06079753774715633,-0.7065972109561187,0.4702232539307268,0.20250666724677754,-0.8589979731135224,0.136998625149084,0.040143346328604404,-0.25769226861248706,0.9641010508486207,-0.10489418904584931,0.24392163858727264,-0.0005182879027396305
5.3999999999999915,0.3817662774738142,-0.1792560002035306,-0.819083038236823,0.46785141254971674,0.20336586137420662,-0.8600897214124832,0.1188060701023525,0.04557030014470485,-0.21989109399857915,0.9643763163563425,-0.10433092988009418,0.24304228208148412,-0.00440253372521049
5.409999999999991,0.5093562988181137,-0.24277240961273397,-0.9148437648186046,0.46411948187410873,0.2034773633348173,-0.8620802826828036,0.06972724658801838,0.052776990336880714,-0.12687480842009008,0.9648560813531749,-0.10316406638974143,0.24148585096939768,-0.009125089539989611
5.419999999999991,0.640948922549718,-0.2760426903294907,-0.975612322215782,0.45994818554510514,0.20281098596712466,-0.8644651720694516,0.032572656808934605,0.049737649235084815,-0.0643722844280259,0.9654080632308139,-0.10150252028936273,0.23970926086782923,-0.014269110674052888
5.429999999999991,0.7733286903719483,-0.28706215407905045,-1.011093190317462,0.4555050989045334,0.20147322959789793,-0.8671318446181407,0.0019381991649836047,0.04152657909529782,-0.01899183434202161,0.9660080503999519,-0.0994301113809877,0.23779350892215614,-0.01971646427939142
5.439999999999991,0.8931444638189602,-0.2698607768206263,-1.0173592879372346,0.45104062627207314,0.19866081484391407,-0.8701036793344419,-0.03458392990779223,0.04162888422687008,0.038151702503286984,0.9666367260869696,-0.09654148442889561,0.23584458715222634,-0.02550627890191237
5.44999999999999,0.9937673418387076,-0.2474074342787105,-1.0081879755571188,0.4468098645659033,0.19494165583753342,-0.8731176945993956,-0.05198216856144926,0.047564139589779064,0.06343668388464227,0.9672407255995469,-0.09318783269198878,0.23398322048101644,-0.03138165398729982
5.45999999999999,1.080016075038184,-0.2220895080294616,-0.9895426555634487,0.44277384774790784,0.19050665115879917,-0.8761565214030073,-0.057091046978288665,0.05654356530658016,0.06815886757696084,0.9678225560494135,-0.08947027586531328,0.2321929314632408,-0.03731309493230221
5.46999999999999,1.1477884816561272,-0.20034711514603765,-0.9728952584613378,0.4391220075441422,0.18490190402623746,-0.8791812086492515,-0.060209385894244766,0.06044308483624409,0.06883889288908017,0.9683508447062913,-0.08517879703987272,0.23053138681202598,-0.043262189076304115
5.47999999999999,1.1923056174462554,-0.18465643511864288,-0.9522528402137316,0.4356796384903117,0.1787704696609655,-0.8821512976940177,-0.05696469516133898,0.06250410354071509,0.06780750174420405,0.9688329284228767,-0.08064503992125208,0.22892666411631177,-0.04918542316707172
5.4899999999999896,1.2171343973257958,-0.1732999101839308,-0.9284872558039223,0.4324033713890237,0.1722622916340128,-0.8850671498317079,-0.04906678684842403,0.06214526736207351,0.06632074915537958,0.969275867243635,-0.0759443817272832,0.22736586295760428,-0.05507238601671042
5.499999999999989,1.2018918449193423,-0.16553155247740103,-0.9000828616120768,0.4293906489559554,0.16544584010376584,-0.8878194910187348,-0.036563411844364235,0.05113766703690612,0.07049414468352452,0.9696389567935003,-0.07115739421525422,0.2258667092544634,-0.060790207994142115
5.509999999999989,1.1656340886881922,-0.1595411890607769,-0.8691080601698126,0.4265124039299218,0.1587498944662957,-0.8904236400812673,-0.029354720510190595,0.0470890379466954,0.07763817534503037,0.9699454060807182,-0.066490771936739,0.22439833657528188,-0.06634393470179233
5.519999999999989,1.1146019713258766,-0.15447980194715985,-0.8357287678959057,0.42374878379178904,0.15217444256245174,-0.8929015244984574,-0.026126266079029188,0.04769560344060366,0.08846140620669796,0.9702054936167088,-0.06193575171774223,0.2229584799794405,-0.07175265620197899
5.529999999999989,1.056330966707527,-0.14703487087352016,-0.7958884277365484,0.4212189199316592,0.14597438086812595,-0.8951222823395049,-0.027128640279699037,0.048485606025738655,0.11515435243588912,0.9703850159655073,-0.05767401021039065,0.2215934002423575,-0.07682821435538612
5.5399999999999885,0.9874427818339538,-0.1468079084349444,-0.7471359517097976,0.41879778976861093,0.1400775782778905,-0.8971979181067907,-0.028751651422146366,0.04991825391685246,0.1334910964928507,0.9705267819396396,-0.053641223598305185,0.22026033314776208,-0.08164005234063405
5.549999999999988,0.9106311939521601,-0.1529200570954815,-0.6917799021092016,0.41645368119105336,0.13445302372873782,-0.8991576335026468,-0.030465844110218982,0.051361698714450205,0.1454027188680872,0.9706403128144248,-0.04981195526278479,0.21894815906994342,-0.08622013489178947
5.559999999999988,0.8272450873875058,-0.1731220842060929,-0.6313837737850054,0.41413524727535106,0.1294801775585441,-0.9009505356418062,-0.02880717470933597,0.04846811191100939,0.1502304981261057,0.9707298755888715,-0.04645427299042237,0.21762553355908593,-0.0902839488248475
5.569999999999988,0.7395732799553909,-0.19402404684242894,-0.5710468451799032,0.4117334409265744,0.12494040682631691,-0.9026909850757958,-0.025754872488105415,0.047399003246206585,0.1558692633389343,0.9708258734958081,-0.04341182489786386,0.21625119359030404,-0.09400025046959319
5.579999999999988,0.6476405754015419,-0.21561966433708288,-0.5107274273905261,0.4092577940017717,0.12078027167156177,-0.9043880504473675,-0.02186007715248687,0.047325032883969526,0.16277334738412452,0.9709285510987036,-0.04064302553160096,0.21483315809810294,-0.09742072547533456
5.589999999999987,0.5420423013819594,-0.23942261206255297,-0.45014220941114685,0.4066157918421633,0.1174410901913661,-0.9060142273084216,-0.019492117670458078,0.04406688073281073,0.17730997927781966,0.9710548462693922,-0.03844225705384148,0.21333509443322998,-0.10027923540233714
5.599999999999987,0.4350692667513735,-0.26230374828575337,-0.386897210996914,0.4038638400205065,0.11473485100610531,-0.9075911304804181,-0.018438887888752288,0.04266590980782174,0.1897430115635645,0.9712018409256203,-0.03666053048570367,0.211796971089798,-0.10276178294793434
5.609999999999987,0.3273069836744795,-0.2846037309903425,-0.32238982800488314,0.40101622434611317,0.11256491762421802,-0.9091279757214684,-0.018790173342113258,0.04202978377386488,0.20094723227688854,0.9713674086056269,-0.03523397909883371,0.210224179563126,-0.10492429501677981
5.619999999999987,0.22202801466211192,-0.30794342646155654,-0.26587277394627473,0.3979753991205899,0.11133386670157194,-0.9106121115723673,-0.024589618338581292,0.03441040499886135,0.21569680859602758,0.9715761296982648,-0.0344303650635586,0.20858323880110563,-0.10651136694692141
5.629999999999987,0.10433101106598777,-0.3294416652110763,-0.20816271385823332,0.3948073057115872,0.11083414949516036,-0.9120505914724876,-0.02804507325298416,0.03017342692751771,0.2224233530887093,0.9718089996917623,-0.034082481962230834,0.20690954855339705,-0.10775874182396088
5.639999999999986,-0.021839373223185552,-0.34872701718855276,-0.15002413699147374,0.39153709391682356,0.11097465400239327,-0.9134450325972833,-0.02989620755499575,0.02773796283702401,0.2232534353949465,0.9720620018964801,-0.03413227382255657,0.20521238197681235,-0.1087102030607378
5.649999999999986,-0.1377850201478711,-0.3568214603607983,-0.0979902092945242,0.3881686827798878,0.11238907783686164,-0.9147058575658202,-0.03361207702864796,0.01578845772331252,0.22508266636228572,0.9723436745251934,-0.034958908911270056,0.20352716809644444,-0.1090893777850663
5.659999999999986,-0.23424917884961413,-0.3690452650417878,-0.058541516073231284,0.38476070289490316,0.11441251185055666,-0.915892293543239,-0.0380708239836397,0.0055700761886980895,0.2250604886908014,0.9726352294337309,-0.03615104966395637,0.20185222922653875,-0.10920943237159778
5.669999999999986,-0.3132345479470389,-0.3844306282833797,-0.02918034156785744,0.38130942140262736,0.11695162725242646,-0.9170185995252137,-0.04333335391189903,-0.0028426319755874858,0.223065153367602,0.9729355900865316,-0.03765248947705758,0.20018082843452625,-0.1091125944830974
5.6799999999999855,-0.3540924701321062,-0.39985536866387594,-0.006628404405426665,0.3776652323515204,0.12022787478608227,-0.9180971889312003,-0.0520817626505717,-0.004129574881879565,0.21282693929502908,0.9732543938960027,-0.0395934563218498,0.1984454491811413,-0.10873940140258409
5.689999999999985,-0.35694568323405806,-0.405063750548818,0.0053930954514692,0.37398314998492127,0.12350370592572936,-0.9191680478604386,-0.05695672494097752,-0.0006082180685802237,0.20779758569238965,0.9735761734641193,-0.041543575879643746,0.19668866125671428,-0.10831968574996573
5.699999999999985,-0.3287375588575663,-0.40072317480673814,0.009451993268946952,0.3702859210823665,0.12674940611598565,-0.9202289041213987,-0.05997943633592295,0.006949963221329118,0.20664176795120384,0.9738991389778726,-0.043484533517843635,0.19492098097290955,-0.1078644742944216
5.709999999999985,-0.2807436325295531,-0.37107426539033145,0.018763483217587328,0.3668327528550774,0.1294982676493689,-0.9212243131486014,-0.0828825853567217,0.018794979799930042,0.20180169116076313,0.9742028799079523,-0.04515281974553874,0.1932522630109816,-0.10742717202777086
5.719999999999985,-0.23025236312127584,-0.3355174780045535,0.03038068506514914,0.3636645964113708,0.13180370844984515,-0.9221544680083359,-0.09860069858584149,0.025263017784218498,0.19713731044467286,0.9744899602347546,-0.046579490706841996,0.1917060602376007,-0.10698720427414463
5.729999999999984,-0.17863453225907067,-0.29503123008945953,0.04351868761405016,0.3607588376635225,0.13372063836634532,-0.9230228817312492,-0.10821711868722221,0.02722083517624808,0.19210494390549412,0.9747612079428922,-0.04779370544908694,0.1902738950579443,-0.10654543633106736
5.739999999999984,-0.14404201322673468,-0.2515754853759863,0.05011798317325442,0.3584659084333872,0.13506087639518835,-0.9237191973253438,-0.11218647042949637,0.02602269104305127,0.17733328435536322,0.9749871988367395,-0.048679158005578926,0.18912890551309983,-0.1061104235611542
5.749999999999984,-0.11966517594824062,-0.20744748201155927,0.050808010438866735,0.3564721892418585,0.13615652922542026,-0.9243304699445909,-0.11146422696206462,0.02465322625573599,0.1662141837504169,0.9751894813513402,-0.04942086338420667,0.1881269135860471,-0.10569094727579513
5.759999999999984,-0.10413834294785665,-0.16281146405561503,0.046403128693103764,0.35475199496509086,0.137046044060624,-0.9248617415741789,-0.10656203695348247,0.02306171017258971,0.15774456411663393,0.9753692710765067,-0.05003962252685817,0.187256839076275,-0.10528800251787925
5.769999999999984,-0.09680905899853187,-0.11929249562756888,0.03779942671634812,0.3535907261554584,0.13786735968816152,-0.9251838525668706,-0.09532159640207198,0.019692698407846647,0.14074020427853057,0.9754865184779372,-0.05057831619320747,0.1866805041541714,-0.10496594743381496
5.779999999999983,-0.08639054427293998,-0.0769653440976787,0.027210535082022418,0.35274499105232204,0.13862914262571044,-0.9253931501617132,-0.08851610231309053,0.017604775827218724,0.12871775198541613,0.9755685050446662,-0.051059155365362076,0.18626930478177733,-0.10470230442392997
5.789999999999983,-0.07314704646803001,-0.03586140777082239,0.01460249196065468,0.35218653673086053,0.1393348018013739,-0.92550008885027,-0.08519000710873756,0.016843825266500103,0.12034096161722137,0.9756182019206233,-0.051485856483597506,0.18600847795432715,-0.10449448710324231
5.799999999999983,-0.05485425257148677,-0.00025010140338235787,-0.006667069274135046,0.3521102514588345,0.1398984068276376,-0.9254440247262343,-0.07379620302707941,0.022309442971026976,0.09591425098740083,0.9756090690836027,-0.05178523679436684,0.18600061388823044,-0.10444620946838672
5.809999999999983,-0.037218182774839785,0.031371278899088764,-0.02469154884664078,0.3522494928369891,0.14037875213592776,-0.9253182982751869,-0.06390582928123933,0.02725763679198452,0.07921358811349824,0.975572504937615,-0.052014382283915014,0.18610566394160494,-0.10448671686276087
5.8199999999999825,-0.020502103371685225,0.05934070543190858,-0.039694656378611984,0.35258734945559717,0.1407837156341523,-0.92512815634691,-0.055073688516371656,0.03142739893387415,0.06895945233216852,0.9755106777418167,-0.05217960344788037,0.18631482135703817,-0.1046084004858831
5.829999999999982,-0.015103010063433462,0.08220131248284965,-0.048861681071143734,0.35324536026246167,0.14110918227921554,-0.9248273321480803,-0.0377249107436414,0.024920365729924628,0.04806349057527905,0.9754086232973703,-0.052266758302087206,0.18669345175407343,-0.10484087158812894
5.839999999999982,-0.011573271402567926,0.09495101953556845,-0.060591977804186986,0.35398634685909264,0.14143716205962814,-0.9244937451987663,-0.024802524871600437,0.02027524123044455,0.03209790796692039,0.9752932486275568,-0.05234213494867595,0.18711842542147059,-0.10511832194211286
5.849999999999982,-0.009701609167385722,0.09817932039284168,-0.07458570534177404,0.35479946518495964,0.1417685155100414,-0.924131448454747,-0.01562824846043549,0.017474583743833018,0.020170444492644022,0.9751658171540825,-0.052407131037279425,0.1875839752015453,-0.10543867459878019
5.859999999999982,-0.006775684324932342,0.0834520848458086,-0.08670043795475828,0.3555031016610558,0.14214739440201765,-0.9238025970793918,0.0036539047508406843,0.021876460028470535,-0.008863238389003356,0.9750355473862922,-0.05248161127076285,0.1880007534160172,-0.10586222863808754
5.8699999999999815,-0.00936300592328064,0.06872184969973101,-0.09468704779715707,0.3560686311029292,0.14256034618184413,-0.9235211955747762,0.017589306808693216,0.02652885830644022,-0.02844627391101555,0.9749142777383452,-0.05257499119440054,0.18834865153738312,-0.10631349267235839
5.879999999999981,-0.01718018497561492,0.05412975524022018,-0.0988097809326847,0.3565036318617271,0.14300809515397642,-0.9232842377939244,0.02658179381974596,0.031309731218138855,-0.03932791102241548,0.9748014741376347,-0.05268766910075059,0.18863158445549735,-0.1067903422526257
5.889999999999981,-0.03301066879573441,0.048115563707544946,-0.10010115436153212,0.3567670844109931,0.14365607146730458,-0.9230817222752411,0.0356559203038655,0.029809201442616833,-0.052511718864779955,0.974697402308246,-0.05291119885030751,0.18883719059193227,-0.10726484916764155
5.899999999999981,-0.04866661356293942,0.047504571083465966,-0.09952418728011694,0.35703950150585,0.14441882215594376,-0.9228572629488346,0.04075021581004829,0.02737671333748069,-0.06177274903192959,0.9745893037429157,-0.053195628850455125,0.18905423494868873,-0.10772299957845836
5.909999999999981,-0.06400023678049532,0.0520933716761852,-0.09716400871808258,0.35732156920607966,0.14529173582190505,-0.9226113230062123,0.04212049502442887,0.024069307209697452,-0.0673998654179747,0.9744772345875166,-0.05353846090483471,0.18928281199279856,-0.10816542387103453
5.91999999999998,-0.06297174102326679,0.06355082690043236,-0.09397578189036175,0.35772206069237167,0.14628015864246383,-0.9222995410878636,0.04951482902399658,0.021873086276145585,-0.08280400932001536,0.9743500664495517,-0.0539372136019568,0.18958083386655164,-0.10858858615107166
5.92999999999998,-0.057694043870088564,0.06846245412692757,-0.08671714318234008,0.3581643722040877,0.14717663786491467,-0.9219852607742932,0.05573753989327461,0.023400503084797426,-0.09730710832265563,0.9742244481416523,-0.05429081495964722,0.1898941276961615,-0.10899145441573505
5.93999999999998,-0.048422203096976285,0.06710317337991636,-0.07539421422812143,0.3586483106738199,0.14798362301266138,-0.921668181778666,0.06085378587842362,0.02854329897342167,-0.1109796963909758,0.9741003115431734,-0.05460053616917602,0.19022274037376355,-0.10937396205647025
5.94999999999998,-0.09396054506892881,0.10790162205218501,-0.03122708185204518,0.35942305475037684,0.1488768296074872,-0.9212220046767255,0.07923093818538221,0.026949793748384084,-0.1421684035351381,0.973965108171966,-0.05497706614438894,0.19069961342390973,-0.10955791573348546
5.9599999999999795,-0.15823586192351008,0.16800248514849425,0.03426835387129105,0.3607136365745847,0.15003908309953654,-0.9205274843182275,0.09254138470275189,0.018072165932525214,-0.16382921892017335,0.973797670698372,-0.055518172949310815,0.19145030565145635,-0.10946097805471905
5.969999999999979,-0.24129578848505573,0.24745483500448534,0.12114631567472905,0.36252136755560377,0.15147106748405237,-0.9195839893425881,0.10077224439494609,0.0018918971736443038,-0.1759379198819066,0.9735979171739544,-0.05622427498597409,0.19247551318416667,-0.10908243491287921
5.979999999999979,-0.3211692865833434,0.3091561091667461,0.2057991674265523,0.3655248752165645,0.15360166675453968,-0.9180359353789607,0.13033047353781507,-0.022759983501248287,-0.193401783804417,0.9733222448672461,-0.05736831274147458,0.19413614294020723,-0.10798638810128176
5.989999999999979,-0.3923665933829351,0.3616749091709863,0.2983691523371097,0.3690279805815042,0.1559570112448074,-0.9162326534327816,0.15401872206108025,-0.0357119531862319,-0.2042745440072961,0.9730223425901566,-0.058684698634111125,0.19605180213976495,-0.10649873716406763
5.999999999999979,-0.4546418214457629,0.4048094329351953,0.3991015048258142,0.3730407286275861,0.15854096667581116,-0.9141689861571016,0.17157519853793712,-0.03658054070336038,-0.20833780527404389,0.9726977960165517,-0.060176794597376196,0.19822751678163056,-0.1046107152415811
6.0099999999999785,-0.5068629365687903,0.43543538541785687,0.49037220403701753,0.3777381439842291,0.1613065377414921,-0.9117433287602633,0.21342816795175554,-0.005046627484996305,-0.22134826187575118,0.9723506333518152,-0.06189546294453633,0.2007301101224344,-0.10199182617013972
6.019999999999978,-0.5603383648397058,0.46497116066267496,0.582493214053796,0.38274662930149506,0.16414250161431718,-0.9091425478743062,0.23812546112387567,0.007133002850807978,-0.23264388891603652,0.9719908451840047,-0.0637288630751217,0.2033755399973893,-0.09899140374329082
6.029999999999978,-0.6152551367320613,0.4934960312388812,0.6756214393396281,0.3880763959047386,0.16705086536920957,-0.9063606278218085,0.24439760800202212,-0.001530630985612116,-0.24202360091653563,0.9716179581876881,-0.0656810566198105,0.20616835301558611,-0.09559568420425402
6.039999999999978,-0.6457727126541792,0.48483405660291845,0.7480884585122669,0.3937745926663827,0.16998582253956077,-0.9033385979234949,0.2549477923018779,-0.007567374015739511,-0.2503960294338482,0.9712267001266963,-0.06780911090309111,0.2091073256607303,-0.09153884276570826
6.049999999999978,-0.6695473610015796,0.4534945522039027,0.8065022226246564,0.3993438394211761,0.17284649471668107,-0.9003477451510171,0.25948292158592795,-0.008268666137170073,-0.2536858164795116,0.9708510917926281,-0.06997782491003716,0.21195084523538088,-0.08724515103925568
6.059999999999977,-0.6864627987674974,0.3982263702750009,0.8500417111526023,0.4047659069774349,0.17562593893480422,-0.8973953717896643,0.2574000804007229,-0.0032227965307754366,-0.25147210142446047,0.9704928406107134,-0.07218734906803771,0.21468784380057024,-0.08270676926566391
6.069999999999977,-0.7110214346760436,0.31473298405778044,0.8754374319113526,0.40934142869804263,0.17840901260713166,-0.8947578411832228,0.2512213120250597,-0.00019077491504415406,-0.22169413451404232,0.9702097182213331,-0.07454455581920935,0.21693033423972957,-0.0778433611944422
6.079999999999977,-0.735390888961978,0.22917622618060746,0.8945417012846922,0.41338404141794355,0.1812435427565632,-0.8923295870381989,0.2415490463081375,-0.004660783740225909,-0.1931679950120109,0.969971000506057,-0.07699198583507087,0.21886760926179644,-0.0728569388358479
6.089999999999977,-0.7593381111658749,0.14209594078247959,0.9071249007495059,0.41685523194403606,0.18413540528972697,-0.8901262197807936,0.2280906650075418,-0.017448490972120225,-0.16680030003381185,0.9697797698103251,-0.0795360391307954,0.22047787786158982,-0.06774219146112981
6.0999999999999766,-0.7668243325671221,0.0663408343571008,0.9009590715806524,0.4193010317238609,0.1871507324298249,-0.8883422183583959,0.18348930418284126,-0.02768453691770974,-0.10991939533752729,0.9696619668566803,-0.08221690958052126,0.2215062439579198,-0.0625518678093996
6.109999999999976,-0.765371010346074,0.002447942188100502,0.8904762558196445,0.42131938973759586,0.19018074297234822,-0.8867438475869149,0.14588223592705363,-0.035116946048803346,-0.06791687436552281,0.9695702480679969,-0.08492064144587069,0.22228999885898384,-0.05738104336998891
6.119999999999976,-0.7542687353466835,-0.04825773692390093,0.8757278292558003,0.422885078920901,0.19322308468545746,-0.8853430095247306,0.11743033195131852,-0.039427993170437575,-0.04408585673979112,0.9695057569530197,-0.08764559371026785,0.2228145273417358,-0.05223533213624128
6.129999999999976,-0.7160836996899538,-0.08831431727161569,0.8550078097447338,0.42387796658836296,0.1960500518855968,-0.8842435215074191,0.07492488146709936,-0.03826781996057656,-0.0054933614592397595,0.969473729056368,-0.09025154522002073,0.2230008159528364,-0.04721514541182257
6.139999999999976,-0.6598956808138753,-0.11769309108673796,0.835381794375439,0.4246504140380485,0.19856564375037059,-0.8833125596220385,0.04578664796903241,-0.03734182097644233,0.021326189422165347,0.9694615221408722,-0.09267704026946821,0.22305230150788885,-0.04230297301986812
6.1499999999999755,-0.5837474273381561,-0.1349845781272674,0.817318504358753,0.42518953033073753,0.20072438860834774,-0.8825662494960215,0.03303760621474099,-0.03694286580110357,0.03360176987572925,0.9694711696254824,-0.09489545872077952,0.22296054818262476,-0.037512255562480064
6.159999999999975,-0.47141040283941316,-0.142829362899521,0.8021522531792268,0.42559520326621464,0.2017465256964232,-0.8821373943312544,0.01621108150291231,-0.02379476440386801,0.04849461624529419,0.9695208771814706,-0.09646798777623417,0.2227643711634499,-0.03297213890407351
6.169999999999975,-0.34516159936323365,-0.15292317844742104,0.7798606622804307,0.4259033321489275,0.2019943224935909,-0.8819322204256484,0.004908686062369041,-0.013069012074769038,0.05765990680971637,0.9696078250504523,-0.09759679899548053,0.2225050934730534,-0.028609910031980365
6.179999999999975,-0.2041037918238395,-0.1662673870649838,0.748784441846112,0.4261008918258263,0.2013687069383946,-0.8819799550937172,0.0005193564639062766,-0.005988254008276499,0.05974770383670601,0.9697375953447087,-0.09822481815706834,0.22217530243096348,-0.024448916929384272
6.189999999999975,-0.08338260539572023,-0.18555893076916904,0.7169549938242519,0.4259594291438918,0.199267670909537,-0.8825238010855441,0.0035875411206218555,0.011670521847293426,0.05634982764392761,0.9699614052703642,-0.09798161502891,0.22166982303972577,-0.020726691875753135
6.199999999999974,0.011744216729718624,-0.19533951288580792,0.689735284587502,0.4256887781338546,0.19663307035159486,-0.8832435579625612,0.007868121702990104,0.024629658793490668,0.05460251439340809,0.9702171749155623,-0.0974193467258257,0.22110431048041593,-0.017176219050048295
6.209999999999974,0.07639184718112227,-0.19289251617391945,0.6682998677601268,0.42528005986166856,0.1934332545085463,-0.8841490145451785,0.013159018096521879,0.03103689311126947,0.05527447998267985,0.9705064220435242,-0.09651834814958306,0.22047584998846018,-0.013810100554134994
6.219999999999974,0.0946654737674801,-0.17814829097640947,0.6553380750174456,0.42493385917190585,0.1898071160067294,-0.8850970723981386,0.021629590737475446,0.012725453936743646,0.06246425078576002,0.9707884062605033,-0.09535101506806906,0.21990618788253832,-0.01062782965675011
6.229999999999974,0.09145007089099107,-0.16380641936128584,0.6391772303943264,0.4246560408687448,0.18623343045424032,-0.8859900204883183,0.027343129118923826,-0.006166115166941156,0.0721116098386823,0.9710479762168844,-0.09419672434465283,0.2193884156264307,-0.007505618647330686
6.239999999999974,0.06439684450776742,-0.1509405858790855,0.6182649777131892,0.42446073154063807,0.18276012802614341,-0.8868092015739889,0.029284248502896425,-0.02386583469544991,0.08439020693058857,0.9712794668529486,-0.09307993353850404,0.21893236433957203,-0.00444579022989697
6.249999999999973,-0.00029313479273397614,-0.16930963218416675,0.580368950291618,0.42410054272851927,0.18009979649308133,-0.8875239963806679,0.037762241474698185,-0.05138963771259765,0.11282166775286491,0.9714705874320232,-0.09235013723033424,0.21842402374178185,-0.001527917185131873
6.259999999999973,-0.0719933415783284,-0.20911407474073432,0.540798492674718,0.4234339985598725,0.17801599718549013,-0.8882636286551207,0.04718254330288114,-0.06487742602899343,0.13101596887450534,0.9716617329541101,-0.0918992590809508,0.21776679590174333,0.0013228601670644395
6.269999999999973,-0.14950105634277722,-0.27425142787968876,0.5005630867926649,0.422379961308553,0.17661600979397074,-0.8890453147975282,0.05724997884896283,-0.05904178114089981,0.13430476017322635,0.9718565583941976,-0.09177976949811983,0.21691873299926948,0.004098333976597107
6.279999999999973,-0.20953080672988472,-0.34647829683137044,0.47379163397142016,0.42032371349909786,0.17627693159050953,-0.8900850218273775,0.07400445992774746,-0.037456326428098846,0.12098385426267239,0.972107245431186,-0.09217050143115317,0.21554797409165627,0.00678839115754052
6.2899999999999725,-0.2679818408491503,-0.4117671107586093,0.4504339128987334,0.4177913533411989,0.17645255708495805,-0.8912404491549978,0.082962036627467,-0.025803128251969787,0.10991362006115218,0.972382265732224,-0.09281147877055936,0.21392462756074707,0.009463226095962493
6.299999999999972,-0.32610617275827847,-0.46695881120648614,0.43029424424008605,0.4147197807861341,0.1772134273397286,-0.8925254436358139,0.0807047419474529,-0.029182756119407727,0.10359609728658883,0.9726843651883968,-0.0937375746804669,0.21201428863120458,0.01212633132987943
6.309999999999972,-0.3526566003277894,-0.4947808689069087,0.42679844282755736,0.411138550672237,0.178564124832565,-0.8939076235570785,0.05810200243589596,-0.028097342742298907,0.09129186589169412,0.9730010233611414,-0.09494644388738178,0.20982835804028283,0.014794458727530607
6.319999999999972,-0.36104544443857833,-0.5108284211450984,0.4284285236702763,0.4074304663954084,0.1800048107235914,-0.8953156382823035,0.03830687266189313,-0.030425519125467107,0.08458435370012521,0.9733184193398655,-0.096194593342538,0.2075707103309556,0.01748134382156059
6.329999999999972,-0.3479296851493414,-0.5137409418879327,0.435223804104518,0.40360598645696466,0.18150137134595246,-0.8967481308224952,0.02478602944346855,-0.0380117093296473,0.08634158736720456,0.9736351364889186,-0.09746417247311451,0.20524579141791302,0.020193665393077126
6.339999999999971,-0.32132053305748537,-0.5151813420227669,0.4421771683402947,0.3998074993454012,0.18267991601709951,-0.8982051069138127,0.005049049419213334,-0.04837472515205064,0.09621688865085105,0.9739469209441132,-0.0985577036768332,0.2029293392428424,0.022932183317949672
6.349999999999971,-0.288864991840519,-0.5165218387047507,0.453305748191676,0.39601019346678906,0.18362612446471313,-0.8996941964613608,-0.007591616899092977,-0.05276678777833531,0.10580459806660883,0.9742606212474626,-0.09952509515779052,0.2006114084825062,0.025688153855450337
6.359999999999971,-0.24984903559488292,-0.5179137506910979,0.4703678203062995,0.3922111487190686,0.18428288102251403,-0.9012258586471406,-0.009293457164607104,-0.04827789243622495,0.11391296410584985,0.9745777034294134,-0.10033578436877602,0.19829025396995437,0.02846556348067885
6.369999999999971,-0.24287354436380099,-0.5249205603713787,0.4791390395078686,0.3884080182641877,0.18467088335449777,-0.9027882698187248,-0.011978773106083886,-0.04747684464121543,0.13016997277296102,0.9748903503024605,-0.10099779235028919,0.19596470066263763,0.031281060150037086
6.379999999999971,-0.23684357175507645,-0.5343264162714306,0.4932734655090429,0.3845541836321953,0.18495995723008665,-0.9043781253996463,-0.013769888380355663,-0.04758328638726184,0.1436928677032105,0.9752019554730909,-0.10160791514716018,0.1936080081045006,0.03414877817434577
6.38999999999997,-0.22748201970895807,-0.5464231520977941,0.5164926939580613,0.3806266040355326,0.1851435483634447,-0.9060036944003365,-0.014105036605986963,-0.04847732554998708,0.15200689074742083,0.9755126863165603,-0.10216385305859235,0.19120630436976838,0.037087459057661566
6.39999999999997,-0.21236407190529663,-0.5493883624814401,0.5329659427533164,0.37664399736111714,0.1851378362013275,-0.9076635387057024,-0.015154593289984109,-0.050866820558843485,0.16453082270217642,0.9758143557943858,-0.10262765583647043,0.1887655423632165,0.04015982544302504
6.40999999999997,-0.19323216673650873,-0.5488021123604733,0.5445210519281916,0.37267374703781103,0.18497660892566292,-0.9093347766591411,-0.016587273366870065,-0.05270493330415006,0.1744393562795735,0.9761102040965618,-0.10300738112969984,0.18633163026326666,0.04326491785287697
6.41999999999997,-0.16899045850209246,-0.544356008638527,0.5497650461774484,0.36873113701780647,0.18461188870537174,-0.9110175822954983,-0.018480662632335856,-0.053466824596737614,0.17971510756298556,0.9763987587674562,-0.10327541870687001,0.1839144413190058,0.04639746708206114
6.4299999999999695,-0.1452020291562571,-0.5137994589058339,0.5593871856464943,0.3650183587486289,0.18395333780065276,-0.9126410345369348,-0.024003038943430637,-0.05991479187158144,0.18242338251157694,0.9766587440108568,-0.10338118616710186,0.18162873043905334,0.04952602355143992
6.439999999999969,-0.1247508524375175,-0.47410050330630293,0.5758168256605873,0.3615652771311659,0.1831462148530846,-0.9141786224099157,-0.02853883309798312,-0.06404401492710843,0.18430699119923122,0.9768877959549087,-0.10341559148108014,0.17948326137606,0.052679195046081734
6.449999999999969,-0.10939278299654767,-0.42495599736677747,0.6020097578340965,0.3584732679716918,0.18216194502794134,-0.915593812589908,-0.030886990228965332,-0.06354693408443583,0.18537705655734843,0.9770740556918386,-0.1033687403539063,0.1775314446740498,0.05587126199656629
6.459999999999969,-0.09365906716515934,-0.36445839918713874,0.6193317958140305,0.35616549057337676,0.1808816459896393,-0.9167462588953657,-0.032143395238363785,-0.06459380651944574,0.18310874831511212,0.9771732314697786,-0.10320551183212626,0.175995113384468,0.059157926750857515
6.469999999999969,-0.08252756023395653,-0.30273514159833875,0.6323839992534264,0.35429326613439277,0.17949177953285014,-0.9177455908759321,-0.03164111417016801,-0.06376729901444272,0.18086893627597442,0.9772234779580462,-0.10300317405680309,0.17469139997895825,0.06246837336821951
6.4799999999999685,-0.0788141008805636,-0.24132611825346023,0.6403971135730271,0.3529591876493195,0.17798628004086062,-0.9185531549025009,-0.028551075570764577,-0.05964308443865439,0.17934202650441167,0.9772130670395709,-0.10276170359120644,0.1736757671669024,0.06579785178138937
6.489999999999968,-0.08269510838037053,-0.18428548581512197,0.6406176004431421,0.3523882392608424,0.17648657579882282,-0.919061235645265,-0.0201639607493344,-0.06042129298994495,0.17511659231539387,0.9771124694245985,-0.10254970215604924,0.1730686409533723,0.06910736007709606
6.499999999999968,-0.10059919424777697,-0.12785492217851807,0.6382599171443358,0.35215970434851446,0.1750781498486437,-0.9194185663141934,-0.012833601828183428,-0.061004715850532104,0.17021178050803057,0.9769661739125572,-0.10239677698830423,0.1726429859154654,0.07240038565186016
6.509999999999968,-0.13985220113122804,-0.07146604935615168,0.6333823779168976,0.35232555471787513,0.17381827384175794,-0.9195942495526914,-0.00840147571319963,-0.06019143250391069,0.1647846711228807,0.9767646830690412,-0.10233434498767974,0.17242545279415755,0.075670743819494
6.519999999999968,-0.2022340875616524,-0.01464283786122788,0.6251522729675091,0.3531424380245989,0.17327136632083012,-0.9193839438436255,-0.0030304890613759806,-0.05994008227906986,0.14995512025107566,0.9764519829331681,-0.10266906529156346,0.17253112577181723,0.07891556002745873
6.529999999999967,-0.2727495843570626,0.047806980478045484,0.6172498272597864,0.35436513545250276,0.17322412947754087,-0.918921674130766,0.0002969039563119764,-0.0604311027731189,0.13776644717805853,0.9760675439228793,-0.10328295937880351,0.17283301574064353,0.08214941158351391
6.539999999999967,-0.3514369991255198,0.11965699862820611,0.6107079417465221,0.3561166325078751,0.17384932994770685,-0.9181266925587959,-5.385935922088721e-05,-0.06204090080640506,0.13230232670665437,0.9755886912076163,-0.10427284215656048,0.17338856048272028,0.08537088977779521
6.549999999999967,-0.4043585595061089,0.20093173448753074,0.6061958999752866,0.35883331321040624,0.1752552009079742,-0.9167973550736483,-0.013499935478633589,-0.06600921379973691,0.12075053235496414,0.9749590807504832,-0.10572847403890924,0.17441578348526682,0.08858625636084255
6.559999999999967,-0.4384225879201733,0.27851258916641014,0.5957696321984193,0.3620577588182138,0.1769307455132057,-0.9152051383659089,-0.02668043405446603,-0.06833270872420244,0.10754294467394583,0.9742582923059941,-0.1073528519432609,0.17569970637798374,0.09175534007871203
6.5699999999999665,-0.4464773768923346,0.34719148331841415,0.5745262971970394,0.3659111395699311,0.1788697967621348,-0.9132964292440597,-0.035954122078733275,-0.06717589158712453,0.09305794428315628,0.9734734072907472,-0.10914810159179318,0.17730586660861117,0.09484555958301458
6.579999999999966,-0.4251326430808827,0.41049257018263313,0.5467411335121892,0.37047958829235644,0.1807557137765849,-0.9110736910535746,-0.04143750454724301,-0.04390522991499074,0.05284866409178802,0.9726165088538363,-0.11094162955418475,0.1793069114413432,0.09771904510683851
6.589999999999966,-0.3959609761310934,0.47056107529875607,0.5177990968227709,0.3754215791293046,0.18251712623379404,-0.9086971082402348,-0.046561420840285576,-0.022103824419214175,0.016121813969702393,0.9717282386794429,-0.11268109766300587,0.18152344858345282,0.10044779116145156
6.599999999999966,-0.3612141420972726,0.5263865515480125,0.4886630686237312,0.38082701488053444,0.18407094122018344,-0.9061352552115036,-0.05212924961511118,-0.009275697341725873,-0.006992866461125197,0.9708044768398348,-0.11432430275374574,0.1840123993698377,0.10297965338594735
6.609999999999966,-0.32491975570483,0.5829976782485115,0.4648722707790439,0.3868560953247495,0.18531510272187304,-0.9033130259093842,-0.059778801768542854,0.003064415351246157,-0.042085729924893636,0.9698310951692081,-0.11582758604919659,0.1868729411434771,0.1052651216559257
6.6199999999999655,-0.2901605373324048,0.6339022740399682,0.43671991461840126,0.39317490467759,0.1863673372235371,-0.9003657949317617,-0.06776527898376496,0.012272744107209525,-0.07212738383764616,0.9688375700955171,-0.11723684765649156,0.18991484278593795,0.10739927969779552
6.629999999999965,-0.25871387763637377,0.6740450682555292,0.3988599595391022,0.39983282041134266,0.18716261106638538,-0.8972695435717202,-0.07572233890628326,0.015862071989761896,-0.08911838827909557,0.9678224245480906,-0.11851655116670598,0.19317488218282455,0.1093315662060874
6.639999999999965,-0.25693966135356255,0.6939401402342941,0.34704677167051545,0.4067133654896556,0.1879618868882231,-0.8939918970779558,-0.07696165873674997,0.01660597507998009,-0.10805663989352332,0.9667912558344125,-0.11977359286999764,0.19659818820009523,0.1109441240856384
6.649999999999965,-0.26493676591480525,0.7112208302345816,0.2919132174730183,0.4136035430373629,0.1889443785252666,-0.8906222201196426,-0.07801380030309588,0.016704305135999867,-0.12432749615438518,0.9657574650900934,-0.12109645210977264,0.20004740022439357,0.11235069608431592
6.659999999999965,-0.2814143748518438,0.7304085753505313,0.235211043883224,0.42043647130136313,0.1902732892570062,-0.8871393961885108,-0.08098983162338265,0.016542613216173622,-0.13487449168241428,0.9647241335792456,-0.12255193365868321,0.20349039361924154,0.113474746688819
6.669999999999964,-0.23958563617799905,0.7794958794877416,0.1821958481051541,0.4276208524882722,0.19168951056632866,-0.8833781605436749,-0.07416808552441982,0.019403295587347436,-0.14941635150086702,0.9636597023475593,-0.12401911122104405,0.20717438359174706,0.11422825470591298
6.679999999999964,-0.15549357314701184,0.8283259373870394,0.13124304280130966,0.4350009665210852,0.1927977482483614,-0.8795305888342189,-0.0721683838478462,0.02577031044471314,-0.16959949434828703,0.9626026823916707,-0.12529344366691966,0.21101991545576146,0.11472081215215772
6.689999999999964,-0.010203831881922365,0.8656546971891383,0.08296698276205001,0.44263455376257127,0.19327161371167623,-0.8756165996660096,-0.08320211041339065,0.03788213842799702,-0.19934458295795562,0.9615715947646856,-0.12618636904381075,0.21509269107256754,0.11483938636532853
6.699999999999964,0.13154216596677015,0.8735479802917687,0.01693810443195179,0.45036831576059694,0.19230959307093634,-0.8718619306983021,-0.05657370383608135,0.0883779535240201,-0.28671659082944084,0.960648636141785,-0.12621464276315805,0.21938188110362666,0.11438759761728114
6.7099999999999635,0.2468815067016884,0.864158038177659,-0.060133412148754825,0.457951955723644,0.19082390918561992,-0.8682394843506975,-0.026779233506690994,0.13412569938346738,-0.3693822043734124,0.959802184627704,-0.1258723340449389,0.2236723380118971,0.11357220279758592
6.719999999999963,0.31039175347852815,0.8316503120870489,-0.15239543201913763,0.4651930046435392,0.18885454872104965,-0.8648201436454549,-0.005607941865232734,0.15500616426978725,-0.41959715407324977,0.9590669024215941,-0.12512738012419175,0.2278791181831327,0.11225096825448377
6.729999999999963,0.30763256058669225,0.7844808157021058,-0.2725169734756685,0.47174858116324925,0.1873125765381961,-0.8615900505204798,0.036128380632183724,0.15364025592486752,-0.44844782530923305,0.9584502310093894,-0.12438518735776952,0.23178595888482662,0.11029767292513001
6.739999999999963,0.2770978121637752,0.7195986953842269,-0.3956555806632651,0.47771701860125904,0.1862890421080971,-0.8585278829539066,0.06866481013621582,0.1422475384781012,-0.46133504034399586,0.957917881241525,-0.12376190967294487,0.23540434888895667,0.1079536661522375
6.749999999999963,0.21738761689885638,0.6242289814302107,-0.5130679120743961,0.4827607280003656,0.18615861570356,-0.8557331220551044,0.07323336220686129,0.11960086378641495,-0.4502544459849829,0.9575096530759054,-0.12338450315986513,0.23855258425032813,0.10507003694443236
6.7599999999999625,0.14473779099510267,0.48424244898673874,-0.6226428703751402,0.4861958599948634,0.18759550072103143,-0.853470459744253,0.09252754864413415,0.08242063698257274,-0.42406558076852985,0.9572768974865092,-0.12357196958739929,0.24081587166616608,0.10173246916015226
6.769999999999962,0.08507710724963265,0.33119574502945753,-0.7210514790183081,0.4885562891289377,0.18979288277038317,-0.851637862376874,0.10966856144748872,0.04801812025739682,-0.3950860978472931,0.9571719989537059,-0.1240088609065344,0.24249210434493013,0.09815824769584905
6.779999999999962,0.05926111005095455,0.17092038448987107,-0.7991832985888361,0.4893624852765338,0.19289056365013427,-0.8504791301166388,0.11534825265860366,0.02632554218314791,-0.3671547625487403,0.9572594014569362,-0.12471738788685295,0.24332225346194472,0.09428815740168137
6.789999999999962,0.06023662088718655,0.02301843949475721,-0.8706497806666409,0.4883409407457563,0.19650095909056678,-0.8502361397965156,0.09297211564709941,0.014525963307967595,-0.3030658547122822,0.9575941828740103,-0.1254869726265286,0.24317590811013964,0.09011752284248815
6.799999999999962,0.08559554342096089,-0.10546382605643159,-0.9352325743064517,0.48633839719624905,0.20024948328356873,-0.8505089104151331,0.06621532172299978,0.007379915509296752,-0.24017257622201896,0.9580669968780636,-0.12621632587592801,0.24251639358013274,0.08575444215802416
6.809999999999961,0.15139484674293652,-0.19723870064566174,-0.987947798689824,0.4830852308023698,0.20404592452011952,-0.851461881575811,0.043859474718585145,0.0055526275062264,-0.1980705997832262,0.9587206979107744,-0.12682611895282947,0.24121290049051097,0.0811169046237733
6.819999999999961,0.28234078221940223,-0.25690170823873487,-1.0229083992137098,0.4789793311656352,0.2068789283426059,-0.8530907620776352,-0.003679115243757962,-0.003662156427384056,-0.13819952695291166,0.9595487186192458,-0.12681073554325398,0.23952424261723995,0.07613622176376264
6.829999999999961,0.43290576575169004,-0.29927754541049545,-1.0449554891662103,0.4745018873723264,0.20888097318407525,-0.8551055978280588,-0.045316202514066053,-0.008127374913234155,-0.08897586493344778,0.9604719706169187,-0.1263029397962238,0.23768199325758546,0.0709582804197867
6.839999999999961,0.5929606208753525,-0.3196061774046991,-1.0471606840093004,0.46963856092578354,0.20950935380620803,-0.8576348598144992,-0.05986867665212761,0.0022360437501147325,-0.07364821061183434,0.9615180706831917,-0.12501049361482688,0.23569789525329862,0.06551617223297793
6.849999999999961,0.7538693588305684,-0.30987262401261,-1.0295310231823747,0.4647759509633925,0.20836013269478504,-0.8605518607307577,-0.07436644072633285,0.023529433667628052,-0.05514158963522017,0.9626363696992736,-0.12277806926690915,0.23376079648258175,0.059902542532210785
6.85999999999996,0.9138477852524838,-0.28914832904312515,-1.0041592779777202,0.46005270747870713,0.20604352229175088,-0.8636439655190151,-0.08537624554998441,0.041052566012331274,-0.03925768320112155,0.9637789235476756,-0.1199456088283754,0.23191630238453087,0.05421927218088559
6.86999999999996,1.0711380986659313,-0.26008685270518034,-0.9721321353126905,0.45565712560731014,0.20201569755538143,-0.866922102507993,-0.08820703587735335,0.043324544694787026,-0.031402206839072105,0.9649364600536678,-0.11624892494278295,0.2302623913009807,0.04847211427938171
6.87999999999996,1.1986744153272926,-0.24016698199310266,-0.9339507080246622,0.4516340399677636,0.1962562827245736,-0.8703293413127926,-0.08821645170943217,0.05670157943958527,-0.027087628978872062,0.9660853680975078,-0.11169609713805081,0.22879104990486,0.04271198003506401
6.88999999999996,1.2950894267768855,-0.2285735316063877,-0.8968532572923593,0.44779802716062433,0.1896218253158949,-0.8737796273778049,-0.08492263611573272,0.07126536468483124,-0.02137358814685747,0.967217799749219,-0.10672462272712856,0.22739598207540795,0.03698521746001413
6.8999999999999595,1.334530071187612,-0.2314818300405892,-0.8662554751263758,0.4441828984028093,0.1819474027374146,-0.8772534971153414,-0.07537008902886391,0.0817410214302489,-0.010033934063754132,0.9683155943598988,-0.10127299099991166,0.2260716990326045,0.031347731657877194
6.909999999999959,1.3212261131842646,-0.2457642628389118,-0.836448951260086,0.4405782874087495,0.17401066959618025,-0.880659486879065,-0.057612767032642065,0.08008893479274698,0.01582043816467735,0.9693520266834071,-0.09576000807897926,0.2246818173583204,0.025869174174270235
6.919999999999959,1.2820503231718445,-0.26247339843013345,-0.8069023329087242,0.4369563062831022,0.16611060152718063,-0.8839954700078186,-0.04035141403793058,0.07566045838659337,0.04365925428924968,0.970343891396493,-0.09031923696058372,0.22323624429334313,0.020520894836220275
6.929999999999959,1.2135262609864743,-0.277593497808898,-0.777473953962196,0.43328359175112424,0.15847983427234086,-0.8872014783418622,-0.029878712496972888,0.07245184336443267,0.06667652841296354,0.9712652723000662,-0.08510128469613965,0.22169511023804508,0.015392461779989697
6.939999999999959,1.1353236434020837,-0.29005949159388383,-0.7452206319181925,0.42960085591803476,0.1513764179830598,-0.8902181751743926,-0.03276594922675301,0.0663524354244358,0.09647557406195631,0.9721031665206954,-0.08025707347205598,0.22008075681365644,0.010556968250238337
6.949999999999958,1.0470886445930785,-0.3075728969508741,-0.7145363710356444,0.42586713117311836,0.14469771624509312,-0.8931293218463872,-0.03783510677029004,0.06176758907356619,0.12225851656308902,0.9728941758183933,-0.07569308780811312,0.21840112844051518,0.0059010498119174935
6.959999999999958,0.9398268338566833,-0.3401295399548316,-0.689982703315893,0.4220082224490016,0.13873898007477253,-0.8959039012465089,-0.03885845545583614,0.06321962609650562,0.13267621411180974,0.9736240828533227,-0.0715853761508023,0.21660515417599782,0.0014986660048667954
6.969999999999958,0.8156193124943457,-0.383154086521488,-0.661049369931141,0.4178097290047358,0.13384161761545216,-0.8986072741614163,-0.030209548054308658,0.0539950591262588,0.13548250610434506,0.974313972648714,-0.06812474670802114,0.2145853603182487,-0.002571670167655036
6.979999999999958,0.6885165157506179,-0.4277585767274597,-0.6279650797249539,0.41336473116547473,0.1296473030609436,-0.9012811261948923,-0.019196286975674253,0.04280331054224511,0.13672903658886484,0.9749846318051104,-0.06509201657263146,0.21241141065594654,-0.006418102932553867
6.989999999999958,0.5668807129799538,-0.4684255789381434,-0.5871515756938572,0.4085228757373248,0.1265122731379368,-0.903931322319397,-0.009391052958463542,0.03467176565767143,0.1397344451109555,0.9756349029009181,-0.0627031490720779,0.20999823274516116,-0.009922510230659884
6.999999999999957,0.47391491891549714,-0.5049792393063368,-0.5398650801661277,0.4033675167071325,0.12419725913710056,-0.906558252483602,-0.006294994363506135,0.02553343697730591,0.1424360188171982,0.9762707072245911,-0.060847691931153365,0.20739532486908785,-0.013018036602876776
7.009999999999957,0.4013484185303102,-0.5414081094316568,-0.4891967739308689,0.3980097058099318,0.1222463902398264,-0.9091921766709901,-0.00489872077990827,0.020541950768899926,0.14510008176610578,0.9769046126037221,-0.05924909752195348,0.2046707437961662,-0.015855225034203536
7.019999999999957,0.36140421149855423,-0.5809459572868465,-0.43456545212555103,0.39235247556803576,0.1206188918029355,-0.9118650914810418,-0.0025910098312433142,0.027924522442903162,0.14791513704332407,0.9775453934342117,-0.05791642587981551,0.20176731697195158,-0.018317764118990543
7.029999999999957,0.32904295031460196,-0.6179484559380056,-0.3936571631288276,0.38634011200033047,0.11907167678583458,-0.9146235932940227,-0.003397183725262325,0.0327619955090127,0.15127159631426154,0.9782073806507144,-0.05670754559634416,0.19866050272095143,-0.020478358173794967
7.0399999999999565,0.29753741629342834,-0.6547610495568135,-0.35987901800686445,0.38009228276992457,0.11761541967028184,-0.917430794856566,-0.0036007985371234175,0.03501329273688444,0.15566766421565023,0.9788816791666437,-0.05559313513302108,0.19542242920779668,-0.022468108433535756
7.049999999999956,0.2616492994636964,-0.6933158417224904,-0.3342335082913534,0.37348736303898544,0.11634846938077027,-0.9203008942826173,0.0007408051821235868,0.032118994328373826,0.16256703546037224,0.9795722664550843,-0.05463886272727341,0.1919901900318471,-0.024238738297414967
7.059999999999956,0.21165254753558613,-0.7167162208610057,-0.3077250922241988,0.3665979492176006,0.11539171497949295,-0.9231782535852477,-0.0009431067563125881,0.020973311573893177,0.18566981145955103,0.9802655878018595,-0.05389736865530519,0.18840982550695148,-0.025824084143939517
7.069999999999956,0.15201376198747743,-0.7297014575222478,-0.2781378970864842,0.3595931003761456,0.11472337016061913,-0.926020138053993,-0.003907684097738359,0.00914663113693751,0.2103585090953779,0.9809516831726702,-0.053341979142455136,0.1847710140971568,-0.027261755242800924
7.079999999999956,0.07731547001079879,-0.7263367431305412,-0.2402069927291542,0.352520146884994,0.11461401277991398,-0.9287491860322684,-0.004842866629192366,0.003298092756562612,0.2240492641768399,0.9816135761468076,-0.05313504743176493,0.18110168088049017,-0.028438884011334792
7.0899999999999554,0.008283742174912442,-0.7028881156772683,-0.2065461483853571,0.3456471418640087,0.11508390081353254,-0.9312647200992002,-0.01028916777741434,-0.0007921828943497796,0.24532144057967795,0.9822269066244571,-0.05327776729318556,0.17754462070643456,-0.02935975026161838
7.099999999999955,-0.05000130327603605,-0.6673094367472228,-0.1747289928476829,0.33899405936641613,0.11586699755005828,-0.9336189750921868,-0.0163402478042005,-0.0031790719171908097,0.2644297745754935,0.9828030287767405,-0.05361122392285972,0.17410668015958158,-0.030123325429759044
7.109999999999955,-0.08097615197465953,-0.6151780391369014,-0.14415826913843421,0.3328122823588653,0.11701424638097432,-0.9356973420919229,-0.019556814414707004,-0.002134055486265155,0.2689439973725662,0.9833147748501558,-0.05416966828466591,0.17091987719406193,-0.030667915682513838
7.119999999999955,-0.10072623994422651,-0.557451494384072,-0.1145315496607295,0.32725943983982975,0.11834257542178872,-0.937484670838245,-0.022357396133719017,0.009854272791104325,0.2634872207436789,0.9837572834692344,-0.05484507458145982,0.1680629175247357,-0.031044146674120286
7.129999999999955,-0.11324319104022978,-0.4951126645972921,-0.08533757947702386,0.32214966658587374,0.11973282143793144,-0.939082906769795,-0.02322832067353475,0.024534391414341626,0.25566233023604973,0.9841547339446886,-0.0555657868645783,0.16543667074198348,-0.03131770554556604
7.139999999999954,-0.11514588737656699,-0.4242544946994304,-0.05647331725184367,0.31775579743633636,0.1211186730345593,-0.9404009624508103,-0.018377740968501644,0.03558175073091767,0.2514184248589124,0.9844852949608209,-0.056300697748521596,0.16318057512658932,-0.03145071541001211
7.149999999999954,-0.09925450189493937,-0.3357939546929112,-0.025019918641079754,0.31429293225845945,0.12223293325340333,-0.9414204760529264,-0.017335002324183904,0.048532760745507275,0.24129376962578442,0.9847446241527961,-0.05691073680533173,0.16139792058094862,-0.03143652054898507
7.159999999999954,-0.07630618272571373,-0.24040289464032588,0.004200429356885732,0.3114851821888869,0.12314449917903166,-0.942237432672809,-0.018309376920626466,0.060683471409638035,0.22950682943417988,0.9849549715484371,-0.05742280074235308,0.15994886112380885,-0.03134324784956677
7.169999999999954,-0.051295594106450196,-0.14313959550661365,0.022863106928732006,0.3097375510040017,0.12370822239596369,-0.9427394803867386,-0.021413631271844015,0.06787464473994972,0.21926976648451793,0.9850880106635586,-0.05775901101699533,0.15904040362721952,-0.031163974998660107
7.1799999999999535,-0.026487773375143138,-0.04482794478654012,0.03353046101574,0.3090071359347446,0.12394367365838588,-0.9429488300425386,-0.021576342864565858,0.08108005196807164,0.2045977394896753,0.9851473342354664,-0.05791901090407137,0.15865357596531807,-0.030967169487634404
7.189999999999953,-0.006835986787822485,0.05393181930462723,0.039284316459581914,0.3089714025695622,0.12401774190611924,-0.9429506596238213,-0.02027597607265529,0.09400145260837048,0.1900017141413408,0.9851539015295351,-0.05798838440308679,0.158625170605092,-0.030773243340417384
7.199999999999953,-0.004761115551741132,0.15288431054769408,0.038392504744397246,0.3100218289683363,0.12395857921893344,-0.9426135557173428,-0.017723034502857286,0.09815121180785746,0.1814123446682274,0.9850734043388776,-0.057972405936444364,0.1591613217448289,-0.03061198603484115
7.209999999999953,-0.005554860337988594,0.25343413221910355,0.03764723864671362,0.31209761597827174,0.12389815232851735,-0.9419344258351037,-0.010795598082011557,0.09453843251362623,0.17483034418289387,0.9849049274922063,-0.05793898471529959,0.16023398216365364,-0.030485187027955465
7.219999999999953,-0.013015546602446854,0.35055270300424124,0.03443392956249247,0.3148497907561969,0.12388535707682662,-0.9410194183645123,-0.0033970478313992314,0.08888847136598611,0.16713986499560995,0.9846756248963129,-0.05791765410126923,0.1616624488232904,-0.030388023578917872
7.2299999999999525,-0.04046379083390117,0.4331048185862012,0.02213883204811037,0.31860737721974064,0.12404565688344903,-0.9397321429672263,-0.00039447578648189397,0.08671838974925265,0.15266723539037927,0.9843500212538834,-0.057964099954936725,0.16362379731421886,-0.03034948533819884
7.239999999999952,-0.042298519940492385,0.5201591274744899,0.016795055323951084,0.32319216872041323,0.12437431802703758,-0.9381164171743028,0.011247990417036469,0.09818998315460563,0.1216359179762771,0.9839390475172255,-0.05807850837484739,0.16602684833786244,-0.030365138952776493
7.249999999999952,-0.026981212289071955,0.6147253533812155,0.016170547277651368,0.32841001512597456,0.12469085165953261,-0.9362620733173065,0.024390664044710752,0.1114600711527276,0.08578383666668167,0.9834661960936066,-0.05817404543762019,0.16876527117120055,-0.03041570786675513
7.259999999999952,0.014181932757744597,0.7306667168761787,0.022801198447826437,0.3347587061557392,0.12470989200366875,-0.9340064120173909,0.030211320044016582,0.11103504824960213,0.05668257865360053,0.9828895718276092,-0.058097182467034804,0.17209757317003635,-0.030515816767520295
7.269999999999952,0.057892723404898074,0.8302898525286985,0.021597430308832544,0.34219059189689255,0.12425061474038412,-0.9313580065551967,0.0469267691879548,0.1179746553624399,0.0028805452552012056,0.9822108161189369,-0.05775449787071956,0.1759990490562211,-0.030668490144138662
7.279999999999951,0.0960081328372638,0.9106911245258881,0.010284966491251291,0.35022555254673843,0.12353221381972268,-0.9284713876077207,0.06772469633399889,0.1275941290510235,-0.05297054654969532,0.9814688517049421,-0.05725950397903025,0.1802221673780445,-0.030889943885234115
7.289999999999951,0.10820372123440666,0.9424655233642878,-0.027804832785744783,0.3588652880470527,0.12257475577955902,-0.9252892734498166,0.08687401572163393,0.13578811364486945,-0.07698937717398362,0.9806451241149011,-0.05659928717785431,0.18478159314822298,-0.03129478816056004
7.299999999999951,0.07396374804771036,0.9766498304320017,-0.05894859170952503,0.36767832498484404,0.12194791478811148,-0.9218947515153152,0.12249450413330729,0.12976114335031175,-0.09494836106491963,0.9797600340148103,-0.05606512691780568,0.1894639339674543,-0.03188759131702815
7.309999999999951,0.016484256194445296,1.019635223378673,-0.07747904139797408,0.3767060571246206,0.12167839186660867,-0.9182911870455701,0.15743254260581607,0.1161563086390258,-0.10857415379896711,0.9788185570037817,-0.05569481911910613,0.19428232801359724,-0.03254693172800225
7.3199999999999505,-0.054850208500608,1.0942174922591952,-0.05678996158079313,0.3863057380234903,0.12228750940446458,-0.9142065555619234,0.16099705995956842,0.09643525177218959,-0.1151049095706101,0.9777543805426326,-0.055771788207733014,0.19944043448932872,-0.03315042823045738
7.32999999999995,-0.120993788437632,1.1810189398658995,-0.01766132183321039,0.3967389179403032,0.12326249429814908,-0.9095740886428342,0.16503866631920322,0.05984244316623393,-0.1235431317068687,0.976556079025401,-0.05606929862296677,0.20506110256032029,-0.033530453542233156
7.33999999999995,-0.18583491076131753,1.2684483572988074,0.028702734585358845,0.4077400992549442,0.12452938330586565,-0.9045420590417025,0.16876467176156168,0.0224356335353556,-0.13517731648341375,0.9752602630803253,-0.056546312050002746,0.21099997429374165,-0.033733791872045615
7.34999999999995,-0.25485923087691686,1.3356858090122579,0.07127611644830423,0.4195923318799058,0.12635051144227125,-0.8988393520768687,0.17025909594000524,0.013134286661256257,-0.1568046496778675,0.9738015599361951,-0.057372462011437086,0.2174238084603963,-0.03360542314449947
7.35999999999995,-0.3117703179409321,1.4008878584636664,0.11588387968335342,0.4320471885176572,0.12856567419667922,-0.8925738793856274,0.18544644403727606,-0.001786866989466165,-0.16132390127404347,0.972204627595004,-0.058463753761148526,0.2242034845129502,-0.033216299445911354
7.3699999999999495,-0.35349660757421814,1.4632155421095765,0.1605801619229724,0.44492714128251776,0.13094491032779598,-0.8859088067725844,0.20173546750370386,-0.018145251292248463,-0.15714706866061084,0.9705089916390054,-0.059686311592969894,0.23123440478553076,-0.032644232935370034
7.379999999999949,-0.3523285156656028,1.5169041981449107,0.20156563756389012,0.4584764127214411,0.13325686007870025,-0.8786070677209195,0.19529091067045942,-0.02954106080053706,-0.14891997483093716,0.9686545272732741,-0.060956094720622606,0.23866157046597522,-0.03178696866681174
7.389999999999949,-0.3498164963580296,1.5249696728737816,0.2109865283269521,0.47211902575713216,0.13547108989398934,-0.8709820736858273,0.18458044857195394,-0.029005411215333603,-0.14465675509514028,0.9667148044763614,-0.06222139749090197,0.2461798986862007,-0.030834436003448713
7.399999999999949,-0.3434847063336783,1.5087187551161927,0.20613780441929042,0.4856985410989576,0.1375772321374738,-0.8631998717986621,0.17226494464443473,-0.022729979871352755,-0.14012877850845296,0.964731849566104,-0.06345532396643241,0.2536940672013163,-0.029852183515846613
7.409999999999949,-0.32234909289332686,1.4789613212133745,0.2037988701462478,0.4987818673378225,0.13939447917708234,-0.8553919789736372,0.1617901636065714,-0.015797876514703255,-0.12573853312064004,0.9627339091674828,-0.06455336385724551,0.2609903752654812,-0.028939469532141462
7.419999999999948,-0.3289205020674871,1.4440272649486068,0.2063597816431686,0.511473451546072,0.14115692609051023,-0.8475530011635062,0.15347181266372956,-0.04381865736138526,-0.09275461095515963,0.9607236243791014,-0.06565626372714135,0.2681126338463767,-0.027995540811385257
7.429999999999948,-0.3490754480119826,1.4092699432006324,0.2175853388800041,0.5238964962222991,0.14289606562169993,-0.8396815731716526,0.1447838137898875,-0.08417994964539371,-0.05443475684460307,0.9587024385006887,-0.06677983319057894,0.27511583168927556,-0.027001071825586358
7.439999999999948,-0.3700946771342413,1.3875549678149244,0.25942434127164904,0.5359352954508817,0.14465080530019156,-0.8317254633716122,0.12922288707450022,-0.1023069796900541,-0.03391949027436425,0.9566572811832005,-0.06799250191916308,0.281949528439295,-0.025834236329342456
7.449999999999948,-0.4610684858765377,1.3537258607389024,0.3165555624728184,0.5476856768284553,0.1466074696944235,-0.8236701529748807,0.12464376802936004,-0.1264931611817809,-0.008933451787800636,0.954589034620493,-0.06944999383732449,0.28864467085795215,-0.024305598050122914
7.459999999999948,-0.5859984914474812,1.3085587981328914,0.3852608358521383,0.5591812627468858,0.14879766752018506,-0.8155568249362534,0.12741538820539017,-0.15055640446932245,0.015247351092293974,0.952508248871514,-0.07115642653378891,0.2952093542074863,-0.022446539705480252
7.469999999999947,-0.7061746374711273,1.2363620043346804,0.47411196538167255,0.5701105949890698,0.15166574990510676,-0.807399891382153,0.13975028847944576,-0.15857066989448965,0.023939827873657882,0.9504222365507777,-0.07351018990247171,0.3014608955347496,-0.01982206130207197
7.479999999999947,-0.7897573347597758,1.1543807561156696,0.5314087908116352,0.5805264209066598,0.15487414996859916,-0.7993141817481729,0.1540925522250878,-0.17893879458405376,0.04431419324535682,0.9483508290261955,-0.07625509263996738,0.3074158144902621,-0.016703034652755102
7.489999999999947,-0.8353500313548474,1.0646773147848705,0.5715163304949138,0.5904799441091785,0.15815904185688165,-0.7913845815977832,0.16539242434331844,-0.19961022647620957,0.06613551270016696,0.9463151375744,-0.0791784304007182,0.313099707301852,-0.013276465029455672
7.499999999999947,-0.7780319546769242,0.9605227668033192,0.6064011748107503,0.5993691384012663,0.1609161154051894,-0.7840960449086323,0.15483870155937474,-0.18785342354065176,0.06351573579265801,0.9444307740537137,-0.08198069617877538,0.31814744463268324,-0.009563468169558895
7.5099999999999465,-0.6883973821765016,0.8260583386553206,0.6342683225000052,0.6072576997118069,0.16280969181971872,-0.7776113715164396,0.15413074228270376,-0.13610925299764626,0.034958766296860525,0.9427419466305718,-0.08436430153469814,0.3225909853249397,-0.005832623145408789
7.519999999999946,-0.5822322837353358,0.6769793999313063,0.6588629608804824,0.6143572590109981,0.16400183409636437,-0.7717887965899014,0.1577942489067798,-0.07037152428799735,-0.0035145386215323293,0.9412155819248647,-0.08640151895654406,0.326554894449194,-0.0020858520484725524
7.529999999999946,-0.47937973959813523,0.5360310265945377,0.6859681207081458,0.6199942194435656,0.16381569570169485,-0.7673007402125264,0.15669406989675225,-0.04521785405910283,-0.020405160767014013,0.9400217968723444,-0.08773489484393573,0.3296174769897696,0.0016974700387833329
7.539999999999946,-0.3783640278422049,0.43887637504165444,0.7163535879530657,0.6248451053471622,0.1626371819891773,-0.7636093881563091,0.1520260092547469,-0.01800000849014911,-0.039553602702905116,0.9390240051103319,-0.08854483897857832,0.3321927174962175,0.005484864035468784
7.549999999999946,-0.2824443781143988,0.36890430373293176,0.7484596933343305,0.6291745267660016,0.1607216137423525,-0.7604616996821212,0.1428550663857022,0.0060887015450674375,-0.058339576714636306,0.9381585777573156,-0.08896919158834134,0.33444417418931455,0.009284029634761602
7.559999999999945,-0.21091550441278084,0.3185401651302317,0.780155235404781,0.6329521072545814,0.15764029928944945,-0.7579635589553717,0.11845357190046747,0.004825992705101697,-0.067627736093747,0.9374447233022313,-0.08879755572877965,0.3363505760654458,0.01314009248092246
7.569999999999945,-0.16058260334794297,0.25175049451830106,0.8018842184586674,0.6363119434422788,0.15396318829292735,-0.7559009588683026,0.09651053626379842,0.007428129486365465,-0.08669695114049615,0.9368304814152125,-0.08832267348709054,0.3380046314525819,0.017037348769158172
7.579999999999945,-0.13358879061355464,0.1681099971643337,0.8148605459161752,0.6392725200736219,0.1499457434297944,-0.7542167646188972,0.07890249553463805,0.012071972675918067,-0.10922228614241908,0.9363041376863207,-0.08767560375671694,0.33941773263325964,0.02097005737393852
7.589999999999945,-0.1786553459449579,0.03641399075185525,0.807955222124052,0.6411955908968049,0.14589249361376727,-0.7533756441611221,0.07991283924657468,0.01590191757923703,-0.11890429074808256,0.9359791402132988,-0.08701682962591961,0.3402055341941157,0.02498037797056579
7.599999999999945,-0.2753649107537034,-0.09516041749191961,0.7973068999641632,0.6420756485939599,0.1425061510443228,-0.7532766580360957,0.09417891632943041,0.010183489192149724,-0.11257608786155782,0.9358307835365327,-0.08673544096600219,0.3403506979098951,0.029138037852624546
7.609999999999944,-0.4065459148771017,-0.2170917778457221,0.7868499489847124,0.6422049298144927,0.13974285545088377,-0.7536870208369777,0.11258440821440337,-0.0020374423231894687,-0.09596555427889424,0.9357999744529095,-0.0868127343060247,0.3400289398985771,0.033434627466659976
7.619999999999944,-0.5685283586381593,-0.2751001846792215,0.7921219924376199,0.6413477256582468,0.13856520086485902,-0.7546333551941136,0.10745307787669085,-0.020814812590216492,-0.072506469545192,0.9358721205331975,-0.08782814030844419,0.33907038283677604,0.03809008189025392
7.629999999999944,-0.6801373049277808,-0.32546850944483235,0.8009672385522675,0.6401661174047832,0.13822174650569397,-0.7556985817669775,0.06925242882791723,-0.05932454502934969,-0.029209454774298246,0.9359399740742984,-0.08936999548853757,0.33787698149708084,0.043027148902059
7.639999999999944,-0.7521791385230705,-0.37235544324064684,0.8080812593695929,0.6387189532063622,0.13843709021531436,-0.7568831706052392,0.01619590403143071,-0.10367196796000021,0.021842979049461968,0.936012547459701,-0.09125535891835082,0.3364960944335149,0.048140768755010485
7.6499999999999435,-0.7561897200224573,-0.42679706600407946,0.7878326064092275,0.6367574544081293,0.1390949408795341,-0.7584125782427522,-0.002650256670891648,-0.1061365290308719,0.044169896129066036,0.9361367189268458,-0.09335515229716947,0.3347766095519343,0.05331802561609551
7.659999999999943,-0.7666721212355908,-0.48383446001438857,0.76724220508405,0.6343568807232645,0.13996811865302952,-0.7602588163882852,-0.024141032341766254,-0.09253732397676889,0.07137667209367074,0.9363225565030351,-0.09550717456706852,0.3327818913946163,0.05843995748607822
7.669999999999943,-0.7805814706114602,-0.5413285745192344,0.7462758044374354,0.6316089501546279,0.141017878971137,-0.7623522414457339,-0.04527312191451526,-0.07143446265841027,0.09932076256534439,0.9365561559250577,-0.09770279299356419,0.33056937062064917,0.06351895968344844
7.679999999999943,-0.7904414548390374,-0.5902599792620219,0.7240487350935855,0.628267404449619,0.14240589131478285,-0.7648478447814895,-0.05145186721780428,-0.06796083385815992,0.11025065356410155,0.9368653928949465,-0.09998623990860075,0.32798427003903174,0.0685295035916077
7.689999999999943,-0.7843114150708796,-0.6168012242533318,0.7031985232543698,0.6246552407775644,0.1439632278329805,-0.7675069183466773,-0.06867377016523685,-0.058205761669983334,0.11869189235669367,0.9372007637875267,-0.10228596664673428,0.3252333801122159,0.07345156444616176
7.6999999999999424,-0.764770171687557,-0.6260307120838773,0.68432956954113,0.6208743362092702,0.1456072682673254,-0.7702661138051342,-0.09169837130528706,-0.04511399539377576,0.12485882106092965,0.937549431414059,-0.10457399984412505,0.32238069136655634,0.07829811000062549
7.709999999999942,-0.7182856888536958,-0.6093892510542753,0.6744584100759052,0.6171079610027369,0.14708969646963588,-0.7730019223612057,-0.1053782466265043,-0.03704614916524658,0.12532123804154077,0.9378724656193929,-0.10668465364995862,0.3195496486313059,0.08298503699985217
7.719999999999942,-0.6649975525436732,-0.5921763206613848,0.6603038795933464,0.6134517219461237,0.14830280395447512,-0.7756751409337518,-0.12792614658472565,-0.02456396641918341,0.12183526001904876,0.938171672766853,-0.10858675761552772,0.31680549223992527,0.08752495306482824
7.729999999999942,-0.6084161743296969,-0.5753650734296643,0.6432807212790288,0.609879182903924,0.14929940116317028,-0.7783021898422822,-0.15381368492842284,-0.010550585558780008,0.11635467854364173,0.938453450247704,-0.1103198651664837,0.3141292399361787,0.09194296072780174
7.739999999999942,-0.5615293994408324,-0.5652501663727869,0.625464283629325,0.6064132423844777,0.14993269790051905,-0.7808807715652442,-0.1588022335516569,-0.008078166154524346,0.11577679712922145,0.9387180467677121,-0.11176002376932288,0.3115533270888562,0.09613035992909226
7.749999999999941,-0.5300154542515327,-0.5519673523606574,0.6051186993063605,0.6029879687420174,0.15048365628850294,-0.7834222266724387,-0.16486719321921053,-0.00718579870236963,0.10984504758672528,0.938971592365055,-0.11309447408980333,0.30902147470990415,0.10017490605144973
7.759999999999941,-0.5084190655163586,-0.5341714722650285,0.583500213928434,0.5996133968519785,0.15097350599573672,-0.7859190024912086,-0.1710736394122063,-0.007979645783035507,0.10163122362401429,0.9392125889859362,-0.11434755622329476,0.3065358310817115,0.10410241789431747
7.769999999999941,-0.48372115683177275,-0.49394908624278294,0.5657429282456847,0.5964591538956616,0.1514053411244565,-0.7882296559348996,-0.17189796092487278,-0.014683799678374599,0.10544402778882005,0.9394051913144538,-0.11549892772603058,0.30420741327969403,0.10782640062668185
7.779999999999941,-0.4673079612243964,-0.4551172659874595,0.546576982642914,0.5936036551855858,0.15183973253527047,-0.7902996324712975,-0.17738072372294245,-0.02857433967062733,0.1071614710426137,0.9395350165538335,-0.11662791875842606,0.3020682902951993,0.11143184021460846
7.7899999999999405,-0.4574683438124763,-0.41983266146121573,0.5256566094627888,0.5909713936636276,0.1522922366922832,-0.7921859960046761,-0.18497326269608683,-0.04476541409980726,0.1068900909397072,0.9396175116550101,-0.11774423552385713,0.30007112156881555,0.11493682719607785
7.79999999999994,-0.45668176098031027,-0.41081016364985795,0.49675059735864846,0.5885258242361003,0.15291037934415586,-0.7938838190989717,-0.18159387272450755,-0.03437055455352256,0.1010260373211528,0.9396565252698681,-0.11888756575289221,0.29819734367560147,0.11824754700371164
7.80999999999994,-0.44469986732172223,-0.39782668242343366,0.4649255709959792,0.5861408850346896,0.15364518864719715,-0.7955044352161618,-0.17115452272980747,-0.022169741838039013,0.09193553402500416,0.9396842517220003,-0.12004263040136198,0.29636983230870356,0.1214109433115389
7.81999999999994,-0.4234130115371872,-0.38021761606897936,0.4310194141262811,0.5838128939093234,0.15446146429383165,-0.7970591085575589,-0.1569496774499274,-0.010159769705069032,0.08118200850402066,0.9397035164215347,-0.1211970921650555,0.29458656573767794,0.12444265164994092
7.82999999999994,-0.3865337016572126,-0.34239915281278677,0.39684926228528344,0.5816415787575775,0.15526942801629917,-0.798486721605671,-0.15607759088121037,-0.014276706224938256,0.07715891198808468,0.9397171930800363,-0.12225378757137115,0.2929315414046741,0.12716735579237082
7.8399999999999395,-0.3681358422551171,-0.28052340136395576,0.3680046144869875,0.5798066410106438,0.1560851151624531,-0.799662064914759,-0.15680725796653358,-0.02567610286238607,0.07854003312920253,0.9396839616596694,-0.12328355036768249,0.29149392289702375,0.12969951948853198
7.849999999999939,-0.36716365011737123,-0.2025280951686943,0.34287344578026435,0.5782828620368675,0.1569409852955089,-0.8005986733120721,-0.15816135382570604,-0.04168277772123256,0.08304464819663532,0.9396032061201461,-0.12431444550563765,0.2902522031317965,0.13207794266653622
7.859999999999939,-0.41492170486690877,-0.14031827406861336,0.3159995617202964,0.577573565350897,0.15821431775093348,-0.8008595403510127,-0.15304732908085772,-0.04962413731647099,0.07799746567483475,0.9393589893784446,-0.12559448888114766,0.289474038599677,0.1342842349762052
7.869999999999939,-0.4775932051844709,-0.09959893012906754,0.28567921167352045,0.5771089384603577,0.16009019549674539,-0.8008204655185116,-0.12979011649371974,-0.051060204706720694,0.054029782210326144,0.9390422542673237,-0.1271942897127612,0.2888068384858667,0.1364094938468801
7.879999999999939,-0.5498409362462244,-0.07596381933150735,0.2530060693362366,0.5768359069183009,0.1624872587528208,-0.8005354440310432,-0.09393255707344751,-0.047671969480641126,0.016862904758881442,0.9386658209000249,-0.12907000551742195,0.2882231897527068,0.13846900190925196
7.889999999999938,-0.601652658624573,-0.06663859081991082,0.22319400175705384,0.5766870382661395,0.16584746805159986,-0.7999507529838857,-0.0702780616857683,-0.04457725582669872,-0.008364166915517585,0.9382138101827354,-0.1314479607555446,0.2876513268286107,0.14045680969688878
7.899999999999938,-0.6369157638130781,-0.0619075004062528,0.19247824153851442,0.5765240826772635,0.169615643622605,-0.7992754913087338,-0.04551037585571493,-0.03866512987250285,-0.04412275676237439,0.9377467553316271,-0.13401564371487718,0.28705043279084314,0.1423611665153117
7.909999999999938,-0.6564302981093082,-0.0613888213298751,0.1604645508829961,0.5763434769639649,0.17371333176384504,-0.7985299258021692,-0.021305193088465214,-0.031188625196578605,-0.08609147604629838,0.9372700186555937,-0.13673216487208487,0.28642381844429804,0.14418590842610884
7.919999999999938,-0.6301976103748506,-0.07119864820055853,0.1194461664254806,0.5760608704527109,0.17806621740786543,-0.7977700441530818,-0.018119764140626826,-0.03251689165842366,-0.10053319211676934,0.9368205583810733,-0.1395019341871971,0.28574528770751884,0.1457770097197237
7.9299999999999375,-0.5753139502442549,-0.07158855278650919,0.07915639390586822,0.575694420993354,0.18227262135141928,-0.797084333391314,-0.018497561765104507,-0.03277831949725691,-0.11181057075910777,0.9364237083695557,-0.14211650622684605,0.28505646423770875,0.14714602407004101
7.939999999999937,-0.498447897505203,-0.0635088618026087,0.039498348522577234,0.5752645501654434,0.18633283595608718,-0.7964607575629024,-0.021850427443775737,-0.03204937069422503,-0.12001804013612348,0.9360734054315706,-0.14458469249826755,0.2843668760977261,0.14831352450868707
7.949999999999937,-0.430909064642816,-0.03770256055718264,0.0008200737419186352,0.5748771556338128,0.18987492280566723,-0.7959005401100376,-0.028080656089253957,-0.0287911293364653,-0.11850771291394184,0.9358094571533537,-0.146646235906141,0.2838000300607795,0.14903242798440156
7.959999999999937,-0.3677384697857887,-0.003674055093219799,-0.02788035437248726,0.5746909461807932,0.1930878926764367,-0.7952625824884453,-0.042768370809063504,-0.02601207191090274,-0.10781412574329725,0.9355564656056757,-0.14849639889477867,0.28340080148985064,0.14955022712034732
7.969999999999937,-0.3081576740170831,0.037319470667589054,-0.048692756030171536,0.5746895513302822,0.1960101352467914,-0.7945510672333547,-0.06382565261691409,-0.024244188435666506,-0.09031607434244243,0.9353120522821206,-0.15016040821675694,0.2831540016607359,0.14988927958889112
7.9799999999999365,-0.24970552922726247,0.08442310668179638,-0.07289897526756382,0.5751133559198341,0.1984592036014719,-0.793634191834965,-0.07594228490871566,-0.034427611252337814,-0.08466586191440655,0.9350623094180551,-0.15153144146097605,0.28323176955759966,0.14991812871104007
7.989999999999936,-0.20484570275591457,0.1392019846534862,-0.0946579730216266,0.5758485995717811,0.20072983756315718,-0.7925289978501621,-0.0872002003336607,-0.03859947364932172,-0.08311862747631517,0.9347913192206013,-0.15279118599627034,0.2835304752738978,0.149764708645561
7.999999999999936,-0.17224697362062225,0.20133121133039275,-0.11420109984103073,0.5768777260187803,0.2028490427081841,-0.7912418210153237,-0.09738743740321215,-0.03805787012939334,-0.08518270843836964,0.9344975803382213,-0.15395786072024303,0.2840350931822577,0.14944890698378663
8.009999999999936,-0.16134114350681325,0.28523314550301987,-0.12965271340934126,0.5786927524727997,0.2048961068353917,-0.7893839336574269,-0.09959828291681339,-0.04374884459840962,-0.09179090030296548,0.934090001489145,-0.15511023543260719,0.28503986964372113,0.14888764426572146
8.019999999999936,-0.14654082381318828,0.36890897516466814,-0.14966525047973075,0.5809914168656259,0.20690489474316126,-0.7871658907207052,-0.09919848474214339,-0.04497630224044882,-0.10627842765020422,0.9336088667099595,-0.15625771452608966,0.28635399027203373,0.14817850187192144
8.029999999999935,-0.1256438734315912,0.4516187039363781,-0.17372512971085524,0.5837305615945259,0.20886999497364306,-0.7846213412330739,-0.0965523849656888,-0.04214744371640909,-0.12735090056663112,0.9330615400922042,-0.15739504770856338,0.28795113018269736,0.14733182221659896
8.039999999999935,-0.030858835179856325,0.5137321406776347,-0.2019364286281125,0.5872109948816072,0.2105412900851399,-0.7815650038509201,-0.09340461479026987,-0.03271420427839577,-0.14474973640592562,0.9324227904699883,-0.15837338093045072,0.29005649769078684,0.14618246499229565
8.049999999999935,0.14930375747979563,0.5729706984592358,-0.2443123932973453,0.5909827762997846,0.21132488762033813,-0.7785036120010969,-0.08062375810241829,-0.011371167725381878,-0.1733269664663452,0.9318459727887903,-0.15877474032342623,0.2924638086741103,0.14461230773232187
8.059999999999935,0.40292550553032963,0.6276371192670854,-0.29922415973804467,0.5950147734281388,0.2112598469253774,-0.7754517120116012,-0.05936405953918867,0.020721751077882596,-0.21196649739845325,0.9313312670619875,-0.15862324033857716,0.29514786132496396,0.142644668210231
8.069999999999935,0.611316293589421,0.6147090328608023,-0.3581088969442663,0.5992065829964374,0.2088701895752915,-0.7728583398291202,-0.03693356280176574,0.06306011205587991,-0.2593194863562358,0.9310744221079499,-0.15691889616863014,0.29823015403070524,0.1397332425340549
8.079999999999934,0.7398035425783779,0.5422805233131931,-0.43079180998519934,0.602836921252789,0.20602906784512962,-0.7707969162602669,0.013986337169884466,0.11924877713817085,-0.3316554603403953,0.931008793369501,-0.15476312939052592,0.3010697601977639,0.13643375126187815
8.089999999999934,0.7948552252467446,0.41622213894591636,-0.5161223531045702,0.6059200451813372,0.202796684569034,-0.7692425487145221,0.08966588334264447,0.18612117038309242,-0.42415064334987107,0.9311240316683453,-0.1521997697448719,0.3036669957073698,0.13277275489664836
8.099999999999934,0.7875854414629058,0.28898046501385183,-0.6107725084182742,0.6072270394234895,0.20022714007385292,-0.7688824770738248,0.1264908009535594,0.17604435816575764,-0.41594448299589476,0.9316084627428585,-0.1495969979975655,0.3052457077044682,0.12860091101545645
8.109999999999934,0.7507034139776818,0.17832039470639738,-0.7004486752451017,0.6077213446589652,0.19832560531333043,-0.7689867710147563,0.14043261181959654,0.14441195008026986,-0.37075539458590984,0.9322325873538071,-0.14718175760362767,0.306335374224431,0.1241954784893093
8.119999999999933,0.6869645197631353,0.08343939275406516,-0.7850877317526423,0.6074458667227682,0.1970626481829488,-0.7695294768520711,0.13293175413717223,0.09351034936941306,-0.2919550519810469,0.9329882948558146,-0.14494772819384882,0.3069614447585989,0.11956930748681592
8.129999999999933,0.6565530164756948,0.015172969522583221,-0.8431608011913856,0.6060844375144547,0.1970491782049784,-0.7706047755791127,0.10906136730430557,0.08403398694269389,-0.25052512653721076,0.9338856853578307,-0.1431832408225908,0.3069114271554028,0.11466267572730944
8.139999999999933,0.6539352854452678,-0.057403794786620416,-0.9031896168006819,0.60419620091981,0.19727456345113387,-0.7720266298722623,0.07834456847009215,0.07286184431389241,-0.20242664869396998,0.9348741014451231,-0.14144633621816732,0.30655819505339027,0.10958635336468137
8.149999999999933,0.678059543665978,-0.1340285697931746,-0.9649594175919575,0.6017975496998978,0.19772652506597646,-0.773785286250627,0.041421719252906865,0.06025726208157966,-0.14834119582088853,0.9359509879907544,-0.13973346386255042,0.30591151188776966,0.1043448180043385
8.159999999999933,0.7368551912302891,-0.20543498426118048,-1.0141382067826046,0.5983633879088011,0.19813044905695174,-0.7763351747739892,0.036674668194424505,0.06680634406144312,-0.13177358161125913,0.9372364137477264,-0.13778730837037115,0.3047038740959348,0.09868401438775659
8.169999999999932,0.8016347501210466,-0.2720521494979195,-1.0637643825427605,0.5944358107950272,0.19835803565043175,-0.7792846961991444,0.027100896773475873,0.07757832715837389,-0.1235479312289188,0.9386211707847413,-0.1356538873251978,0.30323498796984605,0.09280445522721344
8.179999999999932,0.8723289401642182,-0.3339063908910026,-1.1137673612899393,0.5900248393867359,0.19841130164041287,-0.7826260086733754,0.012846458241670971,0.09246208451192939,-0.12347713295686623,0.9401032697622853,-0.1333361253812202,0.30151022874848504,0.08671017664637931
8.189999999999932,0.9710689026991326,-0.3620895185161459,-1.1406595458970779,0.5849618178471048,0.19762854216667497,-0.7866012337328565,0.010723004970505408,0.10315161290840122,-0.12761210767986203,0.9417274389804322,-0.13043225821954701,0.29946698088763735,0.08017006491751799
8.199999999999932,1.0644194461024206,-0.3838320901385878,-1.1504047200911816,0.5797682904198611,0.1962526254324584,-0.7907767389144797,0.007037774867650771,0.11140330510984946,-0.12784185425422334,0.9433775262396346,-0.12719566384428424,0.297361979328387,0.07350244342018006
8.209999999999932,1.1523658135055908,-0.3991164707524735,-1.1429559333249835,0.5744438997644132,0.19428192730286592,-0.7951530726089623,0.001786491602995292,0.11721048603176981,-0.12415567970231949,0.9450536025065613,-0.12362543120887672,0.2951950549817869,0.06670696301750333
8.219999999999931,1.2269091407288326,-0.42672596096344345,-1.136062358772226,0.5689202235832469,0.19108025994164607,-0.7998663842072746,0.007772220573004444,0.1219340592332033,-0.10833581725718791,0.9467485624455932,-0.11942335357420847,0.2929049106961948,0.059787827508866215
8.229999999999931,1.2734978555934866,-0.4577864774481386,-1.1286129514305894,0.5632309015742691,0.18748244066526099,-0.8047258449746445,0.014758973375764666,0.12440439701060854,-0.08304741194168436,0.9484426115453944,-0.11504022251365476,0.2904982951864713,0.052858316857941214
8.239999999999931,1.291349221448877,-0.49234938405844064,-1.120588662015398,0.5573718040969027,0.18348179332389636,-0.8097344148735562,0.022729145877489663,0.12455842207201241,-0.0480575565833108,0.9501356423422873,-0.11047328061357102,0.2879722330502329,0.04591864401905152
8.24999999999993,1.2475723947436625,-0.5245737508020603,-1.1119918971163043,0.5511601608938524,0.17936684966910987,-0.8148670331298835,0.028270875610585187,0.12172438590352468,-0.02688836402016591,0.9517773638824993,-0.10595426606186845,0.2851768088775444,0.039091392386073426
8.25999999999993,1.2000171961576864,-0.5650454267888714,-1.0952817604885237,0.5447369459069822,0.17539370515075228,-0.820034318368088,0.029965213668396575,0.11318689020857513,-0.005723098364151996,0.9533863342578636,-0.10158617745191599,0.28222248299678404,0.032387955809590994
8.26999999999993,1.1491758378040575,-0.614273930519074,-1.0699902587629881,0.5380938626497761,0.17157197756688644,-0.8252368629021923,0.027615199077450792,0.09864687374618301,0.015597961128842298,0.9549612313961738,-0.09737728902417087,0.2791030773250219,0.025814276182477752
8.27999999999993,1.059114046174409,-0.6474880484254757,-1.061923083831414,0.5309953396396999,0.16823093676970524,-0.8304798199572602,0.03471588826898028,0.09785721995545794,0.029309998374818486,0.9564710684639715,-0.09358930526619016,0.2756587139895522,0.01953867716912666
8.28999999999993,0.9741939688889791,-0.6785282563646977,-1.0482654207107618,0.5237011433314206,0.1652840386858036,-0.835688021417772,0.034041699417541926,0.08741504393801,0.052931996449107135,0.9579383114028621,-0.09009091256232388,0.27208056504079003,0.01340177116859129
8.29999999999993,0.8956239126145203,-0.7075151184462097,-1.0281959004228258,0.5162030255328873,0.16275635693885682,-0.840857652366721,0.02473128075046828,0.06621189890750478,0.08747589659384572,0.9593605045812844,-0.08689922148290707,0.26836325379383386,0.007409883625879882
8.30999999999993,0.7987314341577672,-0.7100789639812524,-0.9892877967088866,0.508577206903483,0.16093750422164546,-0.8458156167285398,0.024007077763263752,0.06625764694189916,0.1072682905932956,0.9606704038646701,-0.08427364258255414,0.2645355745463852,0.0018056304668814527
8.31999999999993,0.7048889475337438,-0.7162478789855767,-0.9553230758728134,0.5009532054259428,0.15948709524919452,-0.8506293925866226,0.016020989860486105,0.06518059412637191,0.12944656337516924,0.9619191889976592,-0.08194399327107062,0.26069381559341137,-0.0035706369394174786
8.329999999999929,0.6149605531306238,-0.7271753326662571,-0.9274012858740294,0.49333477303870205,0.15842851489957305,-0.85528800644512,-0.00031313993637473864,0.0622606100070097,0.15469826847422913,0.9631028347423379,-0.07992914500026037,0.2568393917423861,-0.008703035525687687
8.339999999999929,0.5591988973296196,-0.7319888423624302,-0.9043465279343825,0.48560776193603367,0.15797295800879013,-0.8597606116903221,0.008225211482905035,0.06313375136230097,0.1671565038712697,0.9642014585740243,-0.07837912794969905,0.25291740510306066,-0.013537563147106722
8.349999999999929,0.50132777183916,-0.732732769493597,-0.867845461946754,0.4778926965424437,0.15768978078791987,-0.8641268181857452,0.015960550452504753,0.06711837574300704,0.17549354935605513,0.9652576900063432,-0.07699916656111162,0.2489972110364453,-0.018192501396608496
8.359999999999928,0.43978210441525045,-0.729032064022779,-0.8157385916688381,0.4701953227294351,0.15758223902119545,-0.868377780681584,0.021861471265352955,0.07453359365985482,0.17957196926432345,0.9662684053776116,-0.07579724753513122,0.24508155395779088,-0.022652329735231763
8.369999999999928,0.38665927336194106,-0.6928521284149697,-0.7481258189480202,0.4628770496066116,0.15763342279466006,-0.8722734226024196,0.024462682729680704,0.08350951872044185,0.18272854847550798,0.9671725248274369,-0.07487128757356226,0.24135021901554218,-0.026564024054696395
8.379999999999928,0.33907860299935794,-0.6577626076474553,-0.6871067737498393,0.4558488547699852,0.15778303471400926,-0.875944706460824,0.02002571010231631,0.08662169862818082,0.18364472265169474,0.9680149483724395,-0.07408039907946215,0.2377687183447364,-0.030224205468230278
8.389999999999928,0.29764170081838603,-0.6254580428957394,-0.6345758611648884,0.44914507784021757,0.1580413373824744,-0.8793679403826384,0.007445022137205524,0.08275008259533949,0.18196264298748838,0.9687895713476484,-0.07343598066966535,0.23435532015864563,-0.03361323164125412
8.399999999999928,0.2625138211815216,-0.6254314272134139,-0.6051675929522721,0.44266316340263967,0.1583802732535845,-0.8825744335780479,0.006708489359878309,0.08133906266323593,0.18859906893299447,0.9695040609119746,-0.07295014427453732,0.2310524746711294,-0.03665871073614354
8.409999999999927,0.2349314604106448,-0.6133495101578291,-0.578148281646453,0.43626217420568547,0.15876927047462291,-0.8856885521012401,0.012909164195479536,0.08248368457800803,0.19783454146665486,0.9701919108037209,-0.07253154526918529,0.22779362683888907,-0.039595211270554626
8.419999999999927,0.21613493983799725,-0.5848473530166517,-0.5527219887066287,0.42994673646157605,0.15921437630991692,-0.8887029608704848,0.026847315670639433,0.08658582475907022,0.2097505118604578,0.9708508722250064,-0.07218547647047027,0.22458185845956738,-0.04241902260216247
8.429999999999927,0.17181707454156203,-0.5396424668053623,-0.5118161207289739,0.4242041899691092,0.15978572276975558,-0.8913463763942068,0.023127205370574104,0.08920361639807689,0.21485225545442438,0.9714144629533138,-0.07198256193836919,0.22167750220553964,-0.04498377500512549
8.439999999999927,0.12274684731187933,-0.48960337561301404,-0.47051934587593375,0.4188252390399347,0.16055302298291288,-0.8937527007432018,0.01484895592335544,0.0872971871460555,0.21674705632743627,0.9719212743116421,-0.07192793306649464,0.21896825110455834,-0.04736180376787509
8.449999999999926,0.06947308591399995,-0.4346675322294331,-0.4297740573744797,0.4138604132745697,0.16155574765509131,-0.8958888122659541,0.002081629551524751,0.07985931549532126,0.21510734610145546,0.9723638117024109,-0.0720482653510027,0.21648121937346027,-0.04952480259792535
8.459999999999926,0.02311732400848794,-0.40232737858467743,-0.42380125351487724,0.40953899737730143,0.1630000665798292,-0.8976059420846614,0.0019927318992792207,0.07386409225949088,0.21709384335909304,0.9727028799516346,-0.07244529989789666,0.2143508037579429,-0.05147810168066721
8.469999999999926,-0.016085882364119154,-0.38414300469056867,-0.4319576669048113,0.40530844322446447,0.1647107559647396,-0.8992131983571234,0.0007062549219551556,0.0693657921495048,0.20962548988529991,0.9730112737628828,-0.07298661651826527,0.21228337576199394,-0.05342066620433303
8.479999999999926,-0.04668321141477021,-0.38229186730151243,-0.4554576393718827,0.4011436120863219,0.16672750129797165,-0.9007127992565492,-0.0031071190264644064,0.06666898072265466,0.18977882450350378,0.9732885526980981,-0.07369076735416426,0.21026852610335828,-0.05536595852511208
8.489999999999926,-0.0643138388742215,-0.38009508229689726,-0.4803244374630072,0.396913123890649,0.16911120523478126,-0.9021350815916312,-0.002401074199917922,0.059712409469879366,0.17791782314037072,0.973531532011537,-0.07456530674345455,0.20825442548385734,-0.05745886469058867
8.499999999999925,-0.07479664710853909,-0.3688923808984901,-0.5028417204743008,0.39271247714243684,0.17167305794768947,-0.90348934494226,-0.007794216629618303,0.05135323552573971,0.16761909675356326,0.9737481263385578,-0.07551873512355878,0.2062765613071179,-0.05963960680722017
8.509999999999925,-0.07705958358419433,-0.34588375548185024,-0.522146964265559,0.3885570038061026,0.17443581089068244,-0.9047612121778434,-0.02161362109253402,0.041536545531991736,0.15865009358537677,0.9739331490516614,-0.07656041243939099,0.20434625791399144,-0.06192242159815023
8.519999999999925,-0.05401358605508616,-0.30170957722158037,-0.5284102698733052,0.3847820906202811,0.17700625385952556,-0.9058697042637432,-0.029404734705546002,0.037473292351280135,0.1580950255941863,0.97406235328686,-0.07748600872569647,0.20263038885111254,-0.06429946361826525
8.529999999999925,-0.018097182764645222,-0.2524030526733522,-0.5340258303495246,0.3813387647879491,0.17938484009755087,-0.9068600771976066,-0.03958233882690502,0.03495722671251558,0.14981678020477338,0.9741527552422476,-0.07829764498404874,0.20109311445045183,-0.06673553198943587
8.539999999999925,0.032579121834135846,-0.19835927092742478,-0.5401192162339163,0.3783038667492004,0.1815242175258338,-0.9077078433166366,-0.05360885782967842,0.03393429140976938,0.13023347404267066,0.9741965336559275,-0.07896738686570387,0.19977483984645059,-0.06924155820131772
8.549999999999924,0.09181156735935075,-0.1481694524012703,-0.5533156483529513,0.3758443149424731,0.18299809233520734,-0.9084317700726342,-0.0548385008050316,0.03244455911937206,0.11728196115073405,0.9741858744406307,-0.07924998477965046,0.19875358766288503,-0.07192965053382316
8.559999999999924,0.1531600824220969,-0.10026914210798002,-0.565450765537141,0.37369663295685407,0.18403922175024548,-0.9091087132539839,-0.04990681009544524,0.029540930940638088,0.09824714750645472,0.9741500886399426,-0.0792851488107693,0.19788699867872522,-0.0747137018313445
8.569999999999924,0.21644144422588835,-0.05509477093373068,-0.5752781205024093,0.3719143536641975,0.18455772174111085,-0.9097349730686123,-0.037924179361448915,0.024729165388461122,0.0699877086022622,0.9740858126884276,-0.07902226346466579,0.19720024734035338,-0.077609591795844
8.579999999999924,0.2886596753996857,-0.033412229483949146,-0.6021029960481551,0.37048054446624357,0.1843390200820139,-0.9103636455476605,-0.033619945337768485,0.01624211700480229,0.05793280072045283,0.973989130287614,-0.07832461637050245,0.19667995708504066,-0.08075559337380207
8.589999999999923,0.35267403488672283,-0.024005194187528466,-0.6245463991046394,0.36909182239947447,0.18373343672402215,-0.9110497272455588,-0.028358303176778402,0.011901307907326363,0.040870380042870476,0.9738880759660243,-0.07740393254655165,0.19617090100148452,-0.08403230004434274
8.599999999999923,0.40379261876293127,-0.029023361717020205,-0.6384872831806085,0.36772144069920326,0.18267280046216652,-0.9118174692993274,-0.020714961774309676,0.013966852421092267,0.014516245307633978,0.9737850604749285,-0.07622220177871523,0.19565589269624345,-0.08746260373624752
8.609999999999923,0.42804804604584457,-0.016612919089203888,-0.6357557194772991,0.36638028624578367,0.18116224188239,-0.9126571157219362,-0.008057161653711675,0.016316222027530875,0.006440085616009217,0.9736754789283932,-0.07479775677599218,0.19512930488267924,-0.09098224046485348
8.619999999999923,0.451437835337006,0.012122202186572284,-0.6247822037588706,0.3652223190240451,0.1794890226280277,-0.9134518013280927,0.0066115259135531065,0.01136760354900188,-0.0001787968875012879,0.9735464162646416,-0.07328854685178433,0.19468357785358367,-0.09448717618628762
8.629999999999923,0.47752423375978714,0.062248973447145535,-0.6041713251691865,0.36432896591690983,0.17764345605746837,-0.9141698619898573,0.023491740358265387,-0.004336850993245545,-0.007357777857045748,0.9733897238036759,-0.07169074303115025,0.19435826985765903,-0.09795733627668585
8.639999999999922,0.5648828941107849,0.13788480155348556,-0.5569200543007656,0.3643804801007906,0.1748856855231732,-0.9146787884929151,0.023635418450314916,-0.007053714670707374,-0.011852566665051086,0.9731755958307682,-0.06961059805397832,0.1944543497718602,-0.1013039685234607
8.649999999999922,0.6628377820770686,0.20735938815926297,-0.5050621762137694,0.36498423635065214,0.17129541239649748,-0.9151141472876699,0.024162421786287858,-0.0032041246349224914,-0.028975740235745312,0.9729450448740294,-0.06709852380491105,0.19477263677133205,-0.104549569413809
8.659999999999922,0.7667279259877374,0.2633455129758103,-0.4506244744277499,0.366266471207249,0.16659824572974619,-0.9154727916459333,0.028015866300905305,0.008425194226570558,-0.06560210700140451,0.9726991332743238,-0.06401364489928392,0.19535716087994523,-0.10766294470145002
8.669999999999922,0.7999201032971132,0.30138448411132657,-0.40428286118461787,0.36825763635453695,0.16089477627639148,-0.9156846710012237,0.03562160638734334,0.02406847467871541,-0.0825530650030835,0.9724274988474896,-0.06041892988133703,0.19621297178433605,-0.1105555256040649
8.679999999999922,0.7873715353857079,0.33218316382530205,-0.35986211218129793,0.37053625762647374,0.1550964682258575,-0.9157677672671648,0.05031809471519921,0.02900060069980473,-0.09197664059241757,0.9721344183524779,-0.05678806207275365,0.19719297347380707,-0.1132943936714141
8.689999999999921,0.7166803377092467,0.3550077094546971,-0.3169502116335762,0.3731321275532142,0.1493340235441528,-0.9156776502401547,0.07533916854033675,0.01657504656215717,-0.09329485486037009,0.971812726181432,-0.053193831641955465,0.1983164042946243,-0.11583481773786238
8.699999999999921,0.5899779727748504,0.38331080495763525,-0.2886128872756082,0.37611185777550066,0.14470054944856095,-0.9151969303055038,0.08526130455914922,-0.00011831929253930742,-0.08868253067366565,0.9714299758538572,-0.05022387806391406,0.19968339343123975,-0.11798215228199249
8.709999999999921,0.4748501678182344,0.41801582944313864,-0.2607166750355919,0.3793757210297511,0.1408012153477572,-0.9144610989022238,0.08991216140430482,-0.01938567206115001,-0.0817453299948958,0.9710000282934853,-0.04764194814937692,0.20123719819982971,-0.11995032205674151
8.71999999999992,0.389440238343866,0.46184480049071186,-0.23060137587887808,0.3830163025776362,0.13784773028196348,-0.9133962445587885,0.08917426836882245,-0.041907208610406595,-0.07228525741400442,0.9705069616614882,-0.04555440903905317,0.20304046346449045,-0.12171124260717177
8.72999999999992,0.37804647502032285,0.500146142926621,-0.1829330267444861,0.3872150562066863,0.13510813224154203,-0.9120280194859525,0.0848805515990691,-0.03531877868159208,-0.0834055628954325,0.9699705141161183,-0.043595216824997875,0.20513623742677498,-0.12316575895176506
8.73999999999992,0.38030979235863516,0.5299914062762316,-0.13964047297467774,0.39167772529521194,0.1322990389282844,-0.910533294254731,0.08453538826016545,-0.013840455075347308,-0.10364768630815273,0.9694192241750386,-0.04161084672815785,0.20735887127630342,-0.12446799013260666
8.74999999999992,0.38869256838126937,0.5471563061696527,-0.10741335538434371,0.39645106605089564,0.12932852255153376,-0.9088975619795586,0.09146525497504504,0.025691155733368033,-0.1343435079052875,0.9688531075285941,-0.0395567735287516,0.20972549990213427,-0.1255874987885209
8.75999999999992,0.40722823885300796,0.5456378338309367,-0.07309723156752662,0.401331948793848,0.12602597620922812,-0.9072095423457367,0.09466372241743913,0.03919578484033435,-0.15080144526287514,0.9682953176901622,-0.03735756478406965,0.2121173441787508,-0.12652408697826767
8.76999999999992,0.4199812953059727,0.5319112811079347,-0.049615969647771326,0.4061488921226655,0.12257648158127152,-0.9055397161758033,0.10246582448396652,0.05101121640694059,-0.1699661723412338,0.96775191113666,-0.03510084274235566,0.21446131805924978,-0.1273800734165414
8.77999999999992,0.4204995117848603,0.5020526943362124,-0.04496547732229157,0.4108316936794561,0.11895870509077452,-0.9039133014884302,0.11895638874122436,0.0662611537610315,-0.19715084931037782,0.9672308192171556,-0.03278192826768159,0.21671822981895292,-0.12814395008674392
8.78999999999992,0.374344922977805,0.4661362836139703,-0.03265213405085484,0.4151341241716551,0.11554993415027635,-0.9023825732611639,0.12483698720721711,0.06955439222097534,-0.20156389280022105,0.9667462323673783,-0.03060944780136682,0.21878511133905126,-0.12881176371165404
8.799999999999919,0.33015002049060055,0.4218460592011468,-0.01825905167456854,0.41914739501555615,0.11241171717633852,-0.9009271745027504,0.1319281495782923,0.06044333185440748,-0.19313567054035385,0.966290533078456,-0.028607654963569797,0.2207158461534656,-0.12940573471174296
8.809999999999919,0.30169325489097537,0.3645793517749882,-0.002269590340302441,0.42275778186594204,0.10968925679392881,-0.8995776309456046,0.14392878634620776,0.03289782634156671,-0.16836872918326834,0.9658754773759584,-0.026864305726432218,0.2224597776202462,-0.12989653814461988
8.819999999999919,0.29876773835640713,0.2856286951686548,0.01873763783748004,0.4255896267584071,0.10690879448766628,-0.8985739287888009,0.147350338390779,0.014253069838264248,-0.15489655584058035,0.9655746626446688,-0.02518480601456434,0.22377746937455903,-0.13020138055559405
8.829999999999918,0.3044974932941949,0.20326026602100833,0.03575362050253698,0.42788848875906443,0.10409123584460583,-0.8978151084909136,0.1492416344254039,0.004354443850807199,-0.13323469405595684,0.965345382956617,-0.023536510060184614,0.22480490159431518,-0.1304447531690512
8.839999999999918,0.3183870006821819,0.12101040236041576,0.04417213910220012,0.4294563641505902,0.10122389781144073,-0.897395559935626,0.15086077387684146,0.007566872663146745,-0.09364401168461653,0.9652114069196154,-0.021925749728419142,0.22543489042008846,-0.13063151057473343
8.849999999999918,0.36940168625605985,0.057864844916175114,0.06736242937645225,0.43021903074846535,0.09779337545642165,-0.8974079077965837,0.14742017089665882,0.008262477259525593,-0.07285531247173722,0.9651999999028723,-0.02010294241309636,0.2255881326149198,-0.13073974276632222
8.859999999999918,0.43021268299803,-0.004816715408575575,0.09043356763494431,0.430568219828274,0.09389200906027083,-0.8976562105823347,0.1411102097640804,0.010553779014763183,-0.05819844369502479,0.9652537638619694,-0.018076992720119877,0.22548358241046,-0.13081775501402235
8.869999999999918,0.49746228463410985,-0.07263085259387728,0.10865423186712865,0.43040686024013664,0.0892983701882626,-0.8982045160132781,0.13109172199918162,0.01657848316770671,-0.04896225258691382,0.965389361004784,-0.015742669496089746,0.22505279380367996,-0.13086462021805637
8.879999999999917,0.5304014982083056,-0.14640770196416938,0.12077448578760809,0.42939363032253686,0.08412024440176377,-0.8991818738564417,0.12829420695158983,0.02847300198715482,-0.05177781526698486,0.9656386839045272,-0.013177370794409463,0.22412290020934822,-0.13089223639445108
8.889999999999917,0.5460134937448176,-0.21322126637673283,0.13332921493863067,0.4279324242453604,0.07875166846593501,-0.9003651276973343,0.12779277048731746,0.03248071626961672,-0.05439473645942143,0.9659468654648552,-0.010557678025950732,0.22294010679030196,-0.13087833445599825
8.899999999999917,0.5403772743533651,-0.2647694546985944,0.14878726848760357,0.4259098857429894,0.07322016601138977,-0.9017935995333093,0.1291962054105969,0.019499409078409424,-0.052529793725798746,0.9663281862327519,-0.007913261945993656,0.2214466147554564,-0.13079207674764373
8.909999999999917,0.5115177431985746,-0.28636772715073244,0.16278681732704794,0.4234986706127842,0.0678438698531657,-0.9033411894810244,0.12421654737694465,0.00892472305417052,-0.04190388232691278,0.9667555121834156,-0.005402873500508504,0.21976148742097837,-0.1305918868078849
8.919999999999916,0.4733445857604179,-0.2958679832276967,0.1733073685375049,0.4209848012418144,0.06267175506282634,-0.9048929832284516,0.11549654639364312,-0.009244223584931946,-0.023596252925851796,0.9671929800929107,-0.003019476787991015,0.21803974715321106,-0.13032299598527072
8.929999999999916,0.4255047792807735,-0.29273180212233774,0.17755163881574754,0.41841340472968513,0.05784228327489665,-0.9064090142373836,0.10180726534664891,-0.043178449642296585,0.006523107356321542,0.9676333225417484,-0.0008353391606613506,0.21631706849277346,-0.12996160935027362
8.939999999999916,0.39376740773323476,-0.29779106485601864,0.18615419526744967,0.41584800655637233,0.053394421131258876,-0.907856774380459,0.09831266062103723,-0.05263663826626815,0.024593729270383162,0.9680696300524222,0.0011328642060623067,0.2146314914069989,-0.12949597383362704
8.949999999999916,0.37314950678006825,-0.3129022064793865,0.19139914906056718,0.4131846130915738,0.049110161565215096,-0.9093162274863891,0.10000960480806721,-0.050573332383663204,0.03328292013332411,0.9685131345965425,0.0030041688984736303,0.21290930332211838,-0.12899672198794723
8.959999999999916,0.36854098820516,-0.34502940780906277,0.1881226688725346,0.41032098134167555,0.04500358838369138,-0.9108265886440219,0.10811075178329992,-0.03503761271697263,0.027850528550397317,0.9689727825715134,0.004766200028106412,0.21109836555401007,-0.1284712923183945
8.969999999999915,0.393218554877585,-0.3869857938306157,0.18004963909794247,0.4069886872941334,0.040765414299159274,-0.9125129783251535,0.11304160239968579,-0.01816922036528376,0.02469538216370216,0.9694701518500303,0.006574454513257309,0.20903571450720726,-0.12799924237531216
8.979999999999915,0.4267540832655056,-0.4306261211218189,0.16613324021517398,0.40336247107852047,0.03635798990576792,-0.9143088291285872,0.11242076032303933,-0.0008787043356883332,0.021262772325812522,0.9699863908217315,0.008462780569757269,0.20680924641939943,-0.12759549978235546
8.989999999999915,0.4660592609260114,-0.47352031940268635,0.1421305026716066,0.39932724628724625,0.031655250394929925,-0.9162563560097075,0.10161732258325577,0.01671398390097991,0.01626795780148195,0.9705255869989032,0.010497753748291792,0.20435071207198743,-0.1273108271958151
8.999999999999915,0.4878455894242556,-0.5033346207121183,0.11488474068375598,0.39482914704986144,0.026686595236358985,-0.918351380035136,0.09190942988721275,0.021812345981244805,0.02435626663224997,0.9710778709166455,0.012673235288214969,0.2016350177348868,-0.12721298883601628
9.009999999999915,0.49754191771006523,-0.5230676903086255,0.0890549492139951,0.3901593983173784,0.021709199789765682,-0.9204808275937153,0.07640736065914047,0.017617226306526488,0.04468736320592821,0.9716251709524119,0.014861666858911745,0.19883126959238295,-0.12721919092103315
9.019999999999914,0.48948119353774816,-0.5272798891886396,0.06777932079174308,0.38533762097362806,0.016837320938147694,-0.9226152145192594,0.0479594075709301,-0.0006819681582619572,0.08517636918646443,0.9721556595238094,0.017012223305533383,0.19595874498427443,-0.12736134161088802
9.029999999999914,0.4480736445323069,-0.5206497473367786,0.05022950541731975,0.38052645673376306,0.012348692582342783,-0.924673430117028,0.03576768718914674,-0.01296758923652016,0.10752875466583209,0.9726549482247909,0.018984102098432938,0.1931225270879617,-0.12758869926309474
9.039999999999914,0.3949943501291015,-0.5117972497024732,0.03945724462163315,0.37574945771976964,0.00819815374781116,-0.9266772562611748,0.026038455597366846,-0.023697677858208945,0.12261981174279885,0.9731391691337198,0.020787351425913852,0.1903304216246309,-0.127822618005899
9.049999999999914,0.332895370334021,-0.5034930985347853,0.04180860716657581,0.37104273333050997,0.004602726928805055,-0.9285991004958085,0.013562267039292603,-0.03401707697175352,0.13078357610419822,0.9736057703312392,0.022307434714019414,0.1876176525297653,-0.12802809128257503
9.059999999999913,0.29198802843861305,-0.4925293784525454,0.046831127554105005,0.3664354935835702,0.0016386848682504737,-0.9304322684147868,0.011800156537098951,-0.037933703430990076,0.13903899507571169,0.9740600665304945,0.023498664804552684,0.185005976072104,-0.12815201006023524
9.069999999999913,0.2700483532586054,-0.4820718374676017,0.055550153890395144,0.3618872454957657,-0.0011635528984608565,-0.9322151388310675,0.010519751131804474,-0.03925084327707401,0.1473891353664518,0.9745083849308295,0.02460161099968891,0.18244025415684706,-0.128222062713982
9.079999999999913,0.2799360981327429,-0.47421802288680576,0.07126538332905652,0.35741971986645166,-0.003939404909778706,-0.9339312799064837,0.004512226485793339,-0.03810917609496628,0.15590592605615966,0.9749497332421033,0.025681650711458368,0.17992458057131938,-0.12821335501973877
9.089999999999913,0.2805042190533636,-0.4709580970808808,0.07562447857553119,0.352993443459986,-0.006845044697200186,-0.9355914675878957,0.002911291067810461,-0.02863415726303094,0.1648948793927028,0.9753809058337438,0.026823648347549012,0.17742746231153608,-0.1281704584668874
9.099999999999913,0.26850552895795154,-0.4676321592139814,0.07790742250761568,0.3485889925402448,-0.009692339788731496,-0.937220087617658,0.0013840016232975973,-0.01791403636108124,0.17159374276263675,0.9758069612359378,0.027933550534854863,0.17494905710875475,-0.12810382581739418
9.109999999999912,0.2323160179449626,-0.46145830571342367,0.08194655221319538,0.34421186733724074,-0.012325906418603354,-0.9388070115924853,-0.0025519060604210306,-0.009139588348860583,0.172612254232389,0.9762269054930948,0.028931411762606177,0.17250393289151025,-0.12800122163154415
9.119999999999912,0.20016139866030264,-0.4383324804283142,0.09428671002072704,0.3400031920908724,-0.01462712044545563,-0.9403031830506517,-0.005164288679693448,-0.013992721457315008,0.18044952891971355,0.9766334391934643,0.029761093897733817,0.17017447990788898,-0.12782198468831316
9.129999999999912,0.17635678588956305,-0.41069797743885617,0.1104458335984737,0.3359665186257336,-0.016786506619095344,-0.941720627186207,-0.013241409914038807,-0.026360169480409788,0.187380250897315,0.9770293694503864,0.03051938033874751,0.16794819693440743,-0.12756844708065876
9.139999999999912,0.17035429014349973,-0.382770460994028,0.13067454399201836,0.33224271893220014,-0.018809942128829058,-0.9430034765671849,-0.035470025480524206,-0.0484419484106612,0.18780038734044086,0.9774079208261005,0.03120978088894346,0.16590035162509997,-0.12718219451023097
9.149999999999912,0.14728613101778218,-0.3618435646833028,0.1443728233660428,0.3287597210529529,-0.020749478315447788,-0.9441806266281594,-0.041712891979990195,-0.05125527971320782,0.18535683504994935,0.9777709824452682,0.031861388258848496,0.16398877475634163,-0.1267037908212899
9.159999999999911,0.11539319439884269,-0.3362341090648533,0.1632273129125924,0.3254462349333791,-0.022524055365984272,-0.9452899517080608,-0.04370806520732063,-0.04989091830134058,0.1902351570731134,0.978129029187708,0.03242706320727473,0.16218051967375138,-0.1261275896430523
9.169999999999911,0.07287113689996126,-0.2940814341907079,0.19949823256867816,0.32239600349536157,-0.023940290531210072,-0.9463002926771255,-0.045864455713065105,-0.051093228118251705,0.21549237297874296,0.9784849687976694,0.03280273049071212,0.16053985983605315,-0.12536774251496524
9.179999999999911,0.06066567932889991,-0.2451722315312915,0.22588022669812702,0.3198594616149842,-0.025267529458255545,-0.9471256465898245,-0.05211741781015101,-0.06617576200045677,0.22985038839594088,0.9788188051850101,0.03313857469119907,0.15917925984731796,-0.12440198022295482
9.18999999999991,0.046701084433249405,-0.19811750340777196,0.2488004656071689,0.3176504619005944,-0.02652349377672458,-0.9478360355761762,-0.06039337609564682,-0.08108369954103105,0.23473940740636592,0.9791363174598228,0.033445158984621554,0.15799715685003776,-0.12332670931776682
9.19999999999991,0.006013238132080212,-0.16082483462008978,0.2699338339453585,0.31591876031576566,-0.027658952851492752,-0.9483823190565066,-0.07094242766601339,-0.0853984628570431,0.22294398186743203,0.9794274868549344,0.03370467475871545,0.15707507388115846,-0.12211682131533814
9.20999999999991,-0.06613496847042445,-0.1330288243175934,0.2844021963705984,0.31452192109596633,-0.028139325991965038,-0.9488324809917245,-0.06996993714606731,-0.08823121631579281,0.2158687980468737,0.9797120432347806,0.0336337557211313,0.1563722947117259,-0.12074513781887283
9.21999999999991,-0.13987294418987858,-0.10603043130085026,0.2976710583630446,0.3133406886041853,-0.02813866313552918,-0.9492235705885625,-0.06472064128881629,-0.09390878705112117,0.20753988241666024,0.9799924103018028,0.03332037061020468,0.15581326505627893,-0.11927179556752766
9.22999999999991,-0.1931714067065988,-0.07371791842296481,0.312946499865212,0.31247704153973455,-0.02735713341419146,-0.9495310856410992,-0.057005704760938386,-0.10841319581624168,0.19212499655660573,0.9802666902812962,0.032613577487696686,0.15546908480898317,-0.11765178209879619
9.23999999999991,-0.2069147292948743,-0.04366280457998287,0.33394755234152285,0.3118990614152215,-0.02646187218190989,-0.9497463394184722,-0.05429685988425425,-0.11533524454707317,0.18076207753253534,0.9805305476696062,0.03184718415890724,0.1552811386093704,-0.1158926481641219
9.24999999999991,-0.2123064533372147,-0.020796464693255197,0.35519107030121605,0.31148085733025205,-0.025528575892306015,-0.9499092931265448,-0.05157551452827804,-0.11296494395273093,0.1648025974543245,0.980788146725922,0.031059582728517818,0.15517877259747892,-0.11405245827607217
9.25999999999991,-0.22783023425809848,-0.016058537091513073,0.3722745504403423,0.3112666752371882,-0.02458533289208769,-0.9500044102759821,-0.044591243439501806,-0.09110100434456461,0.13261033898004185,0.981037106722051,0.030263212340459245,0.15518296357959657,-0.11210386642158501
9.269999999999909,-0.23799683289812587,-0.013062261844531152,0.3786738859452681,0.3110586362878365,-0.023532172888788633,-0.9500989821694446,-0.039265661806462904,-0.08450451183350353,0.12203810862676884,0.9812899498482179,0.029399917906104696,0.15519572703134696,-0.11007808618684169
9.279999999999909,-0.2430640987696619,-0.013510220087427222,0.3795685940795556,0.3108484189699691,-0.022435999205742435,-0.9501944225788417,-0.03470583286874335,-0.08362200213119726,0.11546630525842483,0.9815421988709726,0.028511745625135768,0.15520825684248477,-0.10803171159540448
