time,seconds_elapsed,rotationRateX,rotationRateY,rotationRateZ,gravityX,gravityY,gravityZ,accelerationX,accelerationY,accelerationZ,quaternionW,quaternionX,quaternionY,quaternionZ
1681248480920776000,0.09177587890625,-0.10908222198486328,0.12073594331741333,0.1571277678012848,0.05734853446483612,-0.2389492243528366,-0.9693371057510376,-0.010107338428497314,-0.024295315146446228,0.0429149866104126,0.9923047010995553,0.12040113252419267,0.028896635360438214,4.387895364573293e-19
1681248480935809000,0.10680908203125,-0.054960716515779495,0.13429409265518188,0.1487119197845459,0.058692749589681625,-0.23808343708515167,-0.9694696664810181,-0.011344734579324722,-0.006453871726989746,0.035692811012268066,0.992338045538556,0.11996085086820178,0.029572960998151782,-5.187081538219566e-17
1681248480950842000,0.121842041015625,-0.06312170624732971,0.13283094763755798,0.14953696727752686,0.060093577951192856,-0.23749925196170807,-0.9695271253585815,-0.013065997511148453,-0.00568002462387085,0.03272902965545654,0.9923517244191321,0.11962652935669434,0.03042902983185027,0.0012498164174173385
1681248480965874200,0.136874267578125,-0.09714039415121078,0.11912339925765991,0.1516144871711731,0.06141803786158562,-0.2365749031305313,-0.9696701169013977,-0.002213951200246811,-0.017453372478485107,0.032505810260772705,0.9923854492384206,0.11911689600672068,0.031242690842592957,0.0024830496542261613
1681248480980907000,0.151906982421875,-0.1415107250213623,0.12214288860559464,0.1867746114730835,0.062547467648983,-0.23509445786476135,-0.9699579477310181,-0.0031297504901885986,-0.024533793330192566,0.031267762184143066,0.9924534563619045,0.1183159455006954,0.03197446343303251,0.0038830976342848975
1681248480995940000,0.166940185546875,-0.19009925425052643,0.1004602313041687,0.21086929738521576,0.06342556327581406,-0.23305845260620117,-0.9703921675682068,-0.00670865923166275,-0.029301121830940247,0.03992646932601929,0.9925550283780181,0.11722146349525639,0.03260438071353648,0.005535332544342518
1681248481010973000,0.181972900390625,-0.21272574365139008,0.0949818417429924,0.23583456873893738,0.0640113428235054,-0.23037514090538025,-0.970994234085083,0.0003654658794403076,-0.032640546560287476,0.04022341966629028,0.9926950388200967,0.1157907262167277,0.0330965081020027,0.0073327849936240565
1681248481026006000,0.197006103515625,-0.19915027916431427,0.08265434205532074,0.24122187495231628,0.06443241238594055,-0.22765304148197174,-0.9716082215309143,0.0015923529863357544,-0.024925649166107178,0.03751093149185181,0.9928335066490996,0.11433552597057012,0.0335152357112439,0.009260840811427777
1681248481041038000,0.2120380859375,-0.179017573595047,0.08291639387607574,0.2662774324417114,0.06475459039211273,-0.22523562610149384,-0.9721500873565674,-0.0003777742385864258,-0.02360464632511139,0.03606915473937988,0.9929492234216316,0.11303308800286276,0.03388934221025231,0.011263084555191635
1681248481056071200,0.2270712890625,-0.1779196560382843,0.07363501191139221,0.26615437865257263,0.06500312685966492,-0.2231207937002182,-0.9726210236549377,0.0017998293042182922,-0.024376705288887024,0.03722679615020752,0.993041766865027,0.11188140748109063,0.03423486329442185,0.013363144170828054
1681248481071104000,0.24210400390625,-0.1974250227212906,0.06497015058994293,0.2838470935821533,0.06505907326936722,-0.22060468792915344,-0.9731910824775696,0.0014539733529090881,-0.03108900785446167,0.03744584321975708,0.9931538822169219,0.1105237653081651,0.03448120529407186,0.015522497055552496
1681248481086137000,0.25713720703125,-0.21295151114463806,0.07685397565364838,0.31112611293792725,0.06513265520334244,-0.21787720918655396,-0.9738004207611084,-0.003975428640842438,-0.03258049488067627,0.0326230525970459,0.9932681153994991,0.10905254328561784,0.034746713825255175,0.017848980283000936
1681248481101169200,0.272169189453125,-0.20509764552116394,0.07056571543216705,0.30800488591194153,0.06514739245176315,-0.2150830328464508,-0.9744203686714172,-0.007881172001361847,-0.03236870467662811,0.028711140155792236,0.9933772397777602,0.1075437792550622,0.034987709892787516,0.020292181390436533
1681248481116202200,0.2872021484375,-0.1943049281835556,0.08943341672420502,0.3011009097099304,0.06535245478153229,-0.21246720850467682,-0.974980354309082,-0.0008535683155059814,-0.020549699664115906,0.021412909030914307,0.9934665280556788,0.10612606787400339,0.0353138548739017,0.022679682035963326
1681248481131235000,0.302235107421875,-0.199884295463562,0.10038380324840546,0.2971929907798767,0.06578268110752106,-0.20988139510154724,-0.975511372089386,-0.006441257894039154,-0.020846709609031677,0.017579853534698486,0.9935438130261961,0.10472227012366357,0.03574297952348254,0.02502691749232132
1681248481146268200,0.31726806640625,-0.22426819801330566,0.11576621979475021,0.29553306102752686,0.06644424796104431,-0.20703251659870148,-0.9760751724243164,-0.004142627120018005,-0.025267228484153748,0.009629249572753906,0.9936229848093293,0.10317999538332709,0.036281035000748224,0.027404032054556122
1681248481161299700,0.3322998046875,-0.2027941197156906,0.12473467737436295,0.2823495864868164,0.06731162965297699,-0.2041587084531784,-0.9766209125518799,-0.0019277408719062805,-0.02208329737186432,0.006299257278442383,0.9936940531105481,0.10162376311731067,0.0369075258351952,0.029707358748486064
1681248481176331800,0.347331787109375,-0.19178849458694458,0.12976352870464325,0.25385403633117676,0.06834499537944794,-0.20153430104255676,-0.9770941138267517,0.004317343235015869,-0.010852739214897156,0.000592648983001709,0.9937456551252888,0.10019485046158773,0.03760239642675591,0.031885057644042446
1681248481191364900,0.36236474609375,-0.21208113431930542,0.10853307694196701,0.22785520553588867,0.06937593221664429,-0.1988159418106079,-0.9775782227516174,0.009267859160900116,-0.009725883603096008,0.004189550876617432,0.9938035634401021,0.09872583206101596,0.038263496506961286,0.03381519335976439
1681248481206397700,0.377397705078125,-0.23616011440753937,0.09832651168107986,0.23018519580364227,0.07020121812820435,-0.1957419067621231,-0.9781395196914673,0.01759783923625946,-0.02671593427658081,0.023992180824279785,0.993880679288615,0.09708178233030733,0.03879913405809512,0.03565139350833136
1681248481221430800,0.3924306640625,-0.2636375427246094,0.0750315710902214,0.24969738721847534,0.07079174369573593,-0.19234463572502136,-0.9787706732749939,0.021005108952522278,-0.03870388865470886,0.03991270065307617,0.993969572127193,0.0952745471218889,0.03920985654482542,0.03754970942224123
1681248481236462800,0.407462890625,-0.3568228781223297,0.041635267436504364,0.30925366282463074,0.07085289806127548,-0.18810464441776276,-0.9795899391174316,0.043816886842250824,-0.04810135066509247,0.06795364618301392,0.9940902156994099,0.09303798338088143,0.03935669616780582,0.03974353544079791
1681248481251496000,0.422495849609375,-0.5406450629234314,0.017503829672932625,0.42735472321510315,0.07031341642141342,-0.1819758415222168,-0.9807857871055603,0.062376998364925385,-0.05802959203720093,0.09020662307739258,0.9942718570161387,0.08983142770027551,0.039209789754976146,0.04261853406766272
1681248481266528800,0.43752880859375,-0.7820308208465576,-0.02770758979022503,0.5585582852363586,0.06896384805440903,-0.1727108210325241,-0.9825553297996521,0.11321082711219788,-0.07066681981086731,0.1424826979637146,0.9945428395824574,0.08502236106627707,0.03864631159494421,0.04649937890900494
1681248481281561900,0.452561767578125,-1.0395985841751099,-0.06651117652654648,0.7187484502792358,0.06669924408197403,-0.15984848141670227,-0.9848856329917908,0.14492489397525787,-0.08738963305950165,0.16587013006210327,0.994882437073101,0.07839031645730689,0.03757859638229427,0.05149443376361915
1681248481296594000,0.467593994140625,-1.2511588335037231,-0.1042175441980362,0.8849177360534668,0.06362615525722504,-0.14359314739704132,-0.9875893592834473,0.19336235523223877,-0.0865246057510376,0.22129297256469727,0.9952176965509862,0.07005028869474908,0.036031681483425296,0.05776261223872467
1681248481311626800,0.482626708984375,-1.4240021705627441,-0.15383249521255493,1.0523560047149658,0.05974997580051422,-0.12455035001039505,-0.9904125928878784,0.21657142043113708,-0.09130043536424637,0.2404279112815857,0.995461312646388,0.06033115510724161,0.033968275214225574,0.06529157829030653
1681248481326659600,0.49765966796875,-1.5958319902420044,-0.19887800514698029,1.2349940538406372,0.05518309399485588,-0.10303360223770142,-0.9931459426879883,0.24517090618610382,-0.0711301639676094,0.25961023569107056,0.9955284345318361,0.049410277752391346,0.03139495999315796,0.07413495304166966
1681248481341692700,0.512692626953125,-1.8053886890411377,-0.2497670203447342,1.4328356981277466,0.04998331144452095,-0.07875008881092072,-0.9956405162811279,0.26172322034835815,-0.0681767389178276,0.2725570797920227,0.9953362194994045,0.037162692351872036,0.028260613053042196,0.08441679898131971
1681248481356725800,0.527725830078125,-2.0745692253112793,-0.25796452164649963,1.6466388702392578,0.04461802542209625,-0.05079645290970802,-0.9977118372917175,0.27525195479393005,-0.062194839119911194,0.29341191053390503,0.9947814992916223,0.023144731192035067,0.024665608344303223,0.09625854188641639
1681248481371757800,0.5427578125,-2.24703311920166,-0.2527178227901459,1.787640929222107,0.03985845670104027,-0.019268698990345,-0.9990195035934448,0.27972161769866943,-0.06647039204835892,0.2982291579246521,0.9937426296388808,0.007395877443733563,0.02086950202793934,0.10947795447334698
1681248481386790700,0.557790771484375,-2.3088924884796143,-0.2494783252477646,1.8836345672607422,0.03607352077960968,0.013954413123428822,-0.9992517232894897,0.2530957758426666,-0.041694849729537964,0.23855531215667725,0.9921519350814101,-0.009154003443963568,0.017039670952952387,0.1235326443635062
1681248481401823700,0.57282373046875,-2.3188202381134033,-0.250507652759552,1.9535844326019287,0.03318385034799576,0.04777701199054718,-0.9983066320419312,0.24747104942798615,-0.0441606380045414,0.20364421606063843,0.9899889022012398,-0.02596290477565147,0.013137625571968256,0.1381132889766857
1681248481416856800,0.58785693359375,-2.344818353652954,-0.27007949352264404,2.0438318252563477,0.031320054084062576,0.0817287415266037,-0.9961623549461365,0.23609021306037903,-0.036226995289325714,0.15637969970703125,0.9872218840864182,-0.04282368624859665,0.00921666596252545,0.15321268129701524
1681248481431889000,0.602888916015625,-2.4689652919769287,-0.33344942331314087,2.173966884613037,0.02996036596596241,0.11666161566972733,-0.9927197098731995,0.22722652554512024,-0.05205586552619934,0.13389408588409424,0.9837554446699945,-0.06013486843095105,0.004892601114149803,0.1690709564087378
1681248481446921700,0.617921630859375,-2.589406967163086,-0.3855277895927429,2.292658567428589,0.029126936569809914,0.15347184240818024,-0.9877236485481262,0.23691004514694214,-0.07247816026210785,0.125785231590271,0.9794551898344095,-0.07834649421022796,0.000005173542791491178,0.18582070505280054
1681248481461954800,0.632954833984375,-2.5402824878692627,-0.38028857111930847,2.3383946418762207,0.02939804457128048,0.19063366949558258,-0.9812209606170654,0.22156326472759247,-0.085256427526474,0.11359095573425293,0.9743609771530707,-0.09676628945406744,-0.005080099903293815,0.2030549441367354
1681248481476988000,0.64798779296875,-2.326831102371216,-0.3171359598636627,2.3494889736175537,0.03156463801860809,0.2254461646080017,-0.9737441539764404,0.1303769052028656,-0.01699581742286682,0.06451869010925293,0.9686723532511717,-0.11416787461174129,-0.009675528418474983,0.22033111891846635
1681248481492020700,0.663020751953125,-2.082190752029419,-0.2183867245912552,2.3353447914123535,0.036138515919446945,0.2563326060771942,-0.9659128189086914,0.058969516307115555,-0.0019075274467468262,0.02461344003677368,0.9626021419036987,-0.12987614556948224,-0.013257732885939295,0.2373890913242108
1681248481507052800,0.678052734375,-1.959549903869629,-0.16121238470077515,2.3486390113830566,0.042976781725883484,0.2840315103530884,-0.9578512907028198,-0.05458870902657509,0.005122572183609009,-0.027774930000305176,0.9561903734273747,-0.14429778590613743,-0.01589049268438945,0.25421545293658643
1681248481522086000,0.6930859375,-1.9915682077407837,-0.13607294857501984,2.4127469062805176,0.051498893648386,0.31050926446914673,-0.9491742849349976,-0.0854039192199707,-0.02991539239883423,-0.047880709171295166,0.9492372893710204,-0.15838100580139827,-0.018119235014634,0.27117456370885584
1681248481537118700,0.70811865234375,-2.0361616611480713,-0.12674975395202637,2.4093902111053467,0.06142546981573105,0.3371334969997406,-0.9394508600234985,-0.07843901216983795,-0.049505263566970825,-0.07055890560150146,0.9416204492415354,-0.1728099758259499,-0.020280146387459768,0.2882295136829562
1681248481552151600,0.723151611328125,-2.0212316513061523,-0.11211781203746796,2.3908274173736572,0.07236666977405548,0.3632623255252838,-0.9288721680641174,-0.08925814181566238,-0.047298550605773926,-0.08469283580780029,0.9335020070982695,-0.1872473413067076,-0.02241293594097319,0.3049755296326423
1681248481567183600,0.73818359375,-1.951643943786621,-0.0687335878610611,2.364549160003662,0.08453599363565445,0.38813912868499756,-0.9177154898643494,-0.11897507309913635,-0.011994689702987671,-0.09151607751846313,0.9249687563455784,-0.20137785878499195,-0.024273857604290627,0.32138863582511307
1681248481582216700,0.753216796875,-1.8410429954528809,-0.016031760722398758,2.3567981719970703,0.09813715517520905,0.4108852446079254,-0.9063897728919983,-0.14121270179748535,-0.021679282188415527,-0.09126037359237671,0.916164457495539,-0.21483003810594506,-0.02555728574044777,0.33739813947915914
1681248481597249800,0.768249755859375,-1.797974705696106,0.005998707376420498,2.3960838317871094,0.1131373792886734,0.43168431520462036,-0.8949014544487,-0.1601802110671997,-0.04720860719680786,-0.08999234437942505,0.9069797210390962,-0.22771799376811003,-0.02633994112653668,0.35332510226390035
1681248481612283000,0.783282958984375,-1.8505147695541382,0.02571701817214489,2.4248576164245605,0.12938687205314636,0.45154038071632385,-0.8828195333480835,-0.16008755564689636,-0.06109848618507385,-0.09583336114883423,0.8972336529264017,-0.24055394143041942,-0.026908025585722604,0.36929854732329903
1681248481627315700,0.798315673828125,-2.009307861328125,0.0666268989443779,2.384138584136963,0.14671386778354645,0.47190067172050476,-0.8693588376045227,-0.17578184604644775,-0.03748294711112976,-0.1267806887626648,0.8868219965668552,-0.2540855129368268,-0.027588783454036266,0.3850013823913221
1681248481642347800,0.81334765625,-2.1081502437591553,0.11144950240850449,2.26837420463562,0.16471682488918304,0.4932929277420044,-0.8541255593299866,-0.20217713713645935,-0.026267170906066895,-0.14761394262313843,0.8759127066132499,-0.2685553032228535,-0.028552969219916034,0.3997996727834387
1681248481657380900,0.828380859375,-2.0553972721099854,0.16968031227588654,2.2012274265289307,0.18342293798923492,0.5140708684921265,-0.8379064202308655,-0.25124824047088623,0.002973198890686035,-0.18945252895355225,0.8647773286529131,-0.2831652689031233,-0.029397503648582325,0.4136586418338015
1681248481672414000,0.8434140625,-1.8910924196243286,0.19793911278247833,2.1241095066070557,0.20272640883922577,0.532478928565979,-0.821807861328125,-0.2763500511646271,0.007056593894958496,-0.2240753173828125,0.8536735082085818,-0.2970037534151866,-0.029746220935019465,0.4267850577840899
1681248481687446800,0.85844677734375,-1.7440848350524902,0.24407678842544556,2.0839335918426514,0.22253933548927307,0.5479880571365356,-0.8063406944274902,-0.3138631582260132,0.01927262544631958,-0.24453204870224,0.8427387110726514,-0.30977910178912615,-0.02943765825536854,0.43927404691768374
1681248481702478800,0.873478759765625,-1.6880780458450317,0.25775131583213806,2.0356266498565674,0.2427571415901184,0.5612519979476929,-0.7912428379058838,-0.3303883671760559,0.018505752086639404,-0.2492997646331787,0.8318450401998045,-0.3218025411481935,-0.02866532025981665,0.4512819431639069
1681248481717512000,0.888511962890625,-1.7895251512527466,0.27744218707084656,2.012181520462036,0.26311302185058594,0.5738956928253174,-0.7755096554756165,-0.34097862243652344,0.021517455577850342,-0.25308525562286377,0.8206543407202718,-0.3338570635472927,-0.028011363700311372,0.4629051400699443
1681248481732545000,0.903544921875,-1.8875271081924438,0.26896294951438904,1.8643815517425537,0.28325155377388,0.5871731638908386,-0.7582850456237793,-0.3584621250629425,0.021362602710723877,-0.2693486213684082,0.8091875083920703,-0.3465305301298506,-0.02782226686937261,0.4736645119128343
1681248481747577900,0.918577880859375,-1.9471092224121094,0.23831769824028015,1.765570044517517,0.3023412227630615,0.6009010076522827,-0.7399376630783081,-0.39509937167167664,0.042989373207092285,-0.3174811601638794,0.7976006995760195,-0.35947858153880313,-0.028395566183708015,0.4835306938081934
1681248481762609700,0.933609619140625,-1.7733250856399536,0.24334149062633514,1.5636515617370605,0.32019925117492676,0.6136218309402466,-0.7217622399330139,-0.41629907488822937,0.07470214366912842,-0.3449186682701111,0.7862988789240897,-0.3718326715942221,-0.02931481152464467,0.49255981136970545
1681248481777642800,0.948642822265625,-1.4512444734573364,0.21796396374702454,1.244510531425476,0.335801899433136,0.6241361498832703,-0.7054723501205444,-0.4483965039253235,0.16486531496047974,-0.39169561862945557,0.7765687645135013,-0.3825785037437895,-0.02995845330121951,0.49967718940276057
1681248481792675800,0.96367578125,-1.100486159324646,0.19100691378116608,1.106938123703003,0.34893080592155457,0.6315257549285889,-0.6924034357070923,-0.46001479029655457,0.21062207221984863,-0.40975409746170044,0.7684813119214715,-0.3910045708825849,-0.030227400189227278,0.5056068825635797
1681248481807708700,0.978708740234375,-0.7963520288467407,0.22007638216018677,0.9276241660118103,0.36087197065353394,0.6357743740081787,-0.6823213696479797,-0.46960607171058655,0.25832968950271606,-0.398077130317688,0.7618154317637531,-0.3974473210687097,-0.029579296608126707,0.510683890405525
1681248481822741800,0.99374169921875,-0.6223986744880676,0.2269795536994934,0.7079110145568848,0.3709568381309509,0.6383630633354187,-0.6744506359100342,-0.49824562668800354,0.2210424542427063,-0.3934967517852783,0.7566244693547697,-0.4024429355154153,-0.028537237091678155,0.51453355132045
1681248481837773800,1.00877392578125,-0.5958850979804993,0.27032676339149475,0.46822091937065125,0.3791905641555786,0.6410927176475525,-0.6672441363334656,-0.5357456803321838,0.11438524723052979,-0.3736494183540344,0.7525306077201486,-0.4069557806742291,-0.02765733653367803,0.5170298383415604
1681248481852807000,1.023806884765625,-0.801233172416687,0.19167563319206238,0.2515256404876709,0.3850758671760559,0.6461690664291382,-0.6589249968528748,-0.5608723759651184,0.10015356540679932,-0.38538646697998047,0.7488489656395582,-0.41200624398230273,-0.028077671978145907,0.5183510652548946
1681248481867839700,1.03883984375,-0.7267901301383972,0.12844473123550415,-0.1446019858121872,0.38723692297935486,0.6534745097160339,-0.650398850440979,-0.5551751852035522,0.13351279497146606,-0.3921579122543335,0.7462893708318323,-0.4170159907246739,-0.029970554291351953,0.5179301878927445
1681248481882872800,1.053872802734375,-0.5538240075111389,0.0543057844042778,-0.4480460286140442,0.38502010703086853,0.6615963578224182,-0.6434669494628906,-0.5435589551925659,0.1355684995651245,-0.3991813063621521,0.7454067911689319,-0.42092202708869375,-0.033032904257014134,0.515850891743061
1681248481897906000,1.068906005859375,-0.34220629930496216,0.04966282844543457,-0.7048887610435486,0.3796728849411011,0.6692105531692505,-0.6387531757354736,-0.5035132169723511,0.16576558351516724,-0.3160197138786316,0.7462891533251504,-0.4234456085026792,-0.03629358786913396,0.5122782063182837
1681248481912938000,1.08393798828125,-0.1387963891029358,0.08186338096857071,-0.8724159598350525,0.37227481603622437,0.6760432720184326,-0.6359063982963562,-0.5085510015487671,0.14010357856750488,-0.271869421005249,0.748554452343186,-0.4248457289617454,-0.03940694307322247,0.5075622271914616
1681248481927970800,1.098970703125,0.145328551530838,0.15471787750720978,-0.9787972569465637,0.3640795350074768,0.6810840964317322,-0.6352720260620117,-0.5102434158325195,0.10407215356826782,-0.2287415862083435,0.752158030518795,-0.425012461565292,-0.04157379891942105,0.5018907728588552
1681248481943004000,1.11400390625,0.3138200342655182,0.16758094727993011,-1.107879877090454,0.3549259901046753,0.6844354271888733,-0.6368481516838074,-0.4883335828781128,0.13242852687835693,-0.23313158750534058,0.7568631357884634,-0.4239318374398237,-0.04310121136706314,0.4955624797982318
1681248481958037000,1.129037109375,0.43191108107566833,0.19415876269340515,-1.1931720972061157,0.34486109018325806,0.6869205832481384,-0.6396958827972412,-0.41973593831062317,0.2670283913612366,-0.2261640429496765,0.7624331205491572,-0.422129757906842,-0.04425508155102319,0.4884092700915625
1681248481973068800,1.14406884765625,0.41986092925071716,0.13948406279087067,-1.2581089735031128,0.3338797986507416,0.6887747645378113,-0.6435165405273438,-0.3704550862312317,0.3080514073371887,-0.23125451803207397,0.7683194763117859,-0.4197243305311237,-0.045532433110442236,0.48108565396375913
1681248481988101600,1.1591015625,0.2351352870464325,0.16629037261009216,-1.4245760440826416,0.3213213086128235,0.6923502683639526,-0.6460678577423096,-0.2767351269721985,0.3279286026954651,-0.18722981214523315,0.774398729158043,-0.4179707158415341,-0.04760826008959142,0.4725891579475917
1681248482003134700,1.174134765625,0.18251879513263702,-0.021777262911200523,-1.0204166173934937,0.3082047998905182,0.6960320472717285,-0.6484976410865784,-0.2384263277053833,0.285153865814209,-0.14460837841033936,0.7789929745679978,-0.41608453192217726,-0.051233187486030084,0.4662819234388875
1681248482018167800,1.189167724609375,0.18807648122310638,0.16543523967266083,-1.196219563484192,0.2978039085865021,0.6991835832595825,-0.6499654650688171,-0.22672846913337708,0.18483436107635498,-0.06879973411560059,0.7835507800971029,-0.4149488707798112,-0.05324184417681959,0.45938103948523906
1681248482033200600,1.20420068359375,0.046605270355939865,0.04319028556346893,-1.0895253419876099,0.28630781173706055,0.7030594348907471,-0.6509495973587036,-0.24039411544799805,0.11078333854675293,-0.025304675102233887,0.7879698907527037,-0.41399663632773975,-0.05596428261733527,0.45230338821959587
1681248482048232700,1.219232666015625,-0.18849831819534302,0.08484692126512527,-0.9888371229171753,0.2759253978729248,0.7080284953117371,-0.6500467658042908,-0.1092994213104248,0.00791388750076294,0.07704877853393555,0.7912928345721608,-0.4141150209970551,-0.05903686860493331,0.445958591654436
1681248482063265800,1.234265869140625,-0.5143579840660095,0.06836621463298798,-0.9470223188400269,0.26624515652656555,0.7153423428535461,-0.6460641622543335,-0.12615421414375305,-0.07252007722854614,0.106528639793396,0.7934858568832761,-0.4159649839674616,-0.06277780035597065,0.43978673337208046
1681248482078299000,1.249298828125,-0.7883930802345276,0.05994077026844025,-0.9276267886161804,0.25664401054382324,0.7254350185394287,-0.6386530995368958,-0.10990023612976074,-0.132860004901886,0.1595882773399353,0.7945133369793793,-0.41965456999378,-0.06755354388404768,0.43367618752688547
1681248482093331700,1.264331787109375,-0.8412152528762817,0.07959170639514923,-0.8936339020729065,0.24724061787128448,0.736792802810669,-0.6292920112609863,-0.08494813740253448,-0.13486415147781372,0.1818280816078186,0.7948779745596896,-0.4243393609726058,-0.072733101076962,0.4275687545348008
1681248482108363800,1.27936376953125,-0.7964152693748474,0.142110213637352,-0.8063881993293762,0.23871725797653198,0.7475886344909668,-0.6197783946990967,-0.0689021646976471,-0.1564478874206543,0.21793818473815918,0.7950418933355697,-0.4290845997088863,-0.07744167706691958,0.4216604537372017
1681248482123396900,1.29439697265625,-0.7957849502563477,0.24720066785812378,-0.6728687882423401,0.23205865919589996,0.7574834227561951,-0.6102193593978882,-0.05983269214630127,-0.17719167470932007,0.23515832424163818,0.7949573226864661,-0.4339348621223224,-0.08118413152648167,0.4161160213947967
1681248482138430000,1.309429931640625,-0.9192137122154236,0.4262060821056366,-0.4610651433467865,0.2284751981496811,0.767172634601593,-0.5993707180023193,-0.030400842428207397,-0.23404580354690552,0.26608824729919434,0.794165402687219,-0.4396626262725193,-0.08373427121378257,0.4110798760970909
1681248482153464000,1.324464111328125,-1.1403687000274658,0.6373186111450195,-0.18705198168754578,0.2293989509344101,0.7774236798286438,-0.5856521725654602,0.0007188469171524048,-0.2655981779098511,0.2682541608810425,0.7921059787409784,-0.4471948891734124,-0.08479767951844219,0.40668673165733144
1681248482168497200,1.3394970703125,-1.3849283456802368,0.7849504351615906,0.15352530777454376,0.23538511991500854,0.7884610295295715,-0.5682632327079773,0.11600954830646515,-0.29026156663894653,0.2791091799736023,0.7883313776871015,-0.4568771014662834,-0.08444941797397386,0.403317845712462
1681248482183529200,1.354529296875,-1.4516066312789917,0.8729782700538635,0.48189520835876465,0.2462523728609085,0.7993442416191101,-0.5480955243110657,0.17632457613945007,-0.29153162240982056,0.2660062909126282,0.7828883542337385,-0.46808899424621314,-0.08273411825127398,0.40141462434991937
1681248482198562000,1.36956201171875,-1.3718034029006958,0.8885159492492676,0.8262261748313904,0.2612185776233673,0.8083671927452087,-0.5275484919548035,0.2750058174133301,-0.25746387243270874,0.22048062086105347,0.7764119634576553,-0.47947802417760094,-0.07953986852916958,0.40119667437966783
1681248482213595100,1.38459521484375,-1.1274546384811401,0.856338620185852,1.1824994087219238,0.2803414762020111,0.8140888810157776,-0.5085941553115845,0.3072440028190613,-0.2142811417579651,0.21532028913497925,0.7692702227404639,-0.49003943783422776,-0.07459397903656255,0.40313829117868205
1681248482228628200,1.399628173828125,-0.8656962513923645,0.8185073137283325,1.421416163444519,0.3026789724826813,0.8157821297645569,-0.49283367395401,0.3720036447048187,-0.22285610437393188,0.20294725894927979,0.7620631120527058,-0.49896921076886147,-0.06791823152135902,0.4070340625644875
1681248482243661000,1.4146611328125,-0.7920381426811218,0.8114537000656128,1.6300181150436401,0.32730627059936523,0.8145130276679993,-0.47899794578552246,0.3597206771373749,-0.27007949352264404,0.20089131593704224,0.7546677743976791,-0.5068491935797206,-0.060041001522127546,0.41228071553259565
1681248482258692900,1.42969287109375,-0.7718142867088318,0.8554858565330505,1.8228520154953003,0.35430940985679626,0.8112353086471558,-0.4651474356651306,0.32519498467445374,-0.34776484966278076,0.2158341407775879,0.7466056908244745,-0.5145940801269726,-0.05117822225730723,0.4185136821826074
1681248482273726000,1.444725830078125,-0.6843297481536865,0.9278359413146973,1.9776897430419922,0.3835872411727905,0.8057610392570496,-0.45123156905174255,0.286563515663147,-0.38133788108825684,0.19702020287513733,0.7380071114110042,-0.5222003676158381,-0.04112158808369714,0.425395407476042
1681248482288759000,1.459759033203125,-0.44902724027633667,0.9590601921081543,2.088402271270752,0.41442498564720154,0.7973832488059998,-0.4386705458164215,0.2518347501754761,-0.41325855255126953,0.17408320307731628,0.7294369432548281,-0.5289437472254499,-0.02971934950048373,0.43273199959953584
1681248482303791900,1.4747919921875,-0.21105460822582245,0.9785619974136353,2.213590621948242,0.4463571012020111,0.7856125235557556,-0.42846038937568665,0.2280661165714264,-0.4096055030822754,0.14162573218345642,0.721246032070379,-0.5343075874991298,-0.01688798200441025,0.44049334721496786
1681248482318824000,1.489823974609375,-0.1703319549560547,0.925387978553772,2.2381691932678223,0.4786968529224396,0.7710685133934021,-0.4198841154575348,0.3181171119213104,-0.3754538893699646,0.10099071264266968,0.7131625780696315,-0.5385605406751984,-0.0032382337259712008,0.4487105770335958
1681248482333857000,1.50485693359375,-0.3483106791973114,0.7973203063011169,2.005556106567383,0.5086643695831299,0.7568094730377197,-0.4104873836040497,0.3967769145965576,-0.3000528812408447,0.08918309211730957,0.7048284108893987,-0.5428366356658325,0.009203200545837639,0.456574754771713
1681248482348890000,1.51989013671875,-0.44154128432273865,0.6527324914932251,1.8149950504302979,0.5344123244285583,0.7444547414779663,-0.4002382755279541,0.5560570359230042,-0.10605752468109131,0.0758364200592041,0.6965418153382505,-0.547271875179542,0.01934830997917881,0.463625608108083
1681248482363923200,1.534923095703125,-0.5036083459854126,0.527522087097168,1.837245225906372,0.5580769181251526,0.7323221564292908,-0.39019811153411865,0.5927562117576599,-0.05519813299179077,0.05500829219818115,0.6881224097272202,-0.5514542812356479,0.028268782891959308,0.4707299880318951
1681248482378956000,1.5499560546875,-0.5127676129341125,0.40336814522743225,1.9394049644470215,0.5813550353050232,0.7191855907440186,-0.3805236220359802,0.718968391418457,0.02754896879196167,0.07156375050544739,0.6791176080311715,-0.5553328290036065,0.036655642130994856,0.47860314778583785
1681248482393988000,1.564988037109375,-0.46642574667930603,0.16133183240890503,1.9395599365234375,0.6039389371871948,0.7045586109161377,-0.37263259291648865,0.7919198274612427,0.0682227611541748,0.07529985904693604,0.6698801152526324,-0.5583000481751579,0.044550616906963054,0.48741871698308653
1681248482409021200,1.580021240234375,-0.3448345959186554,-0.12767280638217926,1.8766499757766724,0.6239691972732544,0.6892903447151184,-0.3681589663028717,0.9549644589424133,0.18656408786773682,0.07921859622001648,0.6610808088734144,-0.5597420960069924,0.05108127058246193,0.4970427657532341
1681248482424054300,1.59505419921875,-0.17175860702991486,-0.36557167768478394,1.7845882177352905,0.6413550972938538,0.673188328742981,-0.3680773675441742,1.002764105796814,0.27014046907424927,0.02156558632850647,0.6532662373876326,-0.5592414586650034,0.05665953427757459,0.507229528623762
1681248482439087000,1.610087158203125,-0.31242457032203674,-0.5439275503158569,1.745927333831787,0.6563494205474854,0.6574010848999023,-0.3701746165752411,1.0062024593353271,0.4947289824485779,-0.12343189120292664,0.6456994468125918,-0.5578619637257922,0.06084994627320927,0.5178412191820627
1681248482454120200,1.6251201171875,-0.5159533023834229,-0.5796242952346802,1.8286360502243042,0.670600175857544,0.6417020559310913,-0.37217432260513306,0.9864127039909363,0.6470246911048889,-0.15611544251441956,0.6373224141008326,-0.55660615931149,0.0640501839022001,0.5290625494476705
1681248482469152000,1.640152099609375,-1.1713804006576538,-0.45985183119773865,1.7346421480178833,0.6849567294120789,0.627838134765625,-0.3696666359901428,0.8864086270332336,0.6608275771141052,-0.1798175573348999,0.6268841091818674,-0.5575201320691654,0.06586335767842526,0.5402310249208944
1681248482484185000,1.65518505859375,-2.028449535369873,-0.45497584342956543,1.5436304807662964,0.6978737711906433,0.6196081638336182,-0.35924622416496277,0.7460806965827942,0.7380577921867371,-0.18410393595695496,0.6136831664480425,-0.5623712322852107,0.06415202119889823,0.5504688710311385
1681248482499218000,1.670218017578125,-2.9392712116241455,-0.568895697593689,1.4498392343521118,0.7090564370155334,0.6167868375778198,-0.3417791426181793,0.46336787939071655,0.9451637864112854,-0.3163934350013733,0.5971198661716077,-0.570759995394769,0.057822592834579294,0.5606580800277426
1681248482514251000,1.6852509765625,-3.880843162536621,-0.5661694407463074,1.209446907043457,0.7187287211418152,0.6193077564239502,-0.31604889035224915,0.3043273091316223,0.95341557264328,-0.3469606935977936,0.5767894512479242,-0.5829280792620175,0.04658769196800691,0.5703843582043416
1681248482529284000,1.7002841796875,-4.428147315979004,-0.6914711594581604,0.9567362666130066,0.7259900569915771,0.6265460848808289,-0.28351104259490967,-0.08869147300720215,0.8384044170379639,-0.37467682361602783,0.5537226417320037,-0.5977524643518064,0.03060191417904571,0.5789186781180553
1681248482544316200,1.715316162109375,-4.575259685516357,-0.7847060561180115,0.7639555931091309,0.7310280799865723,0.6354061365127563,-0.2487102895975113,-0.26829010248184204,0.7216189503669739,-0.37572506070137024,0.5294106591625314,-0.6127917965251065,0.011448418504350596,0.586582804127629
1681248482559349000,1.730348876953125,-4.0887370109558105,-0.7597376108169556,0.5594770312309265,0.7346345782279968,0.643409788608551,-0.21525819599628448,-0.680648922920227,0.5939101576805115,-0.22799435257911682,0.5061711622915461,-0.6263456913382038,-0.007872328043973928,0.5928068782562256
1681248482574382000,1.745382080078125,-3.108945608139038,-0.6438698172569275,0.40710723400115967,0.7371581196784973,0.6489830017089844,-0.18819855153560638,-0.9283050298690796,0.5314520597457886,-0.25729700922966003,0.48679341977778995,-0.6366359940804753,-0.024399568588308294,0.5976046263932682
1681248482589415200,1.760415283203125,-2.182190179824829,-0.34580302238464355,0.06523911654949188,0.7382937073707581,0.6532464623451233,-0.16790278255939484,-1.3417025804519653,0.44585931301116943,-0.2349291890859604,0.4728552403098632,-0.6439648092219941,-0.036850115333254545,0.6002992880837348
1681248482604447200,1.775447265625,-1.496453881263733,-0.06356039643287659,-0.3829770088195801,0.7362817525863647,0.6593315601348877,-0.15222053229808807,-1.4984430074691772,0.38879460096359253,-0.21830862760543823,0.46465841452753365,-0.649404701586927,-0.04651095439053239,0.6001690228773614
1681248482619480000,1.79047998046875,-0.8784201741218567,0.23834273219108582,-0.888884425163269,0.7301256060600281,0.6689447164535522,-0.13938942551612854,-1.6273882389068604,0.24887138605117798,-0.16567949950695038,0.4616859890083216,-0.6536904732266414,-0.05471790776158185,0.5971102602045806
1681248482634513200,1.80551318359375,-0.03030032478272915,0.5366806983947754,-1.3968902826309204,0.7192589044570923,0.6823749542236328,-0.13050273060798645,-1.6472374200820923,0.1628093123435974,-0.14227861166000366,0.46476017588516183,-0.6565251578013886,-0.061019247194113196,0.5909732116674318
1681248482649546200,1.820546142578125,0.5379082560539246,0.6782609820365906,-1.848865270614624,0.7034955620765686,0.6993200182914734,-0.12667150795459747,-1.6599164009094238,0.04186040163040161,-0.19574671983718872,0.4735712934199256,-0.6575287169973154,-0.0657284660746602,0.5822938232236714
1681248482664579000,1.8355791015625,0.885437548160553,0.8882704377174377,-2.1799068450927734,0.6833152770996094,0.7190972566604614,-0.12640982866287231,-1.6360130310058594,0.0011022686958312988,-0.20285958051681519,0.48638916209509975,-0.6572089944889625,-0.06979559745399568,0.5715160053046839
1681248482679611000,1.85061083984375,0.9884668588638306,0.9081099033355713,-2.382537841796875,0.6599922180175781,0.7403331398963928,-0.12773790955543518,-1.5576515197753906,-0.1747509241104126,-0.13823799788951874,0.501358844182102,-0.656291115213038,-0.07357319237187926,0.5590243094861688
1681248482694644000,1.86564404296875,1.0245500802993774,0.9199593663215637,-2.814161777496338,0.6327119469642639,0.7633614540100098,-0.1302114725112915,-1.4168610572814941,-0.17756128311157227,-0.10427027940750122,0.5173988657923997,-0.6547538516646214,-0.07868706619145928,0.5453478005353116
1681248482709677000,1.880677001953125,1.111398696899414,1.3120949268341064,-3.1877622604370117,0.5995399355888367,0.7893046736717224,-0.13247589766979218,-1.2013161182403564,-0.04601860046386719,-0.19398586452007294,0.535550544171382,-0.6531111140859722,-0.08489950641556782,0.5286052172535517
1681248482724710000,1.8957099609375,1.4304962158203125,1.414493441581726,-3.455130100250244,0.5622776746749878,0.8157761693000793,-0.1354726403951645,-1.1191625595092773,0.059101641178131104,-0.13607273995876312,0.5556119143150824,-0.6512065075915077,-0.09051940849568633,0.5089514495599695
1681248482739743000,1.910742919921875,1.705679178237915,1.4636354446411133,-3.792011260986328,0.5201666951179504,0.841903030872345,-0.14361625909805298,-0.7854865789413452,0.20275932550430298,-0.06123296916484833,0.5778487211128104,-0.6472480909704598,-0.09623812851192072,0.48774874044195726
1681248482754775000,1.925775146484375,2.096947193145752,1.624892234802246,-4.136025428771973,0.4725249111652374,0.867363691329956,-0.156206414103508,-0.61678147315979,0.43797993659973145,-0.01644676923751831,0.6023601073098526,-0.6414955917511077,-0.10188327257638945,0.4639671400088305
1681248482769808100,1.94080810546875,2.696566104888916,1.8000792264938354,-4.097720623016357,0.4219440221786499,0.8893201351165771,-0.17627529799938202,-0.3523944616317749,1.1122972965240479,-0.027521073818206787,0.6290145293829613,-0.6329403125852087,-0.10606088908453974,0.43872360273147065
1681248482784841000,1.955841064453125,2.9882564544677734,1.438193440437317,-3.9306800365448,0.37269580364227295,0.9048910737037659,-0.20559649169445038,-0.11883533000946045,1.3355263471603394,-0.0033115744590759277,0.6568638297567119,-0.6209836957315102,-0.10761505919589101,0.41391803054774734
1681248482799874000,1.9708740234375,2.220956563949585,0.9283853769302368,-3.7129344940185547,0.32390323281288147,0.9160671830177307,-0.2364479899406433,0.32662472128868103,1.4523868560791016,0.09391564130783081,0.6819842943862013,-0.6077806120248141,-0.11125974958871238,0.39130735793312804
1681248482814907100,1.9859072265625,1.4280527830123901,0.6580811738967896,-3.6224825382232666,0.2760077118873596,0.9258753061294556,-0.25802096724510193,0.5137720108032227,1.4582189321517944,0.17676794528961182,0.7007536648623732,-0.597228476550052,-0.11961466946619237,0.3714227911605865
1681248482829940000,2.00093994140625,1.4091084003448486,0.8825499415397644,-3.6759934425354004,0.22749178111553192,0.9343598484992981,-0.27426114678382874,0.6769576668739319,1.6161315441131592,0.12649500370025635,0.7176878663798094,-0.5886203120177932,-0.1280451431799882,0.34936330595018883
1681248482844972000,2.015971923828125,1.598567008972168,0.40252792835235596,-3.437030792236328,0.18032409250736237,0.9387088418006897,-0.2937834560871124,0.8477826118469238,1.7282679080963135,0.10872486233711243,0.7340919024249158,-0.5784271351984165,-0.1361261257146782,0.32863453694211703
1681248482860005000,2.031005126953125,1.2534743547439575,0.02674020454287529,-3.4093589782714844,0.13291041553020477,0.9401513338088989,-0.313768208026886,1.2520078420639038,1.5650215148925781,0.15805229544639587,0.7487684437859631,-0.5672123690850139,-0.14623959695331873,0.3102097421095775
1681248482875038200,2.0460380859375,0.36772897839546204,-0.2080821543931961,-3.195420503616333,0.08544903248548508,0.9415057301521301,-0.32598382234573364,1.306457757949829,1.1700665950775146,0.19822204113006592,0.7597763103357918,-0.5583425590961716,-0.15893920124143793,0.29280009922951244
1681248482890071000,2.061071044921875,-0.6725401282310486,-0.11190821975469589,-2.9240312576293945,0.04111180081963539,0.9452848434448242,-0.32364556193351746,1.196879506111145,0.3796815872192383,0.33348751068115234,0.7653438050035519,-0.5551387407081123,-0.1731998825388536,0.27581097477317335
1681248482905104100,2.076104248046875,-1.0209290981292725,0.21366216242313385,-2.644221544265747,0.0016266151797026396,0.9505522847175598,-0.31056034564971924,1.070532202720642,0.19733589887619019,0.37646305561065674,0.7671796709383353,-0.5567576580311686,-0.1863886743314752,0.2582935453872166
1681248482920136000,2.091135986328125,-0.595981776714325,0.40448641777038574,-2.244034767150879,-0.03209938108921051,0.9538570642471313,-0.29854023456573486,0.8812205195426941,-0.04370081424713135,0.32119959592819214,0.768718579098475,-0.5586999785471586,-0.19642863749774628,0.24154046530827086
1681248482935169000,2.1061689453125,0.049491606652736664,0.41852712631225586,-1.741060495376587,-0.05875612050294876,0.9536778330802917,-0.2950359582901001,0.8784430027008057,-0.17837882041931152,0.300483375787735,0.7717607976985654,-0.5579962946944811,-0.2027859865543726,0.227822684149052
1681248482950202000,2.1212021484375,0.5628073811531067,0.2784824073314667,-1.393755555152893,-0.07943616807460785,0.9506569504737854,-0.2999023497104645,0.877226710319519,-0.5097542405128479,0.33173221349716187,0.7762177733303781,-0.5543611834688446,-0.20671841005462085,0.2178010004452691
1681248482965235000,2.13623486328125,0.8383152484893799,0.2247566133737564,-1.132848858833313,-0.09637968987226486,0.9456470012664795,-0.3105846345424652,0.864217221736908,-0.705549955368042,0.3577953577041626,0.7816398790379088,-0.5485052440704413,-0.209403162486065,0.21055043703499288
1681248482980268000,2.15126806640625,0.8001940846443176,0.2537757456302643,-0.8269872665405273,-0.1091662347316742,0.9401544332504272,-0.32278865575790405,0.7514238953590393,-1.0035241842269897,0.35928767919540405,0.7869787258753452,-0.5424096632579888,-0.21070698616890618,0.20508262852007983
1681248482995300000,2.166300048828125,0.6772832870483398,0.2577236294746399,-0.5055684447288513,-0.11729971319437027,0.9353809952735901,-0.33362147212028503,0.6830803751945496,-1.0824146270751953,0.3765444755554199,0.7913997759374043,-0.5373750505093993,-0.2107541707892909,0.201239243237375
1681248483010333200,2.181333251953125,0.5748903155326843,0.22861340641975403,-0.19131755828857422,-0.12086644768714905,0.9315493702888489,-0.3429385721683502,0.5787979960441589,-1.1743779182434082,0.368024080991745,0.7948543239433377,-0.5334354794827589,-0.20970765827751023,0.19918775679271053
1681248483025366000,2.196365966796875,0.442301481962204,0.10745449364185333,0.06548545509576797,-0.12081655859947205,0.9287790656089783,-0.35038936138153076,0.5535405874252319,-1.186255931854248,0.37866392731666565,0.7972630551848323,-0.5305502437990763,-0.20813880037541502,0.19891254051784232
1681248483040399000,2.211399169921875,0.32717931270599365,-0.04059062898159027,0.3445035219192505,-0.11783856898546219,0.9270962476730347,-0.35581836104393005,0.5358988642692566,-1.1788662672042847,0.41476303339004517,0.79854352724091,-0.5286025696236618,-0.20656753076492296,0.20059282161911637
1681248483055432200,2.22643212890625,0.24293136596679688,-0.10113626718521118,0.648120105266571,-0.1112983226776123,0.9264261722564697,-0.359648734331131,0.5188605785369873,-1.1628000736236572,0.43240267038345337,0.7987912215985422,-0.5275464052374265,-0.20462262090058575,0.20434523062186546
1681248483070464300,2.24146435546875,0.1395234912633896,-0.09649437665939331,0.8833784461021423,-0.1010989099740982,0.9265798330307007,-0.36225536465644836,0.465234637260437,-1.1130117177963257,0.45560866594314575,0.7982287427617044,-0.5273796954017398,-0.20184889557568006,0.20966324088193145
1681248483085497000,2.2564970703125,-0.09947752952575684,-0.12361441552639008,1.1464521884918213,-0.08767460286617279,0.9278242588043213,-0.3625674545764923,0.435147762298584,-1.0934584140777588,0.4565158784389496,0.7965929315648352,-0.5285220694007936,-0.1984456884966935,0.21615583696259782
1681248483100530200,2.2715302734375,-0.5664774775505066,-0.22648167610168457,1.6072627305984497,-0.06962485611438751,0.93113774061203,-0.3579593896865845,0.4119863212108612,-1.0747687816619873,0.4351078271865845,0.7928408799778615,-0.5321337006279796,-0.1945611315529179,0.22446161453632452
1681248483115563300,2.286563232421875,-1.2239084243774414,-0.23952290415763855,2.328540086746216,-0.04346602037549019,0.9375441670417786,-0.34513983130455017,0.3862699866294861,-1.0326064825057983,0.39167919754981995,0.7854739528487392,-0.539845335502683,-0.189728994076183,0.235797486078367
1681248483130596000,2.30159619140625,-1.9077650308609009,-0.10094904899597168,2.8317131996154785,-0.007108515128493309,0.9463083744049072,-0.3231872618198395,0.37689003348350525,-0.7443430423736572,0.33505862951278687,0.7740904421054388,-0.5522671137810543,-0.18277690794440787,0.2497552299295858
1681248483145628000,2.3166279296875,-2.943636417388916,-0.35319754481315613,2.6460297107696533,0.03149224817752838,0.9569557905197144,-0.28851988911628723,0.3988361358642578,-0.41680997610092163,0.291907399892807,0.7583023681355622,-0.5696058901628465,-0.17688749388918093,0.26312988145939337
1681248483160661000,2.331660888671875,-2.428719997406006,-0.5292561650276184,2.9556326866149902,0.06919722259044647,0.9664950966835022,-0.2471821904182434,0.6644605994224548,1.03196382522583,0.3024648427963257,0.7396217102446334,-0.5885155192708786,-0.1733735499032614,0.27667826300759923
1681248483175694000,2.346694091796875,-1.8234589099884033,-0.9080058932304382,3.291649580001831,0.1132902130484581,0.9689574837684631,-0.21974234282970428,0.9088197946548462,1.4266571998596191,-0.003280043601989746,0.7231314734273554,-0.6018404423387905,-0.1670835524771008,0.29487630163730133
1681248483190727000,2.361726806640625,-3.4367387294769287,-1.4266719818115234,2.875635862350464,0.1549982726573944,0.9704694747924805,-0.18483659625053406,1.2378392219543457,1.1546831130981445,0.18587422370910645,0.70281475617416,-0.6167082782973725,-0.16508361537706145,0.3137988296667353
1681248483205760000,2.376760009765625,-4.078482627868652,-1.345998764038086,2.3705782890319824,0.1898825764656067,0.9729663729667664,-0.13145758211612701,1.0604684352874756,1.3315532207489014,0.3665192127227783,0.6762483436298946,-0.6367794953579745,-0.16965577766265244,0.3292674007526759
1681248483220791800,2.391791748046875,-3.1811180114746094,-1.8753371238708496,2.07851505279541,0.2197161763906479,0.9720893502235413,-0.08226126432418823,0.6128185987472534,2.117403268814087,0.02581901103258133,0.650955362802251,-0.6542466489379881,-0.1755867064495601,0.3426187893648705
1681248483235825000,2.406824951171875,-2.87353515625,-1.6445257663726807,2.0756723880767822,0.24814215302467346,0.9675861597061157,-0.04693074896931648,0.4489709138870239,2.0787699222564697,-0.09189373254776001,0.6281713024008616,-0.6656483914764233,-0.1828847867994971,0.35897938561243187
1681248483250857700,2.421857666015625,-3.705209255218506,-1.8059918880462646,1.9016666412353516,0.27632346749305725,0.9610468745231628,-0.005861647892743349,0.20058998465538025,1.2286350727081299,-0.06878429651260376,0.604110015471869,-0.6792394122990802,-0.18895236667714704,0.37145924125809426
1681248483265890800,2.436890869140625,-4.204792022705078,-2.0933237075805664,1.6144819259643555,0.30228859186172485,0.952223539352417,0.043495260179042816,0.10228294134140015,0.9320537447929382,-0.0190201997756958,0.5757237063189324,-0.6942316837094118,-0.1994743097815674,0.3831377856337366
1681248483280924000,2.451923828125,-3.646775722503662,-2.5422561168670654,1.3608691692352295,0.3262603282928467,0.9411765933036804,0.08798374235630035,-0.2134062945842743,0.7960214018821716,-0.04214631766080856,0.5466328005585369,-0.7059472038438797,-0.21361276865179077,0.3964856189287797
1681248483295956700,2.466956787109375,-2.862229108810425,-2.2167420387268066,1.0456262826919556,0.34683215618133545,0.9299923777580261,0.1217445358633995,-0.38944992423057556,0.7878420948982239,-0.13407361507415771,0.5217492277868787,-0.713821699503574,-0.22656312287094707,0.4085406925760456
1681248483310988800,2.48198876953125,-2.235178232192993,-2.3604307174682617,0.8409311175346375,0.36440470814704895,0.9199206829071045,0.1447584480047226,-0.6287327408790588,0.5278331637382507,-0.10742022097110748,0.5013059565335235,-0.7181293519661931,-0.23805348170638138,0.41989647510928274
1681248483326022000,2.49702197265625,-2.0209946632385254,-2.4049232006073,0.6063758730888367,0.3800322413444519,0.9109851717948914,0.16025474667549133,-0.6717802286148071,0.29719048738479614,-0.10336995124816895,0.48314584845308395,-0.719543034365043,-0.2497702835509699,0.43179014831221896
1681248483341055000,2.512054931640625,-1.9048163890838623,-1.939038872718811,0.27537745237350464,0.3916676938533783,0.9034394025802612,0.1743381768465042,-0.9759114384651184,-0.01850593090057373,-0.05414462089538574,0.46678339427772186,-0.7201997920333637,-0.26168941805191065,0.44152487394048573
1681248483356087800,2.527087890625,-1.586427927017212,-1.2331275939941406,-0.0732164978981018,0.397352010011673,0.8980447053909302,0.18875199556350708,-1.2161691188812256,-0.1137734055519104,-0.09681782126426697,0.4537152555937327,-0.72117764822282,-0.2725413750145628,0.44695255077291907
1681248483371121000,2.542120849609375,-1.111377239227295,-0.49011439085006714,-0.4434853494167328,0.3964047431945801,0.8956303000450134,0.20176629722118378,-1.6120877265930176,-0.2862248420715332,-0.1731255054473877,0.44543773741181364,-0.722264677177093,-0.281454944583058,0.44799785478211307
1681248483386153000,2.557153076171875,-0.4759216010570526,0.4032083749771118,-0.7331007122993469,0.38839513063430786,0.8966870903968811,0.21237094700336456,-1.7524240016937256,-0.3776746988296509,-0.23586952686309814,0.442926509789806,-0.7234752863775302,-0.2876959946673459,0.44455665709521697
1681248483401186000,2.57218603515625,0.16915935277938843,1.0385442972183228,-0.9844852685928345,0.37431800365448,0.9011330008506775,0.21873609721660614,-2.003269910812378,-0.5290778875350952,-0.3659529387950897,0.44674112589192516,-0.7247059672856194,-0.29011947155012535,0.4370976787373626
1681248483416219000,2.587218994140625,0.8320047855377197,1.3944576978683472,-1.0365270376205444,0.3562268912792206,0.9084412455558777,0.2187173217535019,-2.066828727722168,-0.5821929574012756,-0.4022500216960907,0.45536164212010294,-0.7246764613261186,-0.2901769880375134,0.42812059999926516
1681248483431252000,2.602251953125,1.589311122894287,1.9543417692184448,-1.0059548616409302,0.3369722366333008,0.9176636338233948,0.210578054189682,-2.073483467102051,-0.5989381074905396,-0.4125586748123169,0.4688866912089628,-0.7235521711100144,-0.28593929439037985,0.4181581545698289
1681248483446285000,2.61728515625,1.9134199619293213,3.28204607963562,-1.6681396961212158,0.31286320090293884,0.9291357398033142,0.19703638553619385,-1.9044922590255737,-0.5655951499938965,-0.39036524295806885,0.4876182796959693,-0.7218901935562706,-0.2781955088372727,0.4046111423332544
1681248483461318100,2.632318115234375,1.9129408597946167,3.8209824562072754,-1.8152806758880615,0.2764188051223755,0.9427247047424316,0.1867160201072693,-1.3039151430130005,-0.3678956627845764,-0.313531756401062,0.5108538826986745,-0.7218815318565879,-0.26878441936477115,0.3816678377919855
1681248483476350000,2.647349853515625,1.8071225881576538,0.6381266117095947,-1.5243494510650635,0.2491123378276825,0.9537028670310974,0.16850557923316956,-0.9480258822441101,-0.23470860719680786,-0.21304593980312347,0.5298240106696244,-0.7177868017044616,-0.26274493341735455,0.367469481395338
1681248483491382800,2.6623828125,1.1710028648376465,3.4540297985076904,-2.9192538261413574,0.21007640659809113,0.9657378196716309,0.15237624943256378,-0.7267847657203674,0.30464792251586914,-0.03439521789550781,0.5477429819048316,-0.7112693122150139,-0.2651114646993739,0.35183740637477745
1681248483506415900,2.677415771484375,1.249965786933899,2.822272300720215,-2.22729754447937,0.1613708883523941,0.9757261872291565,0.14804549515247345,-0.9517608880996704,0.5120818018913269,0.12287423014640808,0.5691850556783135,-0.7123714881336616,-0.25797211814003723,0.3193829664596377
1681248483521449000,2.692448974609375,3.6878507137298584,3.6605257987976074,-1.4991333484649658,0.12810111045837402,0.9844741821289062,0.12000294029712677,-0.024860113859176636,1.4204483032226562,0.5860211849212646,0.5932952135944715,-0.7069166708803063,-0.24550008591278888,0.2966468131753593
1681248483536481800,2.707481689453125,4.84843635559082,3.781181812286377,-2.4606897830963135,0.09613245725631714,0.9936113953590393,0.0591188445687294,0.32394200563430786,1.908564567565918,0.3759092092514038,0.627713414972642,-0.6911367586950666,-0.22779245524794484,0.2764353147914245
1681248483551513900,2.722513916015625,3.2251439094543457,-0.2379484474658966,-3.0427064895629883,0.05304116755723953,0.99859219789505,-0.00035967747680842876,0.6224959492683411,2.2358741760253906,0.7735530734062195,0.6595291641014183,-0.6719028822469088,-0.21992425535229282,0.2553450045133342
1681248483566547000,2.737546875,1.5910569429397583,1.105111837387085,-3.0459444522857666,0.011265386827290058,0.999317467212677,-0.03517937660217285,0.7506517767906189,1.8195606470108032,0.9332201480865479,0.6779519404652072,-0.6570857857730209,-0.2250523982154695,0.24077130737218
1681248483581580000,2.752580078125,1.1710394620895386,2.1251919269561768,-3.0336263179779053,-0.03409089148044586,0.9978845119476318,-0.05535642057657242,0.37025728821754456,1.3265631198883057,0.5948004126548767,0.692472389905219,-0.6476732111673558,-0.229872140077669,0.21945429008139036
1681248483596612900,2.76761279296875,1.21259605884552,1.4884424209594727,-2.831528663635254,-0.07599598169326782,0.9942896962165833,-0.07491791993379593,0.4649882912635803,1.3233067989349365,0.4839450716972351,0.7062405228962634,-0.6393610609884476,-0.23185873836428847,0.19668079941291025
1681248483611646000,2.78264599609375,0.9138373136520386,0.6317747235298157,-2.752135992050171,-0.1164126992225647,0.9888746738433838,-0.09260035306215286,0.8483157753944397,1.2031419277191162,0.634501039981842,0.7170966314607861,-0.6299381505839006,-0.23849056283388526,0.17908810361066696
1681248483626679000,2.797678955078125,0.06761015206575394,0.8286385536193848,-2.7169225215911865,-0.1558481603860855,0.9825142621994019,-0.10186661779880524,0.8648782968521118,0.9639120101928711,0.630705714225769,0.7243633663629272,-0.622994105561244,-0.246870486326259,0.16195956996863642
1681248483641711000,2.812711181640625,-1.167918086051941,1.005649447441101,-2.7266132831573486,-0.19444406032562256,0.9761355519294739,-0.09670018404722214,0.6570752859115601,0.3061673045158386,0.6079916954040527,0.7268008069958196,-0.6217575137527402,-0.255083321997903,0.14181209056454586
1681248483656744000,2.827743896484375,-2.083451509475708,1.1934078931808472,-2.5121119022369385,-0.23179219663143158,0.9698487520217896,-0.07526981830596924,0.6425740718841553,0.0417935848236084,0.5997296571731567,0.7235299110477699,-0.6269614142320248,-0.2632194474128674,0.11890850811930082
1681248483671777000,2.842777099609375,-2.3384387493133545,1.1889487504959106,-2.111743450164795,-0.26417243480682373,0.9633268117904663,-0.04705403372645378,0.8219270706176758,-0.38112789392471313,0.3884847164154053,0.717130376173344,-0.6355189185258884,-0.26942287900093637,0.09618142564183697
1681248483686810000,2.85781005859375,-2.002141237258911,1.0593701601028442,-1.8845630884170532,-0.29219740629196167,0.9561545252799988,-0.019727809354662895,0.936805009841919,-0.5069053173065186,0.25935184955596924,0.7100321908363149,-0.6440983135713635,-0.27436008731682204,0.07561857373898072
1681248483701843000,2.872843017578125,-1.099242091178894,0.840885579586029,-1.734491229057312,-0.3180423974990845,0.9480751752853394,-0.001583645585924387,1.0087772607803345,-0.5993355512619019,0.06536543369293213,0.7052845504570837,-0.6491840999211149,-0.2788694705547882,0.0580130118554035
1681248483716874800,2.887874755859375,-0.10758674889802933,0.41588687896728516,-1.4224045276641846,-0.3406853675842285,0.9401702880859375,0.0036539125721901655,1.0685601234436035,-0.657196044921875,-0.007666945457458496,0.704364864883238,-0.6491954463224927,-0.28349996255270815,0.04520168098394641
1681248483731907800,2.902907958984375,0.5179189443588257,-0.005576988682150841,-1.0027116537094116,-0.35778123140335083,0.9338051676750183,-0.000698417832609266,1.1250542402267456,-0.8373848795890808,0.05758321285247803,0.7063135739751437,-0.6453894900904569,-0.28831093835250876,0.038344761938472256
1681248483746941000,2.91794091796875,0.8598394989967346,-0.1968502700328827,-0.5557248592376709,-0.3687622845172882,0.9294714331626892,-0.009857278317213058,1.0521118640899658,-0.8993963599205017,0.08755505084991455,0.7096562870763123,-0.6399170445342646,-0.29253638535159365,0.03628461549635918
1681248483761973800,2.932973876953125,1.2437628507614136,-0.209679514169693,-0.04208174720406532,-0.37299680709838867,0.9275428056716919,-0.023183299228549004,0.763789713382721,-0.8947060704231262,0.13765472173690796,0.7142480826135867,-0.6336458500587893,-0.29479024245182767,0.037962782072934145
1681248483777006800,2.9480068359375,1.6484590768814087,-0.20498037338256836,0.39434218406677246,-0.37052541971206665,0.9278590679168701,-0.04229051247239113,0.6503258347511292,-0.8571498394012451,0.14621812105178833,0.7206119503335692,-0.6261504418423494,-0.2946020507881309,0.04317020638540058
1681248483792040000,2.9630400390625,1.9494394063949585,-0.15812711417675018,0.7348632216453552,-0.36269712448120117,0.9295291900634766,-0.06653004139661789,0.5795245170593262,-0.7810917496681213,0.17556941509246826,0.7284577519487834,-0.6174958143508411,-0.29229077438238915,0.051130580466617885
1681248483807072000,2.978072021484375,2.025132179260254,-0.10201830416917801,0.9818552136421204,-0.3507578670978546,0.9317427277565002,-0.09393827617168427,0.5964701771736145,-0.7819319367408752,0.22372955083847046,0.7370632606141001,-0.6082589738254028,-0.2881872370019749,0.06088407519002439
1681248483822104800,2.993104736328125,1.7683916091918945,-0.014634398743510246,1.1776652336120605,-0.3356986939907074,0.9342263340950012,-0.12053044885396957,0.6526085138320923,-0.8535988926887512,0.25486886501312256,0.7451060957094301,-0.5998641145124489,-0.2826620211705501,0.07128923509833857
1681248483837138000,3.008137939453125,1.2762219905853271,0.024128442630171776,1.4786871671676636,-0.3171525299549103,0.937644898891449,-0.14225466549396515,0.6454454064369202,-0.904136598110199,0.27996528148651123,0.7512838729526894,-0.5939809274915636,-0.2757885527613434,0.08185316885991215
1681248483852171000,3.0231708984375,0.635787844657898,-0.07575740665197372,1.9749817848205566,-0.29298871755599976,0.9433533549308777,-0.15569812059402466,0.5891313552856445,-0.9827211499214172,0.26595818996429443,0.7543811553750347,-0.5920481481798304,-0.26763767724720944,0.09358438874210251
1681248483867203800,3.038203857421875,0.0965491235256195,-0.25512343645095825,2.647977113723755,-0.26056790351867676,0.9520938992500305,-0.16006767749786377,0.5339596271514893,-0.942313015460968,0.24615782499313354,0.7538948251267813,-0.5944671979240729,-0.25802114065857806,0.1080578474522255
1681248483882237000,3.05323681640625,-0.2860170006752014,-0.5401335954666138,3.181475877761841,-0.21895211935043335,0.9629541635513306,-0.1574145406484604,0.49493783712387085,-0.6184412240982056,0.20547974109649658,0.7501749384669834,-0.6002484319128509,-0.24697075231653318,0.12627306755168527
1681248483897269000,3.06826904296875,-0.5899240374565125,-0.6969980597496033,3.018104314804077,-0.17423716187477112,0.9735495448112488,-0.14779320359230042,0.48872077465057373,-0.2694479823112488,0.2179531455039978,0.7432757513549778,-0.6082144687197322,-0.23702015711223248,0.14641670416335775
1681248483912302000,3.083302001953125,0.5280566215515137,-0.3542231321334839,3.677260637283325,-0.12836390733718872,0.9808719158172607,-0.14633238315582275,0.5141060948371887,1.0123685598373413,0.37048399448394775,0.7385519330964156,-0.6133106754913222,-0.22513068642807677,0.16645519619275106
1681248483927335000,3.0983349609375,0.41029179096221924,-0.9249640703201294,3.704016923904419,-0.07286655902862549,0.9852542877197266,-0.15480414032936096,0.647070050239563,1.325094223022461,0.24371714890003204,0.7353457687545767,-0.6152986237026755,-0.2097749527426463,0.19149050314481267
1681248483942368000,3.113367919921875,-1.1674093008041382,-1.1250962018966675,3.3194570541381836,-0.024254797026515007,0.9886022210121155,-0.14858481287956238,0.9378595352172852,0.987334668636322,0.49479150772094727,0.7266895636066566,-0.6209316516394799,-0.2003783440850864,0.2149760812751439
1681248483957400800,3.12840087890625,-1.8650916814804077,-1.0727301836013794,3.145646810531616,0.022261550650000572,0.9920117855072021,-0.12416448444128036,0.7656412720680237,0.9900895357131958,0.5724677443504333,0.7118450735451199,-0.6328225688023559,-0.19352868954017957,0.235284307152087
1681248483972434000,3.143433837890625,-1.2246224880218506,-1.4356356859207153,2.6902403831481934,0.06357554346323013,0.9928402900695801,-0.10112539678812027,0.37409234046936035,1.53200101852417,0.13017815351486206,0.6970090111449969,-0.6431555710595417,-0.18917772930267038,0.2544428742291511
1681248483987466000,3.158466064453125,-1.0878827571868896,-2.0101685523986816,2.6462559700012207,0.10054410248994827,0.991113543510437,-0.08709225803613663,0.21560275554656982,1.6353819370269775,-0.11075318604707718,0.6841705115155803,-0.6491715754832794,-0.18716339989561193,0.2746942991603465
1681248484002498800,3.173498779296875,-1.5051153898239136,-2.207651376724243,2.5700299739837646,0.13678297400474548,0.9880073666572571,-0.0716351792216301,0.08630050718784332,1.2888479232788086,-0.09151177853345871,0.6694323783319398,-0.6549862649688577,-0.1875510649995792,0.2961042858207595
1681248484017532000,3.188531982421875,-1.9793024063110352,-2.148566484451294,2.488483428955078,0.17258985340595245,0.983698308467865,-0.05050043389201164,-0.02549511194229126,0.9995322227478027,-0.13979190587997437,0.6515374310422363,-0.6622539637749679,-0.19018272725476723,0.31741009642283585
1681248484032565000,3.20356494140625,-2.259690046310425,-2.3863697052001953,2.280341386795044,0.20641666650772095,0.9781556725502014,-0.024563876911997795,-0.23862798511981964,0.706170380115509,-0.004793999716639519,0.6317327918950351,-0.670901179158055,-0.1939321254759076,0.3364454021243127
1681248484047597800,3.218597900390625,-2.199773073196411,-2.593898296356201,2.1209633350372314,0.23826377093791962,0.9712004065513611,-0.00012116081779822707,-0.3588844835758209,0.6121887564659119,0.02021700143814087,0.6109126760577609,-0.6780953384958498,-0.20031508056398206,0.35615479341210665
1681248484062631000,3.233630859375,-2.0329909324645996,-2.445481538772583,1.9256837368011475,0.26808875799179077,0.9631654620170593,0.020991168916225433,-0.5716318488121033,0.4119412899017334,0.03464245796203613,0.5906327400909784,-0.6837751868326731,-0.2072367695285816,0.37504315466874155
1681248484077663000,3.2486630859375,-1.8310338258743286,-2.2910823822021484,1.6990429162979126,0.29534122347831726,0.954605758190155,0.03874941170215607,-0.7314984202384949,0.29289180040359497,0.02288079261779785,0.5717094003925913,-0.6882410337534204,-0.21377321178298622,0.3921398880891181
1681248484092696000,3.263696044921875,-1.7415745258331299,-2.015766143798828,1.4332053661346436,0.319266140460968,0.946118175983429,0.054124049842357635,-1.0253818035125732,0.051104605197906494,0.009093157947063446,0.5542301443109143,-0.6917977286820017,-0.22017703672457925,0.4071447600010146
1681248484107729000,3.27872900390625,-1.6890770196914673,-1.4416288137435913,1.0708506107330322,0.33877140283584595,0.9382767081260681,0.0697934553027153,-1.2042040824890137,-0.049589455127716064,-0.010772459208965302,0.5384224642469757,-0.6955338404107901,-0.22611812190419525,0.41857457378625607
1681248484122762000,3.293761962890625,-1.6041984558105469,-0.7353118658065796,0.5810713171958923,0.3517216145992279,0.9320237636566162,0.08731359988451004,-1.5737369060516357,-0.254014790058136,-0.11528301239013672,0.5252551736228656,-0.7000867077653687,-0.2313771843184996,0.42479433409593126
1681248484137795000,3.308795166015625,-1.490727186203003,-0.008333893492817879,0.05784378573298454,0.35673269629478455,0.9280651211738586,0.10694438964128494,-1.7245151996612549,-0.34890252351760864,-0.19707798957824707,0.5153976119557602,-0.7054950878947179,-0.23611199751978765,0.42531537262551505
1681248484152829000,3.323828857421875,-1.2151765823364258,0.7207900881767273,-0.43686074018478394,0.3533688485622406,0.9266673922538757,0.128132626414299,-1.8264676332473755,-0.4546825885772705,-0.39554286003112793,0.5093489085122292,-0.7116368130979251,-0.24008198975347214,0.42011588517446646
1681248484167860700,3.33886083984375,-0.6108207106590271,0.8125229477882385,-0.7931613922119141,0.3430335819721222,0.9280192255973816,0.14528605341911316,-1.7365577220916748,-0.46766167879104614,-0.487265944480896,0.5076862804589746,-0.71651743248655,-0.24340458845737833,0.41183918337376707
1681248484182893800,3.353893798828125,0.2228677123785019,1.1442123651504517,-1.0913187265396118,0.32766664028167725,0.9323632121086121,0.15275239944458008,-1.4596704244613647,-0.49133849143981934,-0.5546536445617676,0.5112891516970306,-0.7184143455737128,-0.2454730630742336,0.4027495158422521
1681248484197926700,3.3689267578125,0.8701712489128113,1.6125367879867554,-1.3794375658035278,0.30724164843559265,0.9395370483398438,0.15123698115348816,-1.3346006870269775,-0.500373899936676,-0.5333476066589355,0.5205653192108165,-0.7180131533469093,-0.24510324072677778,0.3916544934241642
1681248484212959700,3.383959716796875,1.1027989387512207,2.684828758239746,-1.7422226667404175,0.2798456847667694,0.9488346576690674,0.1462835669517517,-1.0371546745300293,-0.4501165747642517,-0.40354669094085693,0.5344159933106463,-0.7171591192369802,-0.2425377950822227,0.3758425692015669
1681248484227992800,3.398992919921875,1.0947538614273071,3.789189338684082,-2.0003457069396973,0.24500760436058044,0.9586516618728638,0.14477002620697021,-0.8429690003395081,-0.41412651538848877,-0.2961524724960327,0.5519410589656678,-0.7191495992012037,-0.234965664225825,0.3506794661422743
1681248484243025700,3.414025634765625,1.4095836877822876,-1.1727946996688843,-1.9591288566589355,0.21199968457221985,0.968123197555542,0.13339409232139587,-0.51279616355896,-0.19885116815567017,-0.021302908658981323,0.5667328498675758,-0.7150339996345363,-0.23542179679762204,0.3348387715633852
1681248484258057700,3.4290576171875,1.7861512899398804,1.5939353704452515,-2.464895486831665,0.18125467002391815,0.9775563478469849,0.1073797196149826,-0.33852696418762207,0.03159886598587036,0.08541512489318848,0.5798382107103432,-0.7023888890026377,-0.24564141894025757,0.3318099386209767
1681248484273090800,3.4440908203125,2.4780187606811523,6.111072063446045,-2.5756421089172363,0.1369393914937973,0.986740231513977,0.08712726831436157,-0.951041579246521,0.7526242733001709,0.2508854866027832,0.6050409203666435,-0.6990926445739811,-0.23416470609102577,0.30060239975324377
1681248484288124000,3.4591240234375,3.745368242263794,4.664523124694824,-1.7972617149353027,0.09614923596382141,0.9940361380577087,0.051452696323394775,-0.690509557723999,1.150723934173584,0.25701904296875,0.6358887038187839,-0.6931867604282257,-0.21264633230669003,0.26442227516432126
1681248484303156700,3.47415673828125,3.8360095024108887,1.795654296875,-1.4730809926986694,0.07082024216651917,0.9974849820137024,-0.00284186122007668,0.6081958413124084,2.0657472610473633,0.37974923849105835,0.6638916126986775,-0.6777397171721665,-0.1981109413967469,0.24631035776433047
1681248484318189800,3.48918994140625,2.8341007232666016,-2.899074077606201,-1.7189314365386963,0.05213001370429993,0.9971495866775513,-0.05454511567950249,0.6986329555511475,1.9964569807052612,0.5274608135223389,0.6825437226440534,-0.657644874839235,-0.20057582453477607,0.2478036153773831
1681248484333223000,3.504222900390625,1.1777013540267944,2.7168142795562744,-3.006643295288086,0.01688382774591446,0.9962963461875916,-0.08431199938058853,0.12340548634529114,1.6207995414733887,0.8479838967323303,0.6965706891539609,-0.6437444849564657,-0.20841553969620993,0.2386320552864759
1681248484348255000,3.5192548828125,0.5248270630836487,2.277672290802002,-2.1047348976135254,-0.017801012843847275,0.9952986836433411,-0.09520357847213745,-0.14534594118595123,1.5231492519378662,0.6581003069877625,0.7085348289470575,-0.6404319042902655,-0.20553633890868694,0.21349521664109972
1681248484363287800,3.534287841796875,0.31491363048553467,0.37610697746276855,-2.1927168369293213,-0.0473489947617054,0.9936484694480896,-0.10208281129598618,1.0801706314086914,1.3155250549316406,0.6681533455848694,0.7155762893676235,-0.636686735416148,-0.20877882290115427,0.1974639501807569
1681248484378321000,3.54932080078125,-0.21010848879814148,0.4937758147716522,-2.2910921573638916,-0.08087459951639175,0.9913308620452881,-0.10354901850223541,1.1734802722930908,1.0782034397125244,0.5942716598510742,0.7197230478311665,-0.6330674315384404,-0.2178327743695815,0.18377499980873693
1681248484393354000,3.56435400390625,-0.7420770525932312,1.0717403888702393,-2.072709083557129,-0.11230473965406418,0.9888689517974854,-0.09759945422410965,0.5291596055030823,0.4675976037979126,0.44987910985946655,0.7216863333300059,-0.6330831585504426,-0.2245127812319403,0.1672377997149021
1681248484408387000,3.579386962890625,-1.142854928970337,1.283905267715454,-1.783037543296814,-0.13930995762348175,0.9865458011627197,-0.08555939048528671,0.36541467905044556,0.17252719402313232,0.3927951455116272,0.7214299188526349,-0.6364564948103997,-0.22834936738589248,0.14939447831278574
1681248484423419600,3.594419677734375,-1.1931934356689453,1.2218472957611084,-1.5572608709335327,-0.1624605804681778,0.9841779470443726,-0.07071488350629807,0.4438173770904541,-0.08172726631164551,0.33667558431625366,0.7196330952136373,-0.6414070224203665,-0.23073705920043688,0.13223386963048267
1681248484438451700,3.60945166015625,-0.9026879072189331,1.0391243696212769,-1.4224950075149536,-0.183358296751976,0.9813390970230103,-0.0579085648059845,0.5444270372390747,-0.13964903354644775,0.2800155282020569,0.7178422377375301,-0.6456313138381954,-0.23282165713733532,0.11686247103451519
1681248484453484800,3.62448486328125,-0.5160225033760071,0.8611472249031067,-1.246262788772583,-0.20232287049293518,0.9780293107032776,-0.05023941770195961,0.6079930663108826,-0.29126179218292236,0.1956099271774292,0.7171796747055728,-0.6478742878976295,-0.234817372966494,0.10379299570818633
1681248484468518000,3.639517822265625,-0.1922147125005722,0.7609627842903137,-1.0498460531234741,-0.21851374208927155,0.9746696352958679,-0.04765131324529648,0.6101763844490051,-0.38319331407546997,0.18801695108413696,0.7177458007067149,-0.6483290900711568,-0.23631278806033545,0.09309413949168552
1681248484483550700,3.65455078125,0.11339905112981796,0.7427204251289368,-0.8996486663818359,-0.23223015666007996,0.9713937640190125,-0.0496332086622715,0.5625829696655273,-0.5950815081596375,0.1759454607963562,0.7195432296738505,-0.6472996430221728,-0.23703706003032193,0.08410838959575387
1681248484498583800,3.669583740234375,0.3603372871875763,0.726045548915863,-0.7320423722267151,-0.24356739223003387,0.9682774543762207,-0.05580059066414833,0.5457677245140076,-0.6774755120277405,0.17072981595993042,0.7225242530234031,-0.6449705024654684,-0.2368813101934051,0.07654426922896095
1681248484513617000,3.684616943359375,0.6220318078994751,0.6412710547447205,-0.5849740505218506,-0.2524549067020416,0.9653874039649963,-0.06552426517009735,0.5371075868606567,-0.7565709948539734,0.18030095100402832,0.7264922069084693,-0.6415124104029799,-0.236007825402642,0.07050588009950463
1681248484528649700,3.699649658203125,0.8335033059120178,0.43903666734695435,-0.4321427047252655,-0.25927621126174927,0.9626288414001465,-0.0782393291592598,0.5501850843429565,-0.7950721979141235,0.18267053365707397,0.7312409413331771,-0.6368743909523046,-0.23509858943846965,0.06637982040695582
1681248484543681800,3.714681884765625,0.9876059293746948,0.2059251368045807,-0.18279199302196503,-0.2634153366088867,0.9602163434028625,-0.09271926432847977,0.5654172897338867,-0.8608511686325073,0.18631672859191895,0.7363213063045293,-0.6314299930861094,-0.23438543011805002,0.06473451816503813
1681248484558715000,3.72971484375,1.091973900794983,0.02348741888999939,0.14524927735328674,-0.2636137902736664,0.9585488438606262,-0.10812966525554657,0.5472594499588013,-0.8821938633918762,0.19766825437545776,0.7414316213012182,-0.6256702107603253,-0.2333922747794862,0.06590935203157462
1681248484573748000,3.744748046875,1.1267942190170288,-0.06418676674365997,0.5129425525665283,-0.2589244544506073,0.9578964710235596,-0.12406603991985321,0.4718914031982422,-0.8951218724250793,0.2041899561882019,0.7464288899899165,-0.6199989666457901,-0.23144818061349975,0.06983461111464137
1681248484588780800,3.75978076171875,1.0625005960464478,-0.07797875255346298,0.8289743065834045,-0.24933314323425293,0.9582947492599487,-0.13965743780136108,0.43530726432800293,-0.8871124982833862,0.21953719854354858,0.7510461257672274,-0.6149242824430535,-0.2281214800753808,0.07588443962820862
1681248484603814000,3.77481396484375,0.8232815265655518,-0.0747549906373024,1.0681275129318237,-0.23574067652225494,0.9596748352050781,-0.15313485264778137,0.418342649936676,-0.8787575960159302,0.22836072742938995,0.7547384937644099,-0.6110899248574274,-0.22361055310930034,0.08328914501199201
1681248484618847000,3.789846923828125,0.34758415818214417,-0.060176849365234375,1.2143057584762573,-0.21929053962230682,0.9621800780296326,-0.16162043809890747,0.4252384305000305,-0.8855199217796326,0.22700434923171997,0.7566405216742402,-0.6095275882671569,-0.2183252212988863,0.09113359855201845
1681248484633879000,3.804879150390625,-0.2518393397331238,-0.08620978146791458,1.2517975568771362,-0.20150446891784668,0.9659891724586487,-0.16205191612243652,0.4661071300506592,-0.8650675415992737,0.1847570538520813,0.7558541140454168,-0.6112379916846343,-0.21298394122440228,0.09854190235713867
1681248484648911600,3.81991162109375,-0.7766600251197815,-0.34436410665512085,1.315424919128418,-0.18341316282749176,0.9708914160728455,-0.1540430784225464,0.47471871972084045,-0.82980877161026,0.12816424667835236,0.7522084448097565,-0.6160072383336046,-0.20859900375754503,0.10584834920893293
1681248484663944700,3.83494482421875,-1.1662907600402832,-0.8065119981765747,1.6117216348648071,-0.16353613138198853,0.9768519997596741,-0.13789793848991394,0.4794083535671234,-0.6045376658439636,0.015156283974647522,0.7454560441605469,-0.623412812929691,-0.20593079762847638,0.11508311808077212
1681248484678977800,3.849977783203125,-1.2489714622497559,-1.2322602272033691,1.949381709098816,-0.13908298313617706,0.983270525932312,-0.11762309819459915,0.44229036569595337,-0.39878255128860474,0.0025260895490646362,0.7364830310515011,-0.6320092976229917,-0.20433476721636812,0.1280797597033377
1681248484694010600,3.8650107421875,-0.3481535017490387,-0.8647782206535339,2.072281837463379,-0.1112578883767128,0.9886734485626221,-0.10073002427816391,0.3632873296737671,0.5464065074920654,0.2043219804763794,0.72797338653608,-0.639420571497177,-0.2019314706476226,0.1428977993357099
1681248484709043700,3.880043701171875,1.4864658117294312,-0.572175920009613,2.7696807384490967,-0.07590053230524063,0.9910016655921936,-0.1102486401796341,0.3458437919616699,1.2105973958969116,0.22208034992218018,0.727608806661709,-0.6384979725400723,-0.1928626922152282,0.16034244700827896
1681248484724076800,3.895076904296875,0.5162860155105591,-1.2134404182434082,2.3617398738861084,-0.03846235200762749,0.9911013841629028,-0.1274312138557434,0.8146616816520691,1.4140347242355347,0.07564288377761841,0.7287646188396472,-0.6344805529737624,-0.18362685628526954,0.18060377067310548
1681248484739108900,3.91010888671875,-1.1751269102096558,-1.3013558387756348,2.3128414154052734,-0.0068267653696238995,0.992646336555481,-0.12085796147584915,0.9260467290878296,1.175398588180542,0.33115464448928833,0.7217147747228917,-0.6379485744688017,-0.18053430129490253,0.19888889931661252
1681248484754141700,3.9251416015625,-1.2871575355529785,-0.9652313590049744,2.2352638244628906,0.02588820829987526,0.994552731513977,-0.10096818953752518,0.48540329933166504,1.033080816268921,0.10574425011873245,0.7101580705146191,-0.6465688383122611,-0.177382752837399,0.21484780854435245
1681248484769174800,3.9401748046875,-0.5470090508460999,-1.2432230710983276,1.9119610786437988,0.05521990358829498,0.9945828914642334,-0.0880652517080307,0.19500896334648132,1.190887689590454,-0.1564568281173706,0.700852080668704,-0.652303573827486,-0.17454919847337302,0.22986708472561554
1681248484784208000,3.955207763671875,-0.40276166796684265,-1.233693242073059,1.858241081237793,0.08140627294778824,0.9932262897491455,-0.08291123807430267,-0.02520815283060074,1.3012986183166504,-0.23228953778743744,0.6939355931375223,-0.6548648501205016,-0.17232646418507308,0.24476287293893964
1681248484799240700,3.97024072265625,-0.8136259913444519,-1.5838762521743774,1.8562490940093994,0.10775183141231537,0.9912626147270203,-0.0760781392455101,-0.058099716901779175,1.1049745082855225,-0.24753022193908691,0.685596577110594,-0.6576695456157351,-0.17155669825351044,0.26076104666260325
1681248484814273800,3.985273681640625,-1.2628895044326782,-1.9519720077514648,1.7003334760665894,0.13241657614707947,0.9891731142997742,-0.06326506286859512,-0.11415177583694458,0.6553123593330383,-0.21197295188903809,0.6744673567245236,-0.6619644731747513,-0.1736965881829476,0.27699517292835574
1681248484829305900,4.000305908203125,-1.2840102910995483,-2.188595771789551,1.5540708303451538,0.1548183262348175,0.98675137758255,-0.04850659519433975,-0.2020137757062912,0.5567361116409302,-0.15760910511016846,0.6617086484130386,-0.6661357769764071,-0.1789129106140215,0.29393014696557634
1681248484844339000,4.0153388671875,-1.0866862535476685,-2.138693332672119,1.4260121583938599,0.17552028596401215,0.9838078618049622,-0.03626034036278725,-0.39558249711990356,0.43710583448410034,-0.022638559341430664,0.6493662206396278,-0.669101043461292,-0.18486109197232364,0.31056996722412417
1681248484859371800,4.030371826171875,-0.9733980298042297,-1.9786534309387207,1.2988669872283936,0.19468803703784943,0.9804920554161072,-0.027052121236920357,-0.5269328951835632,0.33484601974487305,0.03416275978088379,0.6380886751127188,-0.6709853726094926,-0.19040107463416397,0.32614241234327473
1681248484874404900,4.04540478515625,-1.0898000001907349,-1.6901483535766602,1.1535614728927612,0.2121194452047348,0.9770838022232056,-0.01767689734697342,-0.745017409324646,0.05624133348464966,0.1086956262588501,0.6271918551844133,-0.6730021555873511,-0.19552403871374857,0.3398069488819359
1681248484889438000,4.06043798828125,-1.2258622646331787,-1.3488274812698364,0.9585552215576172,0.2274443656206131,0.9737749099731445,-0.005621979013085365,-0.8419920802116394,-0.06471729278564453,0.10762697458267212,0.6162685547457671,-0.6760815026597339,-0.2002568658800203,0.35074794096502837
1681248484904471000,4.075470947265625,-1.2418804168701172,-0.9794150590896606,0.7093373537063599,0.23969200253486633,0.9708116054534912,0.00851705763489008,-0.9702675342559814,-0.2420670986175537,0.04928326606750488,0.6058929358439411,-0.679966565529504,-0.20470466203596788,0.35865750273141467
1681248484919504000,4.09050390625,-1.0781012773513794,-0.5791051983833313,0.43646833300590515,0.24826115369796753,0.9684264659881592,0.02272939495742321,-1.0044256448745728,-0.3049437999725342,0.00910043716430664,0.597119976148601,-0.6840407196513467,-0.20845381215141065,0.36343232878090226
1681248484934535700,4.10553564453125,-0.8495346307754517,-0.2176242619752884,0.12841756641864777,0.2525891661643982,0.9669305682182312,0.0352725051343441,-1.0177868604660034,-0.4392510652542114,-0.12223231792449951,0.5907560123489135,-0.6877232616933928,-0.21135980641112265,0.36520017719070946
1681248484949568800,4.12056884765625,-0.6599310636520386,0.08772286772727966,-0.1980937123298645,0.25209155678749084,0.9666106104850769,0.04597659781575203,-0.996857762336731,-0.5159880518913269,-0.1848926544189453,0.5868499226862025,-0.6908207837158951,-0.2139040505823501,0.36416876154590033
1681248484964601900,4.135601806640625,-0.4640003442764282,0.4052009582519531,-0.44080355763435364,0.24710550904273987,0.9674173593521118,0.055157650262117386,-0.9480332136154175,-0.6339061260223389,-0.22840595245361328,0.5851905213279645,-0.693459108864876,-0.21608630096154588,0.3605178784054789
1681248484979634700,4.150634765625,-0.2076091170310974,0.7264482378959656,-0.5582247376441956,0.2392156422138214,0.9689716696739197,0.06220720335841179,-0.929797887802124,-0.6684346199035645,-0.24612140655517578,0.5857078112341934,-0.6956701191261423,-0.2171328796849748,0.3547431994467994
1681248484994667800,4.165667724609375,0.09343355149030685,1.155535101890564,-0.6366849541664124,0.22960789501667023,0.9710200428962708,0.06633632630109787,-0.8963558673858643,-0.6858636736869812,-0.2461763620376587,0.5884821520604375,-0.6974017821923015,-0.21633057342804188,0.3471608972622406
1681248485009700900,4.180700927734375,0.36417558789253235,1.5394701957702637,-0.707481861114502,0.21832068264484406,0.973534882068634,0.06757208704948425,-0.8539712429046631,-0.6802151203155518,-0.2472137212753296,0.5937467506592032,-0.6988666190220475,-0.21300585441585043,0.33716286870963963
1681248485024733000,4.19573291015625,0.31393662095069885,1.1166555881500244,-0.8349589109420776,0.205956369638443,0.9763238430023193,0.06613500416278839,-0.6577080488204956,-0.5847679972648621,-0.21052896976470947,0.5996082677088286,-0.6991464977396514,-0.21038459185610864,0.32772319881727674
1681248485039765800,4.210765869140625,0.017274172976613045,1.6743412017822266,-1.1033215522766113,0.1903557926416397,0.9793943762779236,0.06746387481689453,-0.566835880279541,-0.4752592444419861,-0.15900135040283203,0.6051057482809694,-0.700098954514345,-0.2087903031853898,0.31640971061586315
1681248485054798800,4.225798828125,-0.4383319616317749,2.1138436794281006,-1.4394489526748657,0.16957615315914154,0.9825568199157715,0.07632951438426971,-0.5743154883384705,-0.18671929836273193,-0.034032098948955536,0.6097618155047912,-0.7037203053087255,-0.2072256963524661,0.30004305892801014
1681248485069832000,4.24083203125,0.19553588330745697,2.6562960147857666,-1.3703175783157349,0.14523974061012268,0.9857327342033386,0.08506681025028229,-0.5346135497093201,0.1730501651763916,0.08552645891904831,0.6153628249022189,-0.7075410485859899,-0.20474146583566905,0.2807047865637911
1681248485084864800,4.25586474609375,1.6475075483322144,5.5464396476745605,-1.6313813924789429,0.11952043324708939,0.9897242784500122,0.07848921418190002,-0.5031416416168213,1.2334048748016357,0.19430744647979736,0.6291187854500623,-0.7087468531041108,-0.19215230193601682,0.2548820351974015
1681248485099897900,4.27089794921875,2.9725124835968018,1.491014838218689,-0.8673615455627441,0.10170844942331314,0.9937137365341187,0.04678034409880638,-0.36115363240242004,1.7625422477722168,0.15635991096496582,0.6482328004203811,-0.701111343368079,-0.17841820632877553,0.23749545520310397
1681248485114931000,4.285930908203125,2.490833044052124,2.0462658405303955,-0.7491166591644287,0.08693509548902512,0.9961875081062317,0.007269161753356457,0.4148349463939667,1.824796438217163,0.45740675926208496,0.6674356654326209,-0.6895157118671199,-0.16793648809725484,0.22559942649280057
1681248485129963000,4.300962890625,1.5361871719360352,-0.5292599201202393,-0.8746082782745361,0.07541036605834961,0.9968968033790588,-0.02257538214325905,0.3317399024963379,1.4614923000335693,0.5288314819335938,0.6789410638853284,-0.6784357377082655,-0.168633505040443,0.2243357553685467
1681248485144995800,4.315995849609375,0.5150779485702515,2.4437174797058105,-1.5849665403366089,0.05718662962317467,0.9976295232772827,-0.03827275335788727,0.18544337153434753,1.2700552940368652,0.5794410109519958,0.6877326584818338,-0.6726450491590128,-0.1685593725701764,0.21484897549500426
1681248485160028000,4.33102783203125,-0.38452839851379395,-0.09459847211837769,-1.8157038688659668,0.030376238748431206,0.9988213181495667,-0.03785797208547592,0.15643712878227234,1.0331306457519531,0.3790292739868164,0.6933996796181633,-0.6730339336533762,-0.16761962451078746,0.19525837710963997
1681248485175061000,4.34606103515625,-0.6923921704292297,-0.1356969028711319,-1.398097038269043,0.007550529669970274,0.9995298981666565,-0.02971571311354637,0.7050959467887878,0.629147469997406,0.5594398975372314,0.6922148909457346,-0.6733081698259097,-0.17832064408191253,0.18893498664054942
1681248485190094000,4.361093994140625,-0.9849234819412231,1.0755462646484375,-1.7535152435302734,-0.01599833555519581,0.9997320175170898,-0.016735631972551346,0.592048168182373,0.48474979400634766,0.39181190729141235,0.6907562447059885,-0.6764237402038148,-0.18461610884835722,0.1767021985829659
1681248485205127000,4.376126953125,-1.0127826929092407,0.6081770062446594,-1.6773147583007812,-0.042090218514204025,0.999112069606781,-0.0018919863505288959,0.20130044221878052,0.129855215549469,0.26530444622039795,0.6890573925834756,-0.6803524038507255,-0.19019624975953553,0.16169711677353057
1681248485220160000,4.391159912109375,-0.9851084351539612,0.3709723949432373,-1.5820034742355347,-0.06631150096654892,0.9977172017097473,0.012776312418282032,0.32494795322418213,-0.060171425342559814,0.23266124725341797,0.6864530347005738,-0.6836978261556811,-0.1973459875600979,0.14964652384510743
1681248485235192000,4.406192138671875,-0.7852336764335632,0.4594351649284363,-1.6406222581863403,-0.09053381532430649,0.9955561757087708,0.025912823155522346,0.4088627099990845,-0.291897177696228,0.19744539260864258,0.6841385675489308,-0.68640658927136,-0.20445636682961896,0.13783314293309085
1681248485250225200,4.42122509765625,-0.330859899520874,0.36756381392478943,-1.636591911315918,-0.11537283658981323,0.9927488565444946,0.03374457359313965,0.39801138639450073,-0.3785521388053894,0.12757134437561035,0.6835073331087334,-0.6871707950997712,-0.211349440435463,0.12627497409636548
1681248485265258000,4.436258056640625,0.1963592916727066,0.27145832777023315,-1.557533860206604,-0.13936439156532288,0.9896539449691772,0.03410081937909126,0.3696958124637604,-0.4942924976348877,0.046969179064035416,0.6851398110504024,-0.6852046903910367,-0.2180480270860682,0.11633193755021048
1681248485280291000,4.451291015625,0.7465919256210327,0.22402451932430267,-1.4275366067886353,-0.16171669960021973,0.9864798784255981,0.026556652039289474,0.38486120104789734,-0.5340109467506409,0.03548562899231911,0.6892280195509581,-0.6804990569338768,-0.22405213493054793,0.10810398675607535
1681248485295324200,4.46632421875,1.2467992305755615,0.13438278436660767,-1.2450001239776611,-0.18162193894386292,0.9833039045333862,0.011269903741776943,0.3979763388633728,-0.6307648420333862,0.009253144264221191,0.6956853716080368,-0.6731460991317673,-0.2291490367575058,0.10191644840078284
1681248485310357000,4.48135693359375,1.6518312692642212,0.06123426556587219,-1.015913963317871,-0.1983553022146225,0.9800732135772705,-0.010557295754551888,0.4203554689884186,-0.6632550954818726,0.02358829975128174,0.7040372176417359,-0.66355773038641,-0.23326485084836635,0.09803139216968314
1681248485325390000,4.49639013671875,1.8311434984207153,0.09693314135074615,-0.7990938425064087,-0.21164609491825104,0.9766599535942078,-0.036623116582632065,0.40759947896003723,-0.7011472582817078,0.06317341327667236,0.7135120389444026,-0.652643086118576,-0.23610473244947588,0.09597974750510231
1681248485340422100,4.511422119140625,1.7916258573532104,0.17486149072647095,-0.5738673806190491,-0.22171556949615479,0.9730191230773926,-0.06384388357400894,0.3977104723453522,-0.6932339668273926,0.10612601041793823,0.7231411507314354,-0.6416443442769229,-0.23742492322930184,0.0948094488674612
1681248485355455000,4.526455078125,1.58826744556427,0.18977493047714233,-0.21394218504428864,-0.2274997979402542,0.9696853160858154,-0.08918611705303192,0.3789127469062805,-0.7009628415107727,0.14953464269638062,0.7318629734959797,-0.6317843401465897,-0.23718239660752868,0.09470812928712054
1681248485370487800,4.54148779296875,1.242268681526184,0.17915265262126923,0.24830934405326843,-0.22706307470798492,0.9675817489624023,-0.11057987064123154,0.3715638220310211,-0.7032232284545898,0.17513984441757202,0.7389107639086959,-0.6240510158626552,-0.23509656122989225,0.09644058554743659
1681248485385521000,4.55652099609375,0.8027508854866028,0.250284343957901,0.7440868616104126,-0.21946923434734344,0.9674192070960999,-0.12622660398483276,0.33996790647506714,-0.6580778956413269,0.18251629173755646,0.7437100231080899,-0.6193452394990833,-0.23086396123124062,0.1000431171841776
1681248485400554000,4.571553955078125,0.15681135654449463,0.41011688113212585,1.116376280784607,-0.2050810009241104,0.969467282295227,-0.13444343209266663,0.3067808449268341,-0.604416012763977,0.1795942187309265,0.7458337450961721,-0.6184508719587135,-0.22426948676854772,0.10466029478308495
1681248485415587000,4.586587158203125,-0.5623361468315125,0.5485397577285767,1.3705662488937378,-0.18592892587184906,0.9735221266746521,-0.13298514485359192,0.27766478061676025,-0.4344139099121094,0.158696249127388,0.7447148473440087,-0.6220032970491713,-0.21591508695417153,0.1090520117380028
1681248485430620000,4.601619873046875,-1.3438646793365479,0.6430444121360779,1.5772382020950317,-0.1629561334848404,0.9792367815971375,-0.12058410793542862,0.2816237509250641,-0.3913156986236572,0.1267791986465454,0.7399435507731548,-0.6301724767925415,-0.2063748918024449,0.11302890729896863
1681248485445652000,4.61665185546875,-2.0459065437316895,0.6528531312942505,1.5199626684188843,-0.13877896964550018,0.9855843186378479,-0.09676755964756012,0.3436587154865265,-0.3374672532081604,0.0711786150932312,0.7313951702464799,-0.6425790793275625,-0.1967443668384418,0.1159521031057834
1681248485460685000,4.63168505859375,-2.41951322555542,0.5173815488815308,1.426371693611145,-0.1162431612610817,0.9911231994628906,-0.06451544910669327,0.3576371967792511,-0.3003883957862854,-0.005690217018127441,0.7199914658657387,-0.6574918409638486,-0.1882730875536812,0.11777094790175953
1681248485475718100,4.64671826171875,-2.5846331119537354,0.20756511390209198,1.44721257686615,-0.09483636170625687,0.995121955871582,-0.027169426903128624,0.41269221901893616,-0.16795837879180908,-0.06902194023132324,0.7065274164355962,-0.6734032962165838,-0.18150285718890966,0.12001509958603256
1681248485490751000,4.6617509765625,-2.2643797397613525,-0.009919006377458572,1.7555952072143555,-0.07092076539993286,0.9974399209022522,0.009160828776657581,0.42445164918899536,-0.04243814945220947,-0.042058706283569336,0.6927317666168057,-0.6884231611571231,-0.17508273950922792,0.12466894901238307
1681248485505784000,4.6767841796875,-1.7236690521240234,-0.2605176866054535,1.8714168071746826,-0.043431852012872696,0.9982604384422302,0.039872150868177414,0.4940086305141449,0.3178558349609375,0.1501607894897461,0.6801496941880112,-0.701185287734284,-0.1681525145177158,0.1321376212616304
1681248485520817200,4.691817138671875,-0.7580191493034363,-0.415142685174942,2.0857670307159424,-0.013575442135334015,0.9981846809387207,0.058679331094026566,0.5424298048019409,0.6524502038955688,0.25377488136291504,0.6711039390969025,-0.7095905750611116,-0.16068877355935832,0.1424076807239137
1681248485535850000,4.70685009765625,-0.6740344762802124,-0.588533878326416,2.183037281036377,0.01945454627275467,0.9975342154502869,0.06743097305297852,0.6894840598106384,0.9059386253356934,0.24557256698608398,0.6649503649805192,-0.7145128571697522,-0.1522723324954488,0.1553237501608077
1681248485550882000,4.721882080078125,-1.7454229593276978,-0.6831727623939514,1.9754151105880737,0.051236215978860855,0.9950620532035828,0.0850069522857666,0.6822995543479919,0.7999665141105652,0.3176724910736084,0.6552563918547356,-0.7219891843131407,-0.14572266424881192,0.16773632807185027
1681248485565915100,4.7369150390625,-2.2160940170288086,-0.7506505846977234,1.9538222551345825,0.08156275004148483,0.9900020360946655,0.11508005112409592,0.46703648567199707,0.6768527626991272,0.35269343852996826,0.6406479228971353,-0.7332189341251195,-0.1411737176309587,0.17896976836253903
1681248485580948200,4.7519482421875,-1.7496429681777954,-0.9362777471542358,1.8351675271987915,0.111436627805233,0.9833017587661743,0.14387312531471252,0.3539716899394989,0.7040150761604309,0.21020710468292236,0.6259023338415313,-0.7436809531265453,-0.13738704830127638,0.19055105197573974
1681248485595981000,4.76698095703125,-1.264761209487915,-1.2346397638320923,1.6765732765197754,0.1397019624710083,0.9765843152999878,0.1636054813861847,0.21189109981060028,0.7949612736701965,0.03520135581493378,0.6139357234641761,-0.7507746698057639,-0.13468533462139634,0.2031756314521429
1681248485611014100,4.78201416015625,-1.2386304140090942,-2.0273120403289795,1.5023791790008545,0.16727109253406525,0.9696576595306396,0.17828141152858734,0.15728336572647095,0.7709886431694031,0.02636943757534027,0.6027297260967525,-0.7556439520265177,-0.13469568252631134,0.2181194396672121
1681248485626047200,4.797047119140625,-1.1791740655899048,-1.4820034503936768,1.3919404745101929,0.19426549971103668,0.9621527194976807,0.19111043214797974,0.0610293447971344,0.5594385266304016,0.06404700875282288,0.5915577651413301,-0.7597110270938588,-0.13562583865455047,0.23346149157957108
1681248485641080000,4.812080078125,-0.9088625907897949,-0.8439203500747681,1.339707374572754,0.2179514616727829,0.9546589851379395,0.20278869569301605,-0.005106613039970398,0.5523294806480408,0.037705063819885254,0.5818554131660372,-0.763765822548665,-0.13437304878786263,0.24505078667542046
1681248485656113200,4.827113037109375,-0.5878978967666626,-1.9721710681915283,1.1616157293319702,0.24014607071876526,0.9480378031730652,0.20869633555412292,-0.04523029923439026,0.39482712745666504,0.04937553405761719,0.5737499087289726,-0.765631761067086,-0.13474485325117447,0.2578039422783111
1681248485671145000,4.84214501953125,-0.3761580288410187,-1.7198125123977661,1.0643408298492432,0.2621317207813263,0.9422841668128967,0.20829607546329498,-0.11628824472427368,0.25026631355285645,0.07464763522148132,0.5668848355312451,-0.7650734432592348,-0.1371519818021292,0.2729348882979752
1681248485686178000,4.857177978515625,-0.31693530082702637,-1.5245871543884277,0.9382323622703552,0.28112325072288513,0.9371945261955261,0.20648586750030518,-0.43479448556900024,0.012344777584075928,-0.010044187307357788,0.5612049319977498,-0.7641505774707719,-0.13898500665189667,0.2860178477283222
1681248485701211000,4.8722109375,-0.19075407087802887,-1.562673568725586,0.8623831272125244,0.2985260486602783,0.9324412941932678,0.2035578489303589,-0.49975889921188354,-0.0804208517074585,-0.034658268094062805,0.5560826733294958,-0.7628548221336087,-0.14082416076930396,0.2983174422861554
1681248485716244000,4.887243896484375,-0.0842561274766922,-1.5922846794128418,0.7318163514137268,0.3145465850830078,0.9283571839332581,0.19802334904670715,-0.5231494903564453,-0.2616550326347351,-0.12148526310920715,0.5518276694115529,-0.7606113213542112,-0.14311565460067877,0.31060341970338506
1681248485731277000,4.902277099609375,-0.03594590350985527,-1.5126659870147705,0.5882192254066467,0.3282466232776642,0.9250032305717468,0.1913725733757019,-0.5673670768737793,-0.3140106797218323,-0.11967155337333679,0.5482238546300462,-0.7578831032150646,-0.145943447169957,0.32212487284098734
1681248485746310000,4.917309814453125,0.040826208889484406,-1.4387211799621582,0.5132253766059875,0.3400283455848694,0.9222539067268372,0.18392550945281982,-0.6947188377380371,-0.3539860248565674,-0.12525545060634613,0.545243440245029,-0.7548448981537313,-0.1489024248059274,0.33278657047227583
1681248485761343000,4.932343017578125,0.06925865262746811,-1.2626804113388062,0.41670846939086914,0.35027483105659485,0.919948399066925,0.17607514560222626,-0.769601583480835,-0.3549154996871948,-0.10899747908115387,0.5428201360709144,-0.7516910322390085,-0.15165144705373124,0.3425035782199502
1681248485776375000,4.947375,0.1188373863697052,-0.966839075088501,0.27603763341903687,0.35796114802360535,0.9183151721954346,0.16899998486042023,-0.9122366905212402,-0.28397685289382935,-0.05307900905609131,0.5411021376025704,-0.7488511294614021,-0.1540194133909226,0.35029767794623023
1681248485791408000,4.962408203125,0.2003929167985916,-0.6689363121986389,0.20235702395439148,0.363207072019577,0.917452871799469,0.1623605340719223,-0.9801809191703796,-0.2560911178588867,-0.0471719354391098,0.5404438589086593,-0.7463062606318368,-0.15558674286372098,0.3560059076873008
1681248485806441000,4.97744091796875,0.24226580560207367,-0.4084530770778656,0.15692643821239471,0.36699679493904114,0.9170077443122864,0.15623793005943298,-1.0257949829101562,-0.1940462589263916,-0.051913484930992126,0.5406164627463786,-0.7441385094976177,-0.15613084942072938,0.36002075952267926
1681248485821474000,4.99247412109375,0.216912180185318,-0.1771274358034134,0.05115019530057907,0.3692169487476349,0.9169191122055054,0.1514541059732437,-1.019256591796875,-0.15349137783050537,-0.04540550708770752,0.541252550618535,-0.7425423400273742,-0.15607025471607544,0.36237919087792486
1681248485836507100,5.007507080078125,0.25593841075897217,0.06733290106058121,-0.22934004664421082,0.3682898283004761,0.9178334474563599,0.14813657104969025,-1.019504427909851,-0.04219251871109009,-0.039875373244285583,0.5426012713390639,-0.7414077425167356,-0.15615006625348637,0.36265084394064767
1681248485851540000,5.0225400390625,0.5509765148162842,0.4331603944301605,-0.505425751209259,0.36260586977005005,0.9207580089569092,0.14395004510879517,-1.0422781705856323,0.07786864042282104,-0.044661179184913635,0.5461125415197974,-0.7399910564483557,-0.15616741490873962,0.36025830124934033
1681248485866573000,5.037572998046875,0.8712209463119507,0.8990490436553955,-0.8313953280448914,0.3520541489124298,0.9258000254631042,0.1376672387123108,-1.0541415214538574,0.29308730363845825,-0.049273014068603516,0.5526178435272385,-0.7380807503819026,-0.15514645798528923,0.35465466543950275
1681248485881605000,5.052605224609375,1.055081844329834,1.1883490085601807,-1.1652941703796387,0.3358164131641388,0.9329910278320312,0.12944082915782928,-0.9865732192993164,0.3049544095993042,-0.0635075718164444,0.5619369059318161,-0.7355880466352671,-0.15372261572153648,0.34569704737222695
1681248485896638200,5.06763818359375,0.9619532227516174,1.386717438697815,-1.383907437324524,0.31542542576789856,0.9411805868148804,0.12118427455425262,-0.7107349038124084,0.1122555136680603,-0.08477677404880524,0.5723726659418554,-0.7330002788795394,-0.1526523089816656,0.3343610256264127
1681248485911671000,5.082671142578125,0.7135652899742126,1.690377950668335,-1.7028014659881592,0.2908584475517273,0.949660062789917,0.11639119684696198,-0.5847580432891846,0.02308756113052368,-0.04566671699285507,0.5824617315987529,-0.7314099808814416,-0.152430442317215,0.32022275198016786
1681248485926703900,5.097703857421875,0.7180659174919128,2.0545804500579834,-2.0663015842437744,0.2604943811893463,0.9587062001228333,0.1141277477145195,-0.5159264802932739,0.21696817874908447,0.0683978796005249,0.5928538249690279,-0.7305257018499458,-0.15295774499334996,0.30242437750653123
1681248485941737000,5.112737060546875,1.0870048999786377,2.477386236190796,-2.2953996658325195,0.2248106449842453,0.9682124257087708,0.10965745896100998,-0.478243887424469,0.4254032373428345,0.1091078445315361,0.6051233759178812,-0.7290162842348302,-0.1528528301201128,0.28106388132545645
1681248485956770000,5.12777001953125,1.5880573987960815,2.794013023376465,-2.2125837802886963,0.18692021071910858,0.977447509765625,0.0982721671462059,-0.3231354057788849,0.767501950263977,0.1511174589395523,0.620037481644749,-0.7255252153734923,-0.15082852801244936,0.2577159878486072
1681248485971788800,5.142788818359375,1.7121119499206543,3.071723699569702,-2.168145179748535,0.15093465149402618,0.9853328466415405,0.07961587607860565,-0.1632637232542038,0.8699683547019958,0.21782410144805908,0.6705533555806192,-0.7347162300024094,-6.40714647195568e-17,0.10271629100839982
1681248485986822000,5.15782177734375,1.4839134216308594,0.8324548602104187,-1.998600721359253,0.11792705208063126,0.9911962747573853,0.060197923332452774,0.09119469672441483,1.0754239559173584,0.3813154697418213,0.6807585010498625,-0.7280787123492831,0.0005923589560670937,0.08043123780734499
1681248486001854000,5.17285400390625,1.1632354259490967,1.7166309356689453,-1.9015939235687256,0.08795516937971115,0.9952124953269958,0.042618874460458755,0.16325028240680695,1.065105676651001,0.4709160327911377,0.6887992117022402,-0.7220038451573612,-0.0044591900261119685,0.06516457140019813
1681248486016887000,5.187886962890625,0.9194082617759705,2.5391480922698975,-2.3376848697662354,0.057152777910232544,0.9979153275489807,0.029985198751091957,-0.007988955825567245,1.1867468357086182,0.40174734592437744,0.6952591110586624,-0.7176296920102075,-0.00047403052881554546,0.04027977493700598
1681248486031919900,5.202919921875,0.9516346454620361,0.5133785605430603,-1.7869254350662231,0.02530193142592907,0.9995296001434326,0.01734648086130619,0.2800569534301758,1.194333553314209,0.4328186511993408,0.7005348205612727,-0.7131844597391718,-0.00641610186583187,0.0240410010611171
1681248486046953000,5.217952880859375,0.8402947187423706,1.451193928718567,-1.92172110080719,-0.0020087040029466152,0.999991774559021,0.0035907512065023184,0.7457830905914307,0.9685143232345581,0.4653578996658325,0.7057742816095578,-0.7082926705966743,-0.010810567893678432,0.009354139898633198
1681248486061986000,5.232986083984375,0.5872145295143127,1.0016310214996338,-1.896994709968567,-0.03149745613336563,0.9994761347770691,-0.0074639469385147095,0.5901674628257751,0.7660727500915527,0.40234649181365967,0.7096949733063929,-0.7043202724135845,-0.014176753302688342,-0.008075243829344521
1681248486077019000,5.248018798828125,0.22633807361125946,0.4939720928668976,-1.6425861120224,-0.0577206164598465,0.9982337355613708,-0.01409007329493761,0.7183346152305603,0.2152065634727478,0.3586949110031128,0.7117618059095677,-0.7018268197335145,-0.019851406818106102,-0.020989272376215482
1681248486092052000,5.263052001953125,-0.04811602085828781,0.6309438347816467,-1.5558611154556274,-0.08152756839990616,0.9965473413467407,-0.01571987010538578,0.7172849774360657,0.04759657382965088,0.3296850323677063,0.7119051611561017,-0.7010694500231105,-0.025331617131804176,-0.03242200048439964
1681248486107084000,5.278083984375,-0.0723351240158081,0.6044027805328369,-1.388320803642273,-0.10360389202833176,0.9944981932640076,-0.015484152361750603,0.5639767646789551,-0.1606663465499878,0.2436034083366394,0.7112162104599652,-0.7009812038283105,-0.029719952772703742,-0.043745299740218076
1681248486122117000,5.2931171875,-0.007408217526972294,0.4571262001991272,-1.1220725774765015,-0.12224877625703812,0.9923744201660156,-0.0157729834318161,0.5691176056861877,-0.23270004987716675,0.21844059228897095,0.7106687011118642,-0.7007079229009453,-0.033494998447144646,-0.053261195659552826
1681248486137150000,5.30814990234375,0.04807368665933609,0.300761878490448,-0.8482009172439575,-0.1368703991174698,0.9904462695121765,-0.016822339966893196,0.6193379759788513,-0.36692625284194946,0.2017439603805542,0.7104553217975891,-0.7001745528213019,-0.0366664075489665,-0.06053541350982382
1681248486152181800,5.323181640625,0.08434407413005829,0.1556856781244278,-0.5345247387886047,-0.14713266491889954,0.988947331905365,-0.01831439882516861,0.6156537532806396,-0.44182807207107544,0.18912160396575928,0.7105493390233238,-0.6995069059319543,-0.03915213127988059,-0.0653986591866504
1681248486167214800,5.33821484375,0.08626186847686768,0.09717682003974915,-0.22416631877422333,-0.1527164876461029,0.9880700707435608,-0.01988263614475727,0.524496853351593,-0.5791192054748535,0.15693742036819458,0.710855288968043,-0.6988665605735953,-0.040548892246670305,-0.06801563297408429
1681248486182248000,5.353248046875,0.0435328334569931,0.11279306560754776,0.05474492907524109,-0.15393126010894775,0.9878562688827515,-0.021102534607052803,0.461548388004303,-0.6306021809577942,0.14654541015625,0.7111929653890579,-0.6984331968705724,-0.04049446935470078,-0.06896328848757066
1681248486197280800,5.36828076171875,0.03348126634955406,0.1382124125957489,0.3198956549167633,-0.15107960999011993,0.9882795810699463,-0.021880900487303734,0.37289655208587646,-0.7122326493263245,0.12222301959991455,0.7115006270901818,-0.6982487279264976,-0.03883637422941829,-0.06861122388049776
1681248486212313900,5.38331396484375,0.07724978029727936,0.11512253433465958,0.550629198551178,-0.14448295533657074,0.989241898059845,-0.022920945659279823,0.35107165575027466,-0.7557670474052429,0.10170239210128784,0.7120261184628056,-0.6980362623235837,-0.03584555097681707,-0.06692848188128626
1681248486227346000,5.398345947265625,0.18284188210964203,0.0773615688085556,0.7154961824417114,-0.13501639664173126,0.9905316233634949,-0.024858884513378143,0.3358525037765503,-0.8353038430213928,0.03871423006057739,0.712974521466447,-0.6975259163022057,-0.03206484302931444,-0.06400734289900578
1681248486242379000,5.41337890625,0.3578309118747711,0.04281318187713623,0.8288848400115967,-0.12344831228256226,0.9919301867485046,-0.02890833467245102,0.3207901418209076,-0.8645647764205933,0.016442235559225082,0.7147321147649998,-0.6962560371852635,-0.027809412010419088,-0.06010414622066146
1681248486257411800,5.428411865234375,0.5481481552124023,0.018412765115499496,0.9349862337112427,-0.11032237857580185,0.9932557344436646,-0.03567114472389221,0.29480111598968506,-0.9030913710594177,-0.023898839950561523,0.7174696746120724,-0.6939908620669569,-0.023261776081186267,-0.05543526961766587
1681248486272445000,5.44344482421875,0.7125678062438965,0.028742369264364243,1.0809022188186646,-0.09529472142457962,0.9944229125976562,-0.04519399628043175,0.27458539605140686,-0.9205242991447449,-0.03344941511750221,0.7211758714169949,-0.6907049590468488,-0.01815656899664519,-0.050026107066102866
1681248486287478000,5.45847802734375,0.7763375043869019,0.029960764572024345,1.2750197649002075,-0.07771306484937668,0.9953727126121521,-0.05651571974158287,0.2686309814453125,-0.93645840883255,-0.05789434537291527,0.7254972856972576,-0.6867270015379131,-0.012172333391174293,-0.04372267072843922
1681248486302511000,5.473510986328125,0.6355570554733276,-0.13741251826286316,1.5226463079452515,-0.05695180222392082,0.9961041212081909,-0.06732899695634842,0.2753203213214874,-0.9072063565254211,-0.0684281438589096,0.7296403814154344,-0.682866109852093,-0.005420009334416462,-0.035909299382353155
1681248486317544000,5.4885439453125,0.20511597394943237,-0.4460201561450958,1.9198048114776611,-0.0315437875688076,0.9967896938323975,-0.0735895037651062,0.321079283952713,-0.6966950297355652,-0.06608914583921432,0.7322368184657115,-0.6805897628182028,0.0016800696149163123,-0.024981426259674772
1681248486332576000,5.503575927734375,-0.5106809139251709,-0.6696588397026062,2.0102007389068604,-0.0020347360987216234,0.9974075555801392,-0.07193371653556824,0.3191123306751251,-0.5009931921958923,-0.017528235912322998,0.7320144998945698,-0.681141882170684,0.00888135789343772,-0.011038303395850895
1681248486347609000,5.518609130859375,-0.9487870931625366,-0.296078085899353,1.8583875894546509,0.02592720277607441,0.9979724884033203,-0.05813167244195938,0.33500418066978455,0.4303724765777588,0.25384122133255005,0.7273656910202179,-0.6860678271865753,0.015655649569495354,0.002297468805252517
1681248486362642200,5.53364208984375,0.314374178647995,-0.10110937058925629,2.595510244369507,0.059290509670972824,0.9967601895332336,-0.05435299873352051,0.3426717519760132,1.1012473106384277,0.3043685555458069,0.7259130725149381,-0.6871077337178746,0.026579367328719995,0.015064515947164457
1681248486377675000,5.548675048828125,-0.8829233646392822,-0.5746156573295593,2.0361838340759277,0.09473585337400436,0.9940517544746399,-0.053730569779872894,0.82918381690979,1.2375006675720215,0.16071027517318726,0.7252353479988267,-0.6868567925732352,0.036911531037405174,0.029989338811283694
1681248486392708000,5.5637080078125,-2.755413770675659,-0.3108820617198944,1.852831482887268,0.12248332798480988,0.9921424388885498,-0.02552962116897106,0.8947286009788513,1.0909113883972168,0.5642873048782349,0.7147688090865986,-0.6966640173807198,0.04352512588675227,0.04325077740824968
1681248486407741200,5.5787412109375,-2.6743459701538086,-0.22929583489894867,1.932735562324524,0.15096841752529144,0.9884061813354492,0.016194865107536316,0.5686055421829224,0.9763919711112976,0.4886273145675659,0.6991442087176301,-0.710957804225365,0.051346206958796596,0.05567954563055244
1681248486422774000,5.59377392578125,-1.530288577079773,-1.1953130960464478,1.658658742904663,0.17821572721004486,0.9828963875770569,0.046410251408815384,0.44689106941223145,0.8870071768760681,0.1286998987197876,0.6870120350859875,-0.7210866182335646,0.05691410381557023,0.06934976890204685
1681248486437807000,5.60880712890625,-0.7756190896034241,-0.6871203780174255,1.5006097555160522,0.2026621699333191,0.9774714112281799,0.05897499620914459,0.3665364384651184,0.8665686249732971,-0.21081483364105225,0.6807370621141972,-0.725261369479069,0.05902070149551484,0.08431926773580295
1681248486452840000,5.62383984375,-0.9199414253234863,-1.5368573665618896,1.399999737739563,0.22473329305648804,0.9720582365989685,0.06780833005905151,0.30161863565444946,0.8479796648025513,-0.2824838161468506,0.6757242755569876,-0.7281109854086327,0.06130707099145344,0.09743016376235411
1681248486467872000,5.6388720703125,-1.166893720626831,-1.8631196022033691,1.2964280843734741,0.24645929038524628,0.9661288857460022,0.07650628685951233,0.2261664718389511,0.5204893350601196,-0.11723160743713379,0.6698324967112722,-0.7312687232811435,0.05915401185414076,0.1143305628878611
1681248486482904800,5.65390478515625,-1.2122961282730103,-1.9696319103240967,1.223723292350769,0.26701200008392334,0.9598273634910583,0.0862351730465889,0.025071769952774048,0.4023096561431885,-0.07622504234313965,0.6629054390144911,-0.7349103327928638,0.05499443889513953,0.13205678064995166
1681248486497938000,5.66893798828125,-0.997133731842041,-1.8190568685531616,1.1505084037780762,0.28675878047943115,0.9533184766769409,0.09462332725524902,-0.30473360419273376,0.35040783882141113,0.04612409323453903,0.6561444837446789,-0.7380406892491497,0.051064695225101014,0.14887197301994867
1681248486512971000,5.683970947265625,-0.676297664642334,-1.7527326345443726,1.0127819776535034,0.30485090613365173,0.9472864866256714,0.0985613465309143,-0.42859968543052673,0.2887517213821411,0.09783481061458588,0.6509082931068483,-0.7396218237369059,0.04733106185044894,0.16443169045343395
1681248486528003800,5.69900390625,-0.49522432684898376,-1.628487467765808,0.8180385828018188,0.32044124603271484,0.9421089291572571,0.09873616695404053,-0.5688694715499878,0.1159815788269043,0.12491227686405182,0.6471114376640248,-0.7399196452864937,0.0434396166617305,0.1785468952898455
1681248486543037000,5.714036865234375,-0.34625887870788574,-1.479986310005188,0.6836162805557251,0.33317098021507263,0.9378435015678406,0.09719613939523697,-0.6284589767456055,0.029548585414886475,0.12636077404022217,0.6441817330852456,-0.7396227686991145,0.039449085948090434,0.1908717728290665
1681248486558070000,5.729070068359375,-0.27348828315734863,-1.4028329849243164,0.547326385974884,0.3440585136413574,0.9342268705368042,0.09404389560222626,-0.7075838446617126,-0.19434332847595215,0.09331917017698288,0.6420136290532522,-0.7387551674899462,0.03553517265079925,0.20198192409163385
1681248486573102000,5.74410205078125,-0.23510311543941498,-1.2564150094985962,0.3124406635761261,0.3519766628742218,0.9315990805625916,0.0907520055770874,-0.7573721408843994,-0.255420982837677,0.07378386706113815,0.6402161160983463,-0.7378407768462483,0.031096456860862785,0.21153598637203078
1681248486588135000,5.759135009765625,-0.14369447529315948,-1.1245869398117065,0.10432793200016022,0.35641101002693176,0.9302587509155273,0.08712199330329895,-0.8567008376121521,-0.3190525770187378,-0.04117739200592041,0.6390782231623889,-0.736799868638323,0.026209768913121805,0.2191306239162381
1681248486603168000,5.77416796875,-0.13131897151470184,-0.9759202003479004,-0.014930288307368755,0.35826849937438965,0.9298961758613586,0.08328975737094879,-0.8918224573135376,-0.3696237802505493,-0.09613728523254395,0.6384871119079256,-0.7356612573010647,0.02115162940205516,0.22514330991171902
1681248486618201000,5.789201171875,-0.19723860919475555,-0.7631011605262756,-0.09659691900014877,0.3585628867149353,0.9299973845481873,0.08085783571004868,-1.007625937461853,-0.5098159909248352,-0.12776291370391846,0.6378033020627829,-0.7349565881316661,0.01636246857348895,0.22973520393351454
1681248486633234000,5.80423388671875,-0.36401939392089844,-0.3527035415172577,-0.17489944398403168,0.3572775423526764,0.9304229021072388,0.08164571225643158,-1.109474778175354,-0.6006194949150085,-0.12733019888401031,0.6365634989162724,-0.7353038106083059,0.012294794486350744,0.2323017442260168
1681248486648267000,5.81926708984375,-0.3616138994693756,0.12692272663116455,-0.19806654751300812,0.354748398065567,0.9309452772140503,0.0865715742111206,-1.3371092081069946,-0.7075413465499878,-0.18271684646606445,0.6347640931097063,-0.7370093153911921,0.010151617753493452,0.2319242320337352
1681248486663300000,5.834300048828125,-0.2088821530342102,0.4102572202682495,-0.17662277817726135,0.35166990756988525,0.9315838813781738,0.0920889750123024,-1.3806920051574707,-0.732258141040802,-0.23622310161590576,0.633476091388837,-0.7388819004746213,0.009900782225463312,0.22948598792484273
1681248486678333000,5.8493330078125,-0.2028905749320984,0.6908995509147644,-0.2726885974407196,0.3481392562389374,0.9323618412017822,0.097472183406353,-1.2175849676132202,-0.6783791780471802,-0.25430166721343994,0.6327591040580571,-0.7406847077058764,0.01105691895622659,0.2255659755374923
1681248486693364700,5.86436474609375,-0.1548621654510498,1.0430612564086914,-0.6799823641777039,0.340339720249176,0.9344524145126343,0.10472948849201202,-1.0600966215133667,-0.5361061692237854,-0.21952103078365326,0.6323613025855469,-0.7431106377614118,0.012301431621811328,0.21852856895403033
1681248486708397800,5.879397705078125,-0.13501586019992828,1.4686524868011475,-1.5109407901763916,0.32335716485977173,0.9394948482513428,0.1130935549736023,-0.8735737800598145,0.04680293798446655,-0.10845446586608887,0.6330552508802242,-0.7459252759705808,0.011927287592843278,0.2066265342558074
1681248486723431000,5.894430908203125,0.8807564377784729,2.520437479019165,-1.6211469173431396,0.29583266377449036,0.9478291869163513,0.11875901371240616,-0.8490246534347534,0.6071943044662476,0.015289798378944397,0.6367780505200253,-0.7478179072523037,0.012160817144231076,0.18744213523023798
1681248486738464000,5.909464111328125,2.741584300994873,1.533612608909607,-0.6515712141990662,0.27625319361686707,0.955637514591217,0.10218445211648941,-0.4751361906528473,1.4219717979431152,-0.06641745567321777,0.6482671742626478,-0.7421054546664145,0.019280042131204166,0.16928589430213623
1681248486753496800,5.924496826171875,2.926797389984131,1.2143867015838623,-1.1052534580230713,0.2633660137653351,0.962603747844696,0.06350607424974442,0.03604203462600708,1.5477267503738403,-0.041212670505046844,0.6657944046670234,-0.7287911336523416,0.0248298259274553,0.1580033527066688
1681248486768530000,5.939530029296875,1.6041457653045654,2.062060594558716,-1.7412452697753906,0.24108293652534485,0.9698020815849304,0.036921970546245575,0.5207273960113525,1.5218210220336914,0.35411536693573,0.6793941418339416,-0.7195057379867376,0.02779349256705329,0.14128967624901054
1681248486783563000,5.95456298828125,1.1152541637420654,1.6912829875946045,-1.6927292346954346,0.21579931676387787,0.9761636853218079,0.023143049329519272,0.7084255814552307,1.501848578453064,0.4453631639480591,0.6876859373580103,-0.7147157235139272,0.02744010492240254,0.12456628866061373
1681248486798595800,5.969595947265625,0.9087747931480408,0.47892922163009644,-1.6894478797912598,0.19124063849449158,0.9814714193344116,0.011891039088368416,0.9403359293937683,1.3248794078826904,0.2541615962982178,0.694284120629749,-0.7108428756930164,0.02545438298648283,0.10965538203753407
1681248486813628000,5.9846279296875,0.6586539149284363,0.07151859998703003,-1.9374194145202637,0.163198322057724,0.9865933656692505,-0.00006106848013587296,0.8467504382133484,1.230844497680664,0.24980199337005615,0.6998814721836977,-0.7069345589196958,0.014594353852688417,0.10097800590837736
1681248486828661000,5.999660888671875,0.5021920800209045,1.2867969274520874,-2.0953922271728516,0.1344771683216095,0.990888774394989,-0.007476280443370342,0.4034409523010254,0.7045613527297974,0.11614972352981567,0.704524342455493,-0.7043941672585009,0.009524540131984194,0.08592960805107915
1681248486843694000,6.014694091796875,0.16531923413276672,0.904846727848053,-1.9426298141479492,0.10541434586048126,0.9943811297416687,-0.009705058299005032,0.43132883310317993,0.5081061124801636,0.046051859855651855,0.7071268806130869,-0.7036462669002519,0.005422348358067063,0.06945660816820226
1681248486858727000,6.029726806640625,-0.3877447545528412,-0.5108571648597717,-1.7720959186553955,0.0757608562707901,0.9970970749855042,-0.00762150576338172,0.6729116439819336,0.11861050128936768,0.1570969820022583,0.7072250575184823,-0.7043764950180645,-0.00655747028469809,0.06036265485577185
1681248486873760000,6.044760009765625,-0.5633606910705566,1.0953823328018188,-1.5397891998291016,0.051616039127111435,0.9986671805381775,-0.00014178133278619498,0.5708509683609009,-0.041223764419555664,0.1614122986793518,0.7053844407888451,-0.7069265924739249,-0.013561054087060861,0.05003882551591613
1681248486888793000,6.05979296875,-0.6224457621574402,0.8319847583770752,-1.4600772857666016,0.028670592233538628,0.9995408654212952,0.009825709275901318,0.41976994276046753,-0.19479215145111084,0.07957589626312256,0.7027058129355687,-0.7103934726720887,-0.01593638778751511,0.0359433039983908
1681248486903826000,6.074825927734375,-0.1537456214427948,0.3356013596057892,-1.1369514465332031,0.00906046200543642,0.9998328685760498,0.015891384333372116,0.5195344686508179,-0.272308886051178,0.11644840240478516,0.7009878081699082,-0.7124264426312912,-0.019855875426403265,0.025895947134110798
1681248486918859000,6.08985888671875,0.17338962852954865,0.35358595848083496,-0.9433527588844299,-0.006548742298036814,0.9998572468757629,0.015589127317070961,0.5627163052558899,-0.4496098756790161,0.04479026794433594,0.7013240902159978,-0.712203789534538,-0.023671203515266834,0.018712079915624836
1681248486933892000,6.10489208984375,0.37729454040527344,0.38767415285110474,-0.6951599717140198,-0.019073348492383957,0.9997552633285522,0.011214294470846653,0.48310837149620056,-0.5146782994270325,0.06811654567718506,0.7030224694598018,-0.7105835869307597,-0.02604060923720209,0.012342614314388094
1681248486948924200,6.119924072265625,0.387804239988327,0.2829461395740509,-0.41348031163215637,-0.02738967351615429,0.9996119737625122,0.005134814418852329,0.41236889362335205,-0.6703575253486633,0.0882340669631958,0.7052473346292232,-0.708400142838755,-0.027141201950687904,0.007688343297266368
1681248486963957000,6.13495703125,0.25331956148147583,0.12062755227088928,-0.1989499181509018,-0.03195517882704735,0.9994895458221436,0.00011899240780621767,0.41386738419532776,-0.7432942390441895,0.10211527347564697,0.707046752228507,-0.7066078303766036,-0.027656287788360736,0.0050617891783012224
1681248486978990000,6.149989990234375,0.1222105473279953,-0.079724982380867,0.0020090145990252495,-0.033472757786512375,0.9994363188743591,-0.002646485110744834,0.388560026884079,-0.8565528392791748,0.11382240056991577,0.7080281063515446,-0.7056128946359286,-0.028057091528257232,0.00443420352507692
1681248486994023200,6.165023193359375,0.09114573895931244,-0.23403678834438324,0.22313395142555237,-0.03181760013103485,0.9994857311248779,-0.0040521807968616486,0.35536494851112366,-0.8986554145812988,0.10430276393890381,0.7085134297851766,-0.7051031363865093,-0.028345664924255953,0.005920389058185707
1681248487009055700,6.1800556640625,0.09631898254156113,-0.2976573407649994,0.452918142080307,-0.02676667645573616,0.9996281266212463,-0.00524089066311717,0.27716338634490967,-0.9647616744041443,0.08617383241653442,0.7088982307323477,-0.7046959341605397,-0.02798562357560892,0.009160859738529963
1681248487024088800,6.1950888671875,0.10609475523233414,-0.37098532915115356,0.6543236374855042,-0.01846916414797306,0.9998075366020203,-0.006639493629336357,0.2528136372566223,-0.9840755462646484,0.09018170833587646,0.709314586435903,-0.7042455944429942,-0.02680291039181695,0.013883102156113098
