seconds_elapsed,rotationRateX,rotationRateY,rotationRateZ,gravityX,gravityY,gravityZ,accelerationX,accelerationY,accelerationZ,quaternionW,quaternionX,quaternionY,quaternionZ
1.0,-0.6113603937728885,0.24502610689323018,0.6081218912540214,0.37438474907935776,0.6394994883116618,-0.6714503856315673,-0.5138578591169471,0.1766383282674232,-0.3852337987355722,0.7549200899429936,-0.404321748495358,-0.028170911961687608,0.5155728195186431
1.01,-0.612633096840727,0.263912050019809,0.4505474530198543,0.3796705640219016,0.6415067399550007,-0.666565635018459,-0.5377949903682147,0.11322452443525932,-0.37460668117497636,0.752230336400153,-0.40736769178641985,-0.027691618703424126,0.5171375963855517
1.02,-0.7492316697827698,0.21159292224118517,0.3064006625521823,0.3835854972207445,0.644883552721444,-0.6610317015531728,-0.5545093948038623,0.10375753803655857,-0.3824142250112533,0.7497812895528776,-0.41072728540556225,-0.027971227957267492,0.5180164831800327
1.03,-0.7705649360630793,0.16562645268159493,0.08833328163507478,0.38596615548401014,0.6491786836416219,-0.6554124876197353,-0.5585253091677388,0.11389653863240887,-0.38817609348870175,0.7477944915593701,-0.4140701050560133,-0.028857481083125146,0.5181776767685663
1.04,-0.7134416118318636,0.12272311896847984,-0.1680200303334142,0.3870658420311257,0.6541013066661199,-0.6498638866821828,-0.5542787122029479,0.1336714422833469,-0.39269993692019395,0.7462212584719768,-0.4173174358696487,-0.030206888632185486,0.5177697199219236
1.05,-0.5983836762604057,0.07340551828302241,-0.3698725352975085,0.3855912049016088,0.6595040009160184,-0.6452527512528283,-0.5465515375176048,0.13503890732851545,-0.3973719340400681,0.7456341620368586,-0.41991575092397676,-0.03224397924677784,0.5163865616549153
1.06,-0.4675733640323394,0.05241341942930227,-0.5527293801760722,0.38284069893701866,0.664699733498322,-0.6415457207498045,-0.5272372082113921,0.14787615540334462,-0.3652865017863601,0.7457664222432892,-0.42195058241458033,-0.03436188594814981,0.5143947450933007
1.07,-0.32740257989784827,0.05200631281073948,-0.7170810167773328,0.37913446999311,0.6697078232016227,-0.6385459936253132,-0.5038798556932899,0.16389796005330218,-0.3128065540734367,0.7464540167332455,-0.423547506145678,-0.036520170914228545,0.5119349878799394
1.08,-0.19208449310577255,0.07342767402539642,-0.8285281925987409,0.3742129176008515,0.6742532774586998,-0.6366521799158356,-0.5072312330665663,0.14682635617069123,-0.28343564900296964,0.7479610029406927,-0.42447893383084384,-0.038591325015338865,0.508797691018842
1.09,-0.02422169400538443,0.11124229331882263,-0.915314709425445,0.36897003109544085,0.6780760077540066,-0.6356505847617674,-0.5092334754284171,0.12557373995492388,-0.2544779223531042,0.7500076118926772,-0.42491296465450634,-0.04028073770506557,0.5052751870271289
1.1,0.15686486586125034,0.15559858918321648,-0.9876353160365774,0.3634528079496911,0.681313556131487,-0.6353799406004925,-0.5087432882546356,0.1060136643821457,-0.2290421618460618,0.7524801807691673,-0.4249384731393959,-0.04167837815287656,0.5014574858063738
1.11,0.2689444282364047,0.1641550289956536,-1.0735003303456223,0.3573639226823994,0.6835428420190488,-0.6364283702722598,-0.4941689937598242,0.12487616033480989,-0.2319623653851841,0.7556099896532393,-0.42421964820469443,-0.04269440410219806,0.4972479417670869
1.12,0.3609214391904456,0.17818168696024314,-1.1418992503209444,0.3509115373622105,0.6854266483272317,-0.6379839883108364,-0.46097295291550444,0.1861145842984488,-0.2303525356947794,0.7590847615147633,-0.4232130659488202,-0.043561440217882545,0.49270937419871574
1.1300000000000001,0.43113918244325616,0.1906564561087759,-1.1973317697757986,0.34415765971705287,0.6870393568555198,-0.6399406233216448,-0.41657914635673093,0.26965620969823795,-0.22649012438097385,0.762810183845045,-0.4219756730348291,-0.044336905077908745,0.48794013996312235
1.1400000000000001,0.42312270983078254,0.15428361693372594,-1.240531614718547,0.3368522560923676,0.6882728677475939,-0.6424823504716366,-0.38379461328588665,0.2969471425287562,-0.2298766090224388,0.766726135315522,-0.42037544069262633,-0.04518667476889148,0.48306803802070186
1.1500000000000001,0.3469774922202985,0.15006048288292542,-1.3237884975336967,0.3289248508321625,0.690185478312331,-0.6445231618353695,-0.3334779093345057,0.31589394776064633,-0.2138845858396723,0.7707180433798174,-0.4190324424733576,-0.04635144991349953,0.4777333644549278
1.1600000000000001,0.23199073900429298,0.1550507841548756,-1.400422044306492,0.32053741956354964,0.6925703045205821,-0.6462130702066936,-0.27444565735251075,0.32537223281559247,-0.18468260420472996,0.7746732975468411,-0.41785799080542857,-0.04782489859840807,0.4722122152590112
1.1700000000000002,0.196990552100482,0.029949277870736507,-1.1315775250589362,0.31181239362380647,0.6950194026117621,-0.6478293480711416,-0.24896286506381468,0.2969187245874476,-0.15633107234521892,0.7777293630917247,-0.4166033121426889,-0.050236179392193395,0.46801667924698503
1.1800000000000002,0.18468717273129615,0.05126525697633115,-1.0890076036197707,0.3041468053685907,0.6972616453321785,-0.6490703248600141,-0.23386231058262433,0.24601337402659634,-0.11503100333056933,0.7807712404231536,-0.415641444252113,-0.05201688165313561,0.4635894859869597
1.1900000000000002,0.18024415710055247,0.1586673460704147,-1.1903126109696665,0.29716744583116705,0.6993981634984886,-0.6500199499567786,-0.22748504547583012,0.18073464632518227,-0.066391700722558,0.7837954369907276,-0.41489615186390194,-0.05339256756526805,0.4589891968029072
1.2000000000000002,0.08613679539337973,0.0773493871534432,-1.1193390776769339,0.28952018432969523,0.701976399516556,-0.6506745997106357,-0.23657550220415943,0.13147553332782116,-0.037458568490523786,0.7867350516468935,-0.4142627207123494,-0.05520354732204472,0.4542811075484899
1.2100000000000002,-0.044097343576713084,0.05926135350872201,-1.0506799771925086,0.2823022919480577,0.7049764909924865,-0.6506012862910984,-0.18981797790688246,0.07109645770761541,0.014183134705527203,0.7892518775238685,-0.41404230895665456,-0.057149681710242706,0.44985557516460545
1.2200000000000002,-0.20513104734033147,0.0840057029179636,-0.9867027860129509,0.27543129305040276,0.7084018132087085,-0.6498434833085535,-0.11015973399515858,0.0038083276861550393,0.07855350771313702,0.7914047721634925,-0.414209447942878,-0.05922781554032231,0.44564356387443327
1.2300000000000002,-0.4218910173621339,0.07304283193491268,-0.9588878195487441,0.26899205234709506,0.7132669424037277,-0.6471942784006957,-0.12137144496133245,-0.04969588166996583,0.09816334136890391,0.7928635579544383,-0.4154400326393157,-0.06171626176161774,0.44153807934725897
1.2400000000000002,-0.6188851834766514,0.06515243612238879,-0.9396241407098198,0.262582921598483,0.7191920655305146,-0.6432373067115894,-0.11995434111712443,-0.09553597461001256,0.12676756317229368,0.7938777760877775,-0.41737232959474774,-0.06459944693727712,0.43745594343678035
1.2500000000000002,-0.7908568281813758,0.06085733524701805,-0.9260412819957611,0.25620541462412294,0.725964771790375,-0.6382164767918138,-0.10873641270232061,-0.1329534829200113,0.16062559309888597,0.794530344517027,-0.41987307944877295,-0.06779513037626127,0.43339132276759557
1.2600000000000002,-0.8259944033564668,0.0739292368913541,-0.9034290427296224,0.24995023047686862,0.733520027068491,-0.6319894337421792,-0.09213815100736036,-0.1342866513122159,0.17541962286441565,0.7947729032712211,-0.42298942599351846,-0.07124059789752431,0.4293286275933238
1.2700000000000002,-0.8243222152944197,0.10316598946091488,-0.8607355655086701,0.2440266559951337,0.7408636612362505,-0.6257046464996961,-0.07889757222916742,-0.14300287908309772,0.19544436629341955,0.7949397845387318,-0.42612868074555454,-0.07450859617625949,0.425340870959451
1.2800000000000002,-0.7963885932084382,0.14655781860843492,-0.8007374330358056,0.2384354548645673,0.7480073985909277,-0.6193738402299048,-0.06851832934834196,-0.1573257994265377,0.21866697003675073,0.795038314163302,-0.4292898709809634,-0.0776000640410916,0.42142580402490615
1.2900000000000003,-0.7959693085667963,0.21646338254378003,-0.7119210909849253,0.23400619336569298,0.7545893546670572,-0.6130152250886567,-0.06248536852426881,-0.17112444707081062,0.23012170750041352,0.7949820582553624,-0.4325162375597334,-0.08008952315931402,0.4177376796136922
1.3000000000000003,-0.8417888493543727,0.3139188855922782,-0.5939261386223137,0.23072304521277812,0.7610947489738465,-0.6061758950044117,-0.048862964967571546,-0.19838212955012605,0.24668640762240854,0.7946621612738356,-0.43606969260948475,-0.0821346098995804,0.41423896845801467
1.3100000000000003,-0.9275995013765365,0.43421107975596396,-0.4506750697437565,0.22851022515118066,0.7675613353259382,-0.5988505360667058,-0.02922084121642678,-0.23524221137635512,0.2661703747466385,0.7940873131303098,-0.4399482357865432,-0.08377459369496765,0.4109132961642094
1.3200000000000003,-1.0747009677744135,0.5746327944271745,-0.26841493493436175,0.22912466026099715,0.7743798285461395,-0.5897256315344916,-0.008521548011068938,-0.2562293054638227,0.2676110343814632,0.7927174851855547,-0.4449583281610249,-0.08448192081674187,0.4079911916456555
1.3300000000000003,-1.2304278143624534,0.6916840453240845,-0.06163436027376945,0.2316033582691251,0.7814881849763263,-0.5792486936979255,0.04317465940603261,-0.27468047331272993,0.2722515227636865,0.7907159815197577,-0.4507603648330285,-0.08466943216934232,0.4054461390661837
1.3400000000000003,-1.3871591854829641,0.7878955618405712,0.164511502720362,0.23574870305456166,0.78882514661046,-0.5675884864061248,0.11802749408272747,-0.290304058597759,0.27867079967954617,0.7881492717247496,-0.45725221514013953,-0.08439202959242433,0.4032541700805702
1.3500000000000003,-1.4315160778711438,0.8464549738653145,0.38295545659435787,0.242978006644896,0.7960650668207423,-0.5541721715887159,0.1581513091291619,-0.2911489472545348,0.2699542672307464,0.7845283687063361,-0.46471078605331306,-0.08325094798647052,0.4019880759629559
1.3600000000000003,-1.4225646534717846,0.8786327397230524,0.6072040773086311,0.2516988716480134,0.8026278725158138,-0.5406180516596356,0.21223663730918468,-0.2791336924152259,0.24943859652025882,0.7805314671627267,-0.4722336881543976,-0.08157166741532171,0.40133530803242495
1.3700000000000003,-1.3646843681571417,0.8875784715251572,0.8366060985289384,0.2617757180685102,0.8085338925756201,-0.5269962625157694,0.2759450681704097,-0.2562057553281458,0.22033027600077365,0.776203890785727,-0.4797857280898395,-0.07939577138499408,0.40125324285663017
1.3800000000000003,-1.2021449795865131,0.8661742978464918,1.0735969985574603,0.2744961598929426,0.8123399266077511,-0.5143879471184352,0.29738972313693485,-0.22748085198207757,0.21689765310386577,0.7714532460576485,-0.4868111195309113,-0.07610579422478259,0.4025447951511543
1.3900000000000003,-1.0333448995713275,0.8427371672852166,1.26839691771176,0.288372454564358,0.8146976530953631,-0.5029278047424572,0.3305269740259958,-0.21736408974647153,0.2108718255986246,0.7666790572283957,-0.4932499504323103,-0.07219385401030858,0.40453893408471475
1.4000000000000004,-0.8638743870063751,0.8183328491955135,1.4265757374970676,0.30328810565412645,0.8157507397118885,-0.4924914601659366,0.3716998369970602,-0.22402413071048946,0.20289640712292745,0.7618801952967397,-0.4991641147692016,-0.0677233956092382,0.40716383361557046
1.4100000000000004,-0.8148766422591154,0.8136407498755784,1.5653388059095732,0.31967030834774196,0.8149065266079502,-0.48328786413213626,0.36352914513246415,-0.2554373669188737,0.20152878348051986,0.7569607794567089,-0.5044059190068434,-0.06248342255575021,0.4106539335842868
1.4200000000000004,-0.7848551756127108,0.8270927320232219,1.6985075049263292,0.3368970558727376,0.8133488704559185,-0.47407861891671055,0.34745808427105673,-0.2976712324876045,0.20619860347339228,0.7518043401995493,-0.5095999679668461,-0.056893181854056965,0.4144944968335939
1.4300000000000004,-0.7700269452633991,0.856963995496192,1.8260154074766888,0.35490756676780827,0.8111234673009476,-0.4648631293687495,0.3244057294894551,-0.34845075909896916,0.2154497650750899,0.746430018670156,-0.5147494793906512,-0.05097276150553427,0.4186542783729306
1.4400000000000004,-0.7118317897746657,0.9050916361402237,1.9290142433729536,0.3743833275587646,0.8074819557423809,-0.45560622483794355,0.2987078818125874,-0.37078370862698384,0.20293463886340693,0.7407102003546749,-0.5198092201221807,-0.04428303782301586,0.42323203668424336
1.4500000000000004,-0.6017774537910318,0.938790493248748,2.0165315441873424,0.3944061932625781,0.8028218193156106,-0.44682472572069365,0.27437945822469334,-0.3925367615874045,0.18897310649615243,0.73500039868725,-0.5245661794533472,-0.03712128666572288,0.427969338872103
1.4600000000000004,-0.44521272159449643,0.9593727910823574,2.0904089444679737,0.41493683295621747,0.797194573112585,-0.43850688484351,0.251453757217827,-0.413199996971474,0.17356293472535028,0.7293056492338932,-0.5290297254690574,-0.029513672525759396,0.4328564080460879
1.4700000000000004,-0.2869121286787173,0.9723454901536119,2.173684865600739,0.4361782369858562,0.7893646274162797,-0.43171503737599065,0.23564274248097147,-0.4107699700733823,0.15197206167926822,0.7238570138767672,-0.5325977790234209,-0.020978182267713558,0.4380192955544614
1.4800000000000004,-0.19694576413443585,0.9601392306838648,2.2221061582135184,0.45756159006365443,0.7805735794946984,-0.42548903800536564,0.25926534726126244,-0.39777327323850026,0.1275472498322823,0.7184454239798175,-0.535781073347206,-0.012158865532764681,0.44334030351730147
1.4900000000000004,-0.1724159608054772,0.9238883960658412,2.2354454574089293,0.4790477514934895,0.7709015500463219,-0.419774086327752,0.3190381629603516,-0.37457099652609616,0.10085245369993633,0.7130649908258319,-0.5386106107440292,-0.0030925532694548994,0.44880266103114663
1.5000000000000004,-0.29080830420656373,0.8386971357253008,2.0807100610427085,0.4989822944479658,0.7614163646144299,-0.4135233329908661,0.3713630597135491,-0.3244138663114188,0.09299796508087418,0.7075210608590867,-0.5414550906598452,0.005183551444687049,0.4540339516548297
1.5100000000000005,-0.380206156779038,0.7478548180143935,1.9403625375050184,0.5174731005298273,0.7525827487451742,-0.4069810221851357,0.45126884385248817,-0.23368439057422008,0.08461701128100851,0.7019934521086968,-0.544353992356683,0.012673982592784173,0.45898694907442805
1.5200000000000005,-0.4419948803884845,0.6518174337266245,1.8151576582900504,0.5345852690840761,0.7443660745957589,-0.40016490039523395,0.5563252394004813,-0.10568583606947508,0.07568420475205843,0.6964802849683768,-0.5473024408754454,0.019413502229455145,0.46367752805880535
1.5300000000000005,-0.48328220228378516,0.5685268423492389,1.8299585870354829,0.5503270759507022,0.7362954179397498,-0.3934861327592209,0.58073771592809,-0.07185391266559751,0.06182922923947207,0.6908796539683312,-0.5500845984403354,0.025347445721253612,0.4684033973512023
1.5400000000000005,-0.5067015974056032,0.48559303762609374,1.871746431963262,0.5659383626522407,0.7278856987203949,-0.3869308600665781,0.6353803656520411,-0.027252928256211475,0.060599372271256745,0.6850813240387208,-0.5527641375220418,0.031101178147757265,0.47338889760693775
1.5500000000000005,-0.5126321346094798,0.40266056314645504,1.9394054175007926,0.5814210583083663,0.7191428294380621,-0.3805005529735722,0.719181661602275,0.027667876762033295,0.0715746728477428,0.6790906026438924,-0.5553415035330259,0.03667872272834893,0.478628919698841
1.5600000000000005,-0.4818032891823001,0.24164632961042512,1.9395085124034253,0.5964449595133776,0.7094122567049571,-0.37525105966122746,0.7677124767638366,0.05472604595136361,0.0740601125167327,0.6729453767386941,-0.5573154408942308,0.04193084088175976,0.48449346167995727
1.5700000000000005,-0.42588812270298937,0.06497974344984918,1.9185862035078065,0.6106168832913063,0.6994682796695357,-0.3711411176541956,0.8462777467752176,0.10767691693082451,0.07660633812037657,0.6669464891538441,-0.5587808166554056,0.04672789034636036,0.49062730632312773
1.5800000000000005,-0.34500639061327504,-0.1272644751561469,1.876738860513986,0.6239408967563738,0.6893119170673246,-0.3681652870368488,0.9547340951165966,0.1863968848109645,0.07921305948274783,0.6610932413090219,-0.5597400585547161,0.05107204349934911,0.4970291680488853
1.5900000000000005,-0.22994811774001284,-0.2855882033249635,1.8155401059199832,0.6355098207656134,0.6786019533415217,-0.3681048016895669,0.9866934880269449,0.2420414314171316,0.04094898236218727,0.6558935578731971,-0.5594097768826868,0.05478407808567507,0.5038046587099066
1.6000000000000005,-0.21803730917156527,-0.4242502528818718,1.7718688968076857,0.6462881870294949,0.6679943703869416,-0.3687673565148824,1.0038953143389693,0.34402945167981425,-0.0261381716874433,0.6507767847937358,-0.5587876087506137,0.058038167914725575,0.5107207446583553
1.6100000000000005,-0.31160901613778935,-0.54289347729062,1.7461514821964397,0.6562624863468923,0.6574926163014768,-0.3701624571289709,1.006182524423216,0.49342686146970305,-0.12259122373271215,0.6457433176081302,-0.5578699617719683,0.06082565107089603,0.5177796946424071
1.6200000000000006,-0.4466328871371219,-0.5674662418942419,1.800466059153517,0.6657464715885627,0.6470490317416292,-0.37149323718314536,0.9931529516414849,0.5951538733713956,-0.14498366114041117,0.6401755709019856,-0.5570338772193543,0.06296020609375202,0.5252406454552986
1.6300000000000006,-0.7287267970531005,-0.5407421589827004,1.7981224948605428,0.6752607919340747,0.6372013647573996,-0.3713602438982673,0.953948045462883,0.6515055682313323,-0.16380993945342995,0.6339337922054549,-0.5569028653497291,0.06463880057951883,0.5326882090562334
1.6400000000000006,-1.1647485271746278,-0.4610637368853959,1.735593215908195,0.6848114640620855,0.627978415464104,-0.3696920097661272,0.8874205082751239,0.6606879139937448,-0.17957772985876494,0.6269897281252741,-0.5575108841273092,0.06584501126107638,0.5401180178198274
1.6500000000000006,-1.7328354991048942,-0.4566576335752487,1.609512832192829,0.6934185193304221,0.6224467853951925,-0.3628403566268896,0.7944815830936525,0.7114201095604704,-0.18262550949856768,0.618236339355569,-0.5606980261725293,0.06474228289848716,0.5469377078043526
1.6600000000000006,-2.3201787290213396,-0.4914634985464981,1.5135898642534131,0.7014554932434003,0.618704514683527,-0.35365165198037957,0.6555299506524186,0.804392252894769,-0.22647524736831268,0.6083780684691243,-0.5650580887374516,0.06212475386311069,0.5537323964851548
1.6700000000000006,-2.926061893607213,-0.5672435590672049,1.4511994549456582,0.7088942588493686,0.6168277542541726,-0.34203246139724924,0.4674679613355279,0.9421602029302953,-0.3144748881455664,0.5973600777371264,-0.5706383361912478,0.057914386249590485,0.5605103096073782
1.6800000000000006,-3.551954335574009,-0.5671217157324783,1.2934153711239096,0.7153502154660045,0.6184272055097388,-0.3250364058331351,0.3598797993489531,0.9505332434792083,-0.3362836233924875,0.5838908164802187,-0.5786777967152575,0.05051201592802647,0.5669869925360954
1.6900000000000006,-4.05373780318822,-0.605752541830875,1.129615034598773,0.7210225938349033,0.6215943610287187,-0.3057701094217589,0.18017177206903995,0.9170832841082185,-0.3557162828064913,0.5695025930774722,-0.5876111366019976,0.04153774800362272,0.5730803694905827
1.7000000000000006,-4.4178013689443585,-0.6891025223173877,0.9615133743410222,0.7258527925552853,0.6264092553640725,-0.2841261207875406,-0.08126205468823977,0.840578526839254,-0.37415289261464507,0.5541586844479395,-0.5974722320495381,0.03090410083206479,0.5787573498671209
1.7100000000000006,-4.52323240243381,-0.7517329052065754,0.8321337803327656,0.7292463491276289,0.6322727194124137,-0.2610178109390237,-0.204773834160557,0.7629209194231938,-0.3753543445763547,0.5380087560011437,-0.6074730351265004,0.01822218161224936,0.583872334200903
1.7200000000000006,-4.423670743569347,-0.7769264799478615,0.7002449163683989,0.7321517794175292,0.6378998849367314,-0.2382874095549671,-0.3967713440791295,0.6818279153897094,-0.32969567109982123,0.5221697823724917,-0.6170148691205088,0.005428531497989881,0.5885220782069017
1.7300000000000006,-4.100028154976757,-0.7603170746870167,0.564222538505481,0.7345508791669161,0.6432240410715245,-0.21603454708206843,-0.6710789623133903,0.596874003861507,-0.23142286431956424,0.506710500990162,-0.6260311346147835,-0.007423935105111638,0.5926624308932193
1.7400000000000007,-3.4597235325753957,-0.6853519776608269,0.4616575812132196,0.7362546593810393,0.6469877197355038,-0.19788625229784446,-0.8396409581903932,0.5538128621520962,-0.2468062812534818,0.4937309008372238,-0.6329519333432831,-0.018482603897522737,0.5958869708508313
1.7500000000000007,-2.8242636066032816,-0.5523092510459029,0.3020917175402136,0.7375069510608397,0.6502926573854262,-0.18196406942918342,-1.0552930555491562,0.5051595625961596,-0.2504260316082143,0.4825118707223808,-0.638887269551468,-0.0282241445867604,0.5984323762613204
1.7600000000000007,-2.207791241659959,-0.3540369384895699,0.07468301787118142,0.7382623374431153,0.6531286868068932,-0.16846344098196986,-1.3302827215208821,0.44822376120844354,-0.2355470866769759,0.4732402741424425,-0.6437623551074737,-0.03650617646075353,0.6002248496737134
1.7700000000000007,-1.7449498987637453,-0.1658390254990771,-0.22055316984939152,0.7370108415267649,0.6571264521800841,-0.15790344093738626,-1.4416436634986782,0.4094736195795866,-0.22433155995595006,0.46762876707752166,-0.6474334021367578,-0.04301007506347971,0.6002162281734359
1.7800000000000007,-1.3092792203551749,0.027872506132825728,-0.536193650583614,0.7344173322072576,0.6622429535644275,-0.14833456615539758,-1.5374947285828016,0.34641814155398576,-0.20236962769020192,0.46375820029616527,-0.6507026693905033,-0.0489964720840938,0.5992426609986135
1.7900000000000007,-0.8981534100369979,0.22870324879105133,-0.8727312764230535,0.7303221660377908,0.668637777399366,-0.13979911070684684,-1.623271138750852,0.2533390029108483,-0.1673598981466595,0.4617808957639451,-0.6535536325626653,-0.05445586744704228,0.5972079236244441
1.8000000000000007,-0.34133453352921106,0.4272700846359938,-1.2105873679672068,0.7232440911466703,0.6774496321935576,-0.13376178193343197,-1.6399580545939312,0.19437118301503267,-0.15086050800532763,0.4636327676733131,-0.6554855831770718,-0.058708333086905734,0.5932238747515209
1.8100000000000007,0.1392902119386318,0.5789374982773531,-1.5317891267911463,0.7145540939614478,0.6874324676209341,-0.12935924364210746,-1.651021655723907,0.12671026108760894,-0.15823698587162316,0.4673899886022372,-0.656824685384056,-0.0624247855552452,0.5883827155112084
1.8200000000000007,0.5172654205633834,0.6731174157433488,-1.8324451642708426,0.7040682392492067,0.698704409548969,-0.12681069504474146,-1.6594557776027132,0.046254436762599646,-0.1938042406168522,0.47325118834602803,-0.6574922580136161,-0.06555738166319822,0.5826091426219445
1.8300000000000007,0.7564608630899935,0.8103307530853934,-2.0570491583696917,0.6908046781924785,0.7117574360967901,-0.12650694429705014,-1.6448841606694597,0.01622861630152651,-0.2002198226239884,0.4816321351366743,-0.657327651391291,-0.06828618476572014,0.5755159191509637
1.8400000000000007,0.9157389085343594,0.8941053093012159,-2.2395014867740866,0.6764558657977173,0.7253428206305168,-0.12680042292635338,-1.612966575827013,-0.050616906476102994,-0.18385409703110328,0.4907918095407954,-0.6569390422731359,-0.07090660425557183,0.5678421442054196
1.8500000000000008,0.984280090382764,0.907303693444772,-2.3743035921013576,0.6609399895592895,0.7394701842385037,-0.12768394076555062,-1.5608358709382684,-0.16760483529442013,-0.1408640040570238,0.5007505260956697,-0.656328414773674,-0.07341968347981273,0.5595319304531639
1.8600000000000008,1.0110030503989802,0.9155106219193593,-2.6521135420556017,0.6429540105314074,0.7547157387040704,-0.1292828017887132,-1.4697192148742808,-0.17650616619282467,-0.11702306808924685,0.5113768244193516,-0.6553309995584808,-0.07676712116480866,0.5504824883020693
1.8700000000000008,1.0497153749380805,1.0335847446515043,-2.922416423320597,0.6231000098638094,0.7708787731363494,-0.1308676133749208,-1.3544046577301712,-0.13944541557116144,-0.13026630814609322,0.5226585043736074,-0.6542778512768299,-0.08048718569578021,0.540496461990233
1.8800000000000008,1.10748751194072,1.2944352937151473,-3.1709373454683853,0.601033820892027,0.7881363334667393,-0.13237392039062823,-1.2110230791166914,-0.051942560820856576,-0.18994556703705467,0.5347330922161265,-0.6531850939691324,-0.08461973220945442,0.5293592113004906
1.8900000000000008,1.309293572336415,1.3755994673565208,-3.353575913688311,0.5764309797217273,0.805721514980048,-0.134334389175335,-1.1503669026940475,0.0191738748521428,-0.15806985172879534,0.5479920146005749,-0.6519299332787595,-0.08838480403202743,0.5164165298493311
1.9000000000000008,1.5090267073445172,1.4285173681389278,-3.5512677495633653,0.5502602303749248,0.8232321370069072,-0.1377966301287768,-1.0239395902759736,0.10009803304138579,-0.11471529858822493,0.5619577554689555,-0.6500768722384412,-0.09215139141286514,0.502900714608743
1.9100000000000008,1.6920797993562922,1.4612068759799755,-3.7753627937168375,0.5222477947654037,0.8406118568607441,-0.14321380628907418,-0.8019766481068702,0.19565984790131302,-0.06493150627448134,0.5767497913022473,-0.6474437135734291,-0.09595551275862174,0.488796565758174
1.9200000000000008,1.946628137525605,1.562939896543604,-4.003860562615792,0.49082813989585006,0.8575821035445226,-0.15136947334059625,-0.6815953378590394,0.34761185442826303,-0.0336529272197319,0.5929432158577159,-0.6437056120368505,-0.09971449646314004,0.4731036591773737
1.9300000000000008,2.2654637220571168,1.6741266788334843,-4.125260269801594,0.4583096893396093,0.8735343167416905,-0.16184656084842333,-0.5424783106020457,0.6274896712890107,-0.01955908496255032,0.6098510496399415,-0.639091221374073,-0.10305734734169275,0.45687271187103445
1.9400000000000008,2.664333240936534,1.7906619476875245,-4.099779720167002,0.4246630273357013,0.8881398536885033,-0.17519648345297065,-0.36660673947435507,1.0760489739686714,-0.026925768123329835,0.6275817053949483,-0.6334002066012719,-0.1058363188751696,0.4400805837852746
1.9500000000000008,2.874920009259926,1.5788043609635203,-3.995583747975274,0.3918312259481219,0.8988409769810954,-0.1942037258129333,-0.20958485861787426,1.248790577181086,-0.012718188704583371,0.6460429688319552,-0.62562944576358,-0.10701118554726616,0.42355624921596485
1.9600000000000009,2.7759794973426404,1.2971527524658202,-3.8704397553115824,0.3591971200193926,0.9079829944859573,-0.21413169709638302,0.004403191693591449,1.367856331235557,0.02358677098289893,0.6638135189968815,-0.6173310033897544,-0.10862337914459946,0.4076626865284193
1.9700000000000009,2.265567747190385,0.9580258619867282,-3.7255943241808467,0.3267400562569584,0.9154173986678493,-0.23465426905195055,0.30072546049053733,1.4455925301038075,0.08826280440250937,0.6805237785376673,-0.6085482456369932,-0.11104784554313721,0.39262195327149996
1.9800000000000009,1.7396205997519218,0.7642959409585715,-3.6580252094331933,0.29482803188725804,0.9220212502178787,-0.2495439671337176,0.4402333623510148,1.455927245250163,0.14421152156701106,0.693378328886646,-0.6013748886253297,-0.1163316429403466,0.37923633828330217
1.9900000000000009,1.4228950276117545,0.719194540265186,-3.6370512977628255,0.2627988727107738,0.9281852887241883,-0.26244248232918405,0.5582005738066,1.5012118679188535,0.16308074626398186,0.7053641328234991,-0.5948848368609166,-0.12190993144914135,0.365416924884769
2.000000000000001,1.410292924222946,0.8685147196047803,-3.6726475988091267,0.23052530717314348,0.9338293406855476,-0.27324570696793166,0.6667542567353719,1.6062578383923884,0.12963838930325192,0.7166290318743026,-0.5891585494792082,-0.12751801608416713,0.3507426059479144
2.0100000000000007,1.523298667940962,0.5932316438121669,-3.531966157732503,0.1990629278526437,0.9369810685771699,-0.28602760986295533,0.7799170748411267,1.6837182402430766,0.11578460520118508,0.7275748875039415,-0.5824766925903502,-0.1329157033765477,0.3368696869105501
2.020000000000001,1.5061010530459547,0.30183737269537914,-3.429616259648858,0.16761982044606735,0.9390953507594308,-0.29913827650828945,0.9560928637852023,1.6845268037460954,0.12194191636579643,0.7380244127522507,-0.5754221912899933,-0.138835982833789,0.32369769970127416
2.030000000000001,1.2765474101138377,0.05186554654173309,-3.4112091286237827,0.13608051602576646,0.9400548881223035,-0.312432018216961,1.2249811551598957,1.5759362446707208,0.15475424032572113,0.7477871634042664,-0.5679621935635254,-0.14556340556236394,0.31144163246175155
2.040000000000001,0.7234943807153562,-0.11376422371993608,-3.2813502860795136,0.10451220626480809,0.9409617280350242,-0.3210773412522104,1.2845875944144578,1.3287028123225748,0.18208760101234978,0.7553549290039149,-0.561905176077804,-0.15383832242286358,0.2997927957412412
2.0500000000000007,0.09356759695270567,-0.18273565644250453,-3.1238962700170356,0.07376402078473754,0.9425017098600286,-0.32536757727923826,1.2775785720653232,0.9617617975537442,0.2338710551759511,0.7612436153048284,-0.5574981975078414,-0.16269758266400386,0.28832264065578095
2.060000000000001,-0.5984246500212669,-0.11876027093226471,-2.943366777274443,0.04427067106434414,0.9450155950483152,-0.3238121546810348,1.2046865672693419,0.43599371112458685,0.32385032651679657,0.7649471407874342,-0.5553670013864461,-0.1721838596585983,0.27702138953549416
2.070000000000001,-0.8794653880090353,0.08146396400831611,-2.7578385746546976,0.017659616617845063,0.9484134346113141,-0.3158736115770894,1.1218356590457066,0.2713775587053511,0.35901279008720266,0.7664342156316024,-0.5561002949379444,-0.18103335145907593,0.26540651613778493
2.080000000000001,-0.9107961696280538,0.2631177843587659,-2.540505767062181,-0.007114098194719731,0.9514087792271162,-0.3074451123775544,1.0214685917336146,0.1348667932840216,0.3621405117393994,0.7675785073442368,-0.5572610461824381,-0.18899071578419938,0.2539516759894611
2.0900000000000007,-0.6280961162716145,0.39006534809148163,-2.274277890001523,-0.029550622592554025,0.9536073137330646,-0.29944862464002,0.8955272803324676,-0.025485062644694995,0.3253759947896883,0.7686022799321744,-0.5585531924928968,-0.19566989218976139,0.24280653777225128
2.100000000000001,-0.21538572101135423,0.41276536222884663,-1.9474616955258495,-0.04781722498518609,0.9537513826235106,-0.2964739778261573,0.8795827882559957,-0.12311217226733223,0.30898451180899345,0.7705123887730749,-0.5582850593487961,-0.20017717622610934,0.23345193131642653
2.110000000000001,0.1803047665439647,0.38283819344478776,-1.6525534614349235,-0.06402621447616186,0.9529079927226635,-0.2962761072794528,0.8781330433002738,-0.2628263826531259,0.30844681546125186,0.7728966113534703,-0.5570699245932613,-0.20378812358123233,0.22526876280502495
2.120000000000001,0.5217594586892002,0.28968125422409974,-1.4215282186201514,-0.07778246282836321,0.9508985190387201,-0.2995132027805916,0.8773239726244016,-0.4832554005664551,0.32923336204722875,0.7758613658337719,-0.5546518695750389,-0.20640394900948625,0.21860239661516292
2.130000000000001,0.7240475394558136,0.24703954652885146,-1.241060688673969,-0.08935231371238389,0.9477248926306294,-0.30615412507354006,0.8696129458968241,-0.6243430991304858,0.346985590972128,0.7793910445370009,-0.5509340123875297,-0.20828965341414807,0.21355762981719975
2.140000000000001,0.828767622972641,0.23202459209371207,-1.0562443785757343,-0.09958214041828707,0.9442713616675518,-0.31364118929081763,0.8359676004656338,-0.7801790082046014,0.35816911666931023,0.7829770184416857,-0.5469785770688551,-0.2097297112848954,0.20918099857005495
2.1500000000000012,0.8034096446841226,0.2513279514744222,-0.8527870117394186,-0.10808767629982255,0.940617737107049,-0.3217592338046606,0.7609381304052584,-0.9783897463828356,0.3591618003168556,0.7865283885609108,-0.5429238318746551,-0.2105970072776389,0.20554384388688546
2.160000000000001,0.7287963878906797,0.25606903327506386,-0.6402781732836741,-0.11389089391695328,0.9373815891731899,-0.3290813342919048,0.711723803721687,-1.049350881518072,0.369311985745767,0.7895468712119423,-0.5394851052750735,-0.2107343952597554,0.20285004308178523
2.170000000000001,0.6520824704425189,0.2505590616170838,-0.42822545096499454,-0.11817755295723353,0.934437961029018,-0.33591458390455897,0.6574145401935029,-1.1050485051714423,0.37444744782363293,0.792250004517207,-0.536405448734215,-0.21049660457654504,0.20073433422950024
2.180000000000001,0.5839712564422361,0.23119510916274816,-0.2191875740552532,-0.12055012416718912,0.9318891861918248,-0.34211226511101545,0.5880465031336068,-1.1662219559680214,0.3687797305096122,0.7945479499232586,-0.5337848688126353,-0.20980047049049627,0.1993696972804704
2.1900000000000013,0.4984494313458662,0.15876216653435926,-0.043263993924848726,-0.12083768534064811,0.9299522181494598,-0.34723414442739997,0.5642364481738985,-1.1812258996181972,0.3741582269736271,0.7962430196646134,-0.5317720666537229,-0.20880317121046102,0.1990290875079223
2.200000000000001,0.4144725634001155,0.07166698470573275,0.13293355053341688,-0.12009667787638915,0.9283722716474263,-0.3517017340587887,0.5492759867825016,-1.1844696001939465,0.38739030112955375,0.7975725885509932,-0.5300794251343197,-0.20775897141360875,0.19931872124072897
2.210000000000001,0.337893960490957,-0.026811776867870646,0.31853475907391593,-0.11811573636362696,0.9272528708637403,-0.355313073317134,0.5375408143050957,-1.1795540378959328,0.41140321825254994,0.798424351176317,-0.5287838435079559,-0.20671377193254867,0.20043643453662643
2.220000000000001,0.27897840461544493,-0.07523069862471854,0.5182121474124554,-0.11409668774828355,0.9267128763884196,-0.35800983843791817,0.5261507234968297,-1.1696742910183002,0.4248552261897342,0.7986852409968991,-0.5279983046595905,-0.20545478647567006,0.2027396931864385
2.2300000000000013,0.2183876987005701,-0.10003452307840403,0.7039582361210539,-0.10887751098968262,0.9264626433562327,-0.3602674132042259,0.5061325608371274,-1.1509828997124496,0.4379105703884793,0.7986577182898702,-0.5275068369671295,-0.2039642823392561,0.20560745049357057
2.240000000000001,0.1495969082787637,-0.09694656368229065,0.8604608938327536,-0.10209247973625692,0.92656486425717,-0.36200144130344303,0.47045857664484114,-1.1178618210616433,0.45334806759703156,0.7982835363052526,-0.5273959353418822,-0.2021190963893416,0.20914519005460966
2.250000000000001,0.0038176139640251072,-0.11189325928628199,1.0327529252886332,-0.09347652674242016,0.9272864237004205,-0.36243257074643076,0.4481511714726626,-1.1019092621395774,0.45612378536495196,0.7972999216510904,-0.5280283406051524,-0.19991653896581968,0.2133497667560387
2.260000000000001,-0.20829452404085258,-0.14758381033499823,1.2538269718189017,-0.08346877971438128,0.9285963426840312,-0.36149371618750276,0.4297508486191185,-1.0891034893359506,0.4515275271434928,0.7957186552856044,-0.5293636259300856,-0.1975405367650235,0.21809118996746776
2.2700000000000014,-0.5189401955864857,-0.21601051868182322,1.5603554862512723,-0.07146219229471895,0.9308004516687616,-0.3584284580042718,0.4143439916139033,-1.076671253663773,0.43728701494236116,0.7932228122135886,-0.5317660621887828,-0.19495655189401775,0.2236161452977888
2.280000000000001,-0.9368809596020331,-0.23382924059567084,2.0136379484544187,-0.05488669404449002,0.9347471883700628,-0.350736716208881,0.39749746892832494,-1.05101410066602,0.4106396823330105,0.7886902760645275,-0.5364785164959981,-0.1918386546817379,0.2308483633067116
2.290000000000001,-1.3802486509218157,-0.20784277165075699,2.443573264332285,-0.03515413078779882,0.9395478007738255,-0.34012113344606304,0.3841255838615445,-0.9667049892578718,0.3787348575375179,0.7828715057397911,-0.5426851466732014,-0.18813963936279246,0.2389884428009598
2.300000000000001,-1.8351535084380748,-0.11566274554564765,2.778286552243383,-0.01096893525524422,0.9453777956352752,-0.3255181737043857,0.3778859918053627,-0.774950697616573,0.34107057062242296,0.7752991370829401,-0.5509481761215508,-0.183515076667583,0.2482732042812025
2.3100000000000014,-2.486890658066905,-0.2419738617785063,2.727902950256178,0.014472051292167913,0.9522610357254198,-0.30380573992278104,0.3891594623636481,-0.5612288112993986,0.3109340294481578,0.7652637881799688,-0.5619607204176331,-0.17948430747974878,0.2572326094156848
2.320000000000001,-2.8281345807213296,-0.3926895734352116,2.715477316167581,0.039949919417340246,0.9590955695978189,-0.27924735489919267,0.4584188413562139,-0.09183289540368056,0.29427555907077624,0.7541120758612689,-0.5738475433863989,-0.17609927473638287,0.2661689435128873
2.330000000000001,-2.4856095857964524,-0.5098046539708858,2.9214267743994053,0.0650314582229119,0.9654411640837098,-0.251749309610166,0.6351135718043404,0.8718987311061333,0.3012984232417565,0.7416856081842504,-0.5864263238697927,-0.1737617815059605,0.2751813951282262
2.340000000000001,-2.0929738793904447,-0.7393535157198635,3.142025583643314,0.09365617210120603,0.9678610145031239,-0.23196095366883007,0.8000097911782373,1.2509053218701132,0.13286421780105406,0.7304743635678786,-0.5959070256569826,-0.16988440734633337,0.28677294933790365
2.3500000000000014,-2.1782421307586066,-1.022067956852743,3.200162235494087,0.1224624096763347,0.9692899921397925,-0.21206607176677555,0.9811758550872468,1.3668462226803084,0.03831767513742574,0.7186635377998885,-0.6051100913256235,-0.16664373781065642,0.29903763518793447
2.360000000000001,-3.251421417572002,-1.3670928535344695,2.9234233217480337,0.150207271494342,0.9702957925156611,-0.18884621631020673,1.2000447890884014,1.185924752680801,0.16414608955036405,0.705148535709869,-0.6150004112798818,-0.16531334797699918,0.311625200525343
2.370000000000001,-3.7899083976074137,-1.3822752471959463,2.597688512944116,0.1741960835439252,0.9718435878955082,-0.1554606274969149,1.1402271028205777,1.252019694525354,0.2852882282353338,0.6881945141661111,-0.627754032041245,-0.1675998045314696,0.3223116182270401
2.3800000000000012,-3.885061711445569,-1.460094092499072,2.30762601993832,0.19631300856899067,0.9727773366044902,-0.1208536462152494,0.9639805194075466,1.5009379208930704,0.2930835723681887,0.670796611478461,-0.640544423003913,-0.17093414953094993,0.3321452029010029
2.3900000000000015,-3.2880817749911104,-1.8122412293961094,2.113328307476888,0.21616008105444984,0.9721938892833515,-0.08812535034456775,0.6661774122987596,2.0237317810319513,0.06642967824392598,0.6539702269616458,-0.6521646050834546,-0.17487975360942556,0.341027335068544
2.4000000000000012,-3.013175254954079,-1.74931223348422,2.076962934591808,0.23523699229965006,0.9696305713423798,-0.06297051375990462,0.5233564217190831,2.096309145379407,-0.03845311044194219,0.6385150793353933,-0.6604720936873189,-0.17957151805546612,0.35155180882763754
2.410000000000001,-3.049192441095701,-1.678628909133679,2.0389207601547112,0.2540943080683844,0.9662050020128631,-0.03825657383856284,0.3965105574921388,1.8992135556345184,-0.08701280527915128,0.6230893353934939,-0.6685189411532141,-0.18416631595642802,0.36161524689595886
2.4200000000000013,-3.6024352236622144,-1.7860387305477514,1.9231693814782393,0.2728409647842875,0.9618549659409212,-0.010936757356014057,0.23128362954644296,1.3336903894036336,-0.07164004242469948,0.6070833862491871,-0.6775599034570442,-0.18820256618848283,0.3699170445255808
2.4300000000000015,-3.9757949522181146,-1.961617513505703,1.746120690881239,0.2903867853899586,0.9562679500837773,0.02087120648400185,0.14734459356850885,1.0679996974433923,-0.0418308992430029,0.5887353273375346,-0.6873595767106377,-0.19465129685246843,0.3777846136998268
2.4400000000000013,-4.0893825613478985,-2.1861723349823725,1.5620294946700493,0.30724644916502125,0.9499387994753448,0.05269641032971493,0.036991793643221915,0.9039194063931102,-0.023803165447917423,0.5697070975514325,-0.6966546987140811,-0.20239843927750534,0.38589839719707325
2.450000000000001,-3.718187309114862,-2.484804433794786,1.3933250120776877,0.32319256892496795,0.9425903153477566,0.08229037265176782,-0.1730062754353846,0.8134300070325773,-0.039186775493783195,0.55035568058114,-0.7044479216894411,-0.21180341329820085,0.39477744310474594
2.4600000000000013,-3.225292945711519,-2.367379856942073,1.1915109120390772,0.33731215235376927,0.9351680857884501,0.10612108785715309,-0.30798239314213904,0.7916272244557968,-0.09153251333168222,0.5332645734000054,-0.710177627171898,-0.2205701006464274,0.40296197842941495
2.4700000000000015,-2.7352831573553598,-2.2458316975030654,1.0041859092420016,0.3503897053563158,0.927953371142626,0.12640368407995797,-0.4378925402271435,0.735203493496419,-0.12867765662789774,0.517610503774386,-0.7146937803199741,-0.22888933688214955,0.41083966172185876
2.4800000000000013,-2.318138659032294,-2.3414203395788786,0.8680128088401308,0.36207981479932644,0.9212531937686392,0.14171364885734627,-0.5970750152547,0.5622330070610471,-0.11094653284460823,0.5040106533490655,-0.7175594385822871,-0.23653327798915416,0.4183940761793368
2.490000000000001,-2.121039287934307,-2.3841408698283466,0.7159360579132664,0.3727326585553192,0.9151589273264203,0.1530164632149128,-0.6516728516780882,0.4049231211589458,-0.10526182239555001,0.4916283908171466,-0.7188827067511071,-0.2442973938755443,0.4262346424550213
2.5000000000000013,-1.997979761279301,-2.312631571998507,0.5408051262615937,0.382337223069242,0.9094903558325673,0.16304467247697071,-0.7320285842421853,0.23465106537510516,-0.09361841930105519,0.4799044482739339,-0.7196731379791426,-0.2521314626438248,0.43371859627346376
2.5100000000000016,-1.9206973884108471,-2.0027229715874197,0.32062331038664194,0.39007718465699076,0.904470872161739,0.17241304112990932,-0.9343381961864629,0.024648218554660317,-0.060873481724928145,0.46902006137953134,-0.720110016486563,-0.26006013092086155,0.44019418477096783
2.5200000000000014,-1.7365449198019003,-1.5659577400587872,0.0911420821146191,0.3946719114861743,0.9005882514534658,0.1819560234158506,-1.1028900124607781,-0.06885573890023254,-0.07669783177000598,0.4598767529915971,-0.720716598756441,-0.267424785253464,0.4443934551367164
2.530000000000001,-1.4944034917113151,-1.0891948049221736,-0.14494312170510393,0.3971685102375067,0.8975769989034579,0.19127306077134842,-1.2928644847405568,-0.14717983242656663,-0.11159976291163452,0.45211177631035515,-0.7213882220168366,-0.27426806698067013,0.447155041819962
2.5400000000000014,-1.17839738254566,-0.5949386814827649,-0.3912478258578168,0.39653838358175153,0.8959709243120043,0.19993023975467678,-1.556231535846934,-0.2618953962080336,-0.16236001860210408,0.4466055295424881,-0.722111319149878,-0.280197418333095,0.44785038330947213
2.5500000000000016,-0.7783027928771304,-0.021878737930780656,-0.5952874121451235,0.3922065000620244,0.8961842173292632,0.20732473063930215,-1.6856450676949155,-0.3341583382573859,-0.20601282116150493,0.44412147597731305,-0.7228992187012553,-0.2847261946540361,0.44619414899134413
2.5600000000000014,-0.35375694003082103,0.5235275335521533,-0.7807076195009662,0.3857292211302583,0.8975290516116882,0.2135763715528837,-1.7999289005363395,-0.40634725398182303,-0.2605045681386101,0.44364891723384714,-0.723708351258882,-0.2881549498265843,0.4431440846773366
2.570000000000001,0.07535415812816804,0.9461561876325291,-0.9479298919456419,0.3763650453918299,0.9004864936285375,0.2178105015201491,-1.96679286216849,-0.5070614173496638,-0.34703670866210506,0.44618641906970247,-0.7245270063948192,-0.2897670588500295,0.4381823347213853
2.5800000000000014,0.513699034807269,1.2235441234660955,-1.0115360011872505,0.36491444469901674,0.9049317451468152,0.2187263379397549,-2.036307076772834,-0.5566865099652578,-0.3848197586948808,0.45122197432715216,-0.7246906304161143,-0.2901493679804191,0.4324314930761105
2.5900000000000016,0.9721018458517072,1.4980328412991673,-1.0308713712529602,0.3526648974331499,0.9101473312197891,0.2172116068234243,-2.0680598139791924,-0.5852907081875837,-0.404157059741515,0.4578636938321824,-0.7244684744832173,-0.2893930405209153,0.42627760826744576
2.6000000000000014,1.4758658341281827,1.8704705443036211,-1.0105346058753726,0.3398566042249185,0.9162821103255543,0.21179732506274138,-2.0724865801180474,-0.5964296663306,-0.4110144276934535,0.46686062457809685,-0.7237205909712136,-0.28657410537212785,0.41965053941174635
2.610000000000001,1.756355395266923,2.6386347404313515,-1.3472420174657578,0.3245465454883923,0.9235763068677428,0.20359873763149103,-1.9863861405541114,-0.5817532936164064,-0.40112027749312557,0.47854086965874404,-0.7226955951770921,-0.28194818132175814,0.41117608395238064
2.6200000000000014,1.9133334395462451,3.3793740943734214,-1.6947122936852959,0.30628160640711927,0.9315898086644278,0.19517260212458676,-1.7960323722198326,-0.5298920513699606,-0.3764896705583224,0.49181446167551013,-0.7218886293159057,-0.27649593409209566,0.40046774734342006
2.6300000000000017,1.9130147383941947,3.7378772853498767,-1.7925912142090483,0.28203861085418563,0.940629256555719,0.1883074430832753,-1.3965254510363123,-0.398381357158124,-0.3253796484815861,0.5072709017728031,-0.7218828675096692,-0.2702356299947563,0.3852057456542542
2.6400000000000015,1.8588630310296719,2.1944019925539084,-1.6666019201781817,0.2624639895721453,0.9483350324411962,0.17740967737373584,-1.122039950710009,-0.29983117189502134,-0.26217904860092045,0.520548459223054,-0.7197889431894338,-0.2656979742561874,0.374411848121357
2.6500000000000012,1.6949816284070764,1.1345395892606642,-1.7702558577473209,0.24223072948830116,0.955824497740201,0.16566215454805938,-0.9090234897168455,-0.1396259416664181,-0.1815517686897163,0.5329829295938349,-0.7166378394891472,-0.26316212703597136,0.3647137172971121
2.6600000000000015,1.2718315859030116,3.0076925658136697,-2.6981532707091667,0.2162638315075609,0.9638302088267824,0.15493284316141187,-0.7618527851644689,0.21915673729471052,-0.06271240905778747,0.5449027194727484,-0.7123023726683956,-0.26473635555909786,0.35431518229358516
2.6700000000000017,1.2110133101385576,3.1339188130270004,-2.568640168198058,0.18539736203022955,0.9707989169967606,0.1501818599313238,-0.8407799751111229,0.40975449233341976,0.045293077336466744,0.5586076624039429,-0.711827783813257,-0.261493963884898,0.3353927693410368
2.6800000000000015,1.6690415948809958,2.966369242339587,-2.1021251069255014,0.15565176728236016,0.9772299797134669,0.14322494098942254,-0.7924253564746637,0.6682312662377896,0.20248983551692168,0.5733296253408879,-0.7114337974647841,-0.2558281584621513,0.3154745901033588
2.6900000000000013,3.290708585292176,3.5239706338110817,-1.6177544841382319,0.13352090294334798,0.983049095458136,0.12457119526259781,-0.17585630825962473,1.272471423028258,0.5105725181786314,0.5893675633077223,-0.7078052844938633,-0.24753183456926972,0.30035063209173074
2.7000000000000015,4.270820040347016,3.7211320586019876,-1.9821290766411261,0.11204305876631865,0.9890638606944507,0.08942048346820577,0.1503453422394387,1.6656321135951473,0.48048064353213243,0.6105836884446623,-0.6989903236561958,-0.23660543380584317,0.2864944528687876
2.7100000000000017,4.576490315476639,3.107867178534413,-2.5581935563570206,0.08891348348177153,0.994445816494604,0.049154559586916495,0.37395798576468153,1.9633979108268482,0.4425254708436862,0.6330434262157976,-0.6879145564673836,-0.22647431580268215,0.2729021089426838
2.7200000000000015,3.4966153951598,0.4341912310347489,-2.94537286345886,0.06024754399508638,0.9977592328506586,0.00958721951374733,0.5725672485992446,2.18113651867619,0.7070530592894224,0.6542084538958249,-0.6751194616301763,-0.22124009460269028,0.25887204480654136
2.7300000000000013,2.411404426640771,0.43086612848951455,-3.0443189240082758,0.03223774466608767,0.998953366114074,-0.01769912423736451,0.6863147416242699,2.0285591660347024,0.8530637759790786,0.6687033028207519,-0.6645242930600812,-0.22247795806627763,0.24808762285780367
2.7400000000000015,1.5225182972403681,1.2715689755577464,-3.043934373464059,0.003864128472794508,0.9990836369134828,-0.03847187591773234,0.6885788291944022,1.7391130837957527,0.877996660012955,0.6803213940830669,-0.6555498375198414,-0.22583888590923673,0.2372927866865559
2.7500000000000018,1.2431250918417445,1.9501203668262854,-3.035740421579396,-0.026306606220672556,0.9981304433371503,-0.051893529178604084,0.43554260969404957,1.4111739726008348,0.6528818041716893,0.6899803132896232,-0.6492886471884126,-0.22904495039338152,0.22311282975153612
2.7600000000000016,1.1915511730163595,1.8109019508906916,-2.9338739564164795,-0.054774613534370714,0.9961101649879077,-0.06501168235045213,0.4170150860636446,1.3249558488580848,0.54008388421129,0.6992681332037527,-0.6435704588979331,-0.23085269510295486,0.20821363772168322
2.7700000000000014,1.1651544742914157,1.3524073302508859,-2.8189214539633136,-0.08241398000432551,0.993429814302117,-0.07772581312479844,0.5258590223898905,1.304225141946029,0.5078527022332836,0.7079644255457366,-0.6378647439503855,-0.23291184313991128,0.19388715611756083
2.7800000000000016,0.9664218803729232,0.7825569195922033,-2.7661099068000516,-0.10929894736173772,0.9898277726559196,-0.089488065640998,0.7808462536163443,1.2242921627820684,0.6080016638569283,0.7151858463395987,-0.6315966783051625,-0.23732329452153217,0.18218459635304396
2.790000000000002,0.4998697202893401,0.7280789426115764,-2.734909842522509,-0.13570421300523391,0.9857632110818724,-0.0971333360324737,0.8564180290907145,1.086112555803123,0.6326443968243194,0.7206514603478725,-0.6265411790179646,-0.2425899547208092,0.17070896125800158
2.8000000000000016,-0.12316109070357965,0.8559698497858934,-2.7184188197495955,-0.1618075448583366,0.9815293599948893,-0.10106889666458288,0.8327925561743159,0.8623532023439129,0.6271985652467167,0.7247397184076378,-0.6228031700983152,-0.2481385859288442,0.1588487064804465
2.8100000000000014,-0.9450807397859482,0.973724124633833,-2.7248654772197116,-0.1874829827444439,0.9772860030687501,-0.09763199147285874,0.6945542119898683,0.4247967944875718,0.6120883493866264,0.7263611951880456,-0.621980542922386,-0.25360207175211663,0.1454458487465491
2.8200000000000016,-1.6118270469172833,1.0966867098824133,-2.6226093411139497,-0.21255281742131507,0.9730873106061239,-0.08630937673885743,0.6500441730264419,0.17798207371366118,0.6039857326375693,0.7252148681494064,-0.6242806964079043,-0.2590282342053902,0.13070697389350056
2.830000000000002,-2.1217186441278706,1.1927386886603923,-2.4520267251289476,-0.23665165130499,0.9688699737692609,-0.07103534277492607,0.6694904201577975,-0.021676231096821083,0.5680271351265161,0.7225695027429982,-0.6282456791595884,-0.26415042557490115,0.11549774793392968
2.8400000000000016,-2.291334685178766,1.1897724926688533,-2.1857039403284593,-0.25819079895446473,0.9645316167490745,-0.05226636563485613,0.7887950003209283,-0.30300115914559217,0.42750821909693576,0.718312569060127,-0.6339380816520636,-0.2682769124829059,0.10037982377066941
2.8500000000000014,-2.1768575573664157,1.1266899994316857,-2.002589881308793,-0.27763762005063974,0.9598807363310717,-0.03392457618622473,0.8771225855498711,-0.4415602945865316,0.3264401225698966,0.7137199041766562,-0.639641068788502,-0.2717950642713465,0.08630157223467287
2.8600000000000017,-1.8706104968554416,1.0275421992869733,-1.8627012195017811,-0.29596240135697277,0.9549775578508125,-0.01708464006508582,0.9472896398202877,-0.5203701845185428,0.23109268349356227,0.7093405735532985,-0.6448391906084289,-0.2750169962513666,0.07305386582025067
2.870000000000002,-1.269997439227542,0.8822051563642148,-1.7628726631172897,-0.31315461962483737,0.9496031335587904,-0.005015050979133124,0.995165943489594,-0.5818552414866718,0.10205194303477072,0.7061824192709873,-0.6482222812927297,-0.2780166606838002,0.06134255741990425
2.8800000000000017,-0.6270904530601737,0.6385331854226204,-1.5858990307246592,-0.32882327565477937,0.9443114629538385,0.0009100854097741833,1.0372413604875637,-0.626884363534802,0.03059291144517924,0.7048466654059664,-0.6491895022234763,-0.28107416233518534,0.05191322032548888
2.8900000000000015,-0.019159000102973278,0.3563045259743875,-1.3630725400752115,-0.3431022100966612,0.9392704509224796,0.003038623560662851,1.0765466975406148,-0.6826693430539235,0.001557470355331581,0.7046403539154105,-0.6486573982355774,-0.28418009027028135,0.04423231824049293
2.9000000000000017,0.3969237788336537,0.0759491924203804,-1.0838952613109503,-0.35447428009197224,0.9350364095422137,0.00014347848172648016,1.1141262581395102,-0.8025299164586434,0.044961499268789666,0.7059366239622543,-0.6461256981046142,-0.28738032362028526,0.03967113524545211
2.910000000000002,0.6792254842155743,-0.09581324609114643,-0.7918384195622238,-0.36296172043147673,0.9317606584773134,-0.005019258079744035,1.0906424970777746,-0.8666397962297293,0.07172291113892164,0.7078905528281827,-0.6428077755803169,-0.2903043611682042,0.03737285460600026
2.9200000000000017,0.9124259309705207,-0.19860750665569948,-0.4853705594911037,-0.36934229204386604,0.9292072667922615,-0.011682559037737518,1.012620040800208,-0.8987539254646203,0.09441726155655256,0.7102852306989093,-0.6390580716685528,-0.29284509880321175,0.03651447594145605
2.9300000000000015,1.1678136774306294,-0.2071415844444733,-0.14369257542457659,-0.37215911778356353,0.9279243340755543,-0.020547095237953852,0.8208266945887795,-0.8956339212776532,0.12774381485791259,0.7133397162077482,-0.6348864415310707,-0.29434437589335527,0.03763080079694142
2.9400000000000017,1.4329102757148904,-0.2074832239104531,0.161894612000915,-0.37184172699134876,0.9276906207127635,-0.03211365229301791,0.7107588248217884,-0.8771529925087292,0.14165709394775655,0.7172224350149415,-0.6301426368543884,-0.2947022851982421,0.04039663451773327
2.950000000000002,1.6883642901162899,-0.19876837506899359,0.4394898674303279,-0.3694875120489373,0.9280804995981242,-0.045504289173339235,0.6409387040892406,-0.8470657442248479,0.15010963665118332,0.7216521790653262,-0.6250029756405704,-0.29429561223128253,0.044225625607160965
2.9600000000000017,1.8885746691093215,-0.16760185731742966,0.6660024973383871,-0.3642801752187397,0.9291914552159787,-0.06162828398846719,0.5938420759767254,-0.796472341674037,0.16963394813465482,0.7268711610414074,-0.6192459673572753,-0.29275816449873765,0.04952082052671823
2.9700000000000015,1.9844859310387732,-0.13214816376671587,0.849223029149624,-0.3571691267308882,0.9305540805566103,-0.07922033320555001,0.5873705302560948,-0.7814807648387385,0.19786804837513916,0.7324421900938664,-0.6132190631254387,-0.29039079478743574,0.05564654784695812
2.9800000000000018,1.992204640334222,-0.0908111274201108,1.0069682764235521,-0.34882649525215287,0.9320612556945124,-0.09734878040516227,0.6036700414766054,-0.7911233803878828,0.22772323590095503,0.7380947717835527,-0.6071823147810911,-0.2874786160025141,0.062218559676918514
2.990000000000002,1.8214167469051694,-0.03268196955744944,1.1372242029179995,-0.3388088947962985,0.9337133899658769,-0.11503831483635814,0.6410141521325861,-0.838797374535171,0.24843760086983485,0.7434449930702115,-0.6015979214095608,-0.2838031549238905,0.06914023684332915
3.0000000000000018,1.5426486811304931,0.0031449134709431326,1.3157346513951753,-0.32719214418456294,0.9357943236614897,-0.13049467274905124,0.6493230187989316,-0.8767789695728995,0.2663798123052184,0.7479396503846513,-0.5971656792287198,-0.2795093745504177,0.076134583630692
3.0100000000000016,1.196894483788862,0.01175606142878279,1.5401608017408117,-0.3141594743777014,0.9383519779692039,-0.14391984181630751,0.638470054944738,-0.9138704897328483,0.27823029022317325,0.7516675184749833,-0.5937415233858291,-0.2747789428945736,0.08330625881592568
3.020000000000002,0.7708744656453204,-0.05468850839008594,1.8702984800041222,-0.29808558471697194,0.9421492716659152,-0.15286249583008682,0.6010096646052115,-0.9661453292324444,0.2689127024237413,0.7537278463356292,-0.5924558288570659,-0.269356939466901,0.09110992534251178
3.030000000000002,0.3908250268338348,-0.1572389589952741,2.2807069222965777,-0.27826074337407075,0.9473239680968608,-0.15768310225402013,0.5640682033673488,-0.9643647335652982,0.2569633737406081,0.7541602275682275,-0.5931470626653517,-0.2632691224529377,0.10015932316418424
3.040000000000002,0.05084000495886061,-0.28917653819485134,2.7117197106710877,-0.25559563678500125,0.9533914869798679,-0.15975067988842676,0.5292972916381564,-0.9036167138928289,0.24129759497725287,0.7534503719208347,-0.5951579415449496,-0.25670083684968636,0.11023420757032304
3.0500000000000016,-0.20364490689278547,-0.4787667308587712,3.0666057744144783,-0.22791260764117352,0.96061578946921,-0.15798579989895772,0.5033398004561638,-0.6881755677423083,0.2142383287749598,0.7509758845869278,-0.5990036474999693,-0.24935006289125933,0.12235106368520479
3.060000000000002,-0.4227485139104076,-0.6107088470349976,3.107973002476692,-0.1988343100866263,0.9677211558800243,-0.15308578278563614,0.4921407042609571,-0.4614248727699257,0.21109167913483687,0.7470709093404838,-0.6038324498369769,-0.2424938571637102,0.13533593738564706
3.070000000000002,-0.4611951235730022,-0.6575295378364661,3.094002298180186,-0.1689551257453049,0.9743926728734931,-0.14762499868942358,0.49164374533873173,-0.12185432768120022,0.2355161778916428,0.7427318313963379,-0.6088012670309075,-0.23565115431644235,0.14872401895813775
3.080000000000002,0.2824912392847686,-0.4295139302821699,3.5324764024229647,-0.1384400058775126,0.9792635509312477,-0.14665325358056244,0.5085301881295351,0.7308164894751865,0.3369804665513024,0.7395895237086286,-0.612191289432277,-0.22774221855967416,0.16205372474009347
3.0900000000000016,0.4755860064119594,-0.6085191555058638,3.689182013222422,-0.10363683058776456,0.982824500033975,-0.15010701016444755,0.5733487439068597,1.1517047932029243,0.3140024937353396,0.7371234131009894,-0.6141964141706319,-0.21828887475678346,0.17760978240842248
3.100000000000002,0.23554682229217827,-0.9471305524533558,3.6614233662623814,-0.06748235737446806,0.9856251022557252,-0.1541152923682132,0.6792776716370479,1.2876842325893978,0.27152595323881273,0.7343870140796457,-0.6159225335772844,-0.20873419154013512,0.19409174785206434
3.110000000000002,-0.8139478869039669,-1.0802594539454442,3.4056122048230697,-0.03514556855422407,0.9878521643370287,-0.14997816443733603,0.8727123010270273,1.0630048765576183,0.4385418807630532,0.7286288628354911,-0.6196696521203867,-0.20248352015379864,0.20971447266275714
3.120000000000002,-1.4752053523035507,-1.1019939219617605,3.2427773096384067,-0.003733212217210777,0.990106416213237,-0.13781131353687254,0.8618821236305854,0.9885500314319907,0.529059879106097,0.720140630232369,-0.6261775593086577,-0.19735648674505474,0.22393544718577837
3.1300000000000017,-1.7969621935850313,-1.1113340169784653,3.0972032522796558,0.026656299378005847,0.9920999171334072,-0.12171371669254538,0.7239905127992644,1.0477350121633053,0.5254194809322289,0.7102668971956128,-0.633921735100117,-0.19306585901552314,0.23732228708476905
3.140000000000002,-1.3709188616473362,-1.3527405841729534,2.7942646040356323,0.05413857539310862,0.9926510425394162,-0.10638799959512799,0.46353019224251396,1.4082172587883708,0.23120621839669103,0.7003978737947347,-0.6407953002232082,-0.19017157836057577,0.25006666235844466
3.150000000000002,-1.1648937954211949,-1.6865949116065846,2.67102774117476,0.07972362043042192,0.9920860373458067,-0.09499564192008389,0.3048631878269262,1.5771583920565222,0.024937973278380557,0.6914010814442679,-0.6457833960283016,-0.18829785875432276,0.2632888118879033
3.160000000000002,-1.130457100754986,-2.0303196646414983,2.6384778829356033,0.1042419104889052,0.990796589777229,-0.08551502046521908,0.20240877713946653,1.600021667946153,-0.10878979624930162,0.6826666350288662,-0.6497649053633902,-0.18720295717381746,0.27687897038826015
3.1700000000000017,-1.4080068560544954,-2.1616883670869256,2.5877711431286246,0.1283485817664907,0.9887303117393194,-0.0752327268308577,0.11639487366115947,1.369501753645887,-0.09599010722864701,0.6728625954147125,-0.6536329289013977,-0.18746083814075967,0.2911212326030016
3.180000000000002,-1.7101810982499108,-2.1820996748219303,2.534764562986468,0.152267925797246,0.9861438823366557,-0.0624953011297993,0.03795365871088456,1.1637311929058975,-0.11239087933751767,0.6616935750420597,-0.6581292354688572,-0.1886891469502324,0.3053181423642643
3.190000000000002,-2.0066831757680976,-2.1717887461868215,2.4681576782525205,0.17589315226395016,0.9831570519551089,-0.04796764433259566,-0.046308233605599824,0.970884479999116,-0.12660891911974304,0.6496034433005833,-0.6630983926194434,-0.19054886824548986,0.3192689562390459
3.200000000000002,-2.1931984455102813,-2.329976645851864,2.3297005439143152,0.198394918640701,0.9794700626382189,-0.030714516051615303,-0.18808529386303438,0.7757387053467618,-0.03680763229148197,0.6364292976331962,-0.6688505638267718,-0.19304298681857815,0.33193133742511965
3.2100000000000017,-2.234041786832721,-2.4752050865350146,2.2121174860523145,0.2200492443164323,0.9751783781742781,-0.014100846285751905,-0.29010538319215645,0.665940292642399,0.005912292909229401,0.6228204636248114,-0.6739807350139323,-0.1966644345333418,0.34488226993696086
3.220000000000002,-2.18421757446764,-2.5800557070130608,2.1027499248436246,0.2410454989225012,0.9704510003563054,0.0018479518036010948,-0.37872708395834015,0.5935120012815086,0.021562440282100893,0.6090211994478155,-0.6786250887028887,-0.20096065522453824,0.3579164801144533
3.230000000000002,-2.073273254786353,-2.481328132662671,1.972848952959738,0.2608852304649553,0.9651061148000728,0.015891979832925365,-0.5202477023924202,0.46030637837498667,0.03115832658691251,0.5955308839431555,-0.6824033524118013,-0.20556499757110763,0.3704811131160254
3.240000000000002,-1.9474218913951404,-2.3800627575634157,1.829656228757063,0.27963560265515625,0.9595387233462941,0.02851532011806249,-0.6393671686875841,0.3615001302507803,0.029659051129375277,0.582614938394563,-0.6856673620822751,-0.21000625412438756,0.38228702495833633
3.2500000000000018,-1.8230780138235565,-2.266597904386497,1.6754013990474679,0.29746891889686666,0.9538509388614649,0.04011671204248671,-0.7576341150303932,0.2713891340463358,0.021654627981873335,0.5701549317559141,-0.6885573384457296,-0.21434271800109767,0.393474304306571
3.260000000000002,-1.763569237052342,-2.083456156518042,1.498564922316853,0.3133838941239781,0.9482049564467266,0.050343998737130066,-0.9531268211433674,0.11055107451527427,0.012483023984905615,0.5585276426108796,-0.6909232698184408,-0.21860257459237092,0.40345562064455376
3.2700000000000022,-1.719560102673011,-1.7750060950881295,1.281254702078969,0.32744552137500604,0.9428299170870427,0.06069489382761188,-1.1003695431057885,0.008879329815547128,0.0007626650427030261,0.5476013159401292,-0.693364438238625,-0.22266838484350598,0.41193776400830356
3.280000000000002,-1.6819007662840015,-1.3819116228225132,1.0294410938486145,0.33986630827539543,0.9377480385538712,0.07127473622342914,-1.235447084997658,-0.06687306525600345,-0.019608544306195703,0.5373092053758557,-0.6959187730530633,-0.22656276143207027,0.4191004377273395
3.290000000000002,-1.6254391182683703,-0.9120660330945409,0.7036374419885872,0.3484808543383776,0.9335885484122758,0.08292922460459533,-1.4812621796484895,-0.2028578272332665,-0.08912949044181512,0.5285502573618314,-0.6989473633387887,-0.23006111622687186,0.42323785359878563
3.300000000000002,-1.557113480986861,-0.43365189811470484,0.3639577233214438,0.3538009661063607,0.930381122463993,0.0954594084637538,-1.6363024539927264,-0.29338851484740064,-0.14922388971464748,0.5211647721976952,-0.7023309185079477,-0.23334189803985447,0.4250105393620966
3.3100000000000023,-1.4686439384508199,0.05009974919686833,0.018197047686791812,0.3564631099399153,0.927953104021302,0.10864246279200443,-1.7326858979585102,-0.357379976846238,-0.21298341254889688,0.5149128552002001,-0.7059872996241973,-0.2364301616640155,0.42489867395763087
3.320000000000002,-1.285355219519142,0.5350930631918692,-0.310866861202609,0.354225570508219,0.9270233730043398,0.12273629789906615,-1.8005018659939684,-0.4277419805625603,-0.34499681171336943,0.5108894232432184,-0.7100726071093927,-0.23907089182562707,0.4214401172329086
3.330000000000002,-0.9670678400974813,0.7584495624812025,-0.5831343362168833,0.3491258683670432,0.9272223660471194,0.13517469450480935,-1.7895565415924843,-0.46001094873600923,-0.433198321297592,0.5086663428676542,-0.7136404741767822,-0.24144603008802346,0.4167180161871779
3.340000000000002,-0.5476458802587019,0.8376575449691535,-0.8157550117324258,0.3418691134389879,0.9283484020661016,0.14585183450810849,-1.715575892928129,-0.46945584862976913,-0.49237241640258345,0.5079592970598158,-0.7166611758314906,-0.24356133230735416,0.4111503910278129
3.3500000000000023,0.00692785595920431,1.0582990152924405,-1.0140907716035201,0.33164694646147047,0.931238043763219,0.1508184854736485,-1.531389068552366,-0.4852057836049013,-0.5371990537604808,0.5103559451460647,-0.7179230119671006,-0.24493729203624406,0.40510389842382016
3.360000000000002,0.4857943669016831,1.3344399273033156,-1.208349019496691,0.3193702623513063,0.9352771352589067,0.15213685536210314,-1.4088686509660748,-0.4950085621164731,-0.5459993966691503,0.5150570156952016,-0.7182513862755465,-0.24532284583132297,0.3982428555791764
3.370000000000002,0.8867791469969604,1.689090511108811,-1.4053377412598238,0.30528577906834353,0.9402008289425452,0.15088334398205697,-1.3133652396710875,-0.4967858982889558,-0.5240807804226758,0.5215541549938935,-0.717952181622228,-0.24492008686476416,0.3905256388747097
3.380000000000002,1.0415242574440795,2.4023845281865697,-1.6466642168485395,0.2870618461105683,0.946385645477259,0.14758830791704478,-1.1155026546629652,-0.46335447256321444,-0.4377365578029021,0.5307676931364681,-0.7173840738326591,-0.24321353950624244,0.3800074672765352
3.3900000000000023,1.099566457621056,3.128556592473599,-1.845935511640587,0.26584787803476584,0.9527790922053513,0.14567543210105252,-0.9591316174111921,-0.43565590731238585,-0.36039610697073204,0.5414574972954951,-0.717958886431908,-0.2394953420239174,0.365732131160931
3.400000000000002,1.115845118024526,3.456773316365393,-1.9975844845502388,0.2427963192544108,0.9592861843123859,0.14400792325315692,-0.8208498761682222,-0.39970466838590113,-0.27773959610615506,0.5529319989317331,-0.7188738846429074,-0.23499622171532814,0.3496182574318111
3.410000000000002,1.3252749047445638,0.15598294687613734,-1.9701663829570346,0.22083892823659143,0.9655867998572991,0.13644047186209718,-0.6012136759127436,-0.2565000979071928,-0.09490531321458898,0.5627717325099013,-0.7161361226288967,-0.23529964832624842,0.3390807765153321
3.420000000000002,1.5592480718657313,-0.07317553568280277,-2.1601425677723047,0.1997802752559547,0.9718723427827103,0.12305484633710347,-0.44353398529618165,-0.10726027657554903,0.02111149096188032,0.5719414916824477,-0.7100082813211533,-0.23948352022996064,0.33363498128981967
3.4300000000000024,1.829522220774427,1.877100039066582,-2.4718378338703064,0.17847668874668837,0.9781320557681664,0.10611015903909923,-0.37692352151731723,0.07679761342383669,0.09578792592282082,0.5814180869490331,-0.7021822581156908,-0.244921980983941,0.3298536390882082
3.440000000000002,2.2897484712870018,4.8818733102324785,-2.5455058480418176,0.14899842110030448,0.984241122206389,0.09263834525981128,-0.7843647101754361,0.5564195551477803,0.20585785601936749,0.5981827840310463,-0.6999896153360725,-0.23728773779983464,0.30909456425349446
3.450000000000002,2.976182442184286,5.542469515155367,-2.269680061107289,0.12090579196723043,0.9896080716137651,0.0731044779338616,-0.8486328964978311,0.9091073867174675,0.25329643564594795,0.6171664197604961,-0.6967711878398004,-0.22570636649319142,0.2863808891720012
3.460000000000002,3.7506500307038593,4.4973502700119585,-1.7783712671588403,0.09467328134425886,0.9942371068450888,0.048288879250174624,-0.6148322430822012,1.2040435771532698,0.2641706969385282,0.6375204710754394,-0.6922866403905007,-0.2117993354803509,0.2633668693171889
3.4700000000000024,3.8109460325167195,2.5889332890215773,-1.5627211164001973,0.07782403351339652,0.9965313324669016,0.012171279663001196,0.24908715706286055,1.8127315861952447,0.3458127667828427,0.6561484495683172,-0.6820110225685597,-0.20213016323766278,0.2513185350088179
3.480000000000002,3.446577179427127,-0.029141547526618128,-1.5686406997739804,0.06355552981081367,0.997354617066719,-0.022938419818107462,0.6433478793173254,2.0388147943442894,0.4371633095057387,0.6711415087528673,-0.6699290448908141,-0.19906901780680292,0.24689077266154388
3.490000000000002,2.7448448059762804,-2.596459094754199,-1.7883204409616154,0.05023075515764594,0.9971036093824526,-0.056149119254337194,0.6676365326062861,1.9762144897044571,0.54473236187952,0.6832995728248084,-0.6568958453040153,-0.20099827154907893,0.24730940122583286
3.500000000000002,1.6429996063975023,1.139258113680679,-2.6449128524009264,0.026784814810825213,0.996536029512883,-0.07595020015399616,0.2849923241016634,1.7263252698759934,0.7579459305077197,0.6926303815661128,-0.6476492359723348,-0.20621328954359516,0.24120843327904337
3.5100000000000025,0.9267883536435959,2.548042993075682,-2.6600213723993593,0.003553731062802847,0.9959129239793343,-0.08849785694410746,0.02011879245247848,1.5832705294177132,0.7750077328868912,0.7011687538260332,-0.6424713921643342,-0.2073090036932997,0.2289714518714627
3.5200000000000022,0.5144225840533393,2.1834201213123046,-2.109095772624367,-0.01926557542303622,0.9952168898354009,-0.09554455157125956,-0.08460251317832361,1.5128582401755466,0.6585985915805105,0.7088838429495525,-0.6402462728586157,-0.20569705447742484,0.21270061777407398
3.530000000000002,0.37478711187763947,0.9184893014280215,-2.1676218016032545,-0.0389210417544283,0.9941191590446984,-0.10012065187925537,0.730617280788,1.3747455790407521,0.665285923467437,0.7135678578716212,-0.6377549676684596,-0.20785397115353463,0.20203653861507054
3.5400000000000023,0.11541801497785711,0.4208182691642235,-2.2300970622189453,-0.06008790786679219,0.992767835093183,-0.10263993431676774,1.1156260218719183,1.2253486224300743,0.6400801048034757,0.717151956566512,-0.6353114881108006,-0.21221910390004795,0.19226248250955458
3.5500000000000025,-0.23414279671816485,0.5198882196883107,-2.281225623140613,-0.08229461136944037,0.9912196330874243,-0.10328021754371573,1.1443699030742982,1.05061630453777,0.58774801307184,0.7198117489526714,-0.6330681420839027,-0.2181345766804031,0.1830278500968164
3.5600000000000023,-0.5880052167039829,0.9043469204008929,-2.1359584621830163,-0.10320175928484658,0.989581984592069,-0.09932260170585633,0.7157715122772577,0.6444448247556742,0.4916989217431371,0.7211177151413238,-0.6330786036015656,-0.22257807871174995,0.17202739998892586
3.570000000000002,-0.8925990041823593,1.151424107720038,-1.9639158388951288,-0.12244721096159142,0.9879964356532772,-0.09307751327365686,0.46766118619094005,0.3567766814032032,0.42843982834085265,0.7215900305901978,-0.6343500976385108,-0.22595370516854332,0.16053630315387077
3.5800000000000023,-1.1449077433127652,1.2813745312426255,-1.7738303255700731,-0.1402540446401324,0.9864492395995405,-0.08495402853016958,0.3686119567127576,0.16215864642344668,0.3905065786138763,0.7213566440262871,-0.6366583783136425,-0.2284467379342788,0.14869466526829572
3.5900000000000025,-1.1783937152225814,1.2400925854335172,-1.6236401072961242,-0.15565420561260077,0.984874105538289,-0.07507922738261727,0.4207666731794286,-0.006975447436179921,0.3531749576933167,0.7201613684837961,-0.6399515476855242,-0.23003506834522724,0.13727915658561884
3.6000000000000023,-1.0853490793358571,1.1540150708048824,-1.5072317445565095,-0.17021843889339366,0.983124080858371,-0.06596079429980171,0.48116669742012125,-0.10322956177032573,0.31564167382912967,0.7189682752605523,-0.6429752059635501,-0.23151092441366555,0.12652754591139131
3.610000000000002,-0.8885841899096825,1.0326326087560291,-1.416066893261075,-0.1840500343221714,0.9812183717392285,-0.05762883074733009,0.5467456240471786,-0.14517914683569647,0.2769368127950474,0.7178180705852341,-0.6457131268779757,-0.23289445137132755,0.11638575865334316
3.6200000000000023,-0.6313765937454814,0.9142432387473161,-1.298838237945891,-0.19666515937787027,0.9790167209717825,-0.052527358333063635,0.5890293799063016,-0.2460310793053313,0.2207906938855879,0.7173773374783584,-0.6472051402837574,-0.23422199002863467,0.10769201905729198
3.6300000000000026,-0.3972272456272524,0.8243925921228538,-1.1742034455599888,-0.2082628102308387,0.9767967476914479,-0.049289920671085875,0.6087940595181942,-0.3249886793863919,0.19282429453516278,0.7173873691654316,-0.6480411410214619,-0.23536599541017883,0.09986790984654004
3.6400000000000023,-0.18241224099147105,0.7603776659899664,-1.0450285161552864,-0.21895369204911683,0.9745645626889363,-0.047714881957412435,0.6086498396792477,-0.38998956553008995,0.18762976158647582,0.7178034527117512,-0.6482960708600849,-0.23633601887057867,0.09280592420878579
3.650000000000002,0.020883573191238902,0.7482427568344653,-0.9451164583243925,-0.22807792007705502,0.9723854366231629,-0.04903324876665802,0.5769904605557205,-0.5309386589882664,0.17959974547299665,0.7189991115098653,-0.6476112775003385,-0.23681780823136872,0.08682855813915769
3.6600000000000024,0.20291040198343446,0.7366760363822707,-0.8388939366125491,-0.23633973194098085,0.9702641492203582,-0.05186879073749597,0.5564876993158387,-0.6249480800855297,0.17405486895309072,0.7206238052509848,-0.6464553650323123,-0.23698060308578298,0.08136651112905649
3.6700000000000026,0.36758344084836325,0.7236981974711002,-0.7279701445973078,-0.24381348181322968,0.9681974307314376,-0.056069832983115894,0.5455279308492834,-0.6796656152858213,0.17099483455890224,0.7226341231249699,-0.6448747501111975,-0.23685712395902384,0.07637707010160953
3.6800000000000024,0.5416611264459822,0.6673066929685363,-0.6301411453600883,-0.24972540517254868,0.9662749858690928,-0.06253796517363909,0.5397672572381161,-0.7322794742010217,0.1773614983793231,0.7252735831602484,-0.6425744472191695,-0.23627608691488888,0.07236036848502968
3.690000000000002,0.6977575210199541,0.5688530535147356,-0.5302467574522072,-0.25489754392289865,0.9643995918041428,-0.07007739548317024,0.5417905007851597,-0.770357869610747,0.18114947356090333,0.7281926786226737,-0.6398515845533034,-0.23568223759327367,0.06902838163974814
3.7000000000000024,0.8370948290827861,0.43360375877924934,-0.42633132501863213,-0.25937267791661156,0.9625726156055299,-0.07857679922630295,0.5505400868560493,-0.796605245776489,0.1827555120519862,0.7313593445640928,-0.6367475035531939,-0.23508196851297083,0.06634147491359568
3.7100000000000026,0.9396096646741487,0.27852923966316046,-0.26045389450853984,-0.2621261790895271,0.9609677316003205,-0.08820939431061497,0.5606731202610469,-0.8403638802308685,0.18518109745657357,0.734738993580311,-0.6331256862238986,-0.23460754822835464,0.06524695825295529
3.7200000000000024,1.02452752939823,0.1413852941844399,-0.06674289854226671,-0.26348554231217375,0.959626442590381,-0.09817090482209645,0.5589937051001739,-0.8684014393583466,0.1903324863855517,0.7381291502602406,-0.6293923911632087,-0.23403408780802246,0.0651501317438408
3.730000000000002,1.0926343875379292,0.021824377302028606,0.15222384123291988,-0.2635248409388383,0.9585364693726163,-0.1084319532510001,0.5458298364954878,-0.8824390874166731,0.19779196081493644,0.7415264116388245,-0.6255626361675322,-0.23335539836682723,0.06598380803081222
3.7400000000000024,1.1157966623588829,-0.03649598523458981,0.39681128687302225,-0.26040552179968496,0.9581025147246,-0.11903273774901924,0.49569544654952474,-0.8910387244505827,0.20213015924045957,0.7448505659438961,-0.6217901572970085,-0.23206219814208365,0.06859486773008497
3.7500000000000027,1.1043320691267526,-0.06900524854995214,0.6233540102014818,-0.25557355493317585,0.9580356167899742,-0.12951317915438681,0.4591100669950232,-0.8923236514789626,0.20955179523631295,0.7480420055263697,-0.6182260331581276,-0.23028593710201675,0.0719482290537703
3.7600000000000025,1.0590119198674777,-0.07793173848628178,0.8324620222405323,-0.24913491608231852,0.9583148758868609,-0.13985398708244814,0.4350598591096778,-0.8869906536972445,0.21966587739471738,0.751099973799927,-0.6148683636904237,-0.22805569450282678,0.07599242691927512
3.7700000000000022,0.8998847747795027,-0.07578731065586199,0.9915453555527138,-0.2400932856333868,0.959232901096561,-0.14881908569407207,0.42377509547662723,-0.8814330209040299,0.22553523791121813,0.7535561156922972,-0.6123177711428851,-0.22505505190618766,0.08091799422666367
3.7800000000000025,0.6591765570291337,-0.06972585743549303,1.1185557434126399,-0.23006574663140866,0.9605390880362467,-0.1560621901411293,0.42072154024486674,-0.8810904473983521,0.22789280723978503,0.7553946509200841,-0.6105509536215274,-0.2217872316587625,0.08599530631280104
3.7900000000000027,0.341480108724604,-0.06044194792348603,1.2146875449635854,-0.21910942050433274,0.9622188668006167,-0.16162483192598395,0.425654604647674,-0.8853116510985873,0.2265741365668152,0.7566325135279517,-0.6095450056475048,-0.21827082997479805,0.09120903879248313
3.8000000000000025,-0.05727884785645243,-0.07776002917674654,1.2396284931624415,-0.2072774602617765,0.9647528190485947,-0.16191186726418558,0.4528419939414068,-0.8717059619511262,0.19846965370528794,0.7561093657257589,-0.6106828300478795,-0.21471761046185606,0.0961373198919718
3.8100000000000023,-0.4306208490958323,-0.1741507128957167,1.2734723806346473,-0.19534161920700965,0.9676591342894484,-0.15932368506734304,0.46904069010672483,-0.8530565513840838,0.1654785692814173,0.7546122074919273,-0.6128626477589233,-0.21149020105635175,0.10103086217258456
3.8200000000000025,-0.7789506306486427,-0.3470810343012074,1.3171668219980355,-0.18329630747177725,0.9709264578309119,-0.15394816253558108,0.47474628967427035,-0.828484422183703,0.12749988259981712,0.7521687480279733,-0.6160507750687588,-0.20858331760354426,0.10590263961967245
3.8300000000000027,-1.0381307479401904,-0.654499145849854,1.5142616881238466,-0.17007422081451076,0.9748914037158752,-0.14320850858533016,0.47786580705675313,-0.6786353821001015,0.052327637693621185,0.7476770900672153,-0.6209769205711576,-0.20680844227798464,0.11204555460262924
3.8400000000000025,-1.1940940344203115,-0.9496795634260007,1.7252675463076497,-0.15531320182327088,0.979010375771541,-0.1310800604037587,0.46692658244473856,-0.5353478095388806,0.010909092650631974,0.7424386635769334,-0.6263035772343533,-0.2053940959522582,0.1194535356436951
3.8500000000000023,-1.2476401681464013,-1.231717135646739,1.9495633398204129,-0.13904186119345066,0.9832785107631591,-0.11759813238499203,0.44217360928054505,-0.39738568235871485,0.0028243181495727805,0.7364704548817734,-0.6320202505409392,-0.2043312154504277,0.1281016588768121
3.8600000000000025,-0.648411525643603,-0.98726625479767,2.0313171239505396,-0.12053246807371593,0.9868725620979134,-0.10636077456741681,0.3896203919769513,0.23135883810667995,0.13705996073800814,0.7308097965082183,-0.6369502672341855,-0.20273253047347575,0.13795869344184616
3.8700000000000028,0.26073452570148725,-0.7676670454044494,2.3037401231402246,-0.09952320825203569,0.9894461557200129,-0.10388913811596413,0.3574980298494129,0.766843454230981,0.21021576915676232,0.72785238687205,-0.6391143720284413,-0.1989216524414592,0.14868746754256026
3.8800000000000026,1.4811325294380338,-0.5730265219066832,2.767653383138193,-0.0760033169863029,0.9909948974095177,-0.11022096933519625,0.34589450074364764,1.208666577074057,0.22202872591681094,0.7276098665041371,-0.638500654557341,-0.19288905537136788,0.16029173499961952
3.8900000000000023,0.8439280978537185,-0.9968772241293737,2.4995067031472415,-0.051105702652172624,0.9910677079306387,-0.12162843972954923,0.6563359051140109,1.3453313456010056,0.12509668247312952,0.7283742863360709,-0.6358372867642226,-0.18674591579162594,0.1737612634363593
3.9000000000000026,-0.03766538445314205,-1.2422334288333488,2.345725233629063,-0.02810144176488879,0.9916073685548463,-0.125278420588773,0.8511411846899152,1.3358794614730116,0.1593250499719855,0.7264557379279445,-0.635616358035358,-0.18261401953776205,0.18659229804957328
3.910000000000003,-1.1628748732953194,-1.300719008489357,2.3131956196975847,-0.0070559231166183525,0.9926351454303235,-0.12090557594631994,0.925239892571367,1.1771271895785687,0.3293038016367344,0.7217658414665858,-0.6379234532658531,-0.18055670274242924,0.1987564478804688
3.9200000000000026,-1.2488399831813743,-1.0801951674950256,2.26179749232994,0.01469878832587173,0.9939006920520953,-0.10777103809407307,0.636115460806638,1.0817574050313397,0.18284079907513334,0.7141107809220328,-0.6436204712004419,-0.17846066901167693,0.20938942305151406
3.9300000000000024,-1.047957931069503,-1.0550721260353202,2.1307795344504954,0.03536756285749266,0.994562478542204,-0.09679824568266167,0.39155427883491084,1.084080504119709,0.021006666370175536,0.7071505806170323,-0.6484221778723662,-0.1764670107975759,0.21970170610196071
3.9400000000000026,-0.5556154285751225,-1.239990609329848,1.9157204128974537,0.054878837364015984,0.9945825407671374,-0.08821528586883656,0.19838564167184053,1.1890527259472075,-0.1534079783704842,0.7009602898529572,-0.6522368908563798,-0.17458214677993095,0.22969244197932434
3.950000000000003,-0.4527322879294223,-1.2369945946177265,1.8768509271925948,0.07233471070975227,0.9936962478682608,-0.08469670725531758,0.05108013470770065,1.2630497263855538,-0.20601933835631506,0.6963316239215671,-0.6539775649462216,-0.1730964706016983,0.23960262838549662
3.9600000000000026,-0.5337378076921094,-1.3453252730155254,1.8576060716185294,0.08980476206026035,0.992600305550862,-0.08073296934656508,-0.035693390526962826,1.2387140311334912,-0.2371479931542727,0.6912772651538818,-0.6557589364847073,-0.17208107668250458,0.2498628023262227
3.9700000000000024,-0.8070468241037508,-1.5782687743350536,1.856280991685521,0.10732996018786126,0.9912940590400012,-0.07618755760434275,-0.05757302454004383,1.1081182447449411,-0.24728617298133826,0.6857301097099032,-0.6576246340484063,-0.17156902450943426,0.2605048680301814
3.9800000000000026,-1.105284288903421,-1.8228410874718586,1.755029915582318,0.12376398741763762,0.9899061276774261,-0.06775999202519445,-0.09448826751282086,0.8130574194957316,-0.22444672517934622,0.6783715757997877,-0.6604577784089817,-0.17294589776693864,0.2713001122468072
3.990000000000003,-1.2695301415580627,-2.0263694521745137,1.6543466872904748,0.13945996404983999,0.9884116902578595,-0.05862481769698988,-0.14177667766686186,0.6243187651819204,-0.1948802846085737,0.6704558606840801,-0.6632759827943235,-0.1753366646128706,0.2823197386788063
4.000000000000003,-1.2835804797292278,-2.1837804405296066,1.5570472984651995,0.1543624470550003,0.9868006603101966,-0.048806932360514095,-0.2002257700245627,0.5587421539711647,-0.15871541804483616,0.6619682901578927,-0.6660508902801259,-0.17880675762230316,0.2935855175484961
4.0100000000000025,-1.1567647278177902,-2.156415891155587,1.4714914444390041,0.1681681064210508,0.9848532341642682,-0.04060952591952744,-0.32683770134448914,0.4795918255659433,-0.07057255682205665,0.6537495614524388,-0.6680479464658972,-0.18274863025988677,0.3046604326822845
4.020000000000003,-1.0515600047825668,-2.0890712164902916,1.3865894120212632,0.1814634561386274,0.9827797598873648,-0.0334052316408844,-0.43630911993489363,0.40539906415519095,-0.005026691137063128,0.6458694947086512,-0.6696853002554044,-0.18657882398986192,0.3153983735938361
4.030000000000003,-0.976200107997648,-1.9826118681346252,1.3020118040482604,0.19421394065319333,0.9805740687840354,-0.02727987791947932,-0.5236840660118346,0.3373753205625176,0.032757832309953584,0.6383676146472268,-0.6709387654914628,-0.1902640483476205,0.3257572424867378
4.040000000000003,-1.0479501127296704,-1.7938743040864091,1.2058030234629677,0.20585234794126267,0.9783091681864117,-0.021047562494769266,-0.6666096955763288,0.15640780598851375,0.08189889709785433,0.631109578279382,-0.6722770635603303,-0.1936821844093428,0.3348941513197318
4.0500000000000025,-1.1313902941581433,-1.5858164473378218,1.0939537091108953,0.2168038295763703,0.9760723696856798,-0.01399205791471779,-0.7746597578928549,0.019267784315155398,0.10836897038888398,0.6238529185718319,-0.6739434228115362,-0.19697072691895212,0.34315129331788635
4.060000000000002,-1.2218981275926355,-1.358771771982375,0.9642366756126621,0.22699787823549644,0.973871313648222,-0.005973195777585814,-0.8391667495703121,-0.06119319613227649,0.10765810945838754,0.6165868021308982,-0.6759917867209294,-0.20011897624873137,0.3504291781386517
4.070000000000003,-1.2360509280600909,-1.1138553833873674,0.8000352538391402,0.23523471799387793,0.9718900413606105,0.003371435673959175,-0.9235842269124462,-0.17752415425888202,0.0705163016195261,0.6096689365580442,-0.6785526739525874,-0.20308597484053822,0.3557789746011205
4.080000000000003,-1.1925378782227154,-0.8588117586273434,0.6271287755006447,0.24227367242080666,0.970093022875799,0.01279887768637937,-0.9805585145253414,-0.26101026852152254,0.03717718959192805,0.6032498635693436,-0.6811940057749664,-0.2058341867422872,0.3600960378194226
4.0900000000000025,-1.0835911700670144,-0.5925236239212012,0.4456149291686876,0.2479739149159851,0.9685064160954499,0.022252996025493306,-1.0032806616782028,-0.30283616681628367,0.010447369504637039,0.5974140466124436,-0.6839041536081888,-0.20832814027421626,0.3632722761464548
4.100000000000003,-0.9337074445558626,-0.35074459252769574,0.24186150147786253,0.25099531599932107,0.9674814531627712,0.030653332158034903,-1.012866408909727,-0.389790566098857,-0.07386722309126825,0.5930996296169668,-0.6863671148968797,-0.21028963402449477,0.36454914267968214
4.110000000000003,-0.79322875140003,-0.12694643922381454,0.031454703563003644,0.2524413929237503,0.9668355515378937,0.03845126047363783,-1.011571622574745,-0.4620393681262265,-0.1408403293760094,0.5895960351569495,-0.6886431215040903,-0.2121153613175,0.36489388145079465
4.120000000000003,-0.6671055522741501,0.07616871006515308,-0.18573871558632993,0.25211038603668184,0.9666227174994695,0.04557156117895285,-0.9976497072282624,-0.51308436898137,-0.18252162375714098,0.5869977268455189,-0.6907035752854612,-0.21380777786377586,0.3642077897135694
4.130000000000003,-0.5370109874931741,0.2868975106338453,-0.3503613749220723,0.24896348493398227,0.9671167364896821,0.05173646880240563,-0.966226949229059,-0.5899657247079302,-0.21219137472880678,0.5858088723497226,-0.6924759765783419,-0.21527311809592467,0.3618783252370977
4.140000000000002,-0.38898795355247806,0.4991882865960885,-0.47515747656051666,0.24479717041629978,0.9678721039797591,0.05722013826909765,-0.9426981036758858,-0.6440081287388736,-0.23358896350744718,0.5853418648547322,-0.6941059842178072,-0.21639249853690243,0.35882838037152565
4.150000000000003,-0.2184352183844824,0.7128835943381833,-0.553266636661262,0.23954879128008352,0.9689060390310177,0.06190953647980385,-0.9305678731389383,-0.6669766567027401,-0.24537337276445148,0.5856859687046572,-0.6955767593749566,-0.21708868797273928,0.3549870348555285
4.160000000000003,-0.020065523616815822,0.9937608177228032,-0.6071038916156629,0.23323020685072232,0.9702477654402113,0.06477956480512684,-0.9089641743929792,-0.679292573669412,-0.2461556427274542,0.5874361703749933,-0.6967489107658968,-0.21663305884833722,0.35001957603145617
4.170000000000003,0.17145611606027072,1.2661776938240927,-0.6570872393715983,0.22635514096414708,0.9717447704055863,0.06669244840191839,-0.8841414468093519,-0.6842358709785222,-0.24647530869987255,0.5899993065059219,-0.6978239195436049,-0.215372454374005,0.3442796607956627
4.180000000000003,0.35155215690468633,1.5215691035505012,-0.7041809334828414,0.21884695240448054,0.9734176269162398,0.06751446932328238,-0.855947439099366,-0.6804784858594213,-0.24716535408078397,0.5935012871250829,-0.6987983205528682,-0.2131608704656744,0.33762902987591215
4.190000000000003,0.3330968006087779,1.2779089804310308,-0.78634160597627,0.2106718817791614,0.9752601867250984,0.06668308004827622,-0.7325590715987886,-0.6211697016951174,-0.22451983128997263,0.5973727973841751,-0.6990397573578683,-0.21138429118579025,0.33132330809619637
4.200000000000003,0.22972929223459154,1.2749540721950055,-0.9111333688429774,0.20152816200953033,0.977195410693607,0.06651220272214652,-0.6319140778621555,-0.5536840511529755,-0.19590290835654936,0.6011687218775649,-0.6994168516090482,-0.20993205466752818,0.32451187690441546
4.210000000000003,0.03238793829193837,1.645929350057378,-1.089649548933319,0.19115057964998378,0.9792379448871719,0.0673961741714716,-0.5714654538518007,-0.4808382774522021,-0.16162647654067355,0.6048256736312781,-0.7000504306507283,-0.2088715258173025,0.3169860875949569
4.220000000000002,-0.2625860110152339,1.9443095690092609,-1.3097908444449717,0.1775917113725085,0.9813369358510354,0.07290967401067328,-0.5714302970982656,-0.2980209759798059,-0.08223785876269692,0.6079657796347114,-0.702323401953986,-0.20782922930407938,0.30635634696519576
4.230000000000003,-0.2611915518012801,2.2654371539448244,-1.4201295313098399,0.1627751107539214,0.9834443594289016,0.07877123497772262,-0.5632204032415019,-0.08617829328630736,-0.0006203205970949574,0.6113270709567694,-0.704788048428045,-0.20653145446060764,0.2946387944281444
4.240000000000003,0.16045368219751788,2.626273318298618,-1.374143739869183,0.14658666951045352,0.9855569592927892,0.08458323378686675,-0.5368109026852796,0.1531382785365126,0.07890934242540174,0.6150528300986207,-0.7073295848161952,-0.20487895865107136,0.28177508720392747
4.250000000000003,1.0810466502711853,4.418901557746588,-1.5295319926701616,0.12955436317651603,0.9881670485170283,0.08105534619792315,-0.5154198463168194,0.8197263605812387,0.15186848063084815,0.6237521423169192,-0.708276429936308,-0.19706374012741765,0.2649563219632953
4.260000000000003,2.0119828892690768,4.430894866873363,-1.4212188589094323,0.11462080706144319,0.9908216774533357,0.06976690611596782,-0.4640843319494945,1.3789571812746504,0.18386903936418905,0.6343765674685029,-0.7066465175202956,-0.18837439964623465,0.2500994268444128
4.270000000000003,2.8933685289409543,1.7332496772652943,-0.912997263974939,0.10277237816996199,0.9934754419577693,0.04867434864871645,-0.3696347272752437,1.730936309455666,0.15862655763937025,0.647091099967922,-0.7015674204891821,-0.17923855847317074,0.23853397412636676
4.280000000000003,2.6808685881017076,1.8272043285669093,-0.7957674594124655,0.09276358249065697,0.9952115384302055,0.022857389974510173,0.10868650068237318,1.8002354792487776,0.33863564946625335,0.6598596167157372,-0.6940905015715886,-0.17207180894172427,0.23029273100695816
4.290000000000003,2.2324145881139303,1.3490822987201994,-0.7830866907655022,0.08381540171401398,0.9963795112296536,-0.000809625551141716,0.39234148199282337,1.7264515993951461,0.47674111882692727,0.6705501263965717,-0.6865164113960254,-0.16812516753062645,0.22525735625473461
4.3000000000000025,1.5973380923306197,-0.3642817063511474,-0.8665697707666374,0.07614859562867414,0.9968513686686266,-0.020663656150049357,0.33706264945726594,1.4847641572551824,0.5242562905900129,0.6782040725826478,-0.6791454779769374,-0.16858885683229424,0.22441670125076466
4.310000000000003,0.9223442322345025,1.2579545570539692,-1.3016423250223956,0.06445511103789181,0.997337280191932,-0.03201190496714683,0.24379329445588244,1.3464093570538433,0.5592555554398198,0.6842261579264874,-0.6749546475362929,-0.16858894007869896,0.21863274856709838
4.320000000000003,0.2754449444199736,1.7675725425454512,-1.6464292894427288,0.05004500092237383,0.997946988117879,-0.03816226582887479,0.1777168219025866,1.2069443951311494,0.5260562535504849,0.6892422135265304,-0.6727486384233102,-0.1683090468011934,0.2096305219353965
4.330000000000003,-0.32301660365561013,0.07896229767827867,-1.7999268934537456,0.03220943531146175,0.9987398275710103,-0.03788633331327546,0.1584204696730471,1.0493306874806352,0.39273269625738283,0.6930121894201174,-0.6730073431526329,-0.16768388104925547,0.19659791064331894
4.340000000000003,-0.5682687132126469,-0.11912697884444451,-1.5664663246207609,0.016753320588210316,0.999244215311254,-0.03299848109517892,0.4838895706711108,0.7920240180238568,0.4867025625323581,0.6926925699697326,-0.6731976042286102,-0.17400624379815582,0.19148442947193747
4.350000000000003,-0.7690417876430043,0.18167536289867636,-1.491224400407722,0.0013802106842921817,0.9995828578678321,-0.026314647273043234,0.6754749502798586,0.5913121130434222,0.515517688935881,0.6918326936508571,-0.6741245175721892,-0.17997019387552837,0.1857297279719143
4.360000000000003,-0.9636350888128111,0.9874004159494263,-1.727650379904263,-0.014284613020503066,0.9997173086773125,-0.017680231949695487,0.6002749988106163,0.49525805200252,0.40401070589944543,0.6908623948286079,-0.6761970106729441,-0.18415796873275234,0.17759241576990695
4.370000000000003,-1.0014281698324548,0.7986617631897932,-1.708371638159792,-0.031456001790874516,0.9993647405407169,-0.007941781405829337,0.3605567139326006,0.27449889140737127,0.3168648399359794,0.6897497903563797,-0.6787512062399609,-0.18792196285239987,0.1678127080539112
4.380000000000003,-1.0056527793886558,0.5470643151575625,-1.6527590423379397,-0.048330517739932424,0.998752699987316,0.0018871105503003153,0.23315661947563565,0.08089731654641685,0.25689434945365036,0.6883864135586379,-0.6812143085108285,-0.19203828695755726,0.15859243782563576
4.390000000000003,-0.9872437238034933,0.3892746135106706,-1.5893574963320454,-0.0644426367695412,0.9978248268397316,0.01164453673902235,0.31540756630116273,-0.04550936166614333,0.2351799291582764,0.6866539815832637,-0.6834397002706499,-0.1967943285379238,0.15057632274080807
4.400000000000003,-0.8675669367698,0.4229952046358777,-1.6164757594962946,-0.08055605661814973,0.9964463547262257,0.020501575805615693,0.3742961866430018,-0.19644372065499205,0.21195165716647668,0.68509195269749,-0.6852907840530315,-0.20152742917268449,0.14269936102039216
4.410000000000003,-0.6701404113338831,0.436164073387957,-1.6396013678877122,-0.09682556058907969,0.9948450793708861,0.027896612218869656,0.4061140604779992,-0.3138469532288412,0.17974623661527728,0.6839786753270263,-0.686600163259273,-0.20620238825114445,0.13490544891203438
4.4200000000000035,-0.36788868738187686,0.3750507881730226,-1.6369203608586824,-0.11334860258721555,0.9929776365293309,0.033106332039004815,0.3988957053851242,-0.37149026962399256,0.13326566794901407,0.6835587749994504,-0.6871085168237345,-0.21078769551700544,0.12721689681211887
4.430000000000003,-0.023116299522714934,0.3114659920268059,-1.5904448634397992,-0.1293769692561564,0.9909423228564703,0.03395251814918795,0.3814832766386088,-0.446111050328757,0.08052298017537171,0.6844602283126228,-0.686023158308194,-0.21525947862297645,0.12047111507010418
4.440000000000003,0.3333209738575629,0.2596512959870201,-1.5251754695750368,-0.14492823769201593,0.9888638691605947,0.03222295575233957,0.37347071966358575,-0.5041790533733793,0.04411074021792363,0.6861574313782638,-0.6840333831397506,-0.21954254533101197,0.11428386931112301
4.450000000000003,0.699338492112093,0.2280980878027692,-1.4387006421288357,-0.15979710552976417,0.9867524641159336,0.027204537656711936,0.3835588125000653,-0.5305999656881368,0.03647182489616181,0.688876928254963,-0.6809031720734856,-0.22353650809690526,0.10881059501915771
4.460000000000003,1.0363703292578965,0.17209357269880088,-1.3217901891123474,-0.17324813551464516,0.9846399839751139,0.017700784732724566,0.3924590183168623,-0.5900620860342444,0.0202887146877036,0.6929688708985641,-0.6762393662960158,-0.22700485485342856,0.10451944296937167
4.470000000000003,1.3458371747484674,0.11649659702998882,-1.188984253076027,-0.1857135606901325,0.9825139398886444,0.005932743323141591,0.4034484566917261,-0.6387093195063601,0.012758359144095694,0.6977275548977938,-0.670801562804255,-0.2301554306405093,0.10096647915052304
4.480000000000003,1.6152709017223037,0.06783704380820631,-1.036592510772056,-0.19684485895839987,0.9803648330974257,-0.00858705547780681,0.41833540848829354,-0.6603223506761714,0.022294331612182625,0.7032833351547254,-0.6644232280556627,-0.23289333535941079,0.09838207821464362
4.490000000000003,1.7549235704302666,0.08175868417923683,-0.8912571828032217,-0.20599660147560112,0.9781108218999867,-0.025543364822955307,0.41302164478767617,-0.685040504528258,0.04634703999141361,0.7094845936284373,-0.6572825544027476,-0.23489758906524486,0.09685183642693407
4.5000000000000036,1.821653513836663,0.11564728557238627,-0.7450067160106592,-0.21406423415764994,0.9757856244453929,-0.04316006190973237,0.40522467829406006,-0.6992469167663252,0.07348828718372896,0.715824427031054,-0.6500017875060662,-0.2364217703548294,0.09569870552663551
4.510000000000003,1.7953644722728588,0.1674889836190255,-0.595175206389148,-0.22076293449889706,0.9733635683155794,-0.06126862951407168,0.398646033949523,-0.6939826134746986,0.10206242726438733,0.7222301767963144,-0.6426848937438387,-0.2373000249607587,0.09492016640598167
4.520000000000003,1.6755885402893538,0.18337117331908198,-0.36849228120331673,-0.22501607889742972,0.9711168362946219,-0.07830428752505705,0.386984397098872,-0.6976441010052352,0.13089519101239402,0.7281178660027691,-0.6360181770805058,-0.23728653633760868,0.0947516354130516
4.530000000000003,1.506676156159052,0.18727005058518473,-0.10493688731307547,-0.22739681256765287,0.9691892658920327,-0.09423105975775951,0.37717976887677374,-0.7014958719850679,0.15557270306263885,0.7335249398582872,-0.6299607154250706,-0.23669052780440872,0.09511666641155302
4.540000000000003,1.2765122984431398,0.18020394312137614,0.20256015091467275,-0.2271062973567887,0.9677899397255502,-0.1084625234757676,0.37229114765855476,-0.7029995171797726,0.17260568877901214,0.7382132416626989,-0.6248163856321394,-0.2353029970760496,0.09626912375430387
4.550000000000003,0.9934017938309407,0.21942934402935058,0.5290320107928171,-0.2227632364915656,0.9674897133525787,-0.11943947510982678,0.35367335834753494,-0.6776607175109126,0.17931658880270063,0.741628234534364,-0.6213864777521516,-0.23269994840098082,0.09848043659405639
4.560000000000003,0.6532642709931504,0.2872736034745068,0.8302439744522742,-0.2161394361129743,0.9678931830861542,-0.12812818418031385,0.33228758772455474,-0.6456591894943028,0.18184005072505915,0.7442015056631885,-0.6191382604093507,-0.22933783437629185,0.10111164793179425
4.570000000000003,0.22358204435136597,0.3935950118814257,1.0778927703820265,-0.20656831080212407,0.9692555730196701,-0.13359405960535428,0.31021138730205244,-0.6099630348429642,0.17989627304984102,0.745614216221562,-0.6185433226187937,-0.22495115676375604,0.10418301771581759
4.580000000000004,-0.24722443466155794,0.4878864571983906,1.2591868229883754,-0.19432086651405983,0.9717453994399956,-0.13362412835361548,0.29042268192814225,-0.5089044051869511,0.16785319530565154,0.7452051192072525,-0.6204467168658924,-0.21957576743668997,0.10712767571161959
4.590000000000003,-0.7397647263601881,0.5699949265330032,1.4174864950009216,-0.18071346699670185,0.9748195113039031,-0.13016976668944508,0.2785635763087704,-0.4246294246488186,0.1514501964318974,0.743631631136453,-0.6238579266596025,-0.21374919894907002,0.10995487695784877
4.600000000000003,-1.2596498839170351,0.632860919395756,1.5549679515105643,-0.16543160166114068,0.9786209902662086,-0.12192040052567542,0.28119714605944635,-0.3959598119165786,0.1302184689544674,0.7404576890904243,-0.6292921944071652,-0.20740291003792719,0.11260037087049297
4.610000000000003,-1.7352435264459245,0.6485126404433068,1.5453078664916726,-0.14947769154325038,0.9827754476724402,-0.10730670428791006,0.31620740489483756,-0.361295918388034,0.09578262508970599,0.735177944211978,-0.6370889899564457,-0.20100600434910615,0.11465854943680868
4.620000000000003,-2.1291149696530645,0.6226813552579785,1.4991184007088296,-0.13375987005825582,0.9868179195803368,-0.08958447786313448,0.3467719559121562,-0.3292091745625194,0.05405864686574013,0.7288553754907698,-0.6459003995347892,-0.1948576719555118,0.11635719011260481
4.6300000000000034,-2.377635979259093,0.5325664401023126,1.4368622241444993,-0.1187691803183275,0.9905023511542254,-0.06813055997704287,0.3560703610334702,-0.30454453249417984,0.0029259431616766446,0.721269697118755,-0.6558202825512617,-0.18922262584170427,0.11756707517891613
4.640000000000003,-2.510841877805583,0.346020496807121,1.4378988925506544,-0.10440295112663789,0.9933349320497307,-0.043859173541383654,0.3880884106846676,-0.2271406772141203,-0.04071931649188123,0.7125444313800304,-0.6662925481062071,-0.18452843857090412,0.11901219965671272
4.650000000000003,-2.5147197422032836,0.1600869324488704,1.5145344873664384,-0.08961543330222375,0.9956279825377446,-0.01923829855596622,0.4152593782151243,-0.14055650587816693,-0.06313569293983536,0.7035157374011927,-0.6766822292813666,-0.1801013042306745,0.1210310648309259
4.660000000000004,-2.3016821268948613,0.015413051157239038,1.7196754971930412,-0.07370639986754209,0.9971699295877374,0.004929162915501061,0.4230819374083821,-0.057058461350439266,-0.04519932267803549,0.6943386526482499,-0.6866736813222365,-0.1758305402692658,0.12412687917632051
4.6700000000000035,-1.9676808195018696,-0.14742758451743396,1.8191488680474919,-0.055837041131997424,0.99789015551705,0.0260127540532055,0.4626189755014411,0.15526246678393185,0.06341602937953919,0.6858277283027825,-0.6954259988339663,-0.17127998450706292,0.12876716094491644
4.680000000000003,-1.5170991695423688,-0.29359475491498366,1.9172701753352714,-0.03704502893682991,0.9982442325496402,0.04389534498811455,0.5043667906070313,0.38943158855592463,0.1723257073647722,0.6782146444752998,-0.7029833298726369,-0.16655588608241603,0.13433457169991428
4.690000000000003,-0.8747439926113101,-0.396452082424623,2.0598570231834197,-0.017184394773875136,0.9981938382769039,0.05640597595930016,0.5365767995201951,0.6120054472901844,0.2412503229250622,0.6721973626477432,-0.7085745693189519,-0.16159096802063264,0.14116626695894974
4.700000000000003,-0.712303935568637,-0.5095243761349054,2.1387139569033726,0.004403707218693565,0.9978306143244154,0.06344309534150169,0.6224755614422663,0.7904310633581961,0.24931013152989295,0.6677543760654955,-0.7122699113085392,-0.15610746856318872,0.1494382596815509
4.7100000000000035,-0.8985403996579773,-0.6083651443808987,2.1395307399191843,0.026114290349488596,0.9970161820042325,0.07111396153881853,0.6879785703841363,0.883732518905264,0.26068086830615605,0.6629190248809759,-0.7160794968670788,-0.15089987111398362,0.1579247649276367
4.720000000000003,-1.6112797130624068,-0.6713234963876255,2.0014104543697804,0.0472569905031662,0.9953715803959268,0.08280635096525284,0.6831990906980829,0.8132347573652345,0.3086452166296354,0.6564701262236194,-0.7210531104155543,-0.1465427157749077,0.16618221066079503
4.730000000000003,-1.9995891524194658,-0.7196113343699738,1.96375479330534,0.06761279062955826,0.9923296028765236,0.10124666985740557,0.5660557492883372,0.7334840886427083,0.33658408707639953,0.6473676999942508,-0.7280533403991862,-0.14326619613691105,0.17380247704636642
4.740000000000004,-2.1203736803182536,-0.7887431016654312,1.9294731395343707,0.08769316318009755,0.9886270733766761,0.12098867275383979,0.4438344790642647,0.6824267362098698,0.32345384332252314,0.6376219831916192,-0.7353658431822553,-0.14039665589180822,0.18134636151143788
4.7500000000000036,-1.810093133336689,-0.912221219344697,1.8505446989690562,0.10756509434163908,0.9841700875481878,0.14014165961312933,0.36862442915516125,0.7004949504390331,0.22867275597721348,0.6278133024114855,-0.7423251178720431,-0.1378777852970345,0.1890501645645216
4.760000000000003,-1.4899326943349565,-1.096085122183304,1.750221959468968,0.12657598430761485,0.9797037907031133,0.15444208466829398,0.2778710977666168,0.7527272857598288,0.1164712811588913,0.6194928296637072,-0.7474804590232018,-0.1359399680862102,0.1973129747212484
4.770000000000003,-1.2595134925707487,-1.3938281711851268,1.6415907474512883,0.14523853292638225,0.975193269677605,0.166552775009368,0.20092450179051075,0.7901469702277334,0.03342768586315177,0.6116852790792583,-0.7517525433919322,-0.13468741273936727,0.20617672168839946
4.780000000000003,-1.2421314381532411,-1.921109196995691,1.5257178386170875,0.16357735921231784,0.9705856982161185,0.17631511908226635,0.16459975208143815,0.7742005147042751,0.02755274479692895,0.6042311142720338,-0.7549915618368145,-0.134694296106025,0.21611725670998597
4.790000000000004,-1.2070458885232238,-1.7376320731866164,1.4437116999283248,0.1816111178488698,0.965670869624376,0.1850964706347261,0.10615110385720777,0.6586085487805513,0.04638459556504311,0.5967949336834026,-0.7578044721313132,-0.1351898020058844,0.22626947650121068
4.800000000000003,-1.126077560714375,-1.3566666237860394,1.3816804770478464,0.19891806503669834,0.9606807468288839,0.19340435983904528,0.048038448978366746,0.5580421171922084,0.05887273633765085,0.589651960072044,-0.7605074988928996,-0.13537975674732175,0.23573794345426763
4.810000000000003,-0.9462650067913089,-0.9322105330176564,1.3469347560013574,0.2146740861808827,0.9556958770054977,0.20117279954354708,0.004044476862932259,0.5533131440141734,0.041349941949455106,0.5831979066914835,-0.763204769243348,-0.13454639462081694,0.2434472008984577
4.820000000000004,-0.7397664531671281,-1.4383247884950086,1.245882072557099,0.22964440714500428,0.9511707002343158,0.20590106007944564,-0.02624526314387032,0.4693513834084009,0.043853501570794096,0.5775851319814898,-0.7647488683552035,-0.13456892920669883,0.25176962334221675
4.830000000000004,-0.5472322597261081,-1.9237044211943202,1.1429336275895146,0.24436851816951508,0.946932790261807,0.20861946372202586,-0.05887731171459936,0.3670635435549134,0.05422915989223211,0.5724314391481109,-0.7655245335073931,-0.13520715360548208,0.2607099115931307
4.840000000000003,-0.40637268313592445,-1.7558233335830697,1.0782216709408907,0.25899443339847816,0.9431051937421387,0.20835319139706257,-0.10614848559947318,0.27089471508859186,0.07104138096500755,0.5678644612172846,-0.765153113562783,-0.13680849166150044,0.2707757469533722
4.850000000000003,-0.345213131543041,-1.617803894150181,0.9984469794897659,0.2720551228818535,0.9396247417666385,0.20735021056680675,-0.2827132515118083,0.1259482055826949,0.0303946965605964,0.5639169879261009,-0.7645912299603632,-0.1381097689156727,0.27977096035176585
4.860000000000003,-0.29324827139979187,-1.53173682330152,0.9239937701788511,0.28439014380219546,0.936302238599681,0.2059362131495127,-0.44698975405944047,-0.005069398769670726,-0.014664798916189478,0.5602433698711333,-0.7639073353117417,-0.13933025687427797,0.2883267557834443
4.870000000000004,-0.20931188197695424,-1.5570720978650618,0.8735384771545892,0.29596657260472353,0.933140364741581,0.20398848045564336,-0.4902044090787283,-0.0667775624039616,-0.03103820937536117,0.5568360176169442,-0.7630453923379664,-0.14055367145241857,0.2965085080057565
4.8800000000000034,-0.13557404024420652,-1.5780160433559813,0.7947322556723456,0.30682680698802445,0.9303251845101917,0.2006902454502436,-0.5118783213779639,-0.1743241453868114,-0.07964614383850901,0.5538780181123119,-0.7616923917825583,-0.14201145787358666,0.3046832047468854
4.890000000000003,-0.07539920077859219,-1.5776878329388455,0.7054900561770167,0.31705827358469096,0.9277422888524125,0.19680403297307358,-0.5312560957578146,-0.27125362461808694,-0.12115274769397612,0.55116696613319,-0.7601111450749326,-0.14363408629995467,0.3127156985859128
4.900000000000004,-0.04326351847246863,-1.524725938034575,0.6099700762944219,0.3261714599633643,0.9255112584235521,0.192379975361595,-0.5606693792408308,-0.30608029904786055,-0.11994627844002555,0.5487697293290694,-0.7582963501064471,-0.14551511760497046,0.3203797027517606
4.910000000000004,0.003494968149116623,-1.474677613975883,0.5496919181160298,0.33429936017544587,0.9235907941345156,0.1875467219924452,-0.6327927151532656,-0.33454759615811563,-0.12254022231106813,0.5466926978391718,-0.7563222570672554,-0.14746359105469242,0.32760220874852486
4.9200000000000035,0.04591418306041557,-1.4072187564617151,0.49595371555939793,0.34186194996665925,0.9218413370746251,0.18252069005451843,-0.7081190744429381,-0.3541523539971205,-0.12234609325548973,0.5448097909548087,-0.7542805151390117,-0.14939436121213423,0.33452542503203553
4.930000000000003,0.06482728062290372,-1.2901174526613344,0.43175122563587076,0.3486778529957916,0.9203077266785293,0.17729867330578025,-0.7579306449513324,-0.35477063529279573,-0.11153138438073573,0.5431978229969724,-0.7521825817255544,-0.15122299495369002,0.34098912253341157
4.940000000000003,0.09451303904897149,-1.1119849243591906,0.34505364116676546,0.3541900827016297,0.9191164669175272,0.17247120435804716,-0.8422569709539954,-0.31878081323771074,-0.08051376149663,0.5419450230150489,-0.7502444442216935,-0.15285764036281116,0.34647373218391725
4.950000000000004,0.13307808182203393,-0.914821235238621,0.26317200536646834,0.358877157098647,0.9181646029175108,0.1678406472146162,-0.9241006691238866,-0.2791076274960101,-0.052047554341107014,0.5409871932652159,-0.7484067610442343,-0.1542930902535241,0.35129441183891685
4.9600000000000035,0.18732835021178101,-0.716658035810787,0.2141600889758004,0.36236671547975313,0.9175910056682781,0.16342412284965477,-0.9692967780862851,-0.260558197409106,-0.048118203045934324,0.5405493100752945,-0.7467139289788356,-0.15533566877771887,0.3550914933348608
4.970000000000003,0.22153949409150062,-0.5373874980998521,0.179413744417027,0.3651209516425299,0.9172280742495058,0.15926850668418652,-1.003216858463793,-0.22475732545680768,-0.04956650494896183,0.5405310270143163,-0.7452115065266999,-0.15586152666040035,0.3580334815443342
4.980000000000004,0.2379498919081212,-0.3690748230204037,0.1389202900669608,0.36737472874802046,0.9169926565874702,0.15542358609309037,-1.024681961349004,-0.18714265583999937,-0.05080564058005331,0.5407247431328271,-0.7438667957067395,-0.15612053446532162,0.36042223213320473
4.990000000000004,0.22108480653280724,-0.2151983408422535,0.06855854345029086,0.36885156225458154,0.9169336990213122,0.1522414139063567,-1.0203326612970356,-0.16016578287508543,-0.04647657125984831,0.5411478651161247,-0.7428050329826071,-0.15608022721732528,0.36199104706614715
5.0000000000000036,0.23644969676938704,-0.05474441762764086,-0.08927030324906503,0.3687528088385138,0.9173768515224824,0.1497932642102959,-1.0193806648138235,-0.09777235824111384,-0.04263698242904067,0.5419277542714955,-0.7419743318607,-0.15611021038724437,0.362515187261384
5.010000000000003,0.3048646646044171,0.12799817974189356,-0.27512341861851053,0.36734725581888034,0.9183184283330493,0.1474423182460761,-1.0232810042226845,-0.02228274208229556,-0.0406690048230077,0.5431835462853167,-0.7411728130576329,-0.156152943185988,0.3622540878964581
5.020000000000003,0.5011254967958438,0.3713484700937811,-0.4587770192516246,0.3635662579884906,0.9202638613669509,0.14465742011308289,-1.0384302125052662,0.057582545422776805,-0.043852547028904905,0.545519260887068,-0.7402304263526254,-0.15616448359880447,0.36066255645291856
5.030000000000004,0.7098947259212178,0.6643531441781609,-0.6671850104832235,0.35736968004166025,0.923260061029396,0.14083226301783178,-1.0481652440591145,0.18466882675201585,-0.04694975777534959,0.549340734912237,-0.7390430854834094,-0.1556607748802708,0.3574775510129541
5.040000000000004,0.9009058873110777,0.9457574655212169,-0.885304383973791,0.3494325135737372,0.9269610362236708,0.13633905808830618,-1.043232398935193,0.29500328655856684,-0.05157122979282031,0.5541224365137264,-0.7376782952408427,-0.15491657401296435,0.3532084288188487
5.050000000000003,1.0232170414527708,1.1382106351843713,-1.10742639693473,0.338630563722344,0.9317447602708228,0.1308665424098881,-0.9982834342069086,0.3028977298145313,-0.06104059062812775,0.5603218257830613,-0.736020055367813,-0.1539693808224993,0.3472494858571841
5.060000000000004,1.0092714859216463,1.285927268900288,-1.2728309506069595,0.3257860011910156,0.9370195061435481,0.125379395420308,-0.8508871983851864,0.2101650168447016,-0.07396998134005513,0.5670702999219785,-0.7343151128544587,-0.15319612736028645,0.3401208108694391
5.070000000000004,0.9229291892689886,1.434425303786049,-1.434008628283476,0.3115657270709653,0.9425127906408268,0.12043123787150128,-0.6909427779706898,0.09824640651662452,-0.0786322236312667,0.5739577511414494,-0.7327504284072109,-0.1526174516838678,0.3321397725325594
5.080000000000004,0.7577002858737443,1.636421805130947,-1.6461385416259375,0.2952236494788526,0.948153380749434,0.11724285844981033,-0.6071423361187843,0.03893143557164064,-0.05261601677764645,0.580669048409927,-0.7316925541725039,-0.15246986486168518,0.3227349217237868
5.090000000000003,0.715759468319844,1.8679365765361224,-1.880017661946203,0.2760551392051402,0.9540703008221537,0.11528770382219786,-0.5512007839008837,0.11760963636186139,0.009942876750256194,0.5875281598132986,-0.7309788707985091,-0.1526875167160668,0.31154556025436864
5.100000000000003,0.7744169492298064,2.119158993948212,-2.1012935853049863,0.25504411584230446,0.9601581627647046,0.11344496439428407,-0.5101709134176794,0.24880414935576525,0.07461584147165488,0.594727852620615,-0.7302951563018397,-0.1529417204970722,0.29916181633686617
5.110000000000004,1.0198330321623945,2.4004069639365335,-2.253688307629845,0.23130750035963243,0.9664816491879867,0.11047135410222607,-0.48510467001267854,0.38745394797861266,0.10169587530909652,0.6028894871351184,-0.729291100411312,-0.15287193172859434,0.2849529374948357
5.120000000000004,1.3290805928300733,2.630359525545094,-2.2553884635743895,0.2065044731782512,0.9726742124015436,0.1041568329569699,-0.4033056459226151,0.5906828899728931,0.12940413391886313,0.6123288932750683,-0.7273296288137017,-0.15187482015826287,0.26978371107709076
5.1300000000000034,1.606476929494481,2.835247305222988,-2.205985568780749,0.18157710071760708,0.9786183189244707,0.09550209444090982,-0.2993977731215304,0.782716088439411,0.16102201333384253,0.6275380423439197,-0.7268898906278228,-0.1284336164454412,0.23470174412832773
5.140000000000004,1.689076445304141,3.0201560182108746,-2.1763969172189834,0.15761675632728445,0.983868630195136,0.083080134947941,-0.19295005759230432,0.8509415208529154,0.20543744446911616,0.6611731382753434,-0.7330095642009891,-0.02800712446126845,0.13149795358952798
5.150000000000004,1.6026470708285006,1.9975656206709371,-2.086816155510663,0.13510118882453392,0.9881454828779643,0.07030125049576462,-0.04120219908185166,0.9685236465103839,0.2962495102226511,0.6754486764368953,-0.7315322696464127,0.00028414951661158796,0.0920263418991847
5.160000000000004,1.4374460488400116,0.9605750925442045,-1.9845440941603847,0.11358402054912152,0.9917782392854522,0.05765065713943921,0.10163580527147377,1.073928800853131,0.3942989074006193,0.681923628387624,-0.7271984426636073,-0.00013962831118248336,0.07821904399059669
5.1700000000000035,1.2241190381350695,1.548762126435915,-1.9200115397931412,0.09364560186157428,0.9944499795981144,0.04595641557189459,0.14956987903147362,1.067064695111073,0.4539045570871637,0.6872726102027572,-0.7231572135305416,-0.0035001078523707336,0.06806308582719907
5.180000000000003,1.0473309014610581,2.1076187907029995,-2.108892047729627,0.07331309064139052,0.9964973008347107,0.03661339028647005,0.08185081016865672,1.1229284411758607,0.43803633381280094,0.6918699588262771,-0.7199245684603697,-0.0025648235058370484,0.05333545256174094
5.190000000000004,0.9239380116875163,2.2544053347038386,-2.2602699626231106,0.052675813617545766,0.998142230176752,0.028208696869868842,0.03249886138293187,1.1878132269530601,0.40611473767679857,0.6960006663285802,-0.7170048688627306,-0.001309249812972652,0.037997248133983696
5.200000000000004,0.9453751643595619,0.9068532434406882,-1.8939020138563745,0.031488470182758466,0.999216052433654,0.019801358099822405,0.22410845039007504,1.1928599496997105,0.42678352637452427,0.6995100948503326,-0.7140478779764681,-0.0052619455817778426,0.027195133997461027
5.2100000000000035,0.8991968399423953,0.9550618033705556,-1.850410198468415,0.01243943158934304,0.9997472705949482,0.010867939895175274,0.49940016053830427,1.087979388924228,0.44814367280760264,0.7030024514244533,-0.7108805720390906,-0.008485765118899017,0.017123924752351454
5.220000000000004,0.805831983477309,1.3899755160734104,-1.918354029429019,-0.006024281283283887,0.999921558247931,0.002085397757980968,0.7245924150227419,0.9409472095732706,0.4567774356077335,0.706308174682801,-0.7077517364865458,-0.011268952079962074,0.006980725215000205
5.230000000000004,0.6374845014911315,1.0909288634865775,-1.9019061768768888,-0.02564002909512484,0.9995785576394352,-0.00526812367926536,0.6210777970988589,0.8062842428989625,0.41486261058459284,0.7089161961830992,-0.7051093201298589,-0.01350811919625804,-0.0046132002997772495
5.240000000000004,0.41883794683908676,0.7647691421236362,-1.7782935599637053,-0.04373257441413139,0.9988964601243291,-0.010555543782860938,0.6499672829030649,0.50905136646567,0.3819796768413195,0.7106593094524389,-0.7031568852364356,-0.016824414991786378,-0.014100629968352076
5.2500000000000036,0.19016821885250965,0.5120233739770766,-1.631156767031807,-0.06085809559122829,0.998011488435027,-0.01430486154225494,0.7181962851879733,0.19311751796871346,0.35487174670002736,0.711780698462277,-0.7017270072221473,-0.020573634742877878,-0.022495972853643263
5.260000000000003,0.007602938394664971,0.6031361865798426,-1.5734677995871067,-0.07669434269180003,0.9968897087313885,-0.015388992979112672,0.7174980721818913,0.08162431971320802,0.33557454277469595,0.7118760575453293,-0.7012232092596596,-0.024219039031059344,-0.03010095764172966
5.270000000000004,-0.05931043798258797,0.6186761785332938,-1.4784215784349664,-0.09173156206805738,0.995600195689101,-0.015610917980747228,0.6464237208890348,-0.04866553740920689,0.2898968701110983,0.7115867182550385,-0.7010286613651739,-0.027359968855902084,-0.03765579193689396
5.280000000000004,-0.06406004343042684,0.5856320483894476,-1.3543868670605967,-0.1059802245511846,0.9942275135954179,-0.015520964532691854,0.5646319764534263,-0.16984720441202605,0.24039635071122512,0.7111464291593951,-0.7009463735581084,-0.030201090853336957,-0.044958122125158456
5.290000000000004,-0.020871039763695948,0.4876645167136562,-1.1772800828630265,-0.118382693987455,0.992814791981579,-0.015713093294382814,0.5680516342365926,-0.2177636083401984,0.2236581906275486,0.7107822290993357,-0.7007645886616409,-0.03271222945969485,-0.05128804119843278
5.300000000000004,0.017994482359690138,0.3855339216787493,-0.9966789073351993,-0.12894336799513437,0.9914916056138822,-0.016253437185623044,0.5921112828760995,-0.2941562670140336,0.21079594606227833,0.7105710042003748,-0.7004637164292963,-0.034947045827509966,-0.056591736953523694
5.310000000000004,0.0525378249775707,0.2829059836329523,-0.8095938345683094,-0.13813347285863264,0.9902617811382209,-0.017005981708456124,0.6188845239793855,-0.37614512544418277,0.20019040805131078,0.7104668933833714,-0.7000923792281967,-0.036972348988513454,-0.06113397897578237
5.320000000000004,0.07666702866119515,0.18639272771298981,-0.6009179165963906,-0.14496053810512533,0.9892645993228076,-0.017998587374120627,0.6164335614697422,-0.42597423890244085,0.19179327115428307,0.7105294391940925,-0.6996482210896929,-0.03862599920807226,-0.06436929719768938
5.330000000000004,0.0852138961470408,0.12914879056125828,-0.39376064313175807,-0.14966522632472995,0.9885494471819845,-0.019025678087567787,0.5743092375404212,-0.5040969231445884,0.17452436024234036,0.7106881036403194,-0.6992164751607405,-0.03978563687102843,-0.06658559636892089
5.340000000000003,0.08118789965677738,0.09903121115953516,-0.19104628752375402,-0.15286073891686322,0.988044682293414,-0.02002749611546529,0.5170218764349339,-0.5852326834002128,0.1557033944706066,0.7108953872204541,-0.6988150996895413,-0.040542429660823824,-0.06812816475780878
5.350000000000004,0.052764792043190026,0.10941904762921656,-0.005516134348566765,-0.15366879855175553,0.9879024625289157,-0.020838965535623033,0.47514892040295253,-0.6194788617128912,0.14879068922373614,0.7111200076278331,-0.6985268286541408,-0.04050622786702307,-0.06875853973884698
