time,seconds_elapsed,rotationRateX,rotationRateY,rotationRateZ,gravityX,gravityY,gravityZ,accelerationX,accelerationY,accelerationZ,quaternionW,quaternionX,quaternionY,quaternionZ
1681573772135951000,0.353951171875,-0.000669861794449389,-0.002527326811105013,0.02004716917872429,0.03184392675757408,-0.24754591286182404,-0.968352735042572,-0.0006854794919490814,0.003985151648521423,0.0039972662925720215,0.9920567618160708,0.12476398522477442,0.016049447748990572,-3.147774278832973e-17
1681573772145997000,0.3639970703125,0.009013582020998001,-0.00016424432396888733,0.026417983695864677,0.031784821301698685,-0.24759866297245026,-0.9683411717414856,-0.00010757520794868469,0.00835612416267395,0.005801498889923096,0.9920537172965818,0.1247892481370103,0.016032993617587248,0.00010561970667803734
1681573772156043000,0.37404296875,0.015915164723992348,0.0003380277194082737,0.024241382256150246,0.03173733502626419,-0.2477293610572815,-0.9683092832565308,0.00015352293848991394,0.008303746581077576,0.004732072353363037,0.9920458084747834,0.12485412502775868,0.016024706772512456,0.00022887432216127753
1681573772166089000,0.3840888671875,0.017219657078385353,0.0008915211074054241,0.024423807859420776,0.03169593587517738,-0.24790096282958984,-0.9682667255401611,-0.0023075081408023834,0.009039923548698425,0.003560304641723633,0.9920350414194877,0.1249399916098097,0.016019508227308736,0.00035173137090053027
1681573772176135200,0.39413525390625,0.01972702331840992,-0.0003500445745885372,0.021243726834654808,0.031658608466386795,-0.24809233844280243,-0.9682189226150513,-0.0038113296031951904,0.005981177091598511,0.0052672624588012695,0.9920229165286624,0.12503625249851452,0.01601439286855666,0.0004585963647876735
1681573772186181000,0.40418115234375,0.01966851018369198,0.0012267245911061764,0.020245308056473732,0.03163304924964905,-0.24831536412239075,-0.9681625962257385,-0.005220092833042145,0.0039001107215881348,0.006797850131988525,0.9920086909450588,0.12514878532936377,0.016014836918704027,0.0005619946035486385
1681573772196227000,0.41422705078125,0.00859961286187172,0.0013497625477612019,0.021154245361685753,0.031603265553712845,-0.2484637349843979,-0.9681255221366882,-0.00651782751083374,0.003819599747657776,0.0027629733085632324,0.9919993014999758,0.12522317872618138,0.016012311816293992,0.0006593808056975791
1681573772206273000,0.42427294921875,0.001424828777089715,-0.008556487038731575,0.02046661637723446,0.03152612969279289,-0.24852769076824188,-0.9681116342544556,-0.005967672914266586,0.006294474005699158,0.0022302865982055664,0.9919955973050114,0.1252541948820295,0.01598691611571603,0.000765525270641338
1681573772216319000,0.434319091796875,-0.005348921753466129,-0.01285855658352375,0.019172320142388344,0.031382158398628235,-0.24851271510124207,-0.9681201577186584,-0.003672204911708832,0.005333438515663147,0.0013995766639709473,0.991997667066778,0.12524480268822427,0.015927108461394196,0.0008669043377396077
1681573772226365200,0.444365234375,-0.012716442346572876,-0.020681209862232208,0.0256523247808218,0.0311780646443367,-0.24843759834766388,-0.968146026134491,-0.0017438624054193497,0.0001313537359237671,0.0001284480094909668,0.9920042088597157,0.1252046000328331,0.01583671168873085,0.0009668371333338165
1681573772236411100,0.4544111328125,-0.014369466342031956,-0.021793611347675323,0.02829604409635067,0.030912740156054497,-0.2483264058828354,-0.9681830406188965,-0.004179343581199646,-0.004572734236717224,0.0003943443298339844,0.9920133305139884,0.12514572248691633,0.01571708565284644,0.0010802496222491677
1681573772246457000,0.46445703125,-0.027722707018256187,-0.025786368176341057,0.03251582384109497,0.030612222850322723,-0.24813351035118103,-0.9682420492172241,-0.0036957208067178726,-0.006596684455871582,-0.0005995035171508789,0.9920280315974753,0.12504452218188353,0.015583461689396163,0.0012245206688455503
1681573772256503000,0.4745029296875,-0.03117895871400833,-0.03068392165005207,0.04185499623417854,0.030239146202802658,-0.24786511063575745,-0.9683225154876709,-0.002513926476240158,-0.005018770694732666,-0.0013582706451416016,0.9920481561740669,0.12490420682818883,0.015416895873566113,0.0013989126300649002
1681573772266549000,0.484549072265625,-0.03382062539458275,-0.03294835239648819,0.04383106157183647,0.02982243150472641,-0.2475624829530716,-0.9684128761291504,-0.003485769033432007,-0.006603121757507324,-0.000016689300537109375,0.9920705435260456,0.12474607850293047,0.015231295308242306,0.0015976783606934982
1681573772276595200,0.49459521484375,-0.04545304551720619,-0.03283197060227394,0.048480141907930374,0.02939213067293167,-0.24716979265213013,-0.968526303768158,-0.003040201961994171,-0.009452491998672485,0.000905454158782959,0.9920988188155653,0.12454163530807912,0.01504085848984365,0.0018142719478272794
1681573772286641200,0.50464111328125,-0.04987621679902077,-0.03959619253873825,0.05085701495409012,0.028919685631990433,-0.2467128336429596,-0.9686570167541504,-0.0035748369991779327,-0.011069118976593018,0.0025773048400878906,0.9921313126458181,0.12430424471500391,0.01483037685605364,0.0020420722944144037
1681573772296685800,0.514685791015625,-0.04019269347190857,-0.03912747651338577,0.0492524579167366,0.02836102619767189,-0.24618257582187653,-0.9688084125518799,-0.0038248952478170395,-0.011339977383613586,0.006070375442504883,0.9921688914721024,0.12402945199624976,0.014576510742715465,0.0022724195443553836
1681573772306732000,0.52473193359375,-0.026032133027911186,-0.035940468311309814,0.0479552336037159,0.027940914034843445,-0.2459619641304016,-0.9688766598701477,-0.0025655627250671387,-0.008615612983703613,0.0040940046310424805,0.992185591723854,0.1239134707194605,0.014391375322542619,0.0024893023648562274
1681573772316778000,0.534778076171875,-0.00506232725456357,-0.032647646963596344,0.046739764511585236,0.027466556057333946,-0.24607789516448975,-0.9688608050346375,-0.004227425903081894,-0.0013585984706878662,0.0013467669486999512,0.992181081402332,0.12396984401172174,0.014179986217468772,0.0027090122452811493
1681573772326824000,0.544823974609375,0.006477377377450466,-0.025903664529323578,0.04452827572822571,0.027055073529481888,-0.24638670682907104,-0.9687939286231995,-0.004609405994415283,0.0015747249126434326,0.0012493729591369629,0.9921635768545899,0.12412515537917612,0.013999806258591417,0.002920931007317931
1681573772336870000,0.554869873046875,0.007995112799108028,-0.021670572459697723,0.03575396165251732,0.02675585262477398,-0.24668151140213013,-0.968727171421051,-0.003989741206169128,0.0012439191341400146,0.0005112290382385254,0.9921462062917343,0.12427378384463263,0.01387201478053483,0.0030991266001531054
1681573772346915800,0.564915771484375,0.010221021249890327,-0.02121005207300186,0.029183410108089447,0.026456449180841446,-0.24699163436889648,-0.9686563611030579,-0.0039955247193574905,-0.0007500201463699341,0.0015085935592651367,0.9921279426079037,0.12443072814409242,0.013740420834154455,0.003247033442640671
1681573772356962000,0.574962158203125,0.01836177334189415,-0.01741984114050865,0.024602772668004036,0.026189086958765984,-0.2474479377269745,-0.9685471653938293,-0.003453494980931282,-0.001819610595703125,0.002681136131286621,0.992100014021724,0.12466277257369203,0.013623348983699818,0.0033785658870063647
1681573772367008000,0.585008056640625,0.017926650121808052,-0.013938644900918007,0.016361886635422707,0.025976570323109627,-0.24796950817108154,-0.9684194922447205,-0.0021423455327749252,-0.0027628690004348755,0.0003867149353027344,0.9920674435136068,0.12492881838031301,0.013529063572544672,0.0034696401665076796
1681573772377054000,0.595053955078125,0.01828244887292385,-0.013796433806419373,0.011850225739181042,0.025776546448469162,-0.24848586320877075,-0.9682924747467041,0.00010235793888568878,0.00008806586265563965,0.000793755054473877,0.9920352892664325,0.12519269940192093,0.013436521743107367,0.0035244078640753428
1681573772387100000,0.605099853515625,0.011879676021635532,-0.01594666950404644,0.006871446035802364,0.025598198175430298,-0.2488497495651245,-0.9682037830352783,0.0022338349372148514,-0.000005811452865600586,0.0002319812774658203,0.9920127315299865,0.12537872550233303,0.013352549156864454,0.003563603441861875
1681573772397146000,0.61514599609375,0.00472109904512763,-0.015781553462147713,0.004311082884669304,0.02536698430776596,-0.24889002740383148,-0.9681994915008545,0.004006175324320793,-0.0038870424032211304,-0.0016186237335205078,0.9920116759900457,0.12539933915563056,0.013238256996287416,0.0035806643733456768
1681573772407192000,0.625192138671875,0.0037714538630098104,-0.016135726124048233,-0.0009992602281272411,0.025133196264505386,-0.24881233274936676,-0.9682255983352661,0.004758767783641815,-0.005978897213935852,-0.0016078352928161621,0.9920182700024052,0.12535974971162808,0.013120436610101191,0.003582603298414403
1681573772417238000,0.635238037109375,-0.001394545892253518,-0.014476043172180653,-0.006011595483869314,0.024918772280216217,-0.24872331321239471,-0.9682539701461792,0.003905082121491432,-0.008600875735282898,0.00008380413055419922,0.9920254069266071,0.12531473543680932,0.013008714177031342,0.0035557608280149294
1681573772427284000,0.645283935546875,-0.007173605263233185,-0.01852070353925228,-0.009889691136777401,0.024710796773433685,-0.24867428839206696,-0.9682719111442566,0.00376209057867527,-0.010145261883735657,0.003168761730194092,0.992030085074828,0.1252904034725188,0.012898170339370083,0.003511637087852185
1681573772437330000,0.655329833984375,-0.0046816859394311905,-0.016435181722044945,-0.005272301845252514,0.024506477639079094,-0.24866223335266113,-0.9682801961898804,0.004881938919425011,-0.00887557864189148,0.003955245018005371,0.9920323650305551,0.1252850751113257,0.012788769851810676,0.0034611811723119475
1681573772447376100,0.665376220703125,0.002566259354352951,-0.015965281054377556,-0.0010416044387966394,0.024340849369764328,-0.24869699776172638,-0.9682754278182983,0.0038879066705703735,-0.005254998803138733,0.0007767081260681152,0.9920312883497372,0.12530333626495277,0.01270241106281279,0.0034377703764722203
1681573772457422000,0.675422119140625,0.010474249720573425,-0.0156403761357069,0.0006188764236867428,0.02423792891204357,-0.24875988066196442,-0.9682618975639343,0.003914523869752884,-0.002155601978302002,0.0013734698295593262,0.9920278961997053,0.12533579928221347,0.012649172293246306,0.003425733905258567
1681573772467468000,0.685468017578125,0.020959001034498215,-0.01465562917292118,0.003847959451377392,0.024191642180085182,-0.2488974630832672,-0.9682276844978333,0.00281640887260437,-0.0022011399269104004,0.001964867115020752,0.9920193032636124,0.1254062721183205,0.012626517850315629,0.003428282510810713
1681573772477514000,0.695513916015625,0.026096772402524948,-0.01254427433013916,0.012610824778676033,0.024186361581087112,-0.24922899901866913,-0.9681425094604492,0.002333410084247589,0.00081595778465271,0.004748344421386719,0.9919977565583386,0.1255758028248105,0.012627687921755342,0.0034517558662413967
1681573772487560000,0.705559814453125,0.03671996667981148,-0.011946424841880798,0.013134135864675045,0.024187656119465828,-0.24967248737812042,-0.96802818775177,0.000989336520433426,0.00334988534450531,0.0050612688064575195,0.9919688240710441,0.12580244750934821,0.012634792385011284,0.0034935127567924805
1681573772497606100,0.715606201171875,0.03909630700945854,-0.008174323476850986,0.016167210415005684,0.024185335263609886,-0.25023967027664185,-0.9678817987442017,0.00010665692389011383,0.0031083524227142334,0.00746309757232666,0.9919317617823307,0.1260923160482281,0.012642091772424827,0.003548393270079147
1681573772507652000,0.725652099609375,0.025065938010811806,-0.005576853174716234,0.017493464052677155,0.02419806458055973,-0.2507992088794708,-0.9677366614341736,-0.00024177692830562592,0.0009060502052307129,0.008553922176361084,0.9918947954679901,0.12637816278935668,0.0126584579685751,0.003614754821635152
1681573772517696800,0.73569677734375,0.006831539794802666,-0.009848296642303467,0.023261871188879013,0.02420412003993988,-0.25113722681999207,-0.9676488041877747,0.000042090192437171936,-0.0011057853698730469,0.012540161609649658,0.9918724253178723,0.12655031994329144,0.012672804091870384,0.0036961208049665056
1681573772527743000,0.745742919921875,-0.0096501549705863,-0.012763303704559803,0.029587144032120705,0.024135706946253777,-0.25120529532432556,-0.9676328897476196,-0.0006219130009412766,-0.0035401582717895508,0.01604902744293213,0.9918679948397346,0.1265838192725879,0.012653060360915151,0.003810221212301331
1681573772537789000,0.755788818359375,-0.02298033982515335,-0.010995765216648579,0.036548912525177,0.024053748697042465,-0.25104793906211853,-0.9676757454872131,-0.0005399603396654129,-0.004689335823059082,0.015435755252838135,0.9918781890821978,0.12650131468251427,0.0126309429494698,0.0039642491898337524
1681573772547835000,0.7658349609375,-0.025649553164839745,-0.013174288906157017,0.044326409697532654,0.023934384807944298,-0.2508399784564972,-0.9677326679229736,-0.004326852038502693,-0.0035850107669830322,0.013188600540161133,0.9918917774878234,0.12639248457535282,0.012594451203704804,0.004154837821033486
1681573772557880800,0.775880859375,-0.015611564740538597,-0.010119910351932049,0.04940292611718178,0.023802539333701134,-0.25060170888900757,-0.9677976369857788,-0.00483587384223938,-0.003777533769607544,0.004907011985778809,0.9919070682908233,0.1262676838653404,0.012556377224428164,0.0043834621227798656
1681573772567926800,0.7859267578125,-0.0060935793444514275,-0.0126922857016325,0.05553112551569939,0.023602554574608803,-0.2504217326641083,-0.96784907579422,-0.003598283976316452,0.00020816922187805176,-0.004776597023010254,0.9919189178431445,0.12617260150371867,0.012487053152127467,0.004635450513837488
1681573772577973000,0.795972900390625,0.006001432426273823,-0.015620965510606766,0.06445272266864777,0.023344861343503,-0.25040674209594727,-0.9678592085838318,-0.001738421618938446,0.007914125919342041,-0.0049495697021484375,0.9919201385650119,0.1261617845424228,0.01239313181537351,0.004918814805970118
1681573772588019000,0.80601904296875,0.019218282774090767,-0.01354438066482544,0.06900885701179504,0.023065470159053802,-0.2505885362625122,-0.9678188562393188,-0.0004977229982614517,0.009743839502334595,-0.004227042198181152,0.9919083372892602,0.12625139931849944,0.012294094793479277,0.005242556863993695
1681573772598065000,0.81606494140625,0.02663545310497284,-0.01619369350373745,0.06425005197525024,0.022800708189606667,-0.25094130635261536,-0.9677337408065796,-0.0045664552599191666,0.006419241428375244,-0.00588381290435791,0.9918851614206039,0.1264286786232345,0.012203080375668085,0.005565987090781271
1681573772608110800,0.82611083984375,0.023533895611763,-0.019351433962583542,0.06059086695313454,0.022502614185214043,-0.25139471888542175,-0.9676230549812317,-0.003612242639064789,0.007086306810379028,-0.0049111247062683105,0.9918554959689043,0.12665803812204968,0.012092331598240868,0.005862546410760498
1681573772618156800,0.83615673828125,0.01901504397392273,-0.02295548841357231,0.05460035055875778,0.022187786176800728,-0.2518022358417511,-0.9675243496894836,-0.002320852130651474,0.005021840333938599,-0.006169497966766357,0.9918289952865624,0.12686428907644615,0.011969986528548162,0.006134798299652993
1681573772628203000,0.846203125,0.013936854898929596,-0.028335783630609512,0.048780012875795364,0.021758554503321648,-0.252115935087204,-0.9674524068832397,-0.003249645233154297,0.0003764629364013672,-0.006455063819885254,0.9918093481311563,0.12702320152720578,0.011785960469263397,0.0063779558015037135
1681573772638249000,0.8562490234375,0.0025835316628217697,-0.03194490075111389,0.041199058294296265,0.021291367709636688,-0.2522861659526825,-0.9674184322357178,-0.0007072743028402328,-0.0017878711223602295,-0.008747339248657227,0.9917993466279688,0.12710925532968625,0.011577385334952351,0.0065829905064737045
1681573772648295000,0.866294921875,-0.007202976383268833,-0.039046723395586014,0.03784320876002312,0.02082492969930172,-0.2521831691265106,-0.9674553871154785,0.0004915930330753326,0.0006268024444580078,-0.009915828704833984,0.9918074950066228,0.1270556589837301,0.011364576861695007,0.006760877470122752
1681573772658340900,0.8763408203125,-0.015600722283124924,-0.04690677672624588,0.03708713874220848,0.02035013772547245,-0.25183382630348206,-0.9675565361976624,0.002156563103199005,0.002566307783126831,-0.0075716376304626465,0.9918319754314262,0.1268761936073008,0.011143362291258778,0.006914409129497565
1681573772668386800,0.88638671875,-0.007791915442794561,-0.04828280210494995,0.03195975348353386,0.0198619794100523,-0.2514406442642212,-0.967668890953064,0.0031330008059740067,-0.0002835690975189209,-0.003690361976623535,0.9918593220453993,0.12667461943897496,0.010912728968824446,0.007048782490975718
1681573772678433000,0.89643310546875,-0.0023803720250725746,-0.041556987911462784,0.02271086350083351,0.019313869997859,-0.25120779871940613,-0.9677404761314392,0.001148158684372902,0.00007867813110351562,-0.00007873773574829102,0.9918766459438219,0.12655580584006254,0.010648431934706333,0.007150963302681677
1681573772688479000,0.90647900390625,0.0032069399021565914,-0.041621170938014984,0.021592335775494576,0.01884920708835125,-0.2510266602039337,-0.9677966237068176,-0.002293424680829048,-0.0006212592124938965,0.002647697925567627,0.9918902547299602,0.1264635608618553,0.010423444814593629,0.007229828708018369
1681573772698525000,0.91652490234375,0.013006040826439857,-0.03767037019133568,0.0209616981446743,0.018430659547448158,-0.25097063183784485,-0.9678192138671875,-0.003721194341778755,0.0036104321479797363,0.005462646484375,0.9918953850194508,0.12643537000651314,0.010221672408054236,0.007304128929786067
1681573772708571000,0.92657080078125,0.02487768977880478,-0.029604129493236542,0.01433522067964077,0.01804281771183014,-0.25113752484321594,-0.9677832722663879,-0.005011819303035736,0.0029533803462982178,0.0069678425788879395,0.9918858854153844,0.1265214785512735,0.010034498972187144,0.007363720827775736
1681573772718617000,0.9366171875,0.03200111165642738,-0.020477741956710815,0.008425666950643063,0.017836598679423332,-0.2514437139034271,-0.9677075743675232,-0.005690611898899078,0.0012911558151245117,0.006968438625335693,0.9918665746311538,0.1266786497050895,0.009936580807184283,0.0074003227523892325
1681573772728663000,0.9466630859375,0.03982483595609665,-0.016592012718319893,0.0036684623919427395,0.017728183418512344,-0.25172799825668335,-0.9676356315612793,-0.007489541545510292,0.0018043220043182373,0.005492687225341797,0.9918482452819961,0.12682452769720806,0.009885350327845667,0.007417143754186941
1681573772738709000,0.956708984375,0.03986398130655289,-0.007458435837179422,0.0031973491422832012,0.017701376229524612,-0.25200507044792175,-0.9675639867782593,-0.00842403806746006,0.004385471343994141,0.008991599082946777,0.9918301138651214,0.1269665120341454,0.009874174139401858,0.007425696669792012
1681573772748754000,0.96675390625,0.039849791675806046,-0.004400179721415043,0.0007131523452699184,0.017757408320903778,-0.2523592710494995,-0.967470645904541,-0.008693691343069077,0.0003603994846343994,0.011507511138916016,0.9918066430698532,0.12714786922634772,0.009903880364311312,0.007424666862552099
1681573772758800100,0.976800048828125,0.03233062103390694,0.0010039065964519978,-0.001310850027948618,0.017807314172387123,-0.2526785433292389,-0.9673864245414734,-0.00930817797780037,-0.0001290440559387207,0.015222728252410889,0.9917854838805995,0.12731144871006966,0.009929185939924855,0.0074146139014395285
1681573772768846000,0.98684619140625,0.03149458020925522,0.004516970831900835,0.002705729566514492,0.017788732424378395,-0.25299686193466187,-0.9673035740852356,-0.008267251774668694,0.00015878677368164062,0.015353500843048096,0.9917645282297655,0.12747462298061069,0.009921999715577024,0.007420469503466408
1681573772778892000,0.99689208984375,0.027694515883922577,0.00624642800539732,-0.0034839895088225603,0.017769401893019676,-0.25319597125053406,-0.9672517776489258,-0.008507324382662773,0.0002815723419189453,0.012860298156738281,0.9917514403123747,0.12757672080056887,0.009913567389995076,0.007423717889642445
1681573772788938000,1.00693798828125,0.01962285488843918,0.0063601150177419186,-0.0052233003079891205,0.017739232629537582,-0.25334832072257996,-0.967212438583374,-0.007103864103555679,-0.0004968345165252686,0.0066564083099365234,0.991741557850698,0.1276549893461479,0.009898114905854757,0.007416521191139036
1681573772798984000,1.01698388671875,0.011728446930646896,0.004929997492581606,-0.0012285583652555943,0.017676033079624176,-0.25347474217414856,-0.9671804904937744,-0.004629777744412422,0.0019336342811584473,0.004793405532836914,0.9917335366529385,0.12772002676240227,0.009866391714501148,0.007413207901710402
1681573772809030000,1.02702978515625,0.004373936913907528,0.005486420821398497,-0.002063991967588663,0.017554422840476036,-0.2535158395767212,-0.9671719670295715,-0.0022346079349517822,0.002707153558731079,0.003548860549926758,0.9917313533183773,0.12774142775490233,0.00980584437978436,0.00741773441378658
1681573772819075800,1.037075927734375,0.004564086906611919,0.004270421341061592,-0.00653117848560214,0.017414802685379982,-0.25348666310310364,-0.9671820998191833,-0.0006148833781480789,0.002662748098373413,0.0019416213035583496,0.9917339640854523,0.12772697569555955,0.009734632145536977,0.007412404735022515
1681573772829121800,1.047121826171875,0.0059877363964915276,0.0051221298053860664,-0.011440449394285679,0.017287230119109154,-0.25357040762901306,-0.9671624302864075,-0.002394653856754303,0.0030516386032104492,0.004195511341094971,0.9917292027802789,0.1277705310489678,0.009667725357965482,0.0073894260860181546
1681573772839167700,1.057167724609375,0.01097024418413639,0.0030232928693294525,-0.013743551447987556,0.01715334877371788,-0.2537163496017456,-0.9671265482902527,-0.0025812145322561264,0.003273874521255493,0.0029999613761901855,0.9917205654421546,0.12784625097217903,0.009594491053578095,0.00733991023071741
1681573772849214000,1.0672138671875,0.026353271678090096,0.0036362933460623026,-0.01622907817363739,0.017052698880434036,-0.25395986437797546,-0.9670644402503967,-0.0029383301734924316,0.0032580196857452393,-0.00011390447616577148,0.9917051875433399,0.1279719659007722,0.00953758937436151,0.007283843519152345
1681573772859260000,1.077260009765625,0.02883906662464142,0.005017142277210951,-0.017241347581148148,0.01696004532277584,-0.2542722523212433,-0.96698397397995,-0.0041426680982112885,0.004775822162628174,-0.00042325258255004883,0.99168540862448,0.12813307548956349,0.00948340868198478,0.007215433446883786
1681573772869305900,1.087305908203125,0.020322808995842934,0.0006313007324934006,-0.01778463087975979,0.016897644847631454,-0.2545261085033417,-0.9669182896614075,-0.0025849081575870514,0.005289137363433838,-0.0001837611198425293,0.9916693513824081,0.1282640766021593,0.00944432480400159,0.007147951223421512
1681573772879351800,1.097351806640625,0.011828390881419182,-0.002675013616681099,-0.016808584332466125,0.016843119636178017,-0.2546347975730896,-0.9668905735015869,-0.000043200328946113586,0.0032157599925994873,-0.0008981227874755859,0.9916628807229653,0.1283206850080844,0.009407575641376358,0.007072778448004734
1681573772889397800,1.107397705078125,0.0063094086945056915,-0.004263145383447409,-0.01863977313041687,0.016823405399918556,-0.25467056035995483,-0.966881513595581,0.0002359151840209961,-0.0007462799549102783,0.0004508495330810547,0.9916613376915085,0.12833991438844372,0.009386263418668868,0.0069837333563567035
1681573772899444000,1.11744384765625,-0.0023530556354671717,-0.0062061878852546215,-0.01563040167093277,0.01682337000966072,-0.2546142041683197,-0.9668963551521301,-0.0004506930708885193,-0.00318300724029541,0.001518547534942627,0.9916656222842057,0.12831180998607464,0.009375116383093993,0.006899563387927026
1681573772909490000,1.127489990234375,-0.005748548079282045,-0.0049788556061685085,-0.014763807877898216,0.01676655001938343,-0.25451070070266724,-0.9669246077537537,-0.0023622605949640274,-0.002645641565322876,0.004796922206878662,0.9916733587183529,0.1282596628691837,0.009335571402226904,0.006818690136845823
1681573772919535900,1.137535888671875,-0.003471279051154852,-0.008905420079827309,-0.017507662996649742,0.016681713983416557,-0.254381000995636,-0.9669601917266846,-0.0026741567999124527,0.001252979040145874,0.004542648792266846,0.9916828892277071,0.12819413491748688,0.009282123267585474,0.006740288873133468
1681573772929581800,1.147581787109375,0.003989718854427338,-0.007502289023250341,-0.01737770065665245,0.016591191291809082,-0.2542838454246521,-0.9669873118400574,-0.0035449322313070297,0.0007438361644744873,0.001624763011932373,0.9916902432779207,0.1281453828296205,0.009225044469761844,0.006654872808497357
1681573772939627800,1.157627685546875,0.013047928921878338,-0.004349106457084417,-0.01352011226117611,0.016489798203110695,-0.25426048040390015,-0.9669951796531677,-0.003596128895878792,-0.0003629028797149658,0.0008849501609802246,0.9916927313233783,0.1281344593553489,0.00916330167361133,0.006573413717426185
1681573772949674000,1.167674072265625,0.028084782883524895,-0.001518965233117342,-0.011398104950785637,0.016433265060186386,-0.2543361186981201,-0.9669762849807739,-0.004577193409204483,0.0014674961566925049,0.0013695359230041504,0.9916883558728179,0.12817391898933284,0.009127690101529175,0.00651608069908614
1681573772959720000,1.177719970703125,0.03599676862359047,0.0021559307351708412,-0.009194605983793736,0.016469771042466164,-0.2545763850212097,-0.9669123888015747,-0.003774462267756462,0.0014941394329071045,0.001076817512512207,0.9916726171898309,0.12829747325426638,0.00914060473574156,0.0064662358546509705
1681573772969766000,1.187765869140625,0.03595670685172081,0.002534366212785244,-0.002218455309048295,0.016517866402864456,-0.2549518048763275,-0.9668126702308655,-0.0030291061848402023,0.00240364670753479,0.000046312808990478516,0.991647676280499,0.128490087272865,0.009162980135905397,0.006440298673120049
1681573772979811800,1.197811767578125,0.031235985457897186,0.0028760498389601707,0.001776286168023944,0.01653551124036312,-0.2553446888923645,-0.9667086601257324,-0.0025126896798610687,0.0027354955673217773,0.0020022988319396973,0.9916213428481463,0.12869148424609253,0.009174068523490205,0.006445229748326441
1681573772989857800,1.20785791015625,0.02606656216084957,0.0025691348128020763,0.005720427725464106,0.016510672867298126,-0.25568538904190063,-0.966619074344635,-0.002701476216316223,0.0018859803676605225,0.0011191368103027344,0.9915985691322745,0.12886606009954418,0.009165943412215766,0.006468731308763209
1681573772999903000,1.217903076171875,0.018864575773477554,0.0054581318981945515,0.002681228332221508,0.016500746831297874,-0.2558634877204895,-0.966572105884552,-0.0010741222649812698,-0.0013080835342407227,0.001072227954864502,0.9915865402000902,0.1289571938498574,0.009165076225775108,0.006495124521215235
1681573773009949000,1.227948974609375,0.011268327943980694,0.00860868114978075,0.0017405999824404716,0.016498560085892677,-0.25595948100090027,-0.9665467143058777,0.0005760230123996735,0.0009241104125976562,0.0004975199699401855,0.9915801066086858,0.12900625462272497,0.009166714342813386,0.006513264561156777
1681573773019995000,1.237994873046875,0.005279145203530788,0.00894184224307537,-0.005782297346740961,0.016492709517478943,-0.25600916147232056,-0.9665336608886719,0.00027669407427310944,0.0037356317043304443,-0.000782012939453125,0.991576811824525,0.1290317242129356,0.009164258443267155,0.006515540817868076
1681573773030041000,1.248041015625,0.00006733916234225035,0.009957986883819103,-0.007045434787869453,0.016499845311045647,-0.25596898794174194,-0.9665441513061523,0.0005442127585411072,0.007128685712814331,0.00011348724365234375,0.9915795820801689,0.12901126855299005,0.009165382288390044,0.00649775136413267
1681573773040087000,1.258087158203125,0.0014772166032344103,0.005915308371186256,-0.015904972329735756,0.016523633152246475,-0.2559048533439636,-0.9665607810020447,0.000016886740922927856,0.007095068693161011,-0.0013194680213928223,0.9915840689016643,0.12897872061019938,0.009171217707289117,0.00645235803239323
1681573773050133000,1.268133056640625,-0.0010998480720445514,0.003984841518104076,-0.02839759550988674,0.01657475344836712,-0.2558252215385437,-0.9665809273719788,0.001567937433719635,0.0035974979400634766,-0.005113959312438965,0.9915898803947724,0.12893878711822626,0.009182089373003396,0.006340142650132609
1681573773060179000,1.278178955078125,0.01179970521479845,-0.006587108597159386,-0.02995367906987667,0.016575507819652557,-0.2558114528656006,-0.9665845632553101,0.005122482776641846,0.004941761493682861,-0.007216036319732666,0.9915916911355128,0.12893308859883726,0.00916324375988049,0.00619268928986684
1681573773070225000,1.288224853515625,0.022992324084043503,-0.007808552589267492,-0.02753686159849167,0.01651468127965927,-0.25593942403793335,-0.9665517807006836,0.007807819172739983,0.011035919189453125,-0.005372047424316406,0.9915843241797534,0.1290002395327345,0.009113848270134277,0.00604501837164125
1681573773080271000,1.29827099609375,0.025311937555670738,-0.005993075203150511,-0.03162268549203873,0.01650404930114746,-0.25620678067207336,-0.96648108959198,0.009573210030794144,0.010464012622833252,-0.0044509172439575195,0.9915674258886763,0.1291388279137284,0.00908927339475887,0.005889806813454531
1681573773090317000,1.308317138671875,0.019936271011829376,-0.010283190757036209,-0.030968077480793,0.01652502827346325,-0.25639694929122925,-0.9664303064346313,0.005356067791581154,0.004550665616989136,-0.0033267736434936523,0.9915555909943335,0.12923782429923858,0.009079247487253438,0.005726377473304069
1681573773100363000,1.318363037109375,0.007154695689678192,-0.013786844909191132,-0.03165730461478233,0.016497613862156868,-0.2564481794834137,-0.9664171934127808,0.003460874781012535,-0.003927767276763916,0.0023516416549682617,0.9915532445472326,0.1292656798627651,0.009043890343192525,0.005559805650830887
1681573773110409000,1.328408935546875,0.0035989191383123398,-0.009508034214377403,-0.029980577528476715,0.016463078558444977,-0.25632748007774353,-0.9664497971534729,0.002442551776766777,-0.007084965705871582,0.0058632493019104,0.9915623235776885,0.1292053219638724,0.009004908330258632,0.005397522799980414
1681573773120455000,1.338454833984375,-0.007137614767998457,-0.00563739612698555,-0.032389938831329346,0.016475863754749298,-0.2561309337615967,-0.9665016531944275,-0.0004846639931201935,-0.011462390422821045,0.007914066314697266,0.9915762819049629,0.12910593265921086,0.008989905095394192,0.005237907395548104
1681573773130501000,1.348501220703125,-0.010309971868991852,-0.006982410326600075,-0.029008258134126663,0.016514915972948074,-0.2559199035167694,-0.9665569067001343,-0.004277370870113373,-0.014832019805908203,0.011417746543884277,0.991591043673066,0.12899906496829547,0.008987928713426125,0.005076715785189665
1681573773140547000,1.358547119140625,-0.0031969351693987846,-0.003724299371242523,-0.0191151462495327,0.01662689447402954,-0.25569403171539307,-0.9666147828102112,-0.005747387185692787,-0.011380493640899658,0.013672888278961182,0.9916062429247096,0.1288842020679442,0.009026596745011894,0.004945389084192281
1681573773150593000,1.368593017578125,0.005259932950139046,0.0008396781049668789,-0.018610477447509766,0.016841931268572807,-0.2554580867290497,-0.9666734337806702,-0.002605486661195755,-0.00877833366394043,0.012495577335357666,0.9916217098508605,0.1287638447462847,0.009119003437035441,0.004827722621647999
1681573773160638700,1.378638671875,0.010614218190312386,0.0054429518058896065,-0.009102992713451385,0.017109770327806473,-0.25530457496643066,-0.9667092561721802,-0.0035294536501169205,-0.009587973356246948,0.011173367500305176,0.991631179236905,0.12868540848021442,0.009242508969993863,0.004742379534712172
1681573773170685000,1.388684814453125,0.022088028490543365,0.0013313866220414639,-0.0026658663991838694,0.017253700643777847,-0.25537097454071045,-0.9666891694068909,-0.004482097923755646,-0.006103605031967163,0.01406770944595337,0.9916262011423225,0.12871950542216656,0.009311051742417836,0.004709717781726428
1681573773180731000,1.39873095703125,0.02782447822391987,0.006993266753852367,0.0023304899223148823,0.017355650663375854,-0.25572940707206726,-0.9665926098823547,-0.002234196290373802,-0.0052721500396728516,0.015497028827667236,0.9916018843290931,0.12890314708927422,0.009363650952868284,0.004710427301597554
1681573773190776800,1.40877685546875,0.025450613349676132,0.008320823311805725,0.006973711773753166,0.017446929588913918,-0.2561860978603363,-0.9664700031280518,-0.0034241024404764175,-0.004617094993591309,0.014367341995239258,0.9915708848375072,0.12913698370121018,0.009414356577403398,0.004735571444320364
1681573773200822800,1.41882275390625,0.027259165421128273,0.010727254673838615,0.013157305307686329,0.017472555860877037,-0.2567408084869385,-0.9663223624229431,-0.006577793508768082,-0.006015509366989136,0.01502835750579834,0.9915333331816392,0.12942097014066117,0.00943613943874349,0.00479032422568944
1681573773210868700,1.42886865234375,0.019046396017074585,0.014356344938278198,0.016170138493180275,0.017436176538467407,-0.2573237419128418,-0.9661679267883301,-0.008067278191447258,-0.005234211683273315,0.012859821319580078,0.9914940229637904,0.1297192150017978,0.009431561084552757,0.00488168661433751
1681573773220915000,1.4389150390625,0.012807673774659634,0.00936797820031643,0.021233873441815376,0.017369117587804794,-0.25776931643486023,-0.966050386428833,-0.0039871614426374435,-0.0010960400104522705,0.010712862014770508,0.991463831061689,0.12994689833584766,0.009413721499523808,0.0049928525634784
1681573773230961000,1.4489609375,0.008480645716190338,0.007257511839270592,0.020979808643460274,0.017332499846816063,-0.2580769956111908,-0.9659688472747803,-0.00509495846927166,-0.0011545419692993164,0.008556127548217773,0.9914426639728489,0.13010377402989384,0.009411245417905587,0.005107158170961073
1681573773241006800,1.4590068359375,0.004004404414445162,0.006335791666060686,0.023384375497698784,0.01725899428129196,-0.258323073387146,-0.9659044146537781,-0.00430428609251976,-0.0006490647792816162,0.009376704692840576,0.9914257759675099,0.13022903361133317,0.00939121727973444,0.005230769749155165
1681573773251052800,1.469052734375,0.010085809044539928,0.002735020127147436,0.017924362793564796,0.017150046303868294,-0.25853484869003296,-0.9658496975898743,-0.0031882598996162415,0.0029654204845428467,0.006865322589874268,0.9914112938402524,0.13033688432773455,0.009351753496089408,0.0053431612768922295
1681573773261098000,1.479097900390625,0.005333930253982544,0.011407338082790375,0.011319191195070744,0.017126940190792084,-0.25874555110931396,-0.9657936692237854,-0.00470629520714283,0.005907416343688965,0.0078011155128479,0.9913967731877145,0.13044427293220887,0.009351671561910106,0.005425661349509254
1681573773271144000,1.48914404296875,-0.0027383388951420784,0.009107610210776329,0.0036008181050419807,0.017125306650996208,-0.25887638330459595,-0.9657586216926575,-0.007176576182246208,0.003673166036605835,0.0037835240364074707,0.9913876490109909,0.1305109589016329,0.00935787742603928,0.00547563760046617
1681573773281190000,1.49918994140625,-0.012310538440942764,0.006770685780793428,0.0028308979235589504,0.01705196313560009,-0.25897398591041565,-0.9657337665557861,-0.007545745000243187,0.003862321376800537,0.0011646747589111328,0.9913811775975228,0.1305608832859528,0.009325917480242685,0.005511278443022848
1681573773291235800,1.50923583984375,-0.022487351670861244,0.007085501216351986,-0.0033265966922044754,0.01694178208708763,-0.2589571475982666,-0.9657402038574219,-0.005665544420480728,0.003403007984161377,-0.000766754150390625,0.9913827303529981,0.13055232448770737,0.009272512712988967,0.0055281925541614835
1681573773301282000,1.519281982421875,-0.026151861995458603,-0.00033619580790400505,-0.005629698280245066,0.016896048560738564,-0.2587733268737793,-0.9657902717590332,-0.0010116640478372574,0.004317820072174072,-0.0003198981285095215,0.9913953921881008,0.13045819435473985,0.009247164856785834,0.005515729147909046
1681573773311328000,1.529327880859375,-0.017943352460861206,-0.002166734542697668,-0.009389549493789673,0.01680370420217514,-0.2586114704608917,-0.9658352732658386,-0.0018501002341508865,0.005269825458526611,0.00042694807052612305,0.9914069306319865,0.13037563074848516,0.009195902027860857,0.005484372876312644
1681573773321374000,1.5393740234375,-0.011211681179702282,0.0031065905932337046,-0.014038097113370895,0.016765426844358444,-0.2585315406322479,-0.9658573269844055,-0.003856489434838295,0.003435105085372925,-0.0024806857109069824,0.9914127611049348,0.130335207423973,0.009168994627379384,0.005428658328989739
1681573773331420000,1.549419921875,-0.0005449594464153051,0.0007286244072020054,-0.01804162748157978,0.01675987057387829,-0.2584364116191864,-0.9658828973770142,-0.004217151552438736,0.007856637239456177,-0.00562894344329834,0.9914196459964661,0.13028712876892712,0.00915566682900172,0.005351047524027391
1681573773341465900,1.5594658203125,0.009487168863415718,0.0010242350399494171,-0.017895152792334557,0.016710955649614334,-0.25839704275131226,-0.9658942818641663,-0.0012538116425275803,0.009663581848144531,-0.00438159704208374,0.9914229258931095,0.13026772675772363,0.009120879141353738,0.005275065741622307
1681573773351512000,1.569511962890625,0.014315632171928883,0.002788993762806058,-0.023350372910499573,0.016634996980428696,-0.25846803188323975,-0.965876579284668,-0.0007811225950717926,0.007857710123062134,-0.004841804504394531,0.991418898704364,0.1303051387829455,0.009071104627030093,0.005186025635465712
1681573773361558000,1.57955810546875,0.009963760152459145,-0.0007357001304626465,-0.025608200579881668,0.01654210314154625,-0.2585158348083496,-0.9658653736114502,-0.0009934045374393463,0.005036890506744385,-0.005570173263549805,0.9914166243234834,0.1303308603011482,0.009010046101126122,0.005076752563814428
1681573773371604000,1.58960400390625,0.00477109057828784,-0.003312870394438505,-0.024498194456100464,0.016463739797472954,-0.2585359811782837,-0.9658613204956055,0.0009465385228395462,0.001486450433731079,-0.0017747879028320312,0.991416200926655,0.1303424491985445,0.008954653040753371,0.0049555483404420415
1681573773381650000,1.59964990234375,-0.008409692905843258,-0.0026116599328815937,-0.024144526571035385,0.016478322446346283,-0.258426696062088,-0.9658903479576111,0.0010082367807626724,-0.0039023756980895996,0.000359952449798584,0.9914242786658646,0.13028745904656788,0.008945004221592938,0.004828809545199233
1681573773391695600,1.609695556640625,-0.015126032754778862,-0.007043959107249975,-0.0253251064568758,0.01646159403026104,-0.25818654894828796,-0.9659548401832581,0.00030781514942646027,-0.009437322616577148,0.0031252503395080566,0.9914410411413762,0.13016540747044605,0.00891923990132622,0.004702508111254185
1681573773401741600,1.619741455078125,-0.017434194684028625,-0.015115734189748764,-0.019017409533262253,0.016327720135450363,-0.2579398453235626,-0.9660230278968811,0.001357201486825943,-0.010538488626480103,0.0050244927406311035,0.9914587749350694,0.13004004139466033,0.008836479378242973,0.004592010729963612
1681573773411787500,1.62978759765625,-0.011354615911841393,-0.013987351208925247,-0.014925195835530758,0.016155216842889786,-0.2576117515563965,-0.9661134481430054,0.0008278042078018188,-0.007723301649093628,0.006045699119567871,0.9914819907921304,0.12987283621290996,0.008736199110154639,0.004498059176902616
1681573773421833500,1.63983349609375,0.00032334530260413885,-0.0050841388292610645,-0.015782732516527176,0.016078833490610123,-0.25735029578208923,-0.9661843776702881,0.0007821209728717804,-0.003727555274963379,0.006223440170288086,0.9915002148855904,0.12973951005162035,0.008686730716212369,0.004420228259894558
1681573773431879400,1.64987939453125,0.0005236148135736585,-0.0021597514860332012,-0.00901084765791893,0.016071181744337082,-0.25717607140541077,-0.9662309288978577,-0.0025213807821273804,-0.0038254857063293457,0.003706514835357666,0.9915121953233198,0.12965067140967096,0.008674361563618858,0.004358975278550362
1681573773441925600,1.659925537109375,0.0041159531101584435,-0.0025152829475700855,-0.005777237471193075,0.016046393662691116,-0.2570798695087433,-0.9662569165229797,-0.0015352927148342133,-0.0032350122928619385,0.0021761655807495117,0.991518898709141,0.12960164818868372,0.008657226282964175,0.004325616488899802
1681573773451971600,1.6699716796875,0.0050153788179159164,-0.000029252376407384872,-0.0007068451377563179,0.01607324182987213,-0.25710994005203247,-0.9662485122680664,0.000711420550942421,-0.004028916358947754,0.004364967346191406,0.9915169339736465,0.12961724636828395,0.008667515649912727,0.004300100863331483
1681573773462017500,1.680017578125,0.007679072208702564,0.0014730370603501797,0.0006332574412226677,0.016120348125696182,-0.25729209184646606,-0.9661992192268372,-0.0010141544044017792,-0.006517082452774048,0.007169067859649658,0.9915045400013922,0.1297106397170498,0.008691576777891605,0.00429852110526127
1681573773472063500,1.6900634765625,0.015841051936149597,-0.0021751979365944862,-0.001786756911315024,0.016131235286593437,-0.25763803720474243,-0.9661068320274353,0.0002414397895336151,-0.007422357797622681,0.007214009761810303,0.9914811916827035,0.12988814573344407,0.008697779627245932,0.004296521412396358
1681573773482109400,1.700109375,0.017157718539237976,-0.0017616087570786476,-0.0008205621270462871,0.016130579635500908,-0.258057564496994,-0.9659948945045471,0.0015848595649003983,-0.0030202865600585938,0.007727682590484619,0.9914531033883518,0.1301035015068072,0.008697026265093142,0.00428431139049225
1681573773492155600,1.71015576171875,0.014995422214269638,-0.001813777256757021,0.00496648671105504,0.016114206984639168,-0.25839361548423767,-0.9659053087234497,0.0015402007848024368,-0.0005479753017425537,0.004998326301574707,0.9914305112597342,0.13027593721540073,0.008690362589891337,0.004289260701801303
1681573773502201600,1.72020166015625,0.0052831401117146015,-0.00036874599754810333,0.005605911836028099,0.016088049858808517,-0.2585865557193756,-0.9658541083335876,0.0016426611691713333,-0.002720177173614502,0.0020784735679626465,0.9914174563021391,0.13037480966941617,0.00868058202859723,0.0043110737779182276
1681573773512247600,1.73024755859375,0.001388343283906579,-0.0034919828176498413,0.006249331869184971,0.01599118858575821,-0.2586902379989624,-0.9658279418945312,-0.00018308497965335846,-0.00676688551902771,0.00283050537109375,0.9914107296959622,0.1304278730121249,0.008636575186465998,0.004345689716535137
1681573773522293500,1.74029345703125,0.0019947451073676348,-0.0035551004111766815,0.007584108039736748,0.015913313254714012,-0.25875091552734375,-0.9658129811286926,0.00016944482922554016,-0.005699127912521362,0.00005370378494262695,0.9914067819638603,0.13045887006108403,0.008601656878926067,0.004377502708679624
1681573773532339500,1.75033935546875,0.013169292360544205,-0.0006776428781449795,0.007111130282282829,0.015894534066319466,-0.2588975727558136,-0.9657739996910095,0.00008140690624713898,-0.004331767559051514,-0.0015874505043029785,0.9913968086754864,0.13053385549598095,0.008597239036625197,0.004412708661210079
1681573773542384600,1.760384521484375,0.014636427164077759,-0.0008078715763986111,0.00853166077286005,0.015854740515351295,-0.25917166471481323,-0.9657011032104492,0.001143546774983406,-0.002012968063354492,-0.0010041594505310059,0.9913782543515423,0.13067424547759277,0.00858343064240935,0.004454255948458654
1681573773552430600,1.7704306640625,0.018901975825428963,-0.0035621426068246365,0.007753484882414341,0.015820330008864403,-0.25948694348335266,-0.9656170010566711,0.002551250159740448,0.002651035785675049,0.00010186433792114258,0.991356832946375,0.13083577147567524,0.008572400269796452,0.004495272682928098
1681573773562476500,1.7804765625,0.016971450299024582,-0.005756587255746126,0.00924805086106062,0.01579740270972252,-0.2597214877605438,-0.9655543565750122,0.0017654523253440857,0.003312826156616211,0.001946568489074707,0.9913408603746843,0.1309558522154751,0.008566935710296198,0.004536274193399402
1681573773572522800,1.790522705078125,0.013814272359013557,-0.0022469554096460342,0.00534225907176733,0.015789680182933807,-0.25988882780075073,-0.9655094146728516,-0.0001341700553894043,-0.0005633831024169922,0.0003452897071838379,0.9913293429491097,0.1310414796984753,0.008567930899555449,0.004569552543841999
1681573773582568700,1.800568603515625,0.003191721858456731,-0.0011052582412958145,0.001773889409378171,0.015803547576069832,-0.26000475883483887,-0.9654780030250549,0.0006454121321439743,-0.002858370542526245,-0.0018376708030700684,0.9913213588446124,0.13110087331851372,0.008576709036258954,0.004580449132925038
1681573773592614700,1.81061474609375,-0.0044810352846980095,-0.004661702550947666,0.0019930675625801086,0.01576896198093891,-0.2601296603679657,-0.9654449224472046,0.0006647445261478424,-0.003359079360961914,-0.00214540958404541,0.9913130144959247,0.1311649235517711,0.008561367673094377,0.004593560315313185
1681573773602660600,1.82066064453125,-0.0028959219343960285,-0.01130256149917841,0.002207718323916197,0.015689441934227943,-0.26017728447914124,-0.9654334187507629,0.002346433699131012,-0.004791527986526489,-0.0009209513664245605,0.9913100412826864,0.13118943098636268,0.008522817116960646,0.004604283814371507
1681573773612706600,1.83070654296875,-0.004105491563677788,-0.011276403442025185,0.004416277632117271,0.015578476712107658,-0.2601957619190216,-0.9654302000999451,0.004349486902356148,0.00009447336196899414,0.00014394521713256836,0.9913092444877234,0.13119907119519927,0.008467547030503744,0.004609172231944141
1681573773622752800,1.840752685546875,0.001537746749818325,-0.013783769682049751,0.009358039125800133,0.015470882877707481,-0.2602047324180603,-0.9654295444488525,0.006455989554524422,0.00594756007194519,0.001837015151977539,0.9913090095438171,0.13120369405968557,0.008415916728470772,0.004628930204811037
1681573773632798700,1.850798828125,0.0003513083793222904,-0.014519067481160164,0.012710426934063435,0.01536139752715826,-0.2601678967475891,-0.9654412269592285,0.005802540108561516,0.006963610649108887,0.006395816802978516,0.9913117810838377,0.13118466272169543,0.00836566982690224,0.004667375614361167
1681573773642844700,1.8608447265625,-0.006110585760325193,-0.014947038143873215,0.015268392860889435,0.015232128091156483,-0.2600688338279724,-0.9654699563980103,0.0035056527704000473,0.0060710906982421875,0.008804917335510254,0.9913187189294694,0.13113358309703455,0.008307537036448208,0.004723068834528835
1681573773652890600,1.870890625,-0.016571559011936188,-0.009468323551118374,0.017756052315235138,0.01508315559476614,-0.2599756717681885,-0.9654973745346069,0.0020219357684254646,0.006130486726760864,0.011517882347106934,0.9913252819291954,0.13108543169956388,0.008241919588889058,0.004797220302002508
1681573773662936600,1.8809365234375,-0.028768302872776985,-0.009252873249351978,0.020556632429361343,0.014972678385674953,-0.25981178879737854,-0.9655432105064392,0.002559669315814972,0.004974782466888428,0.014249265193939209,0.9913364372760813,0.13100078177383523,0.00819729397812666,0.0048849847172800056
1681573773672982800,1.890982666015625,-0.038535941392183304,-0.007320306729525328,0.024234456941485405,0.014873658306896687,-0.2595480680465698,-0.9656156301498413,0.0008734036237001419,0.0068320631980896,0.013863980770111084,0.9913540902025405,0.13086473787090014,0.008160782824469057,0.0049929140579637625
1681573773683028700,1.90102880859375,-0.02640870399773121,-0.01041383482515812,0.018271373584866524,0.014797068201005459,-0.25934675335884094,-0.9656709432601929,-0.00017915479838848114,0.00699692964553833,0.015918076038360596,0.9913676205218183,0.13076076437903714,0.008134096260341594,0.005088267795026425
1681573773693074700,1.91107470703125,-0.0026518243830651045,-0.002514632884413004,0.020563822239637375,0.014794626273214817,-0.25922688841819763,-0.9657031297683716,-0.0010006921365857124,0.00936424732208252,0.017369389533996582,0.991375241925933,0.13069852589094627,0.008144144408893815,0.005176721480373728
1681573773703120600,1.92112060546875,0.011330570094287395,0.009837907738983631,0.019352084025740623,0.014943983405828476,-0.25918132066726685,-0.9657130837440491,-0.0010279761627316475,0.016139358282089233,0.015578806400299072,0.9913773240879554,0.13067407777563428,0.008230968256137653,0.005265036112479414
1681573773713166600,1.93116650390625,0.007642282638698816,0.013932162895798683,0.017717702314257622,0.015152957290410995,-0.25919243693351746,-0.9657068252563477,-0.005707773379981518,0.020911216735839844,0.012719154357910156,0.9913752394449802,0.1306786078642695,0.008347995540222924,0.005352960093138274
1681573773723212500,1.941212646484375,0.002343390602618456,0.01403309591114521,0.015189031139016151,0.015331951901316643,-0.2591686248779297,-0.9657104015350342,-0.005718919448554516,0.018003493547439575,0.01055598258972168,0.9913756571947707,0.1306652742236317,0.008449290745903988,0.005437137784967358
1681573773733258500,1.951258544921875,-0.0018972365651279688,0.01712268963456154,0.005137728061527014,0.015499891713261604,-0.2591218054294586,-0.9657202959060669,-0.004284693859517574,0.009549111127853394,0.008566975593566895,0.9913778127989326,0.13064038168597877,0.008541280107199055,0.0054936300380650895
1681573773743304400,1.961304443359375,-0.004610731266438961,0.020513959228992462,0.0003967687953263521,0.01572047732770443,-0.2590843141078949,-0.9657267928123474,-0.0032082796096801758,0.004033714532852173,0.005109727382659912,0.9913793791169844,0.13062045760293947,0.008655245884141986,0.0055151649260397825
1681573773753350400,1.971350341796875,-0.011771438643336296,0.017394745722413063,-0.010366396978497505,0.015909070149064064,-0.25893840193748474,-0.9657627940177917,-0.0018252134323120117,0.005642533302307129,0.007114112377166748,0.9913885459935459,0.13054523391800898,0.00874833644352658,0.005503575198741476
1681573773763396600,1.981396728515625,-0.018152639269828796,0.019070938229560852,-0.00963935349136591,0.016102805733680725,-0.2587611973285675,-0.9658070802688599,-0.002232581377029419,0.006045162677764893,0.007219433784484863,0.9913999273804691,0.13045418537149234,0.00884057974999398,0.005466645949487844
1681573773773442600,1.991442626953125,-0.023726902902126312,0.01923735812306404,-0.014702822081744671,0.016272109001874924,-0.2584921419620514,-0.9658763408660889,-0.0010438449680805206,0.0026480555534362793,0.003458738327026367,0.9914176268389308,0.13031607989618096,0.008919794614104965,0.005426705001960025
1681573773783488500,2.001488525390625,-0.030740603804588318,0.016717739403247833,-0.0180317722260952,0.01644803397357464,-0.25802794098854065,-0.9659974575042725,0.001557324081659317,0.0007037520408630371,0.003625631332397461,0.9914484932224915,0.13007807537040317,0.00899857976732598,0.005363020053662921
1681573773793534500,2.011534423828125,-0.04441019147634506,0.015136385336518288,-0.021092277020215988,0.01652432419359684,-0.25735196471214294,-0.966176450252533,0.001008015125989914,-0.003207087516784668,0.001531064510345459,0.9914940499606739,0.1297317639915306,0.009024745944123468,0.0052864428755812565
1681573773803580400,2.021580322265625,-0.038035113364458084,0.012076146900653839,-0.020406514406204224,0.016561103984713554,-0.2566903233528137,-0.9663518071174622,-0.0009055919945240021,-0.010445266962051392,0.0008214116096496582,0.9915387036904223,0.12939304356920517,0.009029839920887094,0.005200308398369657
1681573773813626600,2.031626708984375,-0.026476234197616577,0.010023737326264381,-0.022150883451104164,0.016591450199484825,-0.25626787543296814,-0.9664633870124817,0.0018869340419769287,-0.009891152381896973,0.0013754963874816895,0.9915673390960658,0.129177066071391,0.009032391151290143,0.005113129161144601
1681573773823672600,2.041672607421875,-0.015230238437652588,0.0082697793841362,-0.02019692398607731,0.016646988689899445,-0.2560698986053467,-0.9665149450302124,0.0025180410593748093,-0.008059710264205933,-0.000938117504119873,0.9915808237542688,0.1290762419750074,0.009047771439415306,0.005021080635971079
1681573773833718500,2.051718505859375,-0.010764270089566708,0.00938872154802084,-0.021184690296649933,0.016725614666938782,-0.25592321157455444,-0.9665524363517761,-0.0006733741611242294,-0.002957373857498169,-0.003998100757598877,0.9915907216533517,0.12900170232954059,0.009074700350930862,0.004926919827561444
1681573773843764500,2.061764404296875,-0.006053670309484005,0.00588320242241025,-0.015945186838507652,0.016797196120023727,-0.25579774379730225,-0.9665843844413757,0.0005062650889158249,-0.002747148275375366,-0.008024990558624268,0.9915992009857357,0.1289379524180329,0.00909992629492619,0.004846371157567032
1681573773853810400,2.071810546875,0.0028328420594334602,0.005505092442035675,-0.008066223934292793,0.01684546284377575,-0.255805104970932,-0.9665815830230713,0.0008242037147283554,-0.0071800947189331055,-0.006425619125366211,0.991598745725246,0.12894214578483712,0.009117028710562573,0.004790540508144781
1681573773863855600,2.081855712890625,-0.0009078342118300498,0.010009296238422394,-0.008148249238729477,0.016967205330729485,-0.2558767795562744,-0.9665604829788208,-0.001693161204457283,-0.010617941617965698,-0.006019473075866699,0.9915936169491921,0.12897898971067767,0.009174358792144016,0.00475762163116454
1681573773873901600,2.091901611328125,-0.008809737861156464,0.003415546612814069,-0.0043833390809595585,0.017062781378626823,-0.255938321352005,-0.9665425419807434,-0.0020481422543525696,-0.011151492595672607,-0.006754636764526367,0.9915892150372421,0.1290106802462335,0.00921857742400647,0.0047255894182493706
1681573773883947500,2.101947509765625,-0.01907489076256752,-0.0016969237476587296,0.0011006423737853765,0.0170411616563797,-0.25604912638664246,-0.9665135741233826,-0.0016145333647727966,-0.013131111860275269,-0.00037485361099243164,0.9915819071415373,0.12906762413490713,0.0092070983121642,0.00471854200963133
1681573773893993700,2.11199365234375,-0.019401242956519127,-0.005831747315824032,0.006293007172644138,0.01703251525759697,-0.2560849189758301,-0.9665042161941528,-0.0008887201547622681,-0.014483898878097534,0.002118229866027832,0.9915794578758961,0.12908583845145072,0.009205111758098296,0.004735936098359895
1681573773904039700,2.122039794921875,-0.015781475231051445,-0.011601485311985016,0.01229364238679409,0.01696856878697872,-0.2560636103153229,-0.9665110111236572,-0.00116046704351902,-0.012170612812042236,0.00024819374084472656,0.991580968135927,0.1290746221244593,0.009178368323282284,0.004778713097113539
1681573773914085600,2.132085693359375,-0.01267029345035553,-0.012780793011188507,0.0218671727925539,0.016788460314273834,-0.25598007440567017,-0.966536283493042,0.0009117312729358673,-0.007462888956069946,-0.0013134479522705078,0.9915869776328664,0.1290314143174142,0.009097211153969649,0.004854985155606202
1681573773924131600,2.142131591796875,-0.0029966277070343494,-0.008889115415513515,0.02709762193262577,0.016627168282866478,-0.25591233372688293,-0.9665570259094238,0.00035586021840572357,-0.00444832444190979,-0.002971172332763672,0.9915916164765011,0.12899591587847045,0.009030741872383178,0.004970886515069416
1681573773934177500,2.152177490234375,0.007703420706093311,-0.011089952662587166,0.03300610929727554,0.01647258549928665,-0.2560567855834961,-0.9665213823318481,0.0017921794205904007,-0.0018014609813690186,-0.0039833784103393555,0.9915819639642669,0.12906903580909918,0.00897168252229651,0.005112503445624316
1681573773944223700,2.1622236328125,0.012277400121092796,-0.010651595890522003,0.03459468483924866,0.016258714720606804,-0.25633421540260315,-0.9664514660835266,0.0013651810586452484,-0.0015240311622619629,-0.008905589580535889,0.9915634915686101,0.12921037246300746,0.008885219979728697,0.005269720971308954
1681573773954269700,2.172269775390625,0.00875970721244812,-0.017056439071893692,0.03727622330188751,0.015996120870113373,-0.2566247880458832,-0.9663787484169006,-0.000615270808339119,0.002672821283340454,-0.005133092403411865,0.9915441872980824,0.1293584637909954,0.008776258197697713,0.005442141213980558
1681573773964315600,2.182315673828125,0.004552711732685566,-0.01837736740708351,0.04244381934404373,0.015703827142715454,-0.2569672465324402,-0.9662925004959106,0.002698266878724098,0.0034730136394500732,-0.00100785493850708,0.991521425161859,0.12953315115270816,0.008654517054249427,0.00562964501961429
1681573773974361600,2.192361572265625,-0.004555603954941034,-0.019788190722465515,0.046920329332351685,0.015410938300192356,-0.25725552439689636,-0.9662205576896667,0.002579169347882271,0.00418853759765625,-0.00027120113372802734,0.9915021284700588,0.12967993643269168,0.008535059711047193,0.0058379162068549345
1681573773984407600,2.202407470703125,-0.016658339649438858,-0.023623943328857422,0.0479605607688427,0.01509031280875206,-0.2573915719985962,-0.9661893844604492,0.0019384874030947685,0.004461944103240967,0.0024290084838867188,0.9914929086197264,0.1297486569106112,0.00840269674628298,0.00605831342491709
1681573773994453800,2.212453857421875,-0.0301512461155653,-0.026156222447752953,0.04780369997024536,0.014783580787479877,-0.257289856672287,-0.9662212133407593,0.0026877280324697495,0.0019340813159942627,0.0036052465438842773,0.9914995105118929,0.12969544808172823,0.008276372144369085,0.006278005295720024
1681573774004499700,2.222499755859375,-0.03519979864358902,-0.02910034917294979,0.04792114347219467,0.014444668777287006,-0.2570178210735321,-0.9662986993789673,0.0019890423864126205,0.00012087821960449219,0.003423333168029785,0.99151772225167,0.12955506036113273,0.008132007919510484,0.006489097271514685
1681573774014545700,2.232545654296875,-0.033663954585790634,-0.023954322561621666,0.04129466786980629,0.014165060594677925,-0.25669679045677185,-0.9663881659507751,0.002039767801761627,0.000059217214584350586,0.0073732733726501465,0.9915390548332279,0.12938955425842172,0.0080154554197984,0.006686063129385641
1681573774024591600,2.242591552734375,-0.030357906594872475,-0.019787007942795753,0.03746291249990463,0.013909973204135895,-0.25636571645736694,-0.9664797782897949,-0.00014655012637376785,0.004015892744064331,0.008533000946044922,0.9915607578571899,0.12921902564992793,0.007909592451658213,0.006870929188347354
1681573774034637600,2.252637451171875,-0.026690468192100525,-0.015839137136936188,0.029907789081335068,0.013684761710464954,-0.2560146450996399,-0.9665760397911072,-0.003659747540950775,0.00525173544883728,0.008339345455169678,0.9915839526607608,0.12903841553613848,0.007814672111919115,0.0070252142512395735
1681573774044683800,2.262683837890625,-0.018282335251569748,-0.013465462252497673,0.02222110703587532,0.013578184880316257,-0.2557665705680847,-0.966643214225769,-0.0027444520965218544,0.0044390857219696045,0.007765650749206543,0.9916000711487923,0.128910622495373,0.0077745865513222795,0.0071381879439724304
1681573774054729700,2.272729736328125,-0.00935808289796114,-0.005620322190225124,0.019738774746656418,0.013523624278604984,-0.25558868050575256,-0.9666910171508789,-0.0008435789495706558,0.0039865076541900635,0.005722999572753906,0.9916115079614141,0.1288188432163903,0.0077581720511793965,0.007229379859210694
1681573774064775700,2.282775634765625,0.0011637246934697032,-0.0022970521822571754,0.021651990711688995,0.013510392047464848,-0.2555277645587921,-0.9667073488235474,-0.00302761048078537,0.005970299243927002,0.004640638828277588,0.99161498497025,0.12878692239265022,0.007763294538544157,0.007322196662459638
1681573774074821600,2.292821533203125,0.013857606798410416,0.002950381487607956,0.021265564486384392,0.013536154292523861,-0.25562584400177,-0.9666810035705566,-0.0031754449009895325,0.005946338176727295,0.004446566104888916,0.9916076326222352,0.12883636084373876,0.00778958211647956,0.007421290663710327
1681573774084867600,2.30286767578125,0.013599811121821404,0.0060412464663386345,0.01848921924829483,0.013581388629972935,-0.2558259069919586,-0.9666274785995483,-0.001984712667763233,0.002484261989593506,0.00494229793548584,0.9915934136436393,0.12893807456834944,0.007825468717363027,0.007515151228534947
1681573774094913500,2.31291357421875,0.009788752533495426,0.006755712907761335,0.01542099192738533,0.013654351234436035,-0.2560053765773773,-0.9665789008140564,-0.0013557756319642067,-0.00014388561248779297,0.0067247748374938965,0.9915804841498124,0.12902916275546145,0.007874862043782262,0.007605907213683902
1681573774104959500,2.32295947265625,0.005205451976507902,0.003941550850868225,0.019898565486073494,0.013655576854944229,-0.25605830550193787,-0.9665648937225342,-0.00024310685694217682,-0.002196669578552246,0.00864863395690918,0.9915762344077592,0.12905560068869043,0.007887262015439812,0.0076946164030778225
1681573774115005400,2.33300537109375,0.002421611687168479,0.0035117757506668568,0.01674538291990757,0.013566678389906883,-0.25603964924812317,-0.9665710926055908,0.0021040886640548706,-0.0033444762229919434,0.00915837287902832,0.9915769958678678,0.129045548906079,0.007855285120523624,0.007793998746993699
1681573774125051400,2.343051513671875,-0.0024370593018829823,0.009813081473112106,0.01219989825040102,0.013527095317840576,-0.25598764419555664,-0.9665853977203369,0.0007398622110486031,-0.004495143890380859,0.005617380142211914,0.9915800619771976,0.12901840032583892,0.007845002842067872,0.00787019948126718
1681573774135097600,2.35309765625,-0.00968774314969778,0.010865354910492897,0.011851557530462742,0.013578460551798344,-0.2558758556842804,-0.966614305973053,-0.0009441934525966644,-0.003782927989959717,0.0054784417152404785,0.9915867889097814,0.12896034693261169,0.007879256792188077,0.007938382607433696
1681573774145143600,2.3631435546875,-0.012495514005422592,0.008456791751086712,0.013603650964796543,0.013566493056714535,-0.25566399097442627,-0.9666705131530762,-0.0015425719320774078,-0.0021942555904388428,0.005321025848388672,0.9916003824728742,0.1288511505125209,0.007881779867848635,0.008011799170731717
1681573774155189500,2.373189453125,-0.0011886835563927889,0.009389283135533333,0.014730701223015785,0.013539564795792103,-0.25549665093421936,-0.9667151570320129,0.00042221881449222565,0.00004929304122924805,0.0046942830085754395,0.991610959394524,0.12876481222729685,0.00787747924775286,0.008089263386604309
1681573774165235500,2.3832353515625,0.005149107426404953,0.009754136204719543,0.013357308693230152,0.013550810515880585,-0.2554876208305359,-0.9667173624038696,0.0008382201194763184,0.0024053752422332764,0.004833817481994629,0.9916109438755472,0.1287595321966702,0.007892931156610404,0.008164921126533253
1681573774175281400,2.393281494140625,0.014600209891796112,0.013651465997099876,0.015072651207447052,0.013596944510936737,-0.2556374669075012,-0.9666770696640015,-0.0006727585569024086,0.008567184209823608,0.004228949546813965,0.9916000066591937,0.12883556426083514,0.007927684588638413,0.008247877375744766
1681573774185327600,2.40332763671875,0.017816508188843727,0.016816899180412292,0.01475892961025238,0.013708562590181828,-0.25591617822647095,-0.9666017889976501,-0.002508615143597126,0.011348307132720947,0.0048860907554626465,0.9915802779936139,0.12897740418384648,0.007996352267214294,0.008332807707369948
1681573774195373600,2.41337353515625,0.015099551528692245,0.0177258662879467,0.011549554765224457,0.013881794176995754,-0.2562077045440674,-0.9665220975875854,-0.002941252663731575,0.009900391101837158,0.006133913993835449,0.991559616453623,0.1291256845563324,0.008094665797088256,0.008406125674968368
1681573774205419500,2.42341943359375,0.009787078015506268,0.018423080444335938,0.009351647458970547,0.014032923616468906,-0.25645020604133606,-0.9664555788040161,-0.002848234958946705,0.006877481937408447,0.007333874702453613,0.9915422660018052,0.12924892328116153,0.008180987366412134,0.008474601667416405
1681573774215464700,2.433464599609375,-0.0051650116220116615,0.017412323504686356,0.0026532653719186783,0.014168835245072842,-0.2565690875053406,-0.9664220213890076,-0.004159075208008289,0.006981104612350464,0.005591332912445068,0.9915334517250037,0.12930906031758874,0.008255297880086396,0.008514378906310242
1681573774225511400,2.443511474609375,-0.021289385855197906,0.011702771298587322,-0.000510836485773325,0.01427563838660717,-0.2564942240715027,-0.9664403200149536,-0.004067515954375267,0.003976553678512573,0.0036870241165161133,0.9915380064796135,0.12927009934141867,0.008310902460884364,0.008530639133078633
1681573774235556600,2.453556640625,-0.028214631602168083,0.010607738979160786,-0.005934364162385464,0.014379539526998997,-0.25624698400497437,-0.9665043950080872,-0.003606843762099743,0.002798527479171753,0.003934204578399658,0.9915541174144411,0.12914290022383368,0.008361808537723045,0.008528658941904016
1681573774245602600,2.4636025390625,-0.0353202149271965,0.007192234508693218,-0.006776455324143171,0.014483342878520489,-0.25588616728782654,-0.9665984511375427,-0.0010861316695809364,0.0035058259963989258,0.004043519496917725,0.9915780545452753,0.12895764728197384,0.008409066770429194,0.008503370220594941
1681573774255648500,2.4736484375,-0.03366977348923683,0.006427315529435873,-0.011611424386501312,0.014532207511365414,-0.2553952932357788,-0.9667274951934814,-0.0029202792793512344,0.0030759871006011963,0.004019975662231445,0.9916109824081076,0.12870611132815388,0.00842535763629346,0.008457821139796953
1681573774265694700,2.48369482421875,-0.025572167709469795,0.007100296672433615,-0.006128242239356041,0.014549399726092815,-0.2549089193344116,-0.9668555855751038,-0.005180513486266136,0.007853895425796509,-0.00036853551864624023,0.9916436056257609,0.12845691720317262,0.008427106702890557,0.008422951588657728
1681573774275740700,2.49374072265625,-0.02221563458442688,0.011035915464162827,-0.005758062936365604,0.01457835454493761,-0.2545345425605774,-0.9669538140296936,-0.0040803151205182076,0.00973781943321228,-0.0018419623374938965,0.9916685292575623,0.1282649758575491,0.00843767949757944,0.00840606587104206
1681573774285786600,2.50378662109375,-0.016474924981594086,0.008280875161290169,0.0005554931703954935,0.014602073468267918,-0.2542704641819,-0.9670228958129883,-0.0032495399937033653,0.008863389492034912,-0.0021390914916992188,0.9916858379175086,0.12812946011144957,0.008448959621746792,0.008410845019338834
1681573774295832600,2.51383251953125,-0.01245587132871151,0.0017045843414962292,0.000706228194758296,0.01454546581953764,-0.2540510892868042,-0.9670814275741577,-0.003925357945263386,0.007041841745376587,-0.002858757972717285,0.9917004122528525,0.12801704369618458,0.00842180624837703,0.008429938289917666
1681573774305878500,2.52387841796875,-0.010820157825946808,0.002793018240481615,0.0023547247983515263,0.014473984017968178,-0.2539546489715576,-0.9671078324317932,-0.0018549710512161255,0.002367764711380005,-0.0013827681541442871,0.991706951288151,0.12796773291671432,0.008387248584908042,0.008445104764933204
1681573774315924700,2.5339248046875,-0.01523358654230833,0.0024984132032841444,0.009855518117547035,0.014399935491383076,-0.2538514733314514,-0.967136025428772,0.00014168210327625275,0.0023714005947113037,-0.004436850547790527,0.9917137253896217,0.1279148418154528,0.008353787342761062,0.00847906291787244
1681573774325970700,2.543970703125,-0.023695513606071472,-0.004459627438336611,0.013381809927523136,0.014345016330480576,-0.25365275144577026,-0.9671889543533325,-0.00018486939370632172,0.0034544169902801514,-0.00011146068572998047,0.9917266788634527,0.12781266151140597,0.00833287211860013,0.008539244743090181
1681573774336016600,2.5540166015625,-0.02965955063700676,-0.0128126610070467,0.019730253145098686,0.01416864339262247,-0.2533913552761078,-0.9672600626945496,0.000754442997276783,-0.0002859830856323242,0.0035912394523620605,0.9917438492571896,0.1276786476524175,0.008253391837083266,0.008622655159472548
1681573774346062600,2.5640625,-0.02592366747558117,-0.0188982505351305,0.017672428861260414,0.013856682926416397,-0.25298014283180237,-0.9673722386360168,0.0023023709654808044,-0.002482473850250244,0.004664719104766846,0.9917713135112374,0.1274683409379634,0.008105674943312765,0.008713021186609226
1681573774356108500,2.574108642578125,-0.026574961841106415,-0.01921945810317993,0.018097203224897385,0.013548429124057293,-0.25255075097084045,-0.9674887657165527,0.0009168973192572594,-0.0023472607135772705,0.00594097375869751,0.9917999135156444,0.1272488238001119,0.00795880458608629,0.008796365766550504
1681573774366154800,2.58415478515625,-0.0204683355987072,-0.015766935423016548,0.01675097458064556,0.01328864973038435,-0.25217780470848083,-0.9675896763801575,-0.0014173155650496483,-0.0036357641220092773,0.005156815052032471,0.9918247039063479,0.12705810219768646,0.007835828396181613,0.00887344535915958
1681573774376200700,2.59420068359375,-0.011801190674304962,-0.016623646020889282,0.017179477959871292,0.013023135252296925,-0.25190791487693787,-0.967663586139679,-0.002830270677804947,-0.004409193992614746,0.001995861530303955,0.9918426061077461,0.1269203078344295,0.00771006555126301,0.008947376715325342
1681573774386248400,2.60424853515625,-0.010084517300128937,-0.012326369062066078,0.02433512546122074,0.012821807526051998,-0.25178930163383484,-0.9676971435546875,-0.0030561918392777443,-0.0038564205169677734,-0.000030517578125,0.9918502678868387,0.126859654768611,0.0076196669079531265,0.009038846505765063
1681573774396294400,2.61429443359375,-0.007068981416523457,-0.01002533733844757,0.019359273836016655,0.012696202844381332,-0.2516838312149048,-0.9677262306213379,-0.00012296997010707855,-0.00048288702964782715,-0.0009016990661621094,0.9918567726271056,0.12680536573608486,0.0075684063433941705,0.009137419303294892
1681573774406340400,2.62434033203125,-0.007829314097762108,-0.010344384238123894,0.019829588010907173,0.012573456391692162,-0.25158119201660156,-0.9677545428276062,-0.0020449021831154823,-0.00241658091545105,0.002330958843231201,0.9918630420718579,0.12675256201725754,0.007518088841555694,0.009232053944303278
1681573774416386300,2.63438623046875,-0.009544465690851212,-0.006674105301499367,0.02010922133922577,0.012478421442210674,-0.25156158208847046,-0.9677608609199524,-0.002499180845916271,-0.005701571702957153,0.005892574787139893,0.9918636160681314,0.12674222106084737,0.007482317628046261,0.00932781552880288
1681573774426432300,2.644432373046875,-0.011655286885797977,-0.01036897487938404,0.012220138683915138,0.012431301176548004,-0.25157126784324646,-0.9677589535713196,-0.0015365323051810265,-0.006149649620056152,0.00618058443069458,0.9918626378083694,0.12674691156888493,0.0074665376147692,0.009389805843360613
1681573774436478500,2.654478515625,-0.009827825240790844,-0.006836824119091034,0.00864697527140379,0.012370143085718155,-0.2515758275985718,-0.9677585363388062,-0.0020704641938209534,-0.005443185567855835,0.0033572912216186523,0.9918621154153967,0.12674915680513515,0.007441810493761058,0.009437366476535418
1681573774446524400,2.6645244140625,-0.003033036831766367,-0.0038040168583393097,0.00543040968477726,0.01228626724332571,-0.25165072083473206,-0.9677401185035706,-0.0021849581971764565,-0.0034151673316955566,0.0014773011207580566,0.9918571602045282,0.12678763659354214,0.007404320603080898,0.009471704272053112
1681573774456570400,2.6745703125,0.011125659570097923,-0.0013547074049711227,0.0015882670413702726,0.01220455951988697,-0.2517941892147064,-0.9677038788795471,-0.0019964398816227913,-0.0013032853603363037,-0.002648293972015381,0.9918476903445095,0.1268613586940378,0.007366860286955721,0.009494801579346967
1681573774466616300,2.6846162109375,0.012406335212290287,0.0008183731697499752,-0.0019579981453716755,0.012144076637923717,-0.2519841194152832,-0.9676551818847656,-0.001096721738576889,-0.0004877746105194092,-0.003429412841796875,0.9918354091908783,0.12695893647717812,0.007337820905775802,0.009498129865825053
1681573774476662300,2.694662353515625,0.010943499393761158,0.0017374891322106123,-0.00622571399435401,0.012159070931375027,-0.2521066963672638,-0.9676230549812317,0.0013907263055443764,0.0008249878883361816,-0.0048806071281433105,0.991827519276953,0.12702180469543442,0.00734386334666108,0.00948112979182512
1681573774486708500,2.70470849609375,0.014500949531793594,0.0022083360236138105,-0.006260334979742765,0.012150251306593418,-0.25227975845336914,-0.9675780534744263,0.0017352420836687088,0.00012832880020141602,-0.0029419660568237305,0.9918164423722557,0.1271107245962587,0.007337125908725556,0.009455979976926928
1681573774496754400,2.71475439453125,0.014351850375533104,0.0011819829232990742,-0.008787674829363823,0.012143193744122982,-0.25253865122795105,-0.9675106406211853,0.0013150526210665703,-0.002130478620529175,-0.0018497109413146973,0.9917997938464368,0.12724368929167185,0.007330466884970384,0.009420969027562724
1681573774506800400,2.72480029296875,0.017734862864017487,-0.0004601222462952137,-0.00855837669223547,0.012144742533564568,-0.25282713770866394,-0.9674352407455444,0.0021374765783548355,-0.000041484832763671875,-0.0033594369888305664,0.9917811673747247,0.12739184789966324,0.007327468765914091,0.009379517798362992
1681573774516846300,2.734846435546875,0.018201526254415512,0.007396558299660683,-0.009883832186460495,0.012169093824923038,-0.2531062364578247,-0.9673619866371155,0.0006635403260588646,-0.0012272298336029053,-0.005156993865966797,0.9917631358616452,0.12753515956502978,0.007334988208510822,0.00933094752655312
1681573774526892300,2.744892333984375,0.013512764126062393,0.0029746457003057003,-0.01100209355354309,0.012196047231554985,-0.253309428691864,-0.9673084020614624,-0.0003247186541557312,-0.003968954086303711,-0.006568491458892822,0.9917499654095963,0.1276395319248584,0.007344230096723244,0.009288786006603458
1681573774536938200,2.754938232421875,0.01482357271015644,-0.0014818878844380379,-0.006483774166554213,0.012173310853540897,-0.2534116804599762,-0.9672819375991821,0.002169947139918804,-0.001120150089263916,-0.007144331932067871,0.9917437027738292,0.12769233062870686,0.0073281679886288385,0.00924886311024405
1681573774546984200,2.764984130859375,0.01590215228497982,0.0018475959077477455,-0.012102511711418629,0.012164745479822159,-0.2535206377506256,-0.9672535061836243,0.003994305618107319,0.0008961856365203857,-0.0035869479179382324,0.9917369529728892,0.12774854037079175,0.007318854878281436,0.009205633258002818
1681573774557030100,2.775030029296875,0.008901615627110004,0.0012977714650332928,-0.0131384814158082,0.012235378846526146,-0.253582626581192,-0.967236340045929,0.004366179928183556,-0.0026734471321105957,-0.004244983196258545,0.9917333010229,0.12778053756929134,0.0073456483233283855,0.009134680913115745
1681573774567076000,2.785076171875,0.012473713606595993,-0.005126305855810642,-0.008685410022735596,0.012285610660910606,-0.25363221764564514,-0.9672226905822754,0.0030799806118011475,-0.0006402134895324707,-0.004868984222412109,0.9917304025210119,0.12780616993309216,0.007363909045887498,0.009077864073342639
1681573774577122300,2.795122314453125,0.005602148827165365,-0.004700288642197847,-0.014737176708877087,0.01230463944375515,-0.25374913215637207,-0.9671918153762817,0.007211341522634029,0.000010758638381958008,-0.0025652647018432617,0.9917231444956589,0.1278664880072577,0.007366204071707887,0.009016555304765467
1681573774587168300,2.805168212890625,0.02213824912905693,-0.008838308975100517,-0.012873763218522072,0.012323610484600067,-0.25383108854293823,-0.9671700596809387,0.007451776415109634,-0.00211980938911438,-0.0034720301628112793,0.991718421160337,0.12790901396676785,0.007365739035753169,0.008935522564504486
1681573774597214200,2.815214111328125,0.03301170468330383,-0.006531833205372095,-0.005659525748342276,0.01228894479572773,-0.2540856599807739,-0.9671036601066589,0.006479356437921524,0.0036126673221588135,0.00004738569259643555,0.9917021154124259,0.1280400576737104,0.007342804844533378,0.008883177529557838
1681573774607260200,2.82526025390625,0.037713516503572464,-0.002782901283353567,-0.0015630513662472367,0.012241783551871777,-0.2544716000556946,-0.9670027494430542,0.006312897428870201,0.008530467748641968,-0.0007706880569458008,0.9916769582943202,0.12823832044234795,0.007317525662491931,0.008856399856143825
1681573774617306000,2.83530615234375,0.03683124855160713,-0.00372870871797204,-0.002242157468572259,0.012253694236278534,-0.254806250333786,-0.9669144749641418,0.0027609476819634438,0.007919073104858398,0.004405319690704346,0.9916548001630252,0.1284100186832508,0.007322865986527999,0.008838158440355563
1681573774627351300,2.845351318359375,0.030245520174503326,-0.0010570250451564789,-0.0012882131850346923,0.012322277761995792,-0.2550511360168457,-0.9668490290641785,0.0034705623984336853,0.00015309453010559082,0.008413970470428467,0.9916384837583507,0.1285353875427809,0.007357031846043667,0.008825405652556349
1681573774637397200,2.855397216796875,0.031928982585668564,-0.00018128938972949982,0.003239693120121956,0.012392044067382812,-0.25535085797309875,-0.9667690396308899,0.002805706113576889,-0.0035449862480163574,0.014284908771514893,0.9916183304271475,0.12868881011274713,0.007393652398750653,0.008824849718268456
1681573774647443200,2.865443115234375,0.02444416470825672,0.008318455889821053,0.009409971535205841,0.0124724842607975,-0.2555660009384155,-0.966711163520813,0.0017334390431642532,-0.001575082540512085,0.01730930805206299,0.9916034018057364,0.12879859181731837,0.007439327548836236,0.008855843814341237
1681573774657489400,2.875489501953125,0.01804051734507084,0.01314309798181057,0.015096353366971016,0.012699740007519722,-0.2557165324687958,-0.9666683673858643,-0.0002790931612253189,0.0008795559406280518,0.018868744373321533,0.9915921277542301,0.12887442806866484,0.0075619861578308705,0.008912054101738738
1681573774667535400,2.885535400390625,0.003726826747879386,0.014564160257577896,0.021102579310536385,0.012946529313921928,-0.25580957531929016,-0.9666404724121094,-0.0022653853520751,-0.00014132261276245117,0.018581390380859375,0.9915842390181862,0.12892042347214214,0.007698945704077883,0.009004692055833766
1681573774677581300,2.895581298828125,-0.0014271505642682314,0.014790825545787811,0.023094357922673225,0.01315299328416586,-0.2557041645050049,-0.9666656255722046,-0.0007323464378714561,-0.0003077685832977295,0.019613564014434814,0.9915896005522435,0.12886465149720525,0.007816578806130873,0.009112985000082074
1681573774687627300,2.905627197265625,-0.017701461911201477,0.018851879984140396,0.026274705305695534,0.013376183807849884,-0.2553974986076355,-0.9667435884475708,0.0013332786038517952,0.0012929439544677734,0.017616450786590576,0.9916081214073648,0.12870542240113322,0.007944097132396362,0.009240785935763211
1681573774697673200,2.915673095703125,-0.01509312354028225,0.016574254259467125,0.026866460219025612,0.013514663092792034,-0.2550833225250244,-0.9668246507644653,-0.0024367859587073326,-0.00005882978439331055,0.016247868537902832,0.991627142179267,0.12854257787505863,0.00803062482883712,0.00938252552583708
1681573774707719400,2.925719482421875,-0.008147332817316055,0.018550852313637733,0.02582969143986702,0.013652955181896687,-0.2550272047519684,-0.966837465763092,-0.0022088661789894104,0.0025553107261657715,0.014536440372467041,0.9916290309756484,0.12851204889827147,0.008118404240735422,0.009524149326530998
1681573774717765400,2.935765380859375,-0.0005329372361302376,0.02605392411351204,0.01752675324678421,0.013841690495610237,-0.2551540732383728,-0.9668013453483582,-0.004930567927658558,0.00930449366569519,0.010624587535858154,0.9916187425079046,0.12857524704908949,0.008230342790610329,0.00964817670267954
1681573774727811300,2.945811279296875,0.006934566423296928,0.023340962827205658,0.01632806472480297,0.014053057879209518,-0.2553231120109558,-0.9667536616325378,-0.006805142387747765,0.013669699430465698,0.005404174327850342,0.9916057790146995,0.12866021578430684,0.008349929351985853,0.009741232432385186
1681573774737857300,2.955857177734375,0.009379463270306587,0.02551182359457016,0.011765536852180958,0.014217058196663857,-0.2554805874824524,-0.9667096734046936,-0.007655786350369453,0.012560725212097168,0.0017133355140686035,0.9915938428973683,0.1287394947592544,0.008444879258852145,0.009828850107424254
1681573774747903200,2.9659033203125,0.005435587372630835,0.022284604609012604,0.008181188255548477,0.01435514073818922,-0.25566351413726807,-0.9666592478752136,-0.005978072993457317,0.012560516595840454,0.000640571117401123,0.9915804894822594,0.1288321266541557,0.008524050539212982,0.009894361963138571
1681573774757949400,2.975949462890625,0.0016664153663441539,0.022574208676815033,0.004086578264832497,0.014524520374834538,-0.2558158338069916,-0.9666164517402649,-0.002332751639187336,0.010393500328063965,0.0001552104949951172,0.9915691861046776,0.12890902815074856,0.008616844439914777,0.009944509911369592
1681573774767995400,2.985995361328125,-0.013040625490248203,0.01708809658885002,0.0028008040972054005,0.014711722731590271,-0.25582608580589294,-0.966610848903656,-0.002657286822795868,0.00585666298866272,-0.0012083649635314941,0.9915674932994857,0.1289132581290984,0.008714202778432708,0.009966849362265055
1681573774778041300,2.996041259765625,-0.030864667147397995,0.01064123585820198,0.0008678820449858904,0.014759721234440804,-0.2556837499141693,-0.9666478037834167,-0.0031020119786262512,0.004676699638366699,-0.001873314380645752,0.9915766329039065,0.12883986206345024,0.00874015064114774,0.009986571360330636
1681573774788087300,3.00608740234375,-0.04437302052974701,0.0047370074316859245,-0.006586039438843727,0.014771745540201664,-0.25534963607788086,-0.9667359590530396,-0.00019960850477218628,0.0026183724403381348,-0.0025175809860229492,0.9915989128901938,0.1286684959705412,0.00874371768662151,0.009982150400193575
1681573774798133200,3.01613330078125,-0.061509549617767334,-0.0001070462167263031,-0.011340048164129257,0.014695301651954651,-0.2546931803226471,-0.9669102430343628,-0.00010790303349494934,0.0004360377788543701,-0.003106236457824707,0.99164320460725,0.1283324991452069,0.008697344456146453,0.009950805635231815
1681573774808179500,3.026179443359375,-0.07263277471065521,-0.0048096561804413795,-0.013177363201975822,0.014540622942149639,-0.25379127264022827,-0.9671497344970703,0.0003672102466225624,-0.0008931457996368408,-0.0040569305419921875,0.9917040589923085,0.12787115185475192,0.008608599315857474,0.009907405810494421
1681573774818225400,3.036225341796875,-0.09061542898416519,-0.007778636645525694,-0.0072742002084851265,0.01432055700570345,-0.25280115008354187,-0.9674122929573059,0.00020580273121595383,-0.0002505481243133545,-0.003184020519256592,0.9917706605206639,0.12736503134955568,0.008486039843640741,0.009860845268148715
1681573774828271400,3.046271240234375,-0.09712046384811401,-0.0076015363447368145,-0.01499417144805193,0.014129186049103737,-0.2516908347606659,-0.9677045345306396,-0.0006709396839141846,-0.0011167526245117188,0.000022649765014648438,0.9918448018763233,0.12679729316490623,0.00837688668993758,0.009810764302623893
1681573774838317300,3.0563173828125,-0.09310662001371384,-0.009977106004953384,-0.018018724396824837,0.01402953825891018,-0.2506530284881592,-0.9679753184318542,-0.0026464909315109253,-0.005099505186080933,0.002246558666229248,0.9919139883575534,0.12626668107390285,0.008310131229968726,0.009726764437942187
1681573774848363500,3.066363525390625,-0.06684917956590652,-0.006916334852576256,-0.015832535922527313,0.013932948932051659,-0.24986505508422852,-0.9681804180145264,-0.0027940375730395317,-0.005322903394699097,0.003535032272338867,0.9919664047688577,0.12586416537430895,0.008246210544580258,0.00964126224386534
1681573774858409500,3.076409423828125,-0.02426147274672985,-0.0028643053956329823,-0.009848412126302719,0.01385197602212429,-0.24944914877414703,-0.9682888388633728,-0.0032471241429448128,-0.0010848790407180786,0.0036892294883728027,0.9919943374630331,0.12565194805557248,0.008195909891115351,0.009584477931585412
1681573774868455400,3.086455322265625,0.017043622210621834,0.007474884390830994,-0.003909829072654247,0.013897907920181751,-0.24948768317699432,-0.9682782292366028,-0.004529018886387348,0.005301311612129211,0.003327667713165283,0.9919919765115286,0.1256717537798568,0.008215132639275945,0.009551802347858457
1681573774878501400,3.09650146484375,0.043327536433935165,0.019043095409870148,0.000855098944157362,0.014038920402526855,-0.24986964464187622,-0.9681777358055115,-0.005982287228107452,0.010337203741073608,0.0006941556930541992,0.9919665792362143,0.12586674018042265,0.008288976822964363,0.009557152006256847
1681573774888547300,3.10654736328125,0.0577474907040596,0.02056322619318962,0.006429627537727356,0.014232346788048744,-0.2504509687423706,-0.9680246710777283,-0.004390436224639416,0.006371408700942993,-0.0036702752113342285,0.9919276979091534,0.12616346876541767,0.008393112271402263,0.009584289857832865
1681573774898593300,3.11659326171875,0.05556027591228485,0.020142890512943268,0.005519625265151262,0.014426564797759056,-0.2510392367839813,-0.9678694009780884,-0.004142149351537228,-0.001264810562133789,-0.001551985740661621,0.9918882266079793,0.1264636990573972,0.008498934883433342,0.009621030909351427
1681573774908639200,3.12663916015625,0.0366547591984272,0.019034216180443764,0.0012788078747689724,0.014584335498511791,-0.2515266239643097,-0.9677404761314392,-0.001049795188009739,-0.00767439603805542,-0.00006347894668579102,0.9918555193169022,0.12671248997470405,0.008584633941834051,0.00964821214875739
1681573774918685200,3.136685302734375,0.006936925463378429,0.008292830549180508,0.0005701405461877584,0.01464948058128357,-0.2518272399902344,-0.9676613211631775,0.000716114416718483,-0.013736695051193237,0.00458759069442749,0.9918353218287167,0.12686604384043362,0.008622274285213817,0.00967269105033413
1681573774928731100,3.146731201171875,-0.017555369064211845,-0.003068747464567423,-0.00026902148965746164,0.014598504640161991,-0.2518550455570221,-0.9676548838615417,0.0015758005902171135,-0.01671484112739563,0.005069434642791748,0.9918336577273367,0.12688044721135083,0.008597589805631732,0.009679400355959782
1681573774938777000,3.156777099609375,-0.030126705765724182,-0.008233149535953999,-0.006396954879164696,0.014463244937360287,-0.251601904630661,-0.9677227139472961,0.00474756583571434,-0.0186769962310791,0.005976498126983643,0.991850826984323,0.12675145885619188,0.008526287215512433,0.0096660226228524
1681573774948823300,3.1668232421875,-0.030605008825659752,-0.013875855132937431,-0.007154358085244894,0.014276618137955666,-0.25114747881889343,-0.9678435325622559,0.005483509041368961,-0.01580500602722168,0.0006346702575683594,0.9918816130089609,0.12651970711176325,0.008425455891168132,0.00963285148722395
1681573774958869200,3.176869140625,-0.015727071091532707,-0.011152179911732674,0.004139042925089598,0.014023481868207455,-0.25066906213760376,-0.9679712653160095,0.002013496123254299,-0.0069450438022613525,-0.0034947991371154785,0.9919138506416563,0.12627573873233158,0.008294892162202286,0.009630332670206297
1681573774968915200,3.186915283203125,0.0031353009399026632,-0.006960364989936352,0.0006284639239311218,0.013823240995407104,-0.25045838952064514,-0.9680286645889282,-0.000715949572622776,0.0019080042839050293,-0.008320212364196777,0.9919281647995581,0.12616856311207272,0.008194778907162832,0.009645916881057277
1681573774978961200,3.196961181640625,0.02261389046907425,-0.008090225979685783,0.0033539426513016224,0.013665384612977505,-0.2506025731563568,-0.9679936170578003,0.0008152006193995476,0.005897402763366699,-0.011422276496887207,0.9919192182651072,0.12624306461526782,0.008117034037413214,0.009653992291190832
1681573774989007400,3.20700732421875,0.03531850129365921,-0.0022925250232219696,0.0031094648875296116,0.013609352521598339,-0.25107115507125854,-0.9678729772567749,0.0011001098901033401,0.005725115537643433,-0.008140206336975098,0.9918887523382155,0.12648327550872251,0.008093044702121308,0.009667079214904244
1681573774999053300,3.21705322265625,0.036095380783081055,-0.005393894389271736,-0.00009591598063707352,0.01361914537847042,-0.251758337020874,-0.9676942825317383,-0.0015036771073937416,0.003513157367706299,-0.006014823913574219,0.9918436601108921,0.12683538523234666,0.008101529394517172,0.009665110280997856
1681573775009099300,3.227099365234375,0.03162579610943794,-0.007032536901533604,-0.001045865472406149,0.013629346154630184,-0.25247588753700256,-0.9675071835517883,-0.0009645568206906319,0.0038796961307525635,-0.00330275297164917,0.9917967096317057,0.12720317338106724,0.00810871051051738,0.009650067799086632
1681573775019145200,3.237145263671875,0.01128917746245861,-0.009151407517492771,-0.0004117669304832816,0.013673211447894573,-0.25309908390045166,-0.9673437476158142,-0.001145751215517521,0.0007797777652740479,0.001584470272064209,0.9917556171830834,0.12752250091167863,0.008132710337154096,0.009637948226635721
1681573775029191200,3.247191162109375,-0.0039510284550487995,-0.012884626165032387,-0.0035534980706870556,0.013709111139178276,-0.2534160614013672,-0.9672602415084839,-0.0014563119038939476,-0.003175705671310425,0.0019129514694213867,0.9917348076879176,0.12768504319359236,0.00814920220130421,0.009611869751594311
1681573775039237400,3.2572373046875,-0.010760502889752388,-0.015134109184145927,-0.005173498764634132,0.013630193658173084,-0.2534067630767822,-0.9672638177871704,-0.001621536910533905,-0.00446668267250061,0.00501406192779541,0.9917360553241503,0.1276809137800873,0.0081049030591486,0.009577217614756467
1681573775049283300,3.267283447265625,-0.00908697210252285,-0.01742842234671116,-0.007891787216067314,0.013476923108100891,-0.2531464099884033,-0.9673340916633606,-0.0016513708978891373,-0.005215376615524292,0.004092514514923096,0.9917541249952203,0.12754842358098797,0.008021421021711139,0.009540030395332228
1681573775059329300,3.277329345703125,-0.006461057811975479,-0.014799144119024277,-0.00505392299965024,0.013357794843614101,-0.2528342604637146,-0.9674174189567566,-0.0012118080630898476,-0.000202178955078125,0.002466857433319092,0.9917755790082188,0.12738932408674958,0.007953731337582032,0.00949388222556818
1681573775069375200,3.287375244140625,0.006938104517757893,-0.013907250016927719,-0.001683159964159131,0.013241504319012165,-0.25262680649757385,-0.9674732089042664,-0.00045464467257261276,0.005510777235031128,0.0020038485527038574,0.9917899546670319,0.12728376822613394,0.007889759149571813,0.009461001443768885
1681573775079421200,3.297421142578125,0.020992442965507507,-0.017955224961042404,-0.0021609310060739517,0.013055174611508846,-0.2526397407054901,-0.9674723148345947,-0.0017484202980995178,0.007965117692947388,0.001438438892364502,0.9917899308247385,0.12729137090079007,0.007793273235438912,0.00944056610457481
1681573775089467400,3.30746728515625,0.02123958431184292,-0.007588604930788279,-0.004864306189119816,0.01292985025793314,-0.25275877118110657,-0.9674429297447205,0.0002689966931939125,0.008297741413116455,0.000874936580657959,0.9917827083124952,0.12735310308457784,0.007727882044323865,0.009418338931515396
1681573775099513300,3.317513427734375,0.022676588967442513,-0.008865384384989738,0.0007206092122942209,0.012846100144088268,-0.25297680497169495,-0.9673870801925659,-0.0009900294244289398,0.008897274732589722,-0.001378178596496582,0.9917687842644629,0.12746534212320124,0.007684810304232607,0.009402595195985486
1681573775109559300,3.327559326171875,0.019015008583664894,-0.01001373864710331,0.0007554965559393167,0.012741094455122948,-0.25328001379966736,-0.9673091173171997,-0.00073243398219347,0.008193373680114746,-0.00043380260467529297,0.9917491213803941,0.12762129764301366,0.007632415127143548,0.009394152442297932
1681573775119605200,3.337605224609375,0.014422005973756313,-0.010807065293192863,0.0005248668603599072,0.012628693133592606,-0.2535466253757477,-0.9672407507896423,0.0013941256329417229,0.006796807050704956,0.003587186336517334,0.9917319382499896,0.127758469250061,0.007576908453746035,0.009392063152622929
1681573775129651200,3.347651123046875,0.00989223551005125,-0.012265145778656006,-0.0005268154200166464,0.012497867457568645,-0.2538061738014221,-0.9671743512153625,0.0015249531716108322,0.005835622549057007,0.005794346332550049,0.9917153196717473,0.1278921407134558,0.0075114061667775865,0.009384807034535248
1681573775139696400,3.3576962890625,0.00825404841452837,-0.012612095102667809,0.00019303697627037764,0.012374382466077805,-0.2538970708847046,-0.9671520590782166,0.00019885040819644928,0.005712926387786865,0.007084369659423828,0.991709847847272,0.12793938084245718,0.007447884119120802,0.009371225885930558
1681573775149742300,3.367742431640625,0.0006398047553375363,-0.011125786229968071,-0.001391277532093227,0.012291732244193554,-0.2538059651851654,-0.9671770334243774,0.0012733247131109238,0.008292078971862793,0.008604645729064941,0.9917162900161746,0.1278931473053099,0.007403664633380455,0.009355222471809893
1681573775159788300,3.377788330078125,-0.00993389543145895,-0.013606283813714981,0.0016234207432717085,0.012163186445832253,-0.25357651710510254,-0.9672388434410095,-0.002321274019777775,0.0074217915534973145,0.009566724300384521,0.9917318795157986,0.12777609564165057,0.007337508615176375,0.009354238713923515
1681573775169834500,3.38783447265625,-0.016658909618854523,-0.00755345169454813,0.0023307562805712223,0.012072177603840828,-0.2532559335231781,-0.9673240184783936,0.0004857974126935005,0.006918102502822876,0.013817548751831055,0.9917532803355648,0.12761210413708063,0.007290751640557827,0.00936069579786344
1681573775179880400,3.39788037109375,-0.0271346066147089,-0.004894284997135401,0.0025262325070798397,0.011992810294032097,-0.2528221011161804,-0.9674384593963623,-0.001204855740070343,0.006865710020065308,0.016922712326049805,0.9917819108128018,0.12738997810829572,0.0072503769728339525,0.009375835107154994
1681573775189926400,3.407926513671875,-0.04734426736831665,-0.0009591984562575817,0.004434653557837009,0.011952584609389305,-0.25231871008872986,-0.9675703644752502,0.0002544401213526726,0.003264784812927246,0.018855154514312744,0.9918150968140805,0.12713204733286942,0.007229024507610053,0.009388373846081254
1681573775199972400,3.417972412109375,-0.05293504148721695,0.0030910549685359,0.01166327204555273,0.011982579715549946,-0.2517668306827545,-0.9677137732505798,-0.0018965285271406174,-0.0003235936164855957,0.01957833766937256,0.9918509000401703,0.1268488156640393,0.007246091724267558,0.009426598517562354
1681573775210018300,3.428018310546875,-0.04354287311434746,0.007957981899380684,0.016933932900428772,0.012047374621033669,-0.25126364827156067,-0.9678437113761902,-0.003059954382479191,0.0015078186988830566,0.020349204540252686,0.991882896827784,0.1265901439467811,0.007285528310522694,0.009500767594490532
1681573775220064500,3.438064453125,-0.026616545394062996,0.014604669995605946,0.019015727564692497,0.012127755209803581,-0.2509256899356842,-0.9679303765296936,-0.0007599638774991035,0.002756774425506592,0.017506182193756104,0.9919037980572204,0.12641593912420748,0.007336372643176696,0.009596085086679033
1681573775230110500,3.4481103515625,-0.0070705413818359375,0.022039417177438736,0.024884801357984543,0.012282523326575756,-0.25069987773895264,-0.9679869413375854,-0.005080382339656353,0.006727129220962524,0.01274096965789795,0.991916994716446,0.12629871025260977,0.007427265509995148,0.009706902253677178
1681573775240156400,3.458156494140625,0.014948360621929169,0.02362293377518654,0.022253066301345825,0.01240034680813551,-0.2506934404373169,-0.9679871201515198,-0.006327353417873383,0.013343006372451782,0.007125914096832275,0.9919157543228158,0.1262938197679292,0.007504286135660239,0.009845662025820677
1681573775250202400,3.468202392578125,0.027097702026367188,0.02711646817624569,0.017959782853722572,0.012595017440617085,-0.2508779466152191,-0.9679368138313293,-0.003195609897375107,0.014107376337051392,0.006129562854766846,0.9919018998035284,0.12638660860418113,0.0076178391209207495,0.009958652951656896
1681573775260248000,3.478248046875,0.01846681348979473,0.0301698986440897,0.010288015007972717,0.01280981209129095,-0.2510998547077179,-0.9678764343261719,-0.0036850664764642715,0.012284606695175171,0.007106781005859375,0.9918857880335679,0.12649863230203753,0.00773847082246801,0.010045746989364765
1681573775270294300,3.488294189453125,-0.00038516975473612547,0.0247556921094656,0.0010290031787008047,0.013053061440587044,-0.25124460458755493,-0.9678356051445007,-0.004553924314677715,0.007454961538314819,0.007752597332000732,0.9918750077524854,0.1265712548957882,0.007868289124150761,0.010095726559442603
1681573775280340200,3.49834033203125,-0.023486265912652016,0.023753782734274864,-0.004546856973320246,0.01324221771210432,-0.2512468099594116,-0.9678324460983276,-0.004880409687757492,0.0033525824546813965,0.008802354335784912,0.99187414156752,0.1265714447273557,0.00796450036643885,0.010102382774801843
1681573775290386200,3.50838623046875,-0.042608827352523804,0.020634422078728676,-0.014744101092219353,0.013413003645837307,-0.25096744298934937,-0.9679026007652283,-0.0034490209072828293,-0.003625422716140747,0.009971082210540771,0.99189213690492,0.12642770684213764,0.008045789700338927,0.010077329078072662
1681573775300432100,3.51843212890625,-0.051726579666137695,0.01613938994705677,-0.015728937461972237,0.013603821396827698,-0.25053077936172485,-0.9680130481719971,-0.002724309451878071,-0.006747633218765259,0.00699925422668457,0.9919206366235415,0.12620364935480433,0.008130926760403749,0.010010195070070716
1681573775310478300,3.528478271484375,-0.04090934991836548,0.018098145723342896,-0.01713322289288044,0.01369649451225996,-0.25001823902130127,-0.9681442379951477,0.0003263251855969429,-0.0038574635982513428,0.002308666706085205,0.9919543919168183,0.12594120276264184,0.008166176470112547,0.009942951837823325
1681573775320524300,3.538524169921875,-0.029449425637722015,0.018201150000095367,-0.011108087375760078,0.01374367531388998,-0.24949513375759125,-0.9682785272598267,0.0020949440076947212,0.004561081528663635,-0.0015701055526733398,0.9919886582172046,0.12567338848767345,0.008181479945420388,0.009899450904148536
1681573775330570200,3.5485703125,-0.01960611715912819,0.01695399358868599,-0.006711208261549473,0.01382959820330143,-0.2490285485982895,-0.9683974385261536,0.004496202804148197,0.009114623069763184,-0.008531332015991211,0.9920188846744638,0.1254342230361384,0.008218924163753598,0.009873930750547141
1681573775340616200,3.5586162109375,-0.01295673567801714,0.006105605512857437,-0.005709326826035976,0.013852043077349663,-0.2486850619316101,-0.9684853553771973,0.006091189570724964,0.007153719663619995,-0.009801387786865234,0.9920411640795764,0.12525832005079487,0.00822662664789285,0.009860667184023886
1681573775350662100,3.568662109375,-0.006895381025969982,0.006649157032370567,-0.005578033160418272,0.01379348710179329,-0.2485281378030777,-0.9685264825820923,0.007385704666376114,0.0042502135038375854,-0.006647467613220215,0.9920516113225745,0.1251783328689081,0.008194614167635703,0.009847843533831358
1681573775360708400,3.578708251953125,-0.012061875313520432,0.003143667709082365,-0.00919141061604023,0.013740437105298042,-0.2484847456216812,-0.9685383439064026,0.00684366375207901,0.000056430697441101074,-0.005582749843597412,0.9920548488053282,0.12515655378096116,0.008164552886119239,0.00982342440586118
1681573775370754300,3.58875439453125,-0.028815820813179016,-0.006567815318703651,-0.010018055327236652,0.013664892874658108,-0.24848197400569916,-0.9685401320457458,0.00621730275452137,-0.0018689483404159546,-0.00681692361831665,0.9920556233787048,0.12515579001200453,0.008121752936899101,0.009786078818663385
1681573775380800300,3.59880029296875,-0.029485302045941353,-0.010665828362107277,-0.007622541859745979,0.013536331243813038,-0.24844740331172943,-0.9685508012771606,0.007627604529261589,-0.002574905753135681,-0.0057839155197143555,0.9920588314946295,0.12513901083718787,0.008051299952877943,0.009742747468816523
1681573775390846700,3.6088466796875,-0.023167219012975693,-0.018304040655493736,-0.008094454184174538,0.01342768594622612,-0.24831858277320862,-0.9685853719711304,0.0072021884843707085,-0.005694463849067688,-0.008144974708557129,0.9920678840789666,0.12507390238218066,0.007990153382710318,0.00969771824648306
1681573775400892700,3.618892578125,-0.010031329467892647,-0.018230685964226723,-0.005770579446107149,0.013332944363355637,-0.24808089435100555,-0.9686475396156311,0.007998839020729065,-0.0026667416095733643,-0.008571088314056396,0.9920840081421769,0.12495299464202869,0.007935203698413443,0.00965096294703733
1681573775410938600,3.628938720703125,-0.00558518199250102,-0.020408885553479195,-0.0013811575481668115,0.013270420022308826,-0.24778424203395844,-0.9687243700027466,0.00865645706653595,0.0025145113468170166,-0.009760737419128418,0.9921037228685706,0.12480164164814843,0.007897767561539768,0.00961681864127149
1681573775420984800,3.63898486328125,-0.006159740034490824,-0.021778283640742302,-0.00023546558804810047,0.013211705721914768,-0.24754562973976135,-0.9687861800193787,0.007143509574234486,0.003344014286994934,-0.009912550449371338,0.9921194931043547,0.12467994317667698,0.00786355786731335,0.009590443665462248
1681573775431030800,3.64903076171875,-0.007646050304174423,-0.02388004958629608,-0.004513300955295563,0.013169779442250729,-0.2473844736814499,-0.9688279032707214,0.004972914233803749,0.000314176082611084,-0.0041335225105285645,0.9921303627549246,0.12459783159019984,0.007837911306702498,0.009561482803381515
1681573775441076700,3.65907666015625,-0.013056680560112,-0.02248215675354004,-0.012528883293271065,0.013135148212313652,-0.24728722870349884,-0.9688531756401062,0.003634258173406124,-0.005047336220741272,-0.0008123517036437988,0.9921373273167478,0.12454870538769469,0.007811950249801257,0.009497918756287497
1681573775451122700,3.669122802734375,-0.021168403327465057,-0.0198991559445858,-0.014472192153334618,0.013111595995724201,-0.24714840948581696,-0.9688889384269714,0.0014300225302577019,-0.009489133954048157,0.0026108622550964355,0.9921471530833265,0.12447840364967624,0.0077886402718895294,0.00941271225319464
1681573775461168600,3.679168701171875,-0.01772257685661316,-0.020052997395396233,-0.01493744645267725,0.013133455067873001,-0.24699828028678894,-0.9689269065856934,-0.0004839245229959488,-0.008845806121826172,0.006539821624755859,0.9921577203158943,0.12440223002782423,0.007786241370019348,0.009312148758551752
1681573775471214800,3.68921484375,-0.008904317393898964,-0.017254548147320747,-0.01737077720463276,0.01315644383430481,-0.24696923792362213,-0.9689339995384216,-0.002612624317407608,-0.007715180516242981,0.005371987819671631,0.9921604347277279,0.1243880797590938,0.007784715009428534,0.009208795069888595
1681573775481260800,3.6992607421875,-0.0077612511813640594,-0.011489426717162132,-0.01791273057460785,0.013250178657472134,-0.2469276636838913,-0.9689432978630066,-0.0015161726623773575,-0.002599269151687622,0.007593810558319092,0.9921637590517647,0.12436721028172103,0.007818819261236797,0.009105774810986542
1681573775491306800,3.709306640625,0.0020634166430681944,-0.0008181394077837467,-0.01265112217515707,0.013418426737189293,-0.24682193994522095,-0.9689679741859436,-0.0037901364266872406,0.0017353296279907227,0.011387407779693604,0.9921707528582256,0.12431303759554013,0.007892630295878247,0.009022573334703668
1681573775501352700,3.719352783203125,0.00984635204076767,0.008003847673535347,-0.008839073590934277,0.013625061139464378,-0.24676595628261566,-0.9689792990684509,-0.0055531710386276245,-0.002318471670150757,0.012543201446533203,0.9921741848689226,0.12428399845026973,0.007988949524567749,0.00896253024651933
1681573775511399000,3.72939892578125,0.020184477791190147,0.012889949604868889,-0.003709026612341404,0.013835161924362183,-0.24689440429210663,-0.9689436554908752,-0.0053055016323924065,-0.004173681139945984,0.012415885925292969,0.9921654837064318,0.12434919848058638,0.008090923784204439,0.008926108952207757
1681573775521444600,3.739444580078125,0.021133895963430405,0.02173374406993389,0.0044194734655320644,0.014063139446079731,-0.24721583724021912,-0.9688583612442017,-0.0040838997811079025,-0.0037301629781723022,0.01049959659576416,0.9921438974364586,0.1245127104535181,0.008209275306834289,0.008940555286751304
1681573775531490600,3.749490478515625,0.025043148547410965,0.01961706392467022,0.011958615854382515,0.014252920635044575,-0.24765834212303162,-0.9687426090240479,-0.006547236815094948,-0.003836989402770996,0.008354425430297852,0.9921141402608533,0.12473803381352239,0.008314271072522993,0.008996819823913019
1681573775541536500,3.75953662109375,0.02575896866619587,0.011673063039779663,0.01541939377784729,0.014335430227220058,-0.24811682105064392,-0.9686240553855896,-0.004020491614937782,-0.0017763525247573853,0.0114249587059021,0.9920835161303151,0.12497176976379985,0.008368533143527864,0.009078601379427806
1681573775551582500,3.76958251953125,0.013828006573021412,0.016672082245349884,0.01974756270647049,0.014352452009916306,-0.24849078059196472,-0.9685279130935669,0.0011962493881583214,0.0003981590270996094,0.015051960945129395,0.9920583956217199,0.1251623936226742,0.008391211263084954,0.009174843564022971
1681573775561628700,3.779628662109375,-0.0012187391985207796,0.02077411860227585,0.02552023157477379,0.01442101038992405,-0.24862751364707947,-0.968491792678833,0.0006394041702151299,-0.0020438283681869507,0.016114473342895508,0.9920480460709156,0.12523102966872138,0.008442889789972822,0.00930477900760267
1681573775571674600,3.789674560546875,-0.01849306747317314,0.01742386259138584,0.03161833807826042,0.014428363181650639,-0.24852436780929565,-0.9685181975364685,-0.00318264402449131,-0.005229264497756958,0.016491830348968506,0.992053219223612,0.1251767626472486,0.00846674683285101,0.009468865281197315
1681573775581720600,3.799720458984375,-0.036547206342220306,0.020272379741072655,0.03281915560364723,0.014393392950296402,-0.24833258986473083,-0.9685679078102112,-0.002354215830564499,-0.0063823312520980835,0.01945596933364868,0.9920639535288922,0.12507712554098435,0.008471509114214914,0.009654701534294678
1681573775591766500,3.8097666015625,-0.06293567270040512,0.028296219184994698,0.039943646639585495,0.01441648043692112,-0.2479972541332245,-0.9686534404754639,-0.002239970490336418,-0.007785782217979431,0.022959530353546143,0.9920834732593312,0.12490357910149079,0.008506751534426284,0.009856943981897855
1681573775601812500,3.8198125,-0.08594366908073425,0.03514569252729416,0.04639861360192299,0.014535144902765751,-0.24740535020828247,-0.9688030481338501,-0.004952630959451199,-0.008194595575332642,0.025352120399475098,0.9921188430593345,0.12459786913596738,0.008593520846065532,0.010098257740652499
1681573775611858700,3.829858642578125,-0.1121201440691948,0.04190373048186302,0.055109016597270966,0.01467294991016388,-0.24654936790466309,-0.9690191745758057,-0.0069672716781497,-0.006288737058639526,0.029520273208618164,0.9921702866344948,0.12415646372253104,0.008694490828096672,0.010389634483258392
1681573775621904600,3.839904541015625,-0.1292336881160736,0.04795369133353233,0.06023560091853142,0.014909527264535427,-0.2454734444618225,-0.9692886471748352,-0.004533559083938599,-0.008402258157730103,0.035115063190460205,0.9922347350267106,0.12360171400901387,0.00884791958094167,0.010715463146281403
1681573775631950600,3.84995068359375,-0.12613537907600403,0.05564276874065399,0.06959821283817291,0.015268896706402302,-0.24431480467319489,-0.9695757627487183,-0.005106545984745026,-0.012048080563545227,0.03915584087371826,0.9923029782015818,0.12300371631268633,0.009066952354978739,0.01107865396974788
1681573775641996500,3.85999658203125,-0.09129414707422256,0.06695404648780823,0.08694976568222046,0.01567133516073227,-0.2433670610189438,-0.9698076248168945,-0.006668655201792717,-0.009730443358421326,0.04027271270751953,0.9923564634560486,0.12251273490292935,0.009316847167940904,0.011508732411129178
1681573775652042800,3.870042724609375,-0.04209517687559128,0.08219637721776962,0.1082124412059784,0.016113510355353355,-0.2428601086139679,-0.9699274897575378,-0.005325550213456154,-0.0008990317583084106,0.03398388624191284,0.9923804477009245,0.12224588939869993,0.009601940487910245,0.012041488913215968
1681573775662088700,3.880088623046875,-0.0058768740855157375,0.09607609361410141,0.12478290498256683,0.01665898971259594,-0.24285036325454712,-0.9699206948280334,0.00011040829122066498,0.0117102712392807,0.026897072792053223,0.9923707757617113,0.12223145541351879,0.009955628180230897,0.012682329192481788
1681573775672134700,3.890134765625,0.004196798894554377,0.10054328292608261,0.1421951800584793,0.017256326973438263,-0.24303989112377167,-0.9698628187179565,0.0015424899756908417,0.01835426688194275,0.022551417350769043,0.9923465840210879,0.12231730120685881,0.010347942654518126,0.013412508510924405
1681573775682180600,3.9001806640625,-0.0022398713044822216,0.09858272224664688,0.1612895131111145,0.01778140291571617,-0.24325402081012726,-0.9697996377944946,0.0042065102607011795,0.011503562331199646,0.02787458896636963,0.9923191376167361,0.12241463566984205,0.010716434444354238,0.014241936646859637
1681573775692226600,3.9102265625,-0.02185644954442978,0.10965454578399658,0.17934441566467285,0.018284020945429802,-0.24332335591316223,-0.9697728753089905,0.0052755456417799,-0.002999231219291687,0.03503471612930298,0.9922986651111443,0.12243655036680978,0.011083769518543776,0.015162132317582613
1681573775702272800,3.920272705078125,-0.05666803568601608,0.11872810870409012,0.1902380734682083,0.01889239251613617,-0.24311423301696777,-0.9698136448860168,0.0015086028724908829,-0.014148905873298645,0.041819870471954346,0.9922931152179246,0.12231372836904339,0.011511709552914631,0.016161666987548017
1681573775712318700,3.930318603515625,-0.10152658820152283,0.12447201460599899,0.20769403874874115,0.019520515576004982,-0.24254292249679565,-0.9699442982673645,-0.004612686112523079,-0.017405778169631958,0.04921364784240723,0.9923081222616452,0.12200389395671629,0.011954639697865402,0.01723247189668446
1681573775722364700,3.94036474609375,-0.13942039012908936,0.1375897377729416,0.21647900342941284,0.020206360146403313,-0.24152325093746185,-0.9701846241950989,-0.007053285837173462,-0.02127884328365326,0.05691558122634888,0.9923480203435624,0.12146252505495157,0.012431207071992374,0.018383475344930133
1681573775732410600,3.95041064453125,-0.16696466505527496,0.15874668955802917,0.22282451391220093,0.021073974668979645,-0.24012167751789093,-0.9705139994621277,-0.008363407105207443,-0.024694576859474182,0.06446236371994019,0.9924082974750398,0.12072294864564163,0.012998281154805773,0.019570550575046086
1681573775742456600,3.96045654296875,-0.17342618107795715,0.17364436388015747,0.24287891387939453,0.0221113208681345,-0.23847638070583344,-0.9708965420722961,-0.014100462198257446,-0.023135527968406677,0.07235223054885864,0.9924787962675857,0.11985505177997366,0.013656124483855572,0.02083978876806714
1681573775752502800,3.970502685546875,-0.1517653614282608,0.19071948528289795,0.2546311914920807,0.023271461948752403,-0.23691260814666748,-0.9712522029876709,-0.014818098396062851,-0.014247030019760132,0.0730130672454834,0.9925385301645925,0.1190247775226227,0.01438731846750172,0.022215854899791086
1681573775762548700,3.980548828125,-0.11906608939170837,0.20569691061973572,0.24875357747077942,0.024599412456154823,-0.23565375804901123,-0.9715257287025452,-0.008516648784279823,0.001110956072807312,0.04626321792602539,0.9925756473212249,0.11834676347156563,0.01520502034174153,0.023595295795801996
1681573775772594700,3.9905947265625,-0.08204095810651779,0.2191983461380005,0.26069679856300354,0.026067446917295456,-0.2348276972770691,-0.9716874361038208,-0.0029046088457107544,0.014490827918052673,0.0284959077835083,0.992581988921045,0.11788589930165964,0.016099830398315158,0.02499601898367874
1681573775782640600,4.000640625,-0.05707759037613869,0.22390982508659363,0.2708785831928253,0.02758229523897171,-0.23436357080936432,-0.9717576503753662,0.0058649685233831406,0.026416823267936707,0.013581991195678711,0.9925617691827765,0.11760593190104683,0.017029823822627226,0.026461289438183638
1681573775792686600,4.0106865234375,-0.05329110845923424,0.2194005846977234,0.274599552154541,0.029054084792733192,-0.23411020636558533,-0.9717758297920227,0.010572994127869606,0.03159560263156891,0.011601269245147705,0.9925251892337278,0.11743109702933077,0.017944848239432716,0.02796253806995117
1681573775802732800,4.02073291015625,-0.07249900698661804,0.21448786556720734,0.27319368720054626,0.030533820390701294,-0.23358836770057678,-0.9718560576438904,0.013335198163986206,0.02666395902633667,0.02121824026107788,0.9925019880546162,0.1171167477003024,0.01885858229114519,0.02946009152577195
1681573775812778800,4.03077880859375,-0.1074276939034462,0.20362189412117004,0.2649671733379364,0.031953152269124985,-0.2327968180179596,-0.9720003008842468,0.01719539985060692,0.015450671315193176,0.0263826847076416,0.9924934431888796,0.1166637103616391,0.01973360681062732,0.03093420261496422
1681573775822823700,4.04082373046875,-0.1696934998035431,0.19404390454292297,0.2582658529281616,0.03328742831945419,-0.2315187156200409,-0.9722607731819153,0.01747855544090271,0.004025474190711975,0.02856576442718506,0.9925133126975532,0.11596230562217041,0.02055118185747477,0.032369209349777946
1681573775832870700,4.05087060546875,-0.22654426097869873,0.1868152916431427,0.2590291202068329,0.03455125167965889,-0.22965991497039795,-0.9726574420928955,0.014261621981859207,-0.0012360364198684692,0.024567842483520508,0.9925661209283047,0.11496439627659667,0.021317979663775688,0.03378332417202641
1681573775842915800,4.060915771484375,-0.25440263748168945,0.18162283301353455,0.26027122139930725,0.0357615128159523,-0.2273826152086258,-0.9731486439704895,0.012685146182775497,0.0012016147375106812,0.013859093189239502,0.9926401995038993,0.11375213842329165,0.022048420215052,0.03521157194576264
1681573775852961800,4.0709619140625,-0.25302764773368835,0.17554497718811035,0.26333945989608765,0.03691771999001503,-0.22497038543224335,-0.9736659526824951,0.012703865766525269,0.002436235547065735,0.003512144088745117,0.9927187584169417,0.11247066221523287,0.02274568434775218,0.03664251371076408
1681573775863007700,4.0810078125,-0.220601886510849,0.17142482101917267,0.264173299074173,0.03802888095378876,-0.22272586822509766,-0.9741390943527222,0.01058562844991684,0.006127387285232544,-0.003735661506652832,0.9927836717757745,0.111273969675122,0.02342112180296674,0.038083179262877805
1681573775873053700,4.0910537109375,-0.1604546457529068,0.17318864166736603,0.2648284137248993,0.03913497552275658,-0.22095473110675812,-0.9744985699653625,0.011676792055368423,0.0177229642868042,-0.009266078472137451,0.9928179477371658,0.11031722940207882,0.024100303878566823,0.039519899014745605
1681573775883100000,4.101099853515625,-0.10073836892843246,0.17381992936134338,0.2664015591144562,0.040257684886455536,-0.21977269649505615,-0.9747201204299927,0.011576425284147263,0.02767983078956604,-0.012004733085632324,0.9928157031192144,0.10965864469153394,0.024797758150533675,0.04095218278881571
1681573775893145600,4.1111455078125,-0.06985741853713989,0.1735277771949768,0.2663443088531494,0.04135829582810402,-0.21904566884040833,-0.9748376607894897,0.01017063856124878,0.03497894108295441,-0.011704087257385254,0.9927848267143398,0.10923022196065792,0.025493597542041214,0.042392195330096756
1681573775903191600,4.121191650390625,-0.04638484865427017,0.16672830283641815,0.25862646102905273,0.0424320213496685,-0.21857544779777527,-0.9748970866203308,0.006884384900331497,0.03334905207157135,-0.00921851396560669,0.9927387928347277,0.10893219120729054,0.026177135237322624,0.04379832660787393
1681573775913237500,4.131237548828125,-0.05768277868628502,0.16703084111213684,0.25231024622917175,0.04349255561828613,-0.21817274391651154,-0.9749405384063721,0.004969362169504166,0.021639570593833923,-0.0014388561248779297,0.9926882293115408,0.10866796622448775,0.026851457870803196,0.04517291504147551
1681573775923283500,4.141283447265625,-0.09641864895820618,0.1688072681427002,0.24523182213306427,0.04461367055773735,-0.2175605744123459,-0.9750266671180725,0.0007507167756557465,0.012543514370918274,0.00690227746963501,0.992647936575526,0.10829514276512625,0.027546727157109995,0.046515162942264106
1681573775933329700,4.15132958984375,-0.14225909113883972,0.17087067663669586,0.2386689931154251,0.045757416635751724,-0.2164929211139679,-0.9752113223075867,-0.005397927016019821,0.009339645504951477,0.01569288969039917,0.992631825922215,0.10768932423374718,0.02823756855291437,0.047830182350446164
1681573775943375600,4.161375732421875,-0.18464604020118713,0.17719654738903046,0.22772260010242462,0.046956323087215424,-0.21498727798461914,-0.9754873514175415,-0.008397363126277924,0.0036683380603790283,0.023445725440979004,0.9926390087158374,0.1068591344854354,0.02893871262277626,0.04910702583270588
1681573775953421600,4.171421630859375,-0.2058117836713791,0.18391916155815125,0.22202609479427338,0.048259418457746506,-0.2131633162498474,-0.9758239984512329,-0.011668838560581207,-0.0019702911376953125,0.02240908145904541,0.992661337999761,0.10586412655679309,0.029678248476963397,0.05035454376195818
1681573775963467500,4.181467529296875,-0.2055499255657196,0.19467489421367645,0.224162757396698,0.0496465303003788,-0.21124020218849182,-0.9761725068092346,-0.014841236174106598,0.00033326447010040283,0.02110964059829712,0.9926851552804649,0.1048153771645081,0.030454459627961367,0.051599531631918
1681573775973513700,4.191513671875,-0.18971502780914307,0.20147395133972168,0.21986468136310577,0.05113021284341812,-0.20939651131629944,-0.9764931201934814,-0.013639364391565323,0.00593586266040802,0.008734941482543945,0.9927002643337558,0.10380297286841897,0.03127914799278071,0.0528473429248339
1681573775983559700,4.2015595703125,-0.16218681633472443,0.19936679303646088,0.22041729092597961,0.05264940857887268,-0.20776773989200592,-0.9767602682113647,-0.011298082768917084,0.010944649577140808,0.0005487203598022461,0.9927015618469733,0.1028978481683635,0.032123196790926664,0.054073472278421617
1681573775993605600,4.211605712890625,-0.113959901034832,0.2033250480890274,0.23591183125972748,0.054157644510269165,-0.20651087164878845,-0.9769443273544312,-0.009601976722478867,0.02075040340423584,0.004013419151306152,0.9926782288654475,0.10217879354278568,0.03297468192056135,0.055338561101001875
1681573776003651600,4.221651611328125,-0.08462586253881454,0.2025631219148636,0.22991225123405457,0.055686093866825104,-0.20567187666893005,-0.977035403251648,-0.004965882748365402,0.02841055393218994,-0.0025025606155395508,0.9926280980481613,0.10166834831859703,0.03385044695681444,0.05663372393866261
1681573776013697500,4.231697509765625,-0.07484833151102066,0.20580819249153137,0.23276130855083466,0.05722649395465851,-0.20504021644592285,-0.9770791530609131,-0.0011656992137432098,0.03051021695137024,-0.004335641860961914,0.992565940067443,0.10126165361770524,0.03473479064681609,0.05790270487044893
1681573776023743700,4.24174365234375,-0.09801936149597168,0.2103157937526703,0.23592247068881989,0.058795373886823654,-0.2043226957321167,-0.9771363139152527,-0.004733473062515259,0.026542574167251587,0.0075623393058776855,0.9925038228124765,0.10080763734375942,0.03563244439644591,0.05919839803120135
1681573776033789700,4.251789794921875,-0.14249388873577118,0.20910166203975677,0.23625750839710236,0.060372792184352875,-0.20328877866268158,-0.9772557616233826,-0.007012799382209778,0.013194814324378967,0.014914453029632568,0.9924549046709714,0.10019033219236304,0.03652426846314741,0.060507772679266096
