time,seconds_elapsed,rotationRateX,rotationRateY,rotationRateZ,gravityX,gravityY,gravityZ,accelerationX,accelerationY,accelerationZ,quaternionW,quaternionX,quaternionY,quaternionZ
1681249571634010600,1.7680107421875,0.03651650622487068,0.12500175833702087,-0.118948794901371,0.0980149507522583,-0.3558679223060608,-0.9293820858001709,-0.0006028562784194946,-0.02392330765724182,-0.033493220806121826,0.9821867731108019,0.1811610217105552,0.0498962887863705,4.3700960921523767e-17
1681249571649043500,1.78304345703125,0.033304840326309204,0.12400013953447342,-0.11588723212480545,0.10037172585725784,-0.3561597764492035,-0.9290186762809753,0.011627770960330963,-0.03908860683441162,-0.027875185012817383,0.9820940509487937,0.1813644506333761,0.05096659064162264,-0.0007271429893070388
1681249571664076500,1.79807666015625,0.02431587502360344,0.11269821971654892,-0.0911957323551178,0.10262341052293777,-0.3564095199108124,-0.9286768436431885,0.007911257445812225,-0.019368678331375122,-0.023944616317749023,0.9820063127627426,0.181541662127079,0.052002013319801865,-0.0013517531493812051
1681249571679109600,1.813109619140625,0.031314875930547714,0.10203119367361069,-0.07201804220676422,0.10452504456043243,-0.35662326216697693,-0.9283826351165771,-0.013063862919807434,-0.016682982444763184,-0.012184321880340576,0.9819306905233997,0.18169001425843775,0.05289059035337662,-0.0018032247893182295
1681249571694142500,1.828142578125,0.051200855523347855,0.10829095542430878,-0.08318094909191132,0.1063896045088768,-0.3570709228515625,-0.9279987215995789,-0.017201989889144897,-0.0157928466796875,-0.009775936603546143,0.9818320515551898,0.1819615592564888,0.05376470701711235,-0.00223612948132292
1681249571709175600,1.843175537109375,0.05272860825061798,0.1126721203327179,-0.08571255207061768,0.10836346447467804,-0.35766032338142395,-0.9275432229042053,-0.01307232677936554,0.00583842396736145,-0.008003652095794678,0.9817148329611145,0.18231267325905198,0.05468529428761062,-0.0027226130568147717
1681249571724208600,1.858208740234375,0.05621415376663208,0.10829628258943558,-0.09041436016559601,0.11034855246543884,-0.3583340048789978,-0.9270490407943726,-0.00907597690820694,0.006252706050872803,-0.015043854713439941,0.9815874466405043,0.18271089069471036,0.05560766092569735,-0.0032318532266170843
1681249571739241700,1.87324169921875,0.015947476029396057,0.11310061812400818,-0.08574584126472473,0.11236613988876343,-0.3587786853313446,-0.9266346096992493,0.0010676980018615723,0.008970946073532104,-0.004822909832000732,0.9814800671053069,0.18299106682746186,0.05654172242903103,-0.0037624597989614496
1681249571754275600,1.888275634765625,-0.05725190043449402,0.11600106954574585,-0.0814078152179718,0.11439681053161621,-0.3583386540412903,-0.926556408405304,-0.000413648784160614,0.010194122791290283,0.006115734577178955,0.9814584082264262,0.18280016734179252,0.05749690319638992,-0.004199046522732467
1681249571769308700,1.90330859375,-0.09120816737413406,0.12243872880935669,-0.07994307577610016,0.1163008064031601,-0.35718223452568054,-0.9267658591270447,-0.003126375377178192,0.009556502103805542,0.025001943111419678,0.9815100183084469,0.18222815993945424,0.05839491849279394,-0.00458330325942125
1681249571784341500,1.918341552734375,-0.09717977046966553,0.12750965356826782,-0.07871216535568237,0.11839412152767181,-0.3556917607784271,-0.9270740151405334,-0.007035486400127411,0.008050769567489624,0.025813639163970947,0.9815867760595924,0.18148050336023758,0.05939553715838887,-0.004932698167438379
1681249571799374600,1.93337451171875,-0.10032741725444794,0.11409851163625717,-0.09987417608499527,0.12039651721715927,-0.3540724813938141,-0.9274358749389648,-0.0035141929984092712,0.006233125925064087,0.01196962594985962,0.9816766703366178,0.18067063030025468,0.06033384658476304,-0.005368496133855979
1681249571814407700,1.94840771484375,-0.01374927256256342,0.11775050312280655,-0.10057777911424637,0.12244410067796707,-0.35300856828689575,-0.9275733828544617,0.0041885823011398315,0.004299461841583252,-0.00522691011428833,0.9817084905835513,0.18016320122500556,0.06127418447126857,-0.005931635852896085
1681249571829440500,1.9634404296875,0.06329906731843948,0.13417154550552368,-0.06003514304757118,0.12458715587854385,-0.3532554805278778,-0.9271939396858215,0.020447634160518646,0.03703233599662781,-0.009146392345428467,0.9816089761125211,0.18034158990940136,0.06228922761137398,-0.006376315324734419
1681249571844473600,1.9784736328125,0.10404303669929504,0.1311989277601242,-0.04335177317261696,0.12662938237190247,-0.3544359505176544,-0.9264664649963379,0.01440759003162384,0.04295831918716431,-0.004838407039642334,0.9814222831130106,0.1809979766965295,0.06329684127105682,-0.006595437661315283
1681249571859506700,1.993506591796875,0.07588580250740051,0.09710514545440674,-0.03654952719807625,0.12841174006462097,-0.35564059019088745,-0.9257592558860779,0.018377795815467834,0.01677340269088745,-0.006110250949859619,0.9812409397063033,0.18166199774970995,0.06418175623846174,-0.006760386177451673
1681249571874540500,2.00854052734375,0.06672506034374237,0.06705083698034286,-0.035871487110853195,0.12968426942825317,-0.3565137982368469,-0.9252458810806274,0.026092693209648132,0.012046635150909424,0.0016466379165649414,0.9811088130819309,0.18214878350073438,0.0647988474986752,-0.006958124542964312
1681249571889573600,2.02357373046875,0.07166469842195511,0.0596320703625679,-0.0039340597577393055,0.13060475885868073,-0.3573809564113617,-0.9247817397117615,0.020609840750694275,0.011067479848861694,-0.012657225131988525,0.9809898381951951,0.18262274744892948,0.06525387403501233,-0.007058226068183086
1681249571904606500,2.0386064453125,0.051052890717983246,0.04552850127220154,0.0355084203183651,0.13132306933403015,-0.35824212431907654,-0.9243466854095459,0.016870275139808655,0.026622891426086426,-0.011703670024871826,0.9808800442648322,0.18307473443680417,0.0656528054968719,-0.006904312807250801
1681249571919639600,2.0536396484375,-0.025974726304411888,0.003929927945137024,0.05485468730330467,0.1315382719039917,-0.35826095938682556,-0.9243088364601135,0.015770062804222107,0.006866276264190674,0.0007553696632385254,0.980872808803287,0.18306325525654094,0.06582887332420896,-0.006551764136210391
1681249571934672600,2.068672607421875,-0.0777868926525116,-0.03434661775827408,0.07045068591833115,0.13098233938217163,-0.35750871896743774,-0.9246789216995239,0.021330878138542175,-0.006947457790374756,0.014858365058898926,0.9809700891905339,0.1826297380888796,0.06562705472186113,-0.006094243183872304
1681249571949705700,2.083705810546875,-0.10002179443836212,-0.047925278544425964,0.08239976316690445,0.13016657531261444,-0.3563145101070404,-0.9252548813819885,0.032934606075286865,-0.013360172510147095,0.0260392427444458,0.981120017620506,0.1819561825004302,0.0653031279580515,-0.005567738791316433
1681249571964738600,2.098738525390625,-0.11887776851654053,-0.051004961133003235,0.10689657926559448,0.1290612518787384,-0.3549746572971344,-0.92592453956604,0.028806179761886597,0.0004519522190093994,0.02773118019104004,0.9812942904084324,0.18119356260603872,0.0648585800794538,-0.004885769248528382
1681249571979771600,2.113771728515625,-0.14261047542095184,-0.06387761980295181,0.11448099464178085,0.12783771753311157,-0.3532460331916809,-0.9267549514770508,0.017395421862602234,-0.002009093761444092,0.03344446420669556,0.9815094057248966,0.18021883995449972,0.0643714787494483,-0.004093048631094955
1681249571994805500,2.128805419921875,-0.1488451063632965,-0.05899257957935333,0.14023536443710327,0.1263636350631714,-0.35131996870040894,-0.9276887774467468,0.007669568061828613,-0.010496437549591064,0.039016902446746826,0.981750572303695,0.17913174594614556,0.0637763379481104,-0.003178465553819017
1681249572009838600,2.143838623046875,-0.14719446003437042,-0.05547773838043213,0.16746406257152557,0.1249188557267189,-0.34963393211364746,-0.9285210967063904,0.0036059245467185974,0.007684439420700073,0.04668515920639038,0.9819654630518438,0.17816079816051206,0.06323126307834058,-0.002068417874086058
1681249572024871700,2.15887158203125,-0.19617398083209991,-0.05470222234725952,0.17938196659088135,0.123350128531456,-0.3476766049861908,-0.9294652938842773,0.005983367562294006,0.006551116704940796,0.035559654235839844,0.9822076420243175,0.17703718615364195,0.06265139625888709,-0.0007816583580786625
1681249572039904500,2.173904541015625,-0.21333551406860352,-0.04442854970693588,0.19641049206256866,0.12174098193645477,-0.34514081478118896,-0.9306218028068542,0.004372909665107727,-0.004468560218811035,0.03732651472091675,0.9825021196577642,0.1756043600935069,0.06206614778688548,0.0006243094574873268
1681249572054937600,2.1889375,-0.18605749309062958,-0.024711303412914276,0.21629232168197632,0.12022574245929718,-0.3427753150463104,-0.9316924810409546,0.00567452609539032,-0.004285871982574463,0.03317868709564209,0.9827723044717008,0.1742540744147257,0.061557139942285184,0.0022024263909652367
1681249572069970700,2.203970703125,-0.20580999553203583,-0.030316194519400597,0.23378929495811462,0.11878638714551926,-0.3405601382255554,-0.9326888918876648,0.011920399963855743,0.01295393705368042,0.038111865520477295,0.9830204299924292,0.1729775203213226,0.061109113255717044,0.0039214043295989496
1681249572085003500,2.21900341796875,-0.24841392040252686,-0.02949114702641964,0.24266479909420013,0.11720707267522812,-0.3377741873264313,-0.9339010119438171,0.014842487871646881,0.0011957883834838867,0.03880518674850464,0.9833196297880599,0.17139834310425817,0.060597875153991315,0.005738355578632661
1681249572100036600,2.23403662109375,-0.24122987687587738,-0.027822675183415413,0.26120439171791077,0.11558198183774948,-0.3347533643245697,-0.9351903796195984,0.027438640594482422,-0.0044495463371276855,0.04023188352584839,0.9836343185534856,0.16969349453958651,0.06007445697096312,0.0076626798031730285
1681249572115070500,2.249070556640625,-0.21748988330364227,-0.008438324555754662,0.2875500023365021,0.11393123120069504,-0.33203816413879395,-0.9363601207733154,0.02387087792158127,-0.002861708402633667,0.036412060260772705,0.9839128275928092,0.16814194272784688,0.059566903743991595,0.009771652082444971
1681249572130103600,2.264103515625,-0.2507621943950653,0.010722054168581963,0.29513707756996155,0.11250610649585724,-0.32930538058280945,-0.9374968409538269,0.024182118475437164,0.026632040739059448,0.032849013805389404,0.9841762876722256,0.16657479443731552,0.059198122688155094,0.012056664947109573
1681249572145136600,2.27913671875,-0.2976447343826294,0.0038487017154693604,0.31028005480766296,0.11109913885593414,-0.3259572982788086,-0.9388337731361389,0.020248517394065857,0.016356468200683594,0.034262239933013916,0.9844841418231675,0.1646855851682718,0.05883689545026651,0.014417903808718529
1681249572160169700,2.294169677734375,-0.34508323669433594,-0.0010682926513254642,0.32659512758255005,0.10959206521511078,-0.32192522287368774,-0.9404008388519287,0.007702246308326721,-0.0072374045848846436,0.03389143943786621,0.9848420629496566,0.16243574231089958,0.05843124491726337,0.016926786765145325
1681249572175202600,2.30920263671875,-0.37237271666526794,-0.01890321634709835,0.3448053002357483,0.10785207152366638,-0.3173491656780243,-0.9421557188034058,0.008725069463253021,-0.013629227876663208,0.03079402446746826,0.9852391545912995,0.15990363624015716,0.057904721633006605,0.019536545590212052
1681249572190235600,2.324235595703125,-0.39385271072387695,-0.02743971161544323,0.3800801932811737,0.10579752922058105,-0.31247735023498535,-0.9440152645111084,0.03150104731321335,-0.0040204524993896484,0.0263669490814209,0.9856508247299923,0.15721486802608214,0.057235195375001775,0.022358900549341126
1681249572205268700,2.339268798828125,-0.4322813153266907,-0.029156384989619255,0.40644389390945435,0.10352890193462372,-0.3072867691516876,-0.9459686279296875,0.03679092228412628,0.006474971771240234,0.0391998291015625,0.9860720765931095,0.15435794782113074,0.05647409752929513,0.025415460645173523
1681249572220301600,2.354301513671875,-0.482327401638031,-0.0066838338971138,0.4174507260322571,0.10134201496839523,-0.30140069127082825,-0.948096752166748,0.012229152023792267,-0.010138005018234253,0.05023908615112305,0.9865231152806622,0.15114024724223285,0.055751755882936536,0.02864484557251408
1681249572235336400,2.36933642578125,-0.5185351371765137,0.010081031359732151,0.4252098500728607,0.09946426749229431,-0.2948778569698334,-0.9503440856933594,0.0037614405155181885,-0.012724071741104126,0.052059173583984375,0.9869898360362427,0.14759449593058158,0.055170785072215026,0.031985413752438144
1681249572250369500,2.38436962890625,-0.5267937779426575,0.026185166090726852,0.4407283663749695,0.09781014174222946,-0.28798753023147583,-0.9526260495185852,-0.004395835101604462,-0.01361769437789917,0.044453442096710205,0.9874499468062691,0.14386133439902057,0.05468912785499091,0.035434853384000375
1681249572265402600,2.399402587890625,-0.513377845287323,0.042924463748931885,0.48008906841278076,0.09634388238191605,-0.2811914384365082,-0.9548032283782959,0.004455678164958954,-0.01801818609237671,0.0439755916595459,0.9878626625195595,0.1401734270002339,0.05431198390089471,0.039100413962508226
1681249572280435500,2.414435546875,-0.5155498385429382,0.04042162746191025,0.486797034740448,0.09486886858940125,-0.27458688616752625,-0.9568709135055542,0.028971455991268158,-0.011866360902786255,0.0650557279586792,0.9882250627819305,0.1365838059858444,0.053938943804502676,0.04297273762624192
1681249572295468500,2.429468505859375,-0.5644029378890991,0.0487743616104126,0.500388503074646,0.09351259469985962,-0.2674177587032318,-0.959032416343689,0.03575986623764038,-0.032432734966278076,0.06775128841400146,0.9885924049199329,0.13270821903832097,0.053594112542763694,0.04691824511414136
1681249572310501600,2.444501708984375,-0.5970594882965088,0.0847315639257431,0.4788413941860199,0.09256245195865631,-0.2597116529941559,-0.9612398743629456,0.04711650311946869,-0.015083909034729004,0.06484705209732056,0.9889578504840559,0.12856165919393148,0.053403883856634304,0.05081581313775405
1681249572325534500,2.459534423828125,-0.7057388424873352,0.10674551874399185,0.5325661301612854,0.09202110767364502,-0.2510468363761902,-0.9635909795761108,0.023930415511131287,-0.019903481006622314,0.046995580196380615,0.9893329049695666,0.12391346484010504,0.053384973952318816,0.05491701047175755
1681249572340567600,2.474567626953125,-0.7921231985092163,0.11650574207305908,0.5561769008636475,0.09166324883699417,-0.24091476202011108,-0.9662079811096191,-0.005451090633869171,-0.01265580952167511,0.026175081729888916,0.9897367937869497,0.11850226487857725,0.05341544403501648,0.05937108240774812
1681249572355601700,2.4896015625,-0.8373014330863953,0.11077461391687393,0.5731766819953918,0.09132357686758041,-0.22973796725273132,-0.9689584374427795,-0.0019376054406166077,-0.01927022635936737,0.031550049781799316,0.9901418178493501,0.11256041511825543,0.05339410019452972,0.06401843448497532
1681249572370634500,2.504634521484375,-0.8377366662025452,0.12183312326669693,0.5780308246612549,0.09103763848543167,-0.21834248304367065,-0.9716165661811829,0.018032178282737732,-0.01891644299030304,0.03315526247024536,0.990497436019865,0.10651725891979943,0.05334606945344731,0.06872432872892056
1681249572385667600,2.51966748046875,-0.8783833980560303,0.12272182106971741,0.585864782333374,0.09097983688116074,-0.20659680664539337,-0.9741870760917664,0.022606581449508667,-0.017875254154205322,0.04660528898239136,0.9908013263833803,0.10029797374628595,0.05335529996432012,0.07352674493399328
1681249572400700700,2.53470068359375,-0.9187597036361694,0.1395399570465088,0.6038613319396973,0.09113749861717224,-0.19419372081756592,-0.97672039270401,0.019275091588497162,-0.040135517716407776,0.059545159339904785,0.9910695979831722,0.09374997564948373,0.053392312368424906,0.07836535139734084
1681249572415733500,2.5497333984375,-0.9025392532348633,0.1602737307548523,0.6004711389541626,0.09161277115345001,-0.18161475658416748,-0.9790930151939392,0.014100112020969391,-0.04580225050449371,0.056073665618896484,0.991263677521041,0.08710793313854318,0.05353213610920974,0.08332280060330678
1681249572430766600,2.5647666015625,-0.8782303333282471,0.18859511613845825,0.6566952466964722,0.09252427518367767,-0.16941474378108978,-0.9811921119689941,-0.0019481107592582703,-0.04358270764350891,0.00955820083618164,0.9913475681080939,0.08064018382858065,0.05386203689409517,0.08846535521200578
1681249572445799700,2.579799560546875,-0.9707480072975159,0.1926441788673401,0.7226793766021729,0.09370593726634979,-0.15690144896507263,-0.9831587672233582,-0.0016344189643859863,-0.036290109157562256,0.005894362926483154,0.9913280992417894,0.07398628453014193,0.05428309658172792,0.09406323127814858
1681249572460832500,2.59483251953125,-1.3186594247817993,0.16937561333179474,0.7953000068664551,0.09471837431192398,-0.14141272008419037,-0.9854089617729187,-0.0020822882652282715,-0.08914759755134583,0.016094446182250977,0.9912832153426006,0.06581965576848148,0.05443602347659799,0.10030936051871985
1681249572475866600,2.60986669921875,-1.9168001413345337,0.08679711073637009,0.8382560014724731,0.09503806382417679,-0.11874120682477951,-0.9883664846420288,0.009682998061180115,-0.14711269736289978,0.04306924343109131,0.9913187375355238,0.05408046048427762,0.053777924642782735,0.10710027265947991
1681249572490899500,2.6248994140625,-2.5532546043395996,0.025417376309633255,0.8943997025489807,0.094542495906353,-0.08660684525966644,-0.9917464256286621,0.02967929095029831,-0.21531885862350464,0.11474752426147461,0.9913478662000942,0.03767327387062079,0.0520337642433458,0.11446609896141327
1681249572505932500,2.6399326171875,-3.065298318862915,-0.012960106134414673,0.9492411017417908,0.09356572479009628,-0.045975640416145325,-0.9945510029792786,0.024003230035305023,-0.25022801756858826,0.13996726274490356,0.9911055506656671,0.017103051258078407,0.049315156731383605,0.12241450365251133
1681249572520965600,2.654965576171875,-3.6521735191345215,-0.00027813250198960304,0.9799593687057495,0.09326554089784622,0.002938019810244441,-0.9956369400024414,-0.007617972791194916,-0.23215559124946594,0.0790872573852539,0.9903088930992641,-0.007570496120357948,0.04608926532447737,0.13079227122642087
1681249572535998500,2.66999853515625,-4.088109970092773,-0.1115974709391594,1.068554162979126,0.09297975152730942,0.05961097776889801,-0.9938819408416748,0.0014873966574668884,-0.2052561640739441,0.042313337326049805,0.9886484611058051,-0.03607196045250278,0.04192669375135325,0.1396961666068512
1681249572551031600,2.685031494140625,-4.2971367835998535,-0.22046935558319092,1.1253972053527832,0.09195561707019806,0.12087483704090118,-0.9883994460105896,0.057626284658908844,-0.15462733805179596,0.0387687087059021,0.9858736278023931,-0.06682998521562945,0.03652447252179901,0.14917395394540234
1681249572566064600,2.700064697265625,-4.288363456726074,-0.31073692440986633,1.183534026145935,0.0906246080994606,0.18294984102249146,-0.9789364337921143,0.0522281676530838,-0.16778266429901123,0.06102871894836426,0.9819376362065928,-0.09805800248577452,0.030272338151035635,0.15895443173966428
1681249572581097700,2.71509765625,-4.335691452026367,-0.31028950214385986,1.2300759553909302,0.08999239653348923,0.24423377215862274,-0.965531587600708,0.02273952215909958,-0.10728621482849121,0.04101681709289551,0.9768357659179676,-0.1291172941389113,0.02372628493042063,0.1689898716984159
1681249572596131600,2.730131591796875,-4.256528377532959,-0.44650939106941223,1.1911914348602295,0.08955881744623184,0.3044375479221344,-0.9483126997947693,0.022410161793231964,-0.09195896983146667,0.010080277919769287,0.9706331702941119,-0.1598946969099912,0.016653382227575182,0.17896206193264882
1681249572611164700,2.74516455078125,-3.9641366004943848,-0.6489583849906921,1.1707897186279297,0.08782702684402466,0.36150994896888733,-0.9282224774360657,0.042162589728832245,-0.044050902128219604,0.00041180849075317383,0.9635983752629038,-0.18925155823948628,0.008521095351020467,0.1886515446317563
1681249572626197500,2.760197509765625,-3.6259713172912598,-0.5264548659324646,1.138928771018982,0.0860666036605835,0.4117788076400757,-0.9072104096412659,0.06275234371423721,-0.000020444393157958984,-0.00911039113998413,0.9562378052499115,-0.2153941355891895,0.0003969750401434145,0.19802628348721654
1681249572641230600,2.775230712890625,-3.513749122619629,-0.38827192783355713,1.1443469524383545,0.08759001642465591,0.4581346809864044,-0.8845567107200623,0.047908008098602295,0.16018187999725342,0.017552316188812256,0.948407042296298,-0.2401728995861496,-0.006214376947648751,0.20688748752677086
1681249572656263700,2.790263671875,-3.685863971710205,-0.35416242480278015,1.1009070873260498,0.09091971814632416,0.5035585165023804,-0.859163761138916,0.0076672956347465515,0.13019990921020508,0.013811588287353516,0.9397939616749644,-0.2650758889952847,-0.012364681264728616,0.21533498399440656
1681249572671296500,2.805296630859375,-3.9794061183929443,-0.3914751708507538,1.0462301969528198,0.09482124447822571,0.5507566332817078,-0.829262375831604,0.011898711323738098,0.055352866649627686,0.04068809747695923,0.9299574528762891,-0.2915616046282878,-0.018990923864125254,0.22318223984211624
1681249572686329600,2.82032958984375,-4.118038654327393,-0.5436719059944153,0.9187766909599304,0.09775790572166443,0.5989797115325928,-0.79477459192276,0.038442015647888184,-0.011379122734069824,0.03535991907119751,0.9188562483129656,-0.3192050017286645,-0.026848850713410383,0.2304136465638324
1681249572701362700,2.83536279296875,-3.8351080417633057,-0.7317987084388733,0.7942693829536438,0.09840353578329086,0.6447950005531311,-0.7579948306083679,0.07400550693273544,-0.07426899671554565,0.036772847175598145,0.907135086577399,-0.34597610848509786,-0.03609891260189035,0.23686131978917008
1681249572716396500,2.850396484375,-2.9123222827911377,-0.7794942855834961,0.7103952765464783,0.09715975075960159,0.6814296245574951,-0.7254058718681335,0.08274134993553162,-0.025286495685577393,0.04046928882598877,0.8964789810342239,-0.367735503223875,-0.04547153874460159,0.24295764994096858
1681249572731429600,2.8654296875,-1.7700194120407104,-0.643423318862915,0.7359232306480408,0.0969625860452652,0.7056623697280884,-0.7018823623657227,0.08434232324361801,0.22411656379699707,0.044137001037597656,0.888233856965894,-0.3824783474379846,-0.052622481358263286,0.24896144174651108
1681249572746462500,2.88046240234375,-0.7864232063293457,-0.4392988979816437,0.7114549279212952,0.09909747540950775,0.7176249623298645,-0.6893431544303894,0.05149149149656296,0.30036503076553345,0.05529463291168213,0.883003920295175,-0.3900486266930073,-0.05648431153054505,0.25490310520433096
1681249572761495600,2.89549560546875,-0.1996186375617981,-0.334261417388916,0.6319310665130615,0.10260143876075745,0.7215495109558105,-0.6847183108329773,-0.047028958797454834,0.2565845251083374,-0.015370190143585205,0.8801359973090942,-0.3928026139879108,-0.057852765466887994,0.2602299922946614
1681249572776528600,2.910528564453125,0.21769720315933228,-0.361867219209671,0.5720283389091492,0.10548899322748184,0.7201618552207947,-0.6857396960258484,-0.06471753865480423,0.18985694646835327,-0.024495959281921387,0.8789418933044235,-0.39208672479558837,-0.058293743684449666,0.2651997730841903
1681249572791561700,2.925561767578125,0.3742738664150238,-0.4007911682128906,0.5476774573326111,0.10758991539478302,0.7161669731140137,-0.6895862817764282,0.01199319213628769,0.08200496435165405,-0.015323996543884277,0.8785317848102103,-0.3895863070401875,-0.058560704117894,0.2701388477514611
1681249572806594600,2.940594482421875,0.5539839863777161,-0.32060447335243225,0.4950541853904724,0.10944216698408127,0.7103683352470398,-0.6952691674232483,0.04401545226573944,0.08215779066085815,0.041887760162353516,0.8786534723896916,-0.3859326605543474,-0.058492616897555874,0.27495942989861794
1681249572821627600,2.955627685546875,0.7604293823242188,-0.2458932250738144,0.46138089895248413,0.11155420541763306,0.702704668045044,-0.702681839466095,0.027560152113437653,0.02353733777999878,0.0731956958770752,0.879441904491573,-0.3812385431006266,-0.057586869210203874,0.27914650474333347
1681249572836660500,2.970660400390625,0.9140658378601074,-0.17727528512477875,0.4868899881839752,0.11410518735647202,0.6930167078971863,-0.711834192276001,-0.0049895718693733215,0.031363844871520996,0.08565926551818848,0.9251579425191051,-0.3745396790374114,0.06166794805466226,1.1538259646440928e-18
1681249572851693300,2.985693359375,1.102455496788025,-0.04238910228013992,0.4687802195549011,0.1179439052939415,0.6813676357269287,-0.72237628698349,-0.008141651749610901,0.07897794246673584,0.11272662878036499,0.9279967509713622,-0.36733233728099696,0.06228020116053827,0.003201811151419273
1681249572866726400,3.000726318359375,1.0600930452346802,0.04434153437614441,0.41961589455604553,0.12241479754447937,0.6685609817504883,-0.7335126399993896,-0.012978754937648773,0.060687124729156494,0.045295536518096924,0.9309796857803506,-0.35945601140791866,0.06352203258918844,0.005757799042568756
1681249572881759500,3.015759521484375,0.8650698661804199,0.11720668524503708,0.3899141848087311,0.1274588257074356,0.6571615934371948,-0.7428949475288391,-0.001299142837524414,0.03200167417526245,0.026357531547546387,0.9334801839172173,-0.35254723730818616,0.06529143812928336,0.007888732438320388
1681249572896792300,3.030792236328125,0.7068619132041931,0.1349976658821106,0.34508731961250305,0.13246135413646698,0.6474094986915588,-0.7505431175231934,0.004333704710006714,0.016103744506835938,0.034890711307525635,0.9355092090231389,-0.34671686988243267,0.06720005699274878,0.009703610864923563
1681249572911825400,3.045825439453125,0.6077751517295837,0.16342423856258392,0.34621089696884155,0.13744081556797028,0.6394606828689575,-0.7564390301704407,0.021830439567565918,-0.013041555881500244,0.03662097454071045,0.937064258920654,-0.34204615564020574,0.0691730054348193,0.011404468352280733
1681249572926858500,3.0608583984375,0.5363076329231262,0.19782403111457825,0.5421271324157715,0.1437179297208786,0.6319898962974548,-0.7615339159965515,0.018650859594345093,-0.0021833181381225586,0.05662369728088379,0.9383921416018781,-0.3377853352470985,0.07165274044470143,0.013679092191244293
1681249572941891300,3.075891357421875,0.3746739327907562,0.1512565314769745,0.5433444976806641,0.15116611123085022,0.6253873109817505,-0.7655322551727295,-0.023190632462501526,-0.024404585361480713,-0.05708432197570801,0.9394019655160983,-0.33421375997455793,0.07439788546719182,0.017035610802807577
1681249572956925400,3.090925537109375,0.060198720544576645,0.04914454370737076,0.47638434171676636,0.15689457952976227,0.6219263076782227,-0.7671973705291748,-0.015766024589538574,-0.004464089870452881,-0.1101830005645752,0.9397843715770201,-0.3325211605277498,0.07636092514615583,0.020102428902555945
1681249572971958300,3.105958251953125,0.09951315820217133,-0.13072429597377777,0.4587302505970001,0.1608397513628006,0.6200032830238342,-0.7679365277290344,-0.018368422985076904,0.018958568572998047,-0.1419297456741333,0.939900602023018,-0.3317603516552041,0.07724508122390145,0.02356272012586439
1681249572986991400,3.120991455078125,0.21220189332962036,-0.18445995450019836,0.3672533333301544,0.16272814571857452,0.6172723770141602,-0.7697365880012512,0.023566409945487976,0.03952699899673462,-0.14493626356124878,0.9402915414768223,-0.33043505623075603,0.07709988123492108,0.026836466934466292
1681249573002024400,3.1360244140625,0.34057942032814026,-0.16314055025577545,0.3540049195289612,0.16400954127311707,0.6130973100662231,-0.7727953195571899,0.012641489505767822,0.14454740285873413,-0.10853701829910278,0.9410215920859935,-0.32817803299184284,0.07682128650055965,0.02960063502881251
1681249573017057500,3.1510576171875,0.40353280305862427,-0.15969255566596985,0.3589666485786438,0.16538621485233307,0.6078181862831116,-0.7766624093055725,-0.012706756591796875,0.1547856330871582,-0.11582410335540771,0.9419589855877638,-0.32526443986267123,0.07662786175143928,0.03232079647980758
1681249573032090400,3.16609033203125,0.42600616812705994,-0.16581542789936066,0.31776168942451477,0.16666294634342194,0.6021982431411743,-0.7807565331459045,-0.024664640426635742,0.12396758794784546,-0.10730493068695068,0.94295280284181,-0.32214494695866575,0.07644845979352925,0.03490411613311118
1681249573047123500,3.18112353515625,0.5048008561134338,-0.14365127682685852,0.28563836216926575,0.16751737892627716,0.595879852771759,-0.7854076623916626,-0.012610137462615967,0.11022067070007324,-0.0721515417098999,0.944100109899142,-0.31857753871935246,0.07618738995492022,0.03713434755645056
1681249573062157300,3.1961572265625,0.847703218460083,-0.1813131719827652,0.2759452760219574,0.16791489720344543,0.5873402953147888,-0.791729748249054,-0.0023112446069717407,0.08206284046173096,-0.0055571794509887695,0.9456918443016451,-0.31367174787629576,0.07579680601604609,0.03913973895212486
1681249573077190400,3.2111904296875,1.0301904678344727,-0.047139644622802734,0.2805272340774536,0.16889023780822754,0.5752328038215637,-0.8003644943237305,-0.010366678237915039,0.07215183973312378,0.010874807834625244,0.9478979529528258,-0.3066976562396628,0.0758570783892094,0.04088832138640308
1681249573092223500,3.226223388671875,1.1787817478179932,0.11515019088983536,0.26486676931381226,0.17159132659435272,0.5611766576766968,-0.8097143173217773,-0.03111889958381653,0.093547523021698,0.09158992767333984,0.9503081506550127,-0.29867334369721976,0.0770524323775658,0.04209317723636667
1681249573107256300,3.24125634765625,1.2557473182678223,0.23952513933181763,0.26767030358314514,0.17608444392681122,0.5455202460289001,-0.8193912506103516,-0.05285443365573883,0.07372725009918213,0.09436988830566406,0.9528141104875085,-0.289841236881278,0.0793501204184317,0.042907297028699075
1681249573122289400,3.256289306640625,1.307486653327942,0.31024593114852905,0.2100416123867035,0.18151436746120453,0.5289888381958008,-0.8289893269538879,-0.03261910378932953,0.07518291473388672,0.07799762487411499,0.9553132692075106,-0.2805931669737562,0.08229703042641873,0.043257439360863785
1681249573137322500,3.271322509765625,1.2993441820144653,0.30707064270973206,0.1271619200706482,0.18677501380443573,0.5121189951896667,-0.8383610248565674,-0.022269994020462036,0.08590352535247803,0.07362109422683716,0.9577739968807074,-0.27118000478988685,0.08532810681780946,0.043006371359666916
1681249573152355300,3.286355224609375,1.1884229183197021,0.26340171694755554,0.07162301242351532,0.19105690717697144,0.4960014522075653,-0.8470418453216553,-0.0033890455961227417,0.06805500388145447,0.04893088340759277,0.9600695080474086,-0.2621887836624005,0.08795525371384022,0.04227982470332674
1681249573167388400,3.301388427734375,1.0697582960128784,0.19299198687076569,0.06787141412496567,0.19450201094150543,0.4813452959060669,-0.8546786904335022,0.0037249326705932617,0.06498044729232788,0.04028666019439697,0.962086598807366,-0.2540509132788501,0.09010428484185254,0.04157780497764176
1681249573182422300,3.31642236328125,0.9340260624885559,0.12285178899765015,0.07008903473615646,0.19704660773277283,0.46834760904312134,-0.8612915277481079,0.026891395449638367,0.03200340270996094,0.025308310985565186,0.9638243624682614,-0.24687235033540506,0.09169658933906699,0.04108965871777712
1681249573197455400,3.331455322265625,0.8737021684646606,0.04235614836215973,0.06625194847583771,0.19857355952262878,0.45641010999679565,-0.8673282861709595,0.031391650438308716,0.031184524297714233,0.023257911205291748,0.9654012628719366,-0.24030082408675707,0.09268965439603823,0.04079915978536305
1681249573212488400,3.346488525390625,0.8088117837905884,-0.053587958216667175,0.06763546168804169,0.1989143192768097,0.44518935680389404,-0.873063325881958,0.041915163397789,0.019471347332000732,0.010178804397583008,0.9668900196691231,-0.23413114449940853,0.09301044913708834,0.04068781233799912
1681249573227521300,3.361521240234375,0.6782841086387634,-0.15757082402706146,0.10037929564714432,0.19806136190891266,0.43516868352890015,-0.8782937526702881,0.047284722328186035,0.011654496192932129,0.004819691181182861,0.9682296976945213,-0.22864211399549345,0.09260614543028821,0.04096648513415294
1681249573242554000,3.37655419921875,0.51469486951828,-0.22640500962734222,0.09879498183727264,0.19613096117973328,0.4268912971019745,-0.8827776908874512,0.05321292579174042,-0.0420951247215271,-0.009022176265716553,0.969358716691716,-0.22412345491286859,0.09154138586209273,0.041624563667355424
1681249573257587200,3.391587158203125,0.31313854455947876,-0.2892199158668518,0.12801998853683472,0.19341495633125305,0.4210672378540039,-0.886167585849762,0.04836057126522064,-0.06698697805404663,-0.01973140239715576,0.9701906138892787,-0.22095231535610593,0.08997927553560878,0.04259033138968963
1681249573272620300,3.406620361328125,0.1301478147506714,-0.33308324217796326,0.13474632799625397,0.1900760531425476,0.4177123010158539,-0.8884748220443726,0.038531139492988586,-0.0915709137916565,-0.027540743350982666,0.9707260604313473,-0.21913513767864054,0.08799074637285298,0.04391407608413216
1681249573287653000,3.421653076171875,-0.05177697539329529,-0.3568546175956726,0.136741042137146,0.18632681667804718,0.4168103039264679,-0.8896918296813965,0.031812846660614014,-0.10066339373588562,-0.032717227935791016,0.9709681861128705,-0.21864964427886785,0.08571127860133879,0.045463076544119234
1681249573302687200,3.436687255859375,-0.23643790185451508,-0.36770859360694885,0.13877302408218384,0.182346910238266,0.41833430528640747,-0.8898010849952698,0.019679471850395203,-0.10143974423408508,-0.04510486125946045,0.970913857627404,-0.21947894550599223,0.08323722384502685,0.04719032474104755
1681249573317720000,3.451719970703125,-0.44388702511787415,-0.38166967034339905,0.14928185939788818,0.17822608351707458,0.4226112961769104,-0.8886141777038574,0.01823084056377411,-0.10133743286132812,-0.04958772659301758,0.9705163107459551,-0.22179852461451824,0.08061217125721393,0.04904276099389583
1681249573332753200,3.466753173828125,-0.5547258257865906,-0.3699038326740265,0.12739413976669312,0.1740797758102417,0.4289405345916748,-0.8864007592201233,0.012855663895606995,-0.09706181287765503,-0.04292052984237671,0.9698444193882382,-0.2252362361304587,0.0778990868073916,0.05101264774109302
1681249573347786200,3.4817861328125,-0.6267797350883484,-0.3635556697845459,0.14175550639629364,0.17012055218219757,0.4365397095680237,-0.8834546804428101,0.007461249828338623,-0.0936136245727539,-0.03639090061187744,0.9689803502337989,-0.2293698262703364,0.07524727309277965,0.052958798962827916
1681249573362819000,3.496819091796875,-0.6482651829719543,-0.3439641296863556,0.12214744091033936,0.16627059876918793,0.44471240043640137,-0.8801050782203674,0.0026747286319732666,-0.03771466016769409,-0.016043543815612793,0.9680071674833675,-0.23382424515648095,0.07262005136709407,0.05490692367805425
1681249573377852200,3.51185205078125,-0.6304082274436951,-0.3181024193763733,0.11151343584060669,0.16268382966518402,0.4529109597206116,-0.8765875101089478,-0.0009101331233978271,-0.0337214469909668,-0.014830946922302246,0.9669970095911008,-0.2382950715226409,0.0701548711433086,0.05666237191003272
1681249573392885200,3.52688525390625,-0.5933623313903809,-0.29163727164268494,0.10938264429569244,0.15942436456680298,0.4607231318950653,-0.8731082677841187,-0.0006413757801055908,-0.005507618188858032,-0.010085642337799072,0.9659982373507046,-0.24256788010917205,0.0678724923237479,0.05832376183800552
1681249573407919000,3.541919189453125,-0.515047013759613,-0.2603698968887329,0.07709367573261261,0.15643297135829926,0.4677871763706207,-0.8698872923851013,0.0023957788944244385,-0.00004419684410095215,-0.009675025939941406,0.965074715196943,-0.24643320552566794,0.06578009118834523,0.059788144139896825
1681249573422952200,3.5569521484375,-0.4347657561302185,-0.22609928250312805,0.06516724079847336,0.1537453979253769,0.47382792830467224,-0.867092490196228,-0.003003820776939392,0.0036196112632751465,-0.0011935234069824219,0.9642756661265414,-0.2497338989502052,0.06392746235760187,0.06098090946885325
1681249573437985300,3.5719853515625,-0.3345099985599518,-0.19534988701343536,0.046326979994773865,0.15137982368469238,0.47870680689811707,-0.864825963973999,-0.001965746283531189,0.01077994704246521,0.0014379620552062988,0.9636243428178873,-0.2523965272836881,0.06231375400703531,0.061977332975393
1681249573453018000,3.58701806640625,-0.2356782704591751,-0.1650199443101883,0.033507056534290314,0.14933325350284576,0.4823378324508667,-0.8631626963615417,-0.00007176399230957031,0.018623530864715576,0.004138648509979248,0.963142939570077,-0.25436870291934593,0.06095265410705679,0.06274557567074332
1681249573468051200,3.60205126953125,-0.15328273177146912,-0.13590839505195618,0.01850360445678234,0.14759482443332672,0.4847632348537445,-0.8621023297309875,0.0020176172256469727,0.02336975932121277,0.005428135395050049,0.9628307672468467,-0.25567296096434816,0.05983456216445493,0.06331078745927955
1681249573483084300,3.617084228515625,-0.10012591630220413,-0.10294485837221146,-0.0018645174568518996,0.14614112675189972,0.4863611161708832,-0.8614497780799866,0.0027846693992614746,0.023633450269699097,0.006454050540924072,0.9626375501954277,-0.25651747093151367,0.05893981194082535,0.06367163120750007
1681249573498117000,3.6321171875,-0.0645466148853302,-0.07843099534511566,-0.01910262741148472,0.14489197731018066,0.48740577697753906,-0.8610702157020569,0.00307251513004303,0.017232954502105713,0.00753939151763916,0.9625299415912384,-0.25704974971226646,0.05822643956845272,0.06380592774871875
1681249573513150200,3.647150146484375,-0.04703553766012192,-0.06322434544563293,-0.033456530421972275,0.1438005417585373,0.48817628622055054,-0.8608166575431824,0.008665293455123901,0.00904664397239685,0.0076673030853271484,0.9624660597170043,-0.2574268740452186,0.057646128862933424,0.06377667901265623
1681249573528184000,3.66218408203125,-0.04090467467904091,-0.04285408556461334,-0.043859370052814484,0.14285476505756378,0.4888059198856354,-0.8606168031692505,0.006009981036186218,0.007379412651062012,0.005514323711395264,0.9624244525808245,-0.25772489357785205,0.05717932033767929,0.06362058173662637
1681249573543217200,3.677217041015625,-0.041203055530786514,-0.03015347383916378,-0.05190424621105194,0.14200982451438904,0.4894278645515442,-0.8604031205177307,0.005664750933647156,0.001752614974975586,0.0009824037551879883,0.9623862180045158,-0.25801728642053795,0.056793577043132155,0.06335838053736977
1681249573558250200,3.692250244140625,-0.04724523425102234,-0.021830828860402107,-0.05467686429619789,0.14128264784812927,0.49012917280197144,-0.8601235747337341,0.006010457873344421,0.0016006231307983398,-0.0017995834350585938,0.9623342723046542,-0.25835655284151754,0.05648087850866038,0.06304402673079268
1681249573573283000,3.707282958984375,-0.06035437807440758,-0.006632435135543346,-0.05232476070523262,0.14072132110595703,0.4910477101802826,-0.8596916198730469,0.008570685982704163,-0.0031936466693878174,-0.004322052001953125,0.9622448978692965,-0.25882281417049563,0.05625780609716243,0.06269491801345657
1681249573588316200,3.722316162109375,-0.07407552003860474,0.00017886562272906303,-0.052227288484573364,0.14032143354415894,0.49205589294433594,-0.8591803908348083,0.008634880185127258,-0.003545701503753662,-0.00402456521987915,0.9621342233711441,-0.25934729399324824,0.05611407112687567,0.06235441012062271
1681249573603349200,3.737349365234375,-0.08903646469116211,0.008174474351108074,-0.04903362691402435,0.14007686078548431,0.4932277798652649,-0.858548104763031,0.004011884331703186,-0.006411343812942505,-0.005831718444824219,0.9619918760164937,-0.2599705308273284,0.05604711846769511,0.06201302930893342
1681249573618382300,3.75238232421875,-0.10784072428941727,0.01546407863497734,-0.05243901163339615,0.13989727199077606,0.4946043789386749,-0.8577851057052612,0.002848684787750244,-0.009237527847290039,-0.004336416721343994,0.9618156278640722,-0.26071143885889736,0.05600880778490725,0.061671604924477416
1681249573633415200,3.767415283203125,-0.12070176750421524,0.022224247455596924,-0.051080264151096344,0.13980987668037415,0.4961618185043335,-0.8568994402885437,0.0053164660930633545,-0.008933395147323608,-0.0013310909271240234,0.9616080942130968,-0.2615573866294661,0.05601797360505415,0.06131581289186517
1681249573648449300,3.78244921875,-0.12922149896621704,0.025795545428991318,-0.04962191730737686,0.13978424668312073,0.4978633522987366,-0.8559161424636841,0.004747018218040466,-0.009231120347976685,0.0024768710136413574,0.9613745556661951,-0.26248783926018304,0.05605413774247776,0.06096700720756755
1681249573663482000,3.797482177734375,-0.12058725208044052,0.028307173401117325,-0.04818727448582649,0.13983145356178284,0.49948814511299133,-0.8549612760543823,0.007965177297592163,-0.004477739334106445,0.0057944655418396,0.9611477768745194,-0.2633798913856206,0.05612832918351336,0.06062767176197303
1681249573678515200,3.81251513671875,-0.10029252618551254,0.03368755802512169,-0.05026160925626755,0.13989302515983582,0.5009858012199402,-0.8540744781494141,0.008071467280387878,-0.0006653070449829102,0.0054264068603515625,0.9609400777329133,-0.2642005694947477,0.056221200098287884,0.060262204596971077
1681249573693548300,3.82754833984375,-0.05972432717680931,0.03033383935689926,-0.05154578760266304,0.13994117081165314,0.5019868612289429,-0.8534786105155945,0.010861456394195557,0.006390273571014404,0.005715548992156982,0.9608097951601862,-0.2647409315041979,0.056328874879920325,0.05986701177620154
1681249573708581000,3.8425810546875,-0.021528737619519234,0.024353178218007088,-0.05386992543935776,0.13986842334270477,0.502545952796936,-0.8531614542007446,0.012154906988143921,0.01111072301864624,0.002163529396057129,0.9607535577035731,-0.2650264983492462,0.056393622064242394,0.05944250117453211
1681249573723614200,3.8576142578125,0.002977190539240837,0.015446235425770283,-0.0538206584751606,0.1397266387939453,0.5026707053184509,-0.8531111478805542,0.013807311654090881,0.014785408973693848,0.0013350844383239746,0.9607663435405843,-0.26506565800982407,0.0564324082263762,0.059022952155805934
1681249573738647300,3.872647216796875,0.011937501840293407,0.007234112359583378,-0.05173620209097862,0.13949404656887054,0.5026454329490662,-0.8531641364097595,0.01088133454322815,0.013452649116516113,0.0019831061363220215,0.9608048215962177,-0.2650175890198429,0.05642360916403239,0.05861854966814391
1681249573753681200,3.88768115234375,0.015890005975961685,0.0019900817424058914,-0.04208064451813698,0.1392650604248047,0.5025697350502014,-0.8532460927963257,0.010530486702919006,0.010049283504486084,0.002324521541595459,0.9608471104235476,-0.26494506379391647,0.05640083925954032,0.05827603115992096
1681249573768714200,3.90271435546875,0.020507661625742912,-0.003868074156343937,-0.029256461188197136,0.1390308141708374,0.5024269819259644,-0.8533684015274048,0.009452462196350098,0.00979536771774292,0.002050042152404785,0.9608949296077087,-0.2648393093910642,0.05635549881259746,0.05801139456022303
1681249573783747000,3.9177470703125,0.02520531788468361,-0.010105196386575699,-0.018784113228321075,0.1388433426618576,0.50224369764328,-0.8535067439079285,0.006786555051803589,0.005584120750427246,0.0012423992156982422,0.9609413303223314,-0.2647182602876689,0.056310384672454424,0.057837696810273766
1681249573798780200,3.9327802734375,0.027944166213274002,-0.015338575467467308,-0.0006234843749552965,0.13866423070430756,0.5019662976264954,-0.8536990284919739,0.005149871110916138,0.006471872329711914,0.00010716915130615234,0.9609940126757903,-0.2645523682406701,0.05623631824407575,0.05779327947212535
1681249573813813200,3.947813232421875,0.03441484645009041,-0.015182513743638992,0.015185573138296604,0.13861645758152008,0.5016143321990967,-0.8539136648178101,0.003961667418479919,0.0037109851837158203,-0.001814424991607666,0.9610453024699862,-0.26435733148244545,0.056199315847824116,0.057869164791284296
1681249573828846300,3.962846435546875,0.04080456867814064,-0.015451759099960327,0.03253713250160217,0.1386667788028717,0.5011232495307922,-0.8541938066482544,0.001317352056503296,0.003561258316040039,-0.0013970136642456055,0.9611066842327427,-0.26409531159204874,0.05618511522554181,0.05806048807214047
1681249573843879200,3.977879150390625,0.060580991208553314,-0.02112455852329731,0.051568347960710526,0.13883398473262787,0.5004510879516602,-0.8545606136322021,0.005971923470497131,0.00031185150146484375,-0.004173457622528076,0.9611823808332384,-0.2637447215596717,0.056199776887982125,0.05838509262829782
1681249573858912300,3.992912353515625,0.07639063149690628,-0.016401441767811775,0.07307390123605728,0.13909496366977692,0.4994567930698395,-0.8550997376441956,0.008304953575134277,0.0013062059879302979,-0.003558039665222168,0.9612936505328331,-0.26322668157268786,0.0562303038854798,0.05886046439431081
1681249573873946000,4.007946044921875,0.050671953707933426,-0.02274429239332676,0.08302213996648788,0.13946262001991272,0.49847859144210815,-0.8556104302406311,0.006609782576560974,-0.009464859962463379,-0.005809187889099121,0.961389748665798,-0.26272974454110537,0.05628367351865649,0.0594556350314642
1681249573888979200,4.022979248046875,0.02386590838432312,-0.042108140885829926,0.06835158914327621,0.13962505757808685,0.49789828062057495,-0.8559218049049377,0.007790118455886841,-0.018894314765930176,-0.0069168806076049805,0.9614344810271273,-0.26244616105412716,0.056223683172589196,0.060039524066647636
1681249573904012300,4.03801220703125,0.02770107239484787,-0.0544673353433609,0.06582211703062057,0.13949790596961975,0.4975133538246155,-0.8561663627624512,0.011518344283103943,-0.008240222930908203,-0.007816791534423828,0.9614615980979877,-0.26225904469332606,0.056009012682930945,0.0606211194259591
1681249573919045000,4.053045166015625,0.04335779696702957,-0.044810712337493896,0.072113037109375,0.1393793523311615,0.49691060185432434,-0.8565356135368347,0.011438548564910889,0.007026225328445435,-0.007401704788208008,0.9615205952606608,-0.2619505211920506,0.0558041756578709,0.06120548469662375
1681249573934078200,4.068078125,0.030579470098018646,-0.04687466472387314,0.06492223590612411,0.13935191929340363,0.4962633550167084,-0.8569152355194092,0.012213632464408875,0.005445659160614014,-0.005770862102508545,0.9615816441579735,-0.26162137541506125,0.05564743259595625,0.06179315069446085
1681249573949111300,4.083111328125,0.005867199506610632,-0.052331216633319855,0.04209575057029724,0.13915055990219116,0.4959147870540619,-0.8571497201919556,0.012247160077095032,-0.006489068269729614,-0.0004246830940246582,0.9616109999314489,-0.2614457260591466,0.0554189894643272,0.062283549513772324
1681249573964144000,4.09814404296875,-0.02266436442732811,-0.05945170670747757,0.016355231404304504,0.13870273530483246,0.49586063623428345,-0.8572536110877991,0.009368568658828735,-0.018947124481201172,0.004424691200256348,0.9616163044881851,-0.26141443844015133,0.055096928801710014,0.06261805834756431
1681249573979177200,4.11317724609375,-0.03424123302102089,-0.061605408787727356,0.00464637903496623,0.13804680109024048,0.49613916873931885,-0.8571983575820923,0.007811978459358215,-0.011413156986236572,0.0054528117179870605,0.9615879656350349,-0.26155269150159893,0.05469002024197399,0.06283299014696447
1681249573994211000,4.128211181640625,-0.01163653377443552,-0.05729801207780838,-0.003002752549946308,0.13735471665859222,0.4963931143283844,-0.8571624755859375,0.00410953164100647,0.008291393518447876,0.006118834018707275,0.961569090041129,-0.261671516686792,0.05428411690010598,0.06297754772252814
1681249574009244200,4.143244140625,0.02047852613031864,-0.05032452195882797,-0.010733109898865223,0.13665269315242767,0.4963611364364624,-0.8572932481765747,0.0037434399127960205,0.015815436840057373,0.002541661262512207,0.9615994809556702,-0.2616249104190443,0.053905319964937484,0.06303304806707963
1681249574024277200,4.15827734375,0.056557223200798035,-0.0503799170255661,-0.022881919518113136,0.13596297800540924,0.49587732553482056,-0.8576828241348267,0.005669116973876953,0.02910137176513672,-0.00407254695892334,0.9617030245629113,-0.26132135243716687,0.053570015350695256,0.06299923705492119
1681249574039310300,4.173310302734375,0.07881815731525421,-0.04905100166797638,-0.018785711377859116,0.13521099090576172,0.4949573576450348,-0.8583328127861023,0.008465781807899475,0.030707985162734985,-0.0010268688201904297,0.9618769429476454,-0.26076915725266075,0.05322621424339114,0.06292318556636782
1681249574054343200,4.18834326171875,0.07573337107896805,-0.03804095834493637,-0.01743176020681858,0.13462378084659576,0.49387603998184204,-0.8590477108955383,0.00652003288269043,0.013555049896240234,0.01000291109085083,0.9620669199550987,-0.26013536563403655,0.05296923459134762,0.06285935048305769
1681249574069376300,4.203376220703125,0.06019381806254387,-0.027840519323945045,-0.013313713483512402,0.1341184377670288,0.49304652214050293,-0.8596030473709106,0.0037905126810073853,0.002879410982131958,0.015471577644348145,0.9622154369139347,-0.25964616163845616,0.052747939534711435,0.0627944379264549
1681249574084409300,4.218409423828125,0.0655820295214653,-0.024053236469626427,-0.008990869857370853,0.13373225927352905,0.49237242341041565,-0.8600494861602783,0.002635553479194641,-0.008622974157333374,0.02293705940246582,0.9623343819860743,-0.25925028730650757,0.05257893258135205,0.06274867295387422
1681249574099442200,4.233442138671875,0.07470773160457611,-0.021208448335528374,-0.00569014810025692,0.1333976686000824,0.49156758189201355,-0.8605616688728333,0.0017646998167037964,-0.006795793771743774,0.018856406211853027,0.9624705550478844,-0.2587838796042703,0.05244107061070332,0.06270038776604692
1681249574114476300,4.248476318359375,0.10293126851320267,-0.022096877917647362,-0.00834265723824501,0.13310424983501434,0.4906221628189087,-0.8611464500427246,0.005842298269271851,0.007577359676361084,0.01069784164428711,0.9626254393718018,-0.25824131059717875,0.05232792606271212,0.06265431398393839
1681249574129509000,4.263509033203125,0.11703537404537201,-0.015255484730005264,0.00045536214020103216,0.13287833333015442,0.48928073048591614,-0.8619441390037537,0.005244240164756775,0.013572722673416138,0.008077621459960938,0.9628352858397599,-0.25748171425062244,0.05225979755461821,0.06261256682141447
1681249574144542200,4.278542236328125,0.1296183317899704,-0.01252521201968193,-0.0011017881333827972,0.13277193903923035,0.4877225160598755,-0.8628431558609009,0.007196947932243347,0.017129838466644287,0.0017134547233581543,0.9630701288607038,-0.2566083701176381,0.05225473258782417,0.0625895242125307
1681249574159575300,4.2935751953125,0.14021563529968262,-0.010507334023714066,-0.0006088369991630316,0.1326398104429245,0.48601922392845154,-0.8638240694999695,0.007817357778549194,0.012882202863693237,-0.002661466598510742,0.9633281446464448,-0.2556523472728138,0.05224787295481204,0.06253828486043557
1681249574174608100,4.308608154296875,0.13358670473098755,-0.010069509968161583,-0.008305106312036514,0.13249441981315613,0.48428091406822205,-0.8648220896720886,0.005689173936843872,0.006594359874725342,-0.0059969425201416016,0.9635911495852798,-0.25467652707619903,0.052238217569756155,0.062475044946790785
1681249574189641200,4.32364111328125,0.12597939372062683,-0.007514207623898983,-0.006595356855541468,0.13237710297107697,0.48262181878089905,-0.8657670021057129,0.0047078728675842285,0.00410306453704834,-0.007203578948974609,0.963841600976029,-0.2537457011422716,0.05224586900090296,0.06239243222302539
1681249574204674300,4.33867431640625,0.10771074146032333,-0.0032382365316152573,-0.0016820909222587943,0.13229888677597046,0.4812006652355194,-0.8665696382522583,0.002832949161529541,-0.013701856136322021,-0.006492435932159424,0.9640542529451805,-0.2529500916888145,0.05226305329149976,0.062324644490783634
1681249574219708200,4.353708251953125,0.0793602243065834,0.005516106728464365,0.00968694407492876,0.13234856724739075,0.4800293445587158,-0.8672114610671997,0.0007538646459579468,-0.015765368938446045,-0.004858791828155518,0.9642219736171573,-0.25230174927852606,0.0523267363501187,0.06230514378551022
1681249574234740700,4.36874072265625,0.040023889392614365,0.012491724453866482,0.013760515488684177,0.1325766146183014,0.47931942343711853,-0.8675692081451416,0.0015786737203598022,-0.023707181215286255,-0.005386054515838623,0.9643122093286107,-0.2519203945882673,0.05245475411648565,0.06234330358835074
1681249574249773800,4.38377392578125,0.013150732032954693,0.01871606335043907,0.02199713885784149,0.13297604024410248,0.4789763391017914,-0.8676975965499878,0.0009045898914337158,-0.020983725786209106,-0.004693150520324707,0.9643396489854836,-0.2517527651132297,0.05264746826506072,0.06243417344519872
1681249574264806400,4.398806396484375,0.02195652760565281,0.032589271664619446,0.015954425558447838,0.13349033892154694,0.47889161109924316,-0.8676653504371643,0.0018551349639892578,-0.01662653684616089,-0.00043761730194091797,0.9643260095336565,-0.2517328606561409,0.052895046499925304,0.0625150924968729
1681249574279839500,4.413839599609375,0.08417057991027832,0.054364606738090515,0.03306257352232933,0.13421672582626343,0.47807005047798157,-0.8680062890052795,-0.0014194697141647339,-0.012005537748336792,0.005182862281799316,0.9644102402151945,-0.25131330193019785,0.053277258554114186,0.06258017731583239
1681249574294872600,4.42887255859375,0.13055187463760376,0.059238187968730927,0.04158575460314751,0.13527296483516693,0.47650015354156494,-0.8687052726745605,-0.005847901105880737,-0.004149019718170166,-0.002678394317626953,0.964582643323231,-0.25049810804183675,0.05383373092597966,0.06271265650391153
1681249574309905400,4.443905517578125,0.19566775858402252,0.04801296442747116,0.048306241631507874,0.13631592690944672,0.47418513894081116,-0.8698083162307739,-0.0039916932582855225,-0.003680318593978882,-0.006076693534851074,0.9648604546391998,-0.2492706073288428,0.05440600613913603,0.06283838749173894
1681249574324938500,4.4589384765625,0.1968374103307724,0.0418352335691452,0.06895425915718079,0.13734956085681915,0.4713457226753235,-0.8711878657341003,-0.001302182674407959,-0.008302450180053711,-0.022015810012817383,0.9652002000248114,-0.24776282191713023,0.05495127647108656,0.06310793582304498
1681249574339972600,4.47397265625,0.19778485596179962,0.023850904777646065,0.06520266085863113,0.13827325403690338,0.4686194062232971,-0.8725115060806274,-0.0019359588623046875,-0.0005712509155273438,-0.024232208728790283,0.9655203490556232,-0.2463191219676341,0.05541773290371951,0.06345295632258287
1681249574355005700,4.489005615234375,0.16208568215370178,0.009443736635148525,0.08203890174627304,0.1390080451965332,0.46604910492897034,-0.873770534992218,0.004256740212440491,-0.01947006583213806,-0.025796055793762207,0.9658173209436774,-0.24496051542773858,0.055759009840190096,0.0638919469913211
1681249574370038500,4.50403857421875,0.09294281899929047,-0.0038475673645734787,0.08781636506319046,0.13959679007530212,0.4641827344894409,-0.8746697306632996,0.00583474338054657,-0.022501766681671143,-0.017542123794555664,0.9660131139915131,-0.24399146979166342,0.055975808966905675,0.06444910589032304
1681249574385071600,4.519071533203125,0.006514240987598896,-0.019668076187372208,0.0889362245798111,0.13992345333099365,0.4633850157260895,-0.8750404715538025,0.0056148916482925415,-0.0477965772151947,-0.00493389368057251,0.9660673919368681,-0.24360328953354235,0.05601079473517897,0.06507106909614492
1681249574400104400,4.5341044921875,-0.06408930569887161,-0.03851420432329178,0.0927935466170311,0.14012710750102997,0.46358925104141235,-0.8748996257781982,0.010141462087631226,-0.05621004104614258,0.0009983181953430176,0.9659820080069278,-0.24376669797955228,0.055928309960703027,0.0657916355356901
1681249574415137500,4.549137451171875,-0.12858834862709045,-0.04958709329366684,0.09790148586034775,0.1401742547750473,0.46465131640434265,-0.8743285536766052,0.02045503258705139,-0.047231823205947876,0.014800965785980225,0.965778236239829,-0.2444005807779898,0.0557143787387718,0.06660945782069154
1681249574430170600,4.564170654296875,-0.15794916450977325,-0.06284697353839874,0.09732518345117569,0.1401338279247284,0.46629396080970764,-0.873460054397583,0.0208311527967453,-0.043244004249572754,0.016267061233520508,0.9654932359127474,-0.24535306135227972,0.05542432617707291,0.06747460455305238
1681249574445203500,4.579203369140625,-0.18127435445785522,-0.07362239062786102,0.08924008905887604,0.13993559777736664,0.4681946039199829,-0.8724746108055115,0.023699671030044556,-0.021295130252838135,0.009010255336761475,0.9651755751516384,-0.2464420076304727,0.05503676257987912,0.0683635936094701
1681249574460237800,4.59423779296875,-0.18855629861354828,-0.09209993481636047,0.06395231187343597,0.1394316554069519,0.4703633487224579,-0.8713880777359009,0.02427990734577179,-0.00709119439125061,0.003742814064025879,0.9648374147953652,-0.24765949521070546,0.05450442846944463,0.06915911882390065
1681249574475270400,4.6092705078125,-0.17031918466091156,-0.10010326653718948,0.04066510125994682,0.13862161338329315,0.4723685681819916,-0.8704320788383484,0.025578230619430542,0.014661520719528198,-0.003301382064819336,0.9645417445060315,-0.24876513306821074,0.05385031380351276,0.06982460855449626
1681249574490303500,4.624303466796875,-0.13813167810440063,-0.10046092420816422,0.023261073976755142,0.13759756088256836,0.4742588996887207,-0.8695662021636963,0.023184314370155334,0.023345530033111572,-0.0017563700675964355,0.964282286776395,-0.24978697781700177,0.05313521328083234,0.07030565113453108
1681249574505336600,4.639336669921875,-0.10886338353157043,-0.10142526030540466,0.00809037871658802,0.13644522428512573,0.47573986649513245,-0.8689386248588562,0.02238352596759796,0.03391900658607483,0.005657374858856201,0.9640935014563563,-0.25056959198923284,0.05239817195543854,0.07066250647401129
1681249574520369400,4.654369384765625,-0.08584168553352356,-0.09647524356842041,-0.009083282202482224,0.135189488530159,0.47697606682777405,-0.868457019329071,0.025531351566314697,0.03384247422218323,0.00860905647277832,0.9639517914097376,-0.25120489333317175,0.05164864345742243,0.0708901029142654
1681249574535402500,4.669402587890625,-0.06546604633331299,-0.08378314971923828,-0.0025601349771022797,0.13401739299297333,0.4779411554336548,-0.8681080341339111,0.018219545483589172,0.020960241556167603,0.017125427722930908,0.9638493924661867,-0.25169072897043776,0.05096818394524343,0.07105165283563764
1681249574550435600,4.684435546875,-0.059135183691978455,-0.06874240934848785,0.004013611935079098,0.13305513560771942,0.4787212610244751,-0.8678262233734131,0.016908258199691772,0.016487538814544678,0.018384695053100586,0.9637644701734056,-0.2520843505511585,0.050402092683262935,0.07121354161421796
1681249574565469700,4.6994697265625,-0.054435502737760544,-0.05579252541065216,0.01046352181583643,0.13234011828899384,0.4794013500213623,-0.8675600290298462,0.01809629797935486,0.01217585802078247,0.026236236095428467,0.9636804930541653,-0.25243668884857173,0.04995688751556364,0.07141425471781691
1681249574580502500,4.71450244140625,-0.05220915377140045,-0.01564457267522812,0.021395530551671982,0.1320514678955078,0.4801335334777832,-0.8671990633010864,0.019254684448242188,0.008636027574539185,0.0283929705619812,0.9635714364447796,-0.25283897185455323,0.04972848564668447,0.07162180203784323
1681249574595535600,4.72953564453125,-0.04256877675652504,0.03271603584289551,0.04785217344760895,0.13246488571166992,0.48081931471824646,-0.8667559027671814,0.016064181923866272,0.0037541091442108154,0.030498027801513672,0.9634373071996977,-0.2532525089776743,0.049851837030514816,0.07187816191890774
1681249574610568400,4.744568359375,-0.028936054557561874,0.07963693886995316,0.07168532907962799,0.1337193101644516,0.48120713233947754,-0.8663480281829834,0.018181949853897095,0.008264362812042236,0.0320737361907959,0.9633062830167237,-0.25354675409592126,0.05039877536157187,0.07221626093960125
1681249574625601500,4.7596015625,-0.0028655719943344593,0.10116912424564362,0.05922973155975342,0.1354880928993225,0.48144078254699707,-0.8659432530403137,0.028406575322151184,0.024082958698272705,0.032538771629333496,0.9631768128938941,-0.25378100669826914,0.05122070026482387,0.07254071038153287
1681249574640634600,4.774634521484375,0.03525007143616676,0.1222781389951706,0.04732593148946762,0.13738439977169037,0.4811731278896332,-0.8657932281494141,0.036260634660720825,0.026441067457199097,0.03991132974624634,0.963125655277603,-0.25373570673224166,0.05216860066707331,0.07270275098751948
1681249574655667500,4.78966748046875,0.07418974488973618,0.14421726763248444,0.032003436237573624,0.13954073190689087,0.4804971218109131,-0.8658238649368286,0.034913018345832825,0.02292090654373169,0.04039967060089111,0.9631328613393436,-0.25346919799325324,0.053305203676584145,0.07271246648561966
1681249574670700500,4.804700439453125,0.12523294985294342,0.14637601375579834,0.007424321956932545,0.14160753786563873,0.4792158603668213,-0.8661983013153076,0.03365492820739746,0.021470844745635986,0.04147601127624512,0.9632425275111973,-0.2528532219899754,0.05446193694061791,0.072546894395736
1681249574685733600,4.819733642578125,0.177872896194458,0.1348154991865158,-0.026426320895552635,0.14343182742595673,0.47730696201324463,-0.8669517636299133,0.03717121481895447,0.021243512630462646,0.032204508781433105,0.9634678557885056,-0.2518642911995068,0.05557420516072555,0.0721497750203625
1681249574700767500,4.834767578125,0.2250932902097702,0.11571557819843292,-0.058430325239896774,0.14479759335517883,0.4748179614543915,-0.8680907487869263,0.03073953092098236,0.022420257329940796,0.024829089641571045,0.9638110527036604,-0.2505173837746127,0.056530161761590786,0.0715096084293712
1681249574715800600,4.849800537109375,0.26641231775283813,0.08983364701271057,-0.0921158492565155,0.14571695029735565,0.47188517451286316,-0.8695349097251892,0.015858381986618042,0.021874040365219116,0.005216121673583984,0.964247957865909,-0.24889142728910763,0.0573201443668055,0.07066391138959874
1681249574730833400,4.86483349609375,0.30228111147880554,0.05210651457309723,-0.11288584768772125,0.14600545167922974,0.4684896469116211,-0.8713207840919495,0.010778620839118958,0.02110391855239868,-0.003969132900238037,0.9647830374460965,-0.24697170242617997,0.0578324718222779,0.06967170415394969
1681249574745866500,4.879866455078125,0.2970258891582489,0.03473098576068878,-0.11606352776288986,0.14592771232128143,0.46506261825561523,-0.8731677532196045,-0.0013964474201202393,0.013529360294342041,-0.026337862014770508,0.9653370300061077,-0.24501560377627407,0.058167768173873424,0.06861748416621434
1681249574760899600,4.894899658203125,0.27101778984069824,0.01606382243335247,-0.10768841952085495,0.1455075740814209,0.4616019129753113,-0.8750721216201782,-0.006927236914634705,0.007819533348083496,-0.0332682728767395,0.9658999028751776,-0.2430315083372209,0.05830620364835439,0.06762840387922249
1681249574775932700,4.9099326171875,0.19878073036670685,0.01058809645473957,-0.08164217323064804,0.14509320259094238,0.4588111639022827,-0.8766072988510132,-0.01983378827571869,-0.01575690507888794,-0.037973999977111816,0.9663543870745378,-0.2414288337689911,0.05838219763266018,0.06680522360773898
1681249574790965500,4.924965576171875,0.11750824004411697,0.01040061004459858,-0.049958810210227966,0.1447795331478119,0.45687955617904663,-0.8776673674583435,-0.022816017270088196,-0.027512431144714355,-0.035311758518218994,0.9666683961782291,-0.24031909010677646,0.05842135414037445,0.06622732162422784
1681249574805999600,4.93999951171875,0.007599958218634129,0.02021196112036705,0.005281542893499136,0.14486095309257507,0.456173300743103,-0.8780211806297302,-0.02561350166797638,-0.05381423234939575,-0.028289794921875,0.9667751045916179,-0.23992185990642584,0.05853976008111042,0.06600354235543279
1681249574821032400,4.955032470703125,-0.086013562977314,0.025583824142813683,0.04142490029335022,0.14531855285167694,0.45666155219078064,-0.8776917457580566,-0.023660212755203247,-0.060604363679885864,-0.02182912826538086,0.9666799095544523,-0.24021961321411567,0.05872542327682812,0.066150272998159
1681249574836065500,4.9700654296875,-0.17644397914409637,0.039303362369537354,0.08451377600431442,0.14619693160057068,0.4582968056201935,-0.8766929507255554,-0.01924380660057068,-0.0765218734741211,-0.018494367599487305,0.9663897525513014,-0.24118595825002312,0.05901580728913431,0.06661331382552806
1681249574851098600,4.9850986328125,-0.2348409742116928,0.04708804935216904,0.10747741907835007,0.14744330942630768,0.4608054459095001,-0.8751679062843323,-0.014050960540771484,-0.07378149032592773,-0.015365540981292725,0.9659456167737691,-0.24266631596625926,0.059406372508718566,0.06732838103827558
1681249574866131500,5.00013134765625,-0.26295700669288635,0.04743532836437225,0.11812660098075867,0.14881838858127594,0.46380385756492615,-0.8733493685722351,0.002457261085510254,-0.04232552647590637,-0.0033290982246398926,0.965414542720558,-0.24443410485622805,0.05981048666943692,0.06818722593093897
1681249574881164500,5.01516455078125,-0.2613186836242676,0.044431015849113464,0.10580361634492874,0.15017913281917572,0.46694791316986084,-0.8714389801025391,0.010267049074172974,-0.025907844305038452,-0.0001125335693359375,0.9648589760094802,-0.24628503045637853,0.06020135557568433,0.06904094482957261
1681249574896197600,5.03019775390625,-0.23384851217269897,0.03867166489362717,0.08043541014194489,0.15133219957351685,0.46983903646469116,-0.8696838021278381,0.025776579976081848,-0.0002955198287963867,0.006829798221588135,0.9643520425679996,-0.24798197446812154,0.060523156832495296,0.06976504313302825
1681249574911230500,5.04523046875,-0.18883949518203735,0.03172587230801582,0.049038078635931015,0.1522006392478943,0.4723489284515381,-0.8681713342666626,0.026617109775543213,0.008928567171096802,0.007804572582244873,0.963923450056119,-0.24944324254662986,0.060765085052312616,0.07026620230079475
1681249574926263600,5.060263671875,-0.1397305727005005,0.023735856637358665,0.024891462177038193,0.1528106927871704,0.47427335381507874,-0.8670142292976379,0.03221738338470459,0.029922842979431152,0.006784796714782715,0.9636017801324751,-0.2505567281963851,0.06094433014644714,0.070559994608822
1681249574941297400,5.07529736328125,-0.0760292112827301,0.007473530247807503,-0.007005749735981226,0.15310727059841156,0.4756301939487457,-0.8662182688713074,0.031829267740249634,0.03311315178871155,0.0068433284759521484,0.9633894142421998,-0.2513278778147144,0.06103402604909025,0.07064120139341999
1681249574956330500,5.09033056640625,0.013857214711606503,-0.019296031445264816,-0.03938499465584755,0.15288852155208588,0.47604191303253174,-0.866030752658844,0.03604581952095032,0.03816407918930054,0.008807241916656494,0.9633513006733676,-0.25153586315615417,0.06094536774502229,0.07049675153637168
1681249574971363600,5.105363525390625,0.07370217889547348,-0.041255123913288116,-0.06840679794549942,0.1520887166261673,0.4755663275718689,-0.8664327263832092,0.033259809017181396,0.03998243808746338,0.006279587745666504,0.9634829092444396,-0.2512090293728352,0.06064367292614926,0.070121743423541
1681249574986396700,5.120396728515625,0.08567319065332413,-0.0519929900765419,-0.07865677028894424,0.1509837955236435,0.47463709115982056,-0.867135226726532,0.0190754234790802,0.02569863200187683,-0.0013949871063232422,0.9637010690860373,-0.25060898330501774,0.06022881292131024,0.0696276845172409
1681249575001429500,5.135429443359375,0.06489526480436325,-0.06120327115058899,-0.07543088495731354,0.14970697462558746,0.47382262349128723,-0.8678017854690552,0.01723945140838623,0.013878852128982544,-0.0006521344184875488,0.9639093428603777,-0.25006516544186114,0.05972027880851531,0.0691361846592585
1681249575016462600,5.150462646484375,0.019977904856204987,-0.06931765377521515,-0.06415665149688721,0.14843779802322388,0.473496675491333,-0.8681976199150085,0.01054355502128601,-0.004777133464813232,0.0003693103790283203,0.9640395473493115,-0.2497993816231492,0.05917306037928091,0.06875007246068784
1681249575031495700,5.16549560546875,-0.02669532410800457,-0.07138453423976898,-0.051988136023283005,0.14716731011867523,0.47376784682273865,-0.8682659864425659,0.008014574646949768,-0.01148754358291626,0.0013684630393981934,0.9640772163258802,-0.24987093886079642,0.0585791456789156,0.06847067941964607
1681249575046529500,5.180529541015625,-0.05304256081581116,-0.0752439871430397,-0.0398222841322422,0.14604930579662323,0.47459542751312256,-0.8680027723312378,0.0006487071514129639,-0.011811554431915283,-0.006905615329742432,0.9640205134044728,-0.2502651491898893,0.05801691398426106,0.06830819643398058
1681249575061562600,5.195562744140625,-0.0635673776268959,-0.07201969623565674,-0.0204392671585083,0.14494365453720093,0.47551167011260986,-0.8676865696907043,0.002166345715522766,-0.011095106601715088,-0.005802750587463379,0.9639419615251166,-0.25071620209185214,0.05742901953731228,0.06825880180253413
1681249575076595500,5.210595458984375,-0.07018639147281647,-0.06879807263612747,-0.007431589066982269,0.14402589201927185,0.4764910638332367,-0.8673020005226135,0.0018786638975143433,-0.007359534502029419,-0.0005873441696166992,0.9638375444170798,-0.25121828501196825,0.056906582061338765,0.06832402963861889
1681249575091628500,5.225628662109375,-0.071892149746418,-0.0663737952709198,-0.002772921696305275,0.14315184950828552,0.47742369771003723,-0.8669337630271912,0.005728170275688171,-0.006445854902267456,0.0029506683349609375,0.9637333918072375,-0.25170009054701364,0.05639301177307403,0.06844693181005707
1681249575106661600,5.24066162109375,-0.05730937421321869,-0.06073002517223358,0.0021472685039043427,0.14242865145206451,0.4782189428806305,-0.866614580154419,0.01015925407409668,-0.0023277699947357178,0.005210161209106445,0.9636392590329403,-0.25211524705896005,0.055951986545574504,0.06860671205481565
1681249575121694500,5.255694580078125,-0.020811015740036964,-0.05771692842245102,0.0032495507039129734,0.14172394573688507,0.4786834716796875,-0.8664736151695251,0.014693915843963623,0.0015259385108947754,0.0072969794273376465,0.9635902886644672,-0.2523488517167297,0.05552707604441414,0.06878027125480832
1681249575136727600,5.2707275390625,0.021069854497909546,-0.0558210164308548,-0.003230718895792961,0.14102695882320404,0.4785897433757782,-0.8666390776634216,0.015680819749832153,0.009096473455429077,0.007401406764984131,0.9636242862888234,-0.2522705680910346,0.05513642998815355,0.06890489077508656
1681249575151760600,5.2857607421875,0.052779581397771835,-0.060157448053359985,-0.013565648347139359,0.1402157098054886,0.4780753552913666,-0.8670545220375061,0.015958011150360107,0.008771628141403198,0.0037427544593811035,0.9637299956428956,-0.2519482168127026,0.054725168090425165,0.06893309452507229
1681249575166794500,5.30079443359375,0.06483320891857147,-0.060349464416503906,-0.016811508685350418,0.13932667672634125,0.47725629806518555,-0.8676488399505615,0.011414915323257446,0.0066304802894592285,-0.0007135272026062012,0.9638858965984746,-0.25145065654986176,0.05429676161793515,0.06890995581672069
1681249575181827600,5.31582763671875,0.05538542941212654,-0.06036064773797989,-0.014422919601202011,0.13843867182731628,0.47645795345306396,-0.8682295680046082,0.013432040810585022,0.00008931756019592285,-0.0023758411407470703,0.9640388813691181,-0.25096435590883626,0.053871249887348455,0.06887575764482531
1681249575196860700,5.330860595703125,0.028040731325745583,-0.056732624769210815,-0.0034464350901544094,0.1377010941505432,0.47592222690582275,-0.8686406016349792,0.013116791844367981,-0.01590019464492798,0.0029942989349365234,0.9641422281562249,-0.2506352960848605,0.05349436169704301,0.0689223647039804
1681249575211893500,5.3458935546875,-0.004800571594387293,-0.05223321169614792,0.00616065226495266,0.13705775141716003,0.47579455375671387,-0.8688122630119324,0.01441626250743866,-0.021799743175506592,0.000755012035369873,0.9641781267682179,-0.2505406129569459,0.053134485751067606,0.06904175624399973
1681249575226927000,5.360927001953125,-0.028601614758372307,-0.05151016265153885,0.007943638600409031,0.13653111457824707,0.4760715663433075,-0.8687434196472168,0.014164701104164124,-0.023038089275360107,-0.004761219024658203,0.9641477720031285,-0.2506783062537815,0.0528079692617129,0.0692156911737219
1681249575241960000,5.3759599609375,-0.029576916247606277,-0.052913911640644073,0.005732416175305843,0.13594120740890503,0.47647613286972046,-0.868614137172699,0.013945907354354858,-0.019917845726013184,-0.00868988037109375,0.96410260147532,-0.2508828407026102,0.05244737169189302,0.06937880916064747
1681249575256993000,5.390992919921875,-0.01780228316783905,-0.05765673518180847,-0.004004899878054857,0.1353197544813156,0.47679319977760315,-0.868537187576294,0.013087242841720581,-0.005235522985458374,-0.011101484298706055,0.9640727067145358,-0.2510360287309086,0.05207998519728897,0.06951586216844309
1681249575272026000,5.406026123046875,-0.009149407036602497,-0.06024453043937683,-0.010499817319214344,0.13455483317375183,0.4769764244556427,-0.8685554265975952,0.010418936610221863,-0.0012225806713104248,-0.011907219886779785,0.96407260686079,-0.2511044680998536,0.05166082265903043,0.06958312742361236
1681249575287060000,5.42106005859375,-0.00038201460847631097,-0.06139341741800308,-0.015438382513821125,0.1337531954050064,0.476960152387619,-0.86868816614151,0.007314324378967285,0.00019749999046325684,-0.00947040319442749,0.9641043151121602,-0.25105916616438617,0.051236840763760706,0.06962078835337103
1681249575302093000,5.436093017578125,0.0008310552802868187,-0.060403525829315186,-0.01053204108029604,0.13293622434139252,0.4769026041030884,-0.8688451051712036,0.004911690950393677,-0.0025678277015686035,-0.006521046161651611,0.9641426739179353,-0.25099004604400366,0.05080776931207003,0.06965286233326635
1681249575317126100,5.451126220703125,-0.001093078637495637,-0.05308994650840759,-0.004350578412413597,0.13225531578063965,0.4767654538154602,-0.8690242767333984,0.0035631805658340454,-0.009663373231887817,0.0018063187599182129,0.9641835397520836,-0.25088576809542196,0.05043985678886675,0.06973044591471005
1681249575332159000,5.466158935546875,-0.008990149945020676,-0.047633133828639984,0.009103445336222649,0.1316818743944168,0.476769357919693,-0.8691092133522034,0.0006576180458068848,-0.012902140617370605,0.0032950639724731445,0.9641965453891186,-0.25086707685014126,0.05011078598010086,0.06985488024858087
1681249575347192000,5.481192138671875,-0.023759616538882256,-0.047375068068504333,0.01164330169558525,0.1312246471643448,0.4768984317779541,-0.8691076040267944,0.00036716461181640625,-0.013061702251434326,0.007489562034606934,0.9641824671546553,-0.2509264007345352,0.04982119357447466,0.07004285484061316
1681249575362225200,5.49622509765625,-0.022164806723594666,-0.05594965070486069,0.007259472273290157,0.13065490126609802,0.47716382145881653,-0.8690477609634399,0.0029968470335006714,-0.012762516736984253,0.009031891822814941,0.9641539976291221,-0.2510551833688003,0.04947139470488733,0.07022124080236572
1681249575377258000,5.511258056640625,-0.008685218170285225,-0.06463927775621414,-0.0017353540752083063,0.12993353605270386,0.47731614112854004,-0.8690722584724426,0.004511654376983643,-0.003744363784790039,0.008507132530212402,0.9641499344411711,-0.2511122618450327,0.0490561274815363,0.0703641556314524
1681249575392291000,5.526291015625,0.0038374976720660925,-0.0631742775440216,-0.007676067296415567,0.12907718122005463,0.4773187041282654,-0.8691984415054321,0.0012939274311065674,0.0016394853591918945,0.006878554821014404,0.9641761440445745,-0.25107723974913143,0.04858999023830458,0.07045353754979965
1681249575407325000,5.541324951171875,0.0026961732655763626,-0.05463085323572159,-0.012838338501751423,0.12825194001197815,0.47725218534469604,-0.8693571090698242,-0.010484591126441956,0.0061920881271362305,0.003359854221343994,0.964214708530544,-0.25100276617842116,0.04815649164527927,0.07048835145908648
1681249575422358000,5.55635791015625,-0.01029515266418457,-0.03568539023399353,-0.003251491580158472,0.12760846316814423,0.47728100419044495,-0.8694359660148621,-0.015105396509170532,0.008207947015762329,0.003453969955444336,0.9642326474862968,-0.25098970309673363,0.047813981389739774,0.07052252883183643
1681249575437391000,5.57139111328125,-0.016018765047192574,-0.00921703316271305,0.009545263834297657,0.12739096581935883,0.4773968458175659,-0.8694043159484863,-0.019862264394760132,0.005833804607391357,0.004963397979736328,0.9642193296024112,-0.25104685483191613,0.04767946099729155,0.07059248817533852
1681249575452424000,5.586423828125,-0.02045292779803276,0.018636703491210938,0.025073090568184853,0.12762075662612915,0.47760501503944397,-0.8692562580108643,-0.020870253443717957,0.005015283823013306,0.004967927932739258,0.9641719489189579,-0.25117909341179845,0.04775912866837355,0.07071595130844736
1681249575467457000,5.60145703125,-0.01180441863834858,0.03542367368936539,0.03858224302530289,0.1282454878091812,0.47774365544319153,-0.8690881133079529,-0.01276695728302002,0.013070613145828247,0.0015038847923278809,0.9641141488178769,-0.25129532437373936,0.048027165711963034,0.07090890497441477
1681249575482490000,5.616489990234375,0.001790698734112084,0.04507976025342941,0.03485008701682091,0.12904800474643707,0.4777742028236389,-0.8689525127410889,-0.007893204689025879,0.01644277572631836,-0.0014698505401611328,0.9640647295578828,-0.2513605203873838,0.04839042882672328,0.07110304156926538
1681249575497523000,5.63152294921875,0.014378182590007782,0.03561355546116829,0.01831984519958496,0.12969590723514557,0.4776744246482849,-0.8689109086990356,0.006198883056640625,0.017305493354797363,-0.0016487836837768555,0.9640456612842864,-0.25134217334231324,0.04869973889244974,0.07121439438039073
1681249575512556000,5.64655615234375,0.031109757721424103,0.01689206436276436,-0.009821509942412376,0.13002607226371765,0.4773862063884735,-0.8690199851989746,0.013147160410881042,0.015320152044296265,0.0010237693786621094,0.9640761273648533,-0.2511971804756546,0.04888761074595685,0.07118574009689728
1681249575527590100,5.661590087890625,0.03250482678413391,-0.0008581690490245819,-0.03547387570142746,0.12983326613903046,0.47707289457321167,-0.8692207932472229,0.019153565168380737,0.0056084394454956055,0.0023232698440551758,0.9641442673808313,-0.2510034968150884,0.04885527572830603,0.0709675352614982
1681249575542623000,5.676623046875,0.015654368326067924,-0.019770074635744095,-0.05155937001109123,0.12931716442108154,0.4768640398979187,-0.8694123029708862,0.01997484266757965,-0.0038110315799713135,0.0015839934349060059,0.9642175844787646,-0.2508469111834408,0.04867917234307867,0.07064573863056724
1681249575557656000,5.691656005859375,-0.0018775926437228918,-0.029354257509112358,-0.05243048816919327,0.1285403072834015,0.47694775462150574,-0.8694815635681152,0.018050894141197205,-0.021961122751235962,0.00417095422744751,0.9642604421492593,-0.2508389071591732,0.0483637089658239,0.07030386707758292
1681249575572689200,5.706689208984375,-0.0273043904453516,-0.03462865203619003,-0.04233977198600769,0.12777025997638702,0.4772772789001465,-0.8694142699241638,0.01549452543258667,-0.03167480230331421,0.004881858825683594,0.9642635407793847,-0.2509704710019527,0.04802792407886649,0.07002239879729812
1681249575587722000,5.721721923828125,-0.052880216389894485,-0.03953951597213745,-0.029862331226468086,0.12706036865711212,0.4779200255870819,-0.8691652417182922,0.016128122806549072,-0.031432539224624634,0.0017030835151672363,0.9642127014289467,-0.25128302051312085,0.04768896461649213,0.06983313593441833
1681249575602755000,5.736755126953125,-0.06446672230958939,-0.040774159133434296,-0.01982833817601204,0.1264050453901291,0.4787386655807495,-0.8688101768493652,0.013411253690719604,-0.027475178241729736,-0.0024819374084472656,0.9641265960258093,-0.25170102941546657,0.04734452011656675,0.06975104453465054
1681249575617788200,5.7517880859375,-0.07007097452878952,-0.040354445576667786,-0.015123597346246243,0.12585952877998352,0.47964927554130554,-0.86838698387146,0.01221725344657898,-0.018940627574920654,-0.010137736797332764,0.9640174023192648,-0.2521790116223026,0.047034531779422045,0.06974275300262078
1681249575632821000,5.766821044921875,-0.06594254076480865,-0.0377405509352684,-0.006358335260301828,0.1253371685743332,0.4805428981781006,-0.8679683804512024,0.010969609022140503,-0.01212853193283081,-0.009503483772277832,0.9639065433785509,-0.25265081444211157,0.04672647674192979,0.069774677098584
1681249575647855000,5.781855224609375,-0.05774325504899025,-0.027900440618395805,-0.005088273901492357,0.1250089854001999,0.4811999201774597,-0.867651641368866,0.010748475790023804,-0.004988312721252441,-0.007561922073364258,0.9638195917613264,-0.2530025380633895,0.046517528329177014,0.06984115308818474
1681249575662888000,5.796887939453125,-0.03238985314965248,-0.02725488878786564,-0.003572402521967888,0.12468177080154419,0.48172324895858765,-0.8674083352088928,0.010205939412117004,-0.004351973533630371,-0.006798207759857178,0.9637525311562241,-0.25327966744339253,0.04631686979265343,0.06989461603097424
1681249575677921000,5.811921142578125,-0.00032193370861932635,-0.023567209020256996,-0.006446485873311758,0.12441734224557877,0.4817955493927002,-0.8674061298370361,0.010043114423751831,-0.0009758174419403076,-0.006495177745819092,0.9637498371252945,-0.2533086350346276,0.04617008500828589,0.06992363132619156
1681249575692954000,5.8269541015625,0.014155542477965355,-0.02275041863322258,-0.013127025216817856,0.12406349927186966,0.4816020131111145,-0.8675642609596252,0.009161002933979034,-0.0011026859283447266,-0.0062149763107299805,0.9637929816821759,-0.2531832711250516,0.04600101841138344,0.06989517850725852
1681249575707987000,5.841987060546875,0.00015019153943285346,-0.014757206663489342,-0.014053273014724255,0.12378092110157013,0.48136886954307556,-0.8677340149879456,0.0047896429896354675,-0.008361637592315674,-0.005541682243347168,0.9638409080020296,-0.2530381329112592,0.04587706231820011,0.06984034632118752
1681249575723020000,5.85702001953125,-0.037958577275276184,-0.0005045011639595032,-0.003020862117409706,0.1236599013209343,0.48158910870552063,-0.8676290512084961,0.005398951470851898,-0.012198209762573242,-0.004395484924316406,0.9638165275081523,-0.2531526471889432,0.04581710991280095,0.06980240599527066
1681249575738053000,5.87205322265625,-0.08260056376457214,0.014172179624438286,0.013428685255348682,0.12384635955095291,0.4823390245437622,-0.8671857714653015,0.009851165115833282,-0.01613718271255493,0.0029889941215515137,0.9636977036949054,-0.25357959462210583,0.04587489176980472,0.06985440683024101
1681249575753086200,5.887086181640625,-0.09246837347745895,0.014975921250879765,0.023292766883969307,0.12420353293418884,0.48344630002975464,-0.8665178418159485,0.011294528841972351,-0.013261914253234863,0.004213213920593262,0.9635139750020806,-0.2542174352261261,0.04598435710360129,0.06999990151255685
1681249575768120000,5.9021201171875,-0.06334835290908813,0.0004963143728673458,0.010504268109798431,0.1245160922408104,0.48443469405174255,-0.8659207820892334,0.0192522332072258,0.008134335279464722,-0.0030062198638916016,0.9633476180483839,-0.2547881249996665,0.04607198355349649,0.07015519789811467
1681249575783153200,5.917153076171875,-0.004857137333601713,-0.019175924360752106,-0.01802165061235428,0.12441708147525787,0.4848901033401489,-0.8656800985336304,0.01976323127746582,0.02205270528793335,-0.008892655372619629,0.9632841707027948,-0.2550368499557573,0.04600182003074371,0.07016913369206804
1681249575798186000,5.93218603515625,0.04125896096229553,-0.028966234996914864,-0.03402724489569664,0.12391461431980133,0.484578013420105,-0.8659269213676453,0.013383984565734863,0.034663379192352295,-0.004373371601104736,0.9633585369249774,-0.2548330309056577,0.04578950685325678,0.07002858024308481
1681249575813219000,5.947218994140625,0.043923720717430115,-0.03262009471654892,-0.030865542590618134,0.12327359616756439,0.48398733139038086,-0.8663486242294312,0.011690407991409302,0.027456820011138916,0.004028677940368652,0.9634824488917676,-0.25446545653410735,0.04553047665758493,0.06982866363924187
1681249575828252200,5.962252197265625,0.006040091626346111,-0.034330107271671295,-0.015238379128277302,0.12274116277694702,0.4836157262325287,-0.8666316866874695,0.008545473217964172,-0.010715276002883911,0.020760715007781982,0.9635636924875681,-0.25422907417752105,0.04529613645758658,0.06972006919052333
1681249575843285000,5.977284912109375,-0.031325604766607285,-0.03911793977022171,-0.00196039117872715,0.12222985178232193,0.48378801345825195,-0.8666077852249146,0.013191908597946167,-0.023582905530929565,0.024856746196746826,0.9635566029784267,-0.2543011496474444,0.04502255532225695,0.06973284981421031
1681249575858318000,5.992318115234375,-0.046893857419490814,-0.0471218079328537,0.00922994501888752,0.12179042398929596,0.48436662554740906,-0.8663464188575745,0.012517452239990234,-0.025107532739639282,0.01676762104034424,0.9634795524593632,-0.25460741855892377,0.04474204310373929,0.06986115779881755
1681249575873351200,6.00735107421875,-0.039322223514318466,-0.059245310723781586,0.0037968303076922894,0.12119709700345993,0.4849989116191864,-0.866075873374939,0.012408874928951263,-0.014341503381729126,0.007845282554626465,0.9633975156276179,-0.25493783271078885,0.044370889428246095,0.07002391590937193
1681249575888385000,6.022385009765625,-0.024829460307955742,-0.07538620382547379,-0.011054819449782372,0.12035040557384491,0.48556262254714966,-0.8658779859542847,0.012660473585128784,0.012606382369995117,-0.0036440491676330566,0.9633367816587934,-0.25521662920069793,0.0438801832393629,0.07015142370262015
1681249575903418000,6.037418212890625,-0.02083093859255314,-0.08559143543243408,-0.02427714876830578,0.11918851733207703,0.4859130084514618,-0.8658421635627747,0.012738987803459167,0.019580215215682983,-0.010378479957580566,0.9633250686473593,-0.25535783652079763,0.043258383147178996,0.07018532932235569
1681249575918451000,6.052450927734375,-0.021576622501015663,-0.0854276493191719,-0.028311837464571,0.11796112358570099,0.48619386553764343,-0.8658525943756104,0.005970776081085205,0.013974040746688843,-0.0075757503509521484,0.9633284678772684,-0.25545551985617493,0.04261663934298929,0.07017557542905666
1681249575933484000,6.067484130859375,-0.024479469284415245,-0.07545038312673569,-0.016812840476632118,0.1167968139052391,0.48648619651794434,-0.8658462166786194,0.0025879740715026855,0.004984170198440552,-0.00489652156829834,0.9633264886882932,-0.2555633284031296,0.04200313637143947,0.07018092760695355
1681249575948517000,6.08251708984375,-0.026090040802955627,-0.0559760183095932,-0.006000939290970564,0.11595425009727478,0.48674213886260986,-0.8658156394958496,-0.00018581002950668335,-0.010149091482162476,-0.0011581778526306152,0.9633135331902408,-0.2556688475837147,0.04154056680417155,0.07024921544462223
1681249575963550200,6.09755029296875,-0.028526514768600464,-0.03825321048498154,0.004228795412927866,0.11536392569541931,0.4870803654193878,-0.8657042980194092,-0.0010145455598831177,-0.014424055814743042,-0.0003387928009033203,0.9632766915770601,-0.255833612363892,0.041194909925469425,0.0703577021511464
1681249575978583000,6.1125830078125,-0.02676595002412796,-0.022918997332453728,0.006124965846538544,0.1150691956281662,0.4874558746814728,-0.8655321598052979,-0.0008571445941925049,-0.010878056287765503,-0.0045850276947021484,0.9632236077126616,-0.2560332440783425,0.04099881345876594,0.0704735493553261
1681249575993616100,6.1276162109375,-0.025777650997042656,-0.011969409883022308,0.0054205600172281265,0.11489367485046387,0.48779943585395813,-0.8653618693351746,0.00018812716007232666,-0.008963346481323242,-0.004297494888305664,0.9631730062687065,-0.25621956766281717,0.04087284135564986,0.07056142717237021
1681249576008650000,6.14264990234375,-0.022507289424538612,-0.005856123752892017,0.0013656305382028222,0.11480911821126938,0.4881129860877991,-0.8651962876319885,0.002820901572704315,-0.0017085075378417969,-0.0009077787399291992,0.9631275901957477,-0.2563911732532542,0.04080954147982627,0.0705943391633126
1681249576023683000,6.15768310546875,-0.015377315692603588,-0.001620099414139986,-0.0045005143620073795,0.11477367579936981,0.4883595407009125,-0.86506187915802,0.006548970937728882,-0.0005665123462677002,-0.0016373395919799805,0.9630931480279026,-0.25652624438131866,0.04078426230352005,0.07058846567338613
1681249576038716200,6.172716064453125,-0.009086556732654572,0.008367020636796951,-0.0029140692204236984,0.11479316651821136,0.48843616247177124,-0.865015983581543,0.008574157953262329,-0.0018180608749389648,0.0017042756080627441,0.963082807677033,-0.25656884119331996,0.040797384138394545,0.07056711709448318
1681249576053749000,6.1877490234375,-0.0011801640503108501,0.008970227092504501,0.00013098923955112696,0.1148955225944519,0.48845621943473816,-0.8649910688400269,0.009295769035816193,-0.0020212531089782715,0.002549111843109131,0.9630773739519111,-0.25658418943315936,0.040853596676678997,0.07055223026014561
1681249576068782000,6.202781982421875,0.001663133385591209,0.005029281135648489,-0.0004535746993497014,0.1149970069527626,0.488392174243927,-0.8650137782096863,0.01140681654214859,-0.0044596195220947266,0.0028006434440612793,0.9630837687560638,-0.2565530973376938,0.04090997391160228,0.0705459136958504
1681249576083815200,6.217815185546875,0.0012679202482104301,-0.00632084533572197,-0.004871759098023176,0.11494231224060059,0.48836439847946167,-0.8650367259979248,0.014909997582435608,-0.0069800615310668945,0.0020301342010498047,0.9630910976387781,-0.25653429014101964,0.04088759698042499,0.07052731829655311
1681249576098848000,6.232847900390625,-0.011599995195865631,-0.020551446825265884,-0.009953336790204048,0.11473051458597183,0.4884220361709595,-0.8650323152542114,0.01615939289331436,-0.007129251956939697,0.004390835762023926,0.9630917230278139,-0.2565553257502023,0.04078254490457525,0.07050302491246993
1681249576113881000,6.247881103515625,-0.014276205562055111,-0.03225070983171463,-0.014969932846724987,0.11430619657039642,0.48858991265296936,-0.8649936318397522,0.01705673336982727,-0.005801767110824585,0.004047036170959473,0.9630843237848196,-0.2566271126626695,0.04056730406978198,0.07046551736437937
1681249576128915000,6.2629150390625,-0.014659593813121319,-0.03850754350423813,-0.013338213786482811,0.11376532167196274,0.48880693316459656,-0.8649423122406006,0.01634638011455536,-0.00545424222946167,0.0028665661811828613,0.9630729031956281,-0.25672122406602677,0.040287123168316015,0.07043914920595748
1681249576143948000,6.277947998046875,-0.020099526271224022,-0.04302666336297989,-0.01297788880765438,0.11320425570011139,0.4890509247779846,-0.8648780584335327,0.013199567794799805,-0.0022955238819122314,-0.00032579898834228516,0.963056812342251,-0.25683022349456547,0.03999017509877606,0.07043298082756227
1681249576158981000,6.292981201171875,-0.030263854190707207,-0.04330522567033768,-0.009140539914369583,0.1126457080245018,0.48936182260513306,-0.8647751212120056,0.005640432238578796,-0.0032777786254882812,-0.0032516121864318848,0.963028607119175,-0.2569776758180062,0.03968531255131698,0.07045267252588172
1681249576174014200,6.30801416015625,-0.046132031828165054,-0.0439814031124115,-0.007175925653427839,0.11204743385314941,0.4898209571838379,-0.8645928502082825,0.00724579393863678,-0.005049169063568115,-0.003998398780822754,0.9629780064897207,-0.2572067175663923,0.039348088706851005,0.07049727072735493
1681249576189047000,6.323047119140625,-0.05194134637713432,-0.04312945902347565,-0.004791331477463245,0.1115051880478859,0.4904201626777649,-0.8643232583999634,0.004659987986087799,-0.005953550338745117,-0.002665877342224121,0.9629033925211011,-0.2575170426001077,0.03903016888024979,0.07055964540210304
1681249576204080000,6.338080078125,-0.053313832730054855,-0.043596841394901276,-0.004297048784792423,0.11092013120651245,0.4911069869995117,-0.8640084862709045,0.005046680569648743,-0.005572259426116943,-0.0002034902572631836,0.9628168199705223,-0.2578743219140439,0.0386856762553431,0.07062683121489416
1681249576219113200,6.35311328125,-0.04372964799404144,-0.03409974277019501,-0.006644625216722488,0.11044935882091522,0.49173635244369507,-0.8637108206748962,0.0031065642833709717,-0.002341151237487793,0.0014061331748962402,0.962734752686838,-0.2582050208134997,0.038402621763481214,0.07069243323791176
1681249576234145300,6.368145263671875,-0.02855602093040943,-0.023305688053369522,-0.0045215534046292305,0.11005119234323502,0.4921985864639282,-0.863498330116272,0.001688934862613678,-0.0016894936561584473,0.0009647607803344727,0.9626761816156679,-0.25844541263091464,0.03816815646405147,0.07073842233425946
1681249576249178000,6.38317822265625,-0.015147431753575802,-0.01119922287762165,0.0005919822724536061,0.10985159128904343,0.49244335293769836,-0.8633841872215271,-0.0013463273644447327,0.002033025026321411,0.0008506178855895996,0.9626433895597216,-0.25857397883782457,0.03804488294418136,0.07078106615760815
1681249576264212200,6.398212158203125,-0.011523242108523846,-0.001690140925347805,0.004785395693033934,0.10980400443077087,0.49257585406303406,-0.8633146286010742,0.0004560127854347229,0.0003899037837982178,0.00007915496826171875,0.9626222749045062,-0.25864712025418374,0.03800471054855428,0.07082167369817156
1681249576279245000,6.4132451171875,-0.01001014094799757,-0.0014342106878757477,0.0035267858766019344,0.1098548024892807,0.49263903498649597,-0.8632720708847046,0.0014275535941123962,-0.00017684698104858398,-0.0009551644325256348,0.9626082610736372,-0.2586862595565552,0.0380181822599608,0.07086107313013859
1681249576294278100,6.428278076171875,-0.017786569893360138,-0.005656653083860874,-0.001737750950269401,0.109811931848526,0.49281811714172363,-0.8631753325462341,0.005910731852054596,-0.0019275546073913574,-0.0025472640991210938,0.9625813515724354,-0.2587849211335322,0.03798268745560145,0.07088720831811654
1681249576309311200,6.443311279296875,-0.02676275558769703,-0.011090567335486412,-0.007288044784218073,0.10969701409339905,0.4930992126464844,-0.863029420375824,0.009382590651512146,-0.0027579665184020996,-0.00118255615234375,0.9625436280764963,-0.2589359311561178,0.037913989673833505,0.07088486490231688
1681249576324344000,6.458343994140625,-0.03454328700900078,-0.020613763481378555,-0.014784044586122036,0.10940521955490112,0.49350985884666443,-0.862831711769104,0.01327545940876007,-0.004984408617019653,0.001549363136291504,0.9624951053583424,-0.2591493797500392,0.0377590526343285,0.07084603499565362
1681249576339377200,6.473377197265625,-0.03700106218457222,-0.02424684911966324,-0.018486104905605316,0.1089707463979721,0.49401411414146423,-0.8625981211662292,0.016258150339126587,-0.007518082857131958,0.002200782299041748,0.9624394083659077,-0.25940720012675594,0.037534734717114535,0.07077854564630805
1681249576354410200,6.48841015625,-0.029507728293538094,-0.023145630955696106,-0.019192375242710114,0.10850274562835693,0.4944705367088318,-0.8623955249786377,0.015612252056598663,-0.005227923393249512,0.0008233189582824707,0.9623930782222977,-0.2596362100808933,0.037299650833027914,0.07069294407826467
1681249576369443000,6.503443115234375,-0.018108654767274857,-0.017853664234280586,-0.013376563787460327,0.10810050368309021,0.4947907626628876,-0.8622623682022095,0.011177465319633484,-0.002298027276992798,0.001559913158416748,0.9623635671525628,-0.25979314769605677,0.03709881046234425,0.0706242913110319
1681249576384476200,6.51847607421875,-0.00034036283614113927,-0.008771219290792942,-0.00705821393057704,0.10784637928009033,0.4949251413345337,-0.8622170686721802,0.007754206657409668,-0.0004945695400238037,-0.00040799379348754883,0.9623551317339806,-0.25985437743847134,0.03697530080429755,0.07057729879275265
1681249576399510300,6.53351025390625,0.009219160303473473,0.006019444204866886,0.003121985588222742,0.10787831991910934,0.4948447644710541,-0.8622592091560364,0.00035228580236434937,0.0030190646648406982,0.00041234493255615234,0.9623664793607609,-0.2598108827843483,0.03699581702984597,0.0705729638416269
1681249576414543000,6.548543212890625,0.02094399370253086,0.017915785312652588,0.007893571630120277,0.10812826454639435,0.4946094751358032,-0.8623629212379456,0.00001078099012374878,0.0032238364219665527,-0.0019101500511169434,0.9623916534487287,-0.25969238826517194,0.0371268849564683,0.07059709935264855
1681249576429576200,6.563576171875,0.02491742931306362,0.02701500803232193,0.013220692053437233,0.10860300809144974,0.4942440986633301,-0.8625127077102661,-0.0017456933856010437,0.0020785927772521973,-0.0025995373725891113,0.9624277325826838,-0.25951252650153434,0.037374895250268866,0.07063576932517676
1681249576444609300,6.578609375,0.025153491646051407,0.029201729223132133,0.01717734895646572,0.10914444178342819,0.4938697814941406,-0.8626587986946106,-0.0020124688744544983,0.0012322068214416504,-0.0024840235710144043,0.9624621490070895,-0.2593312263771626,0.03765540979623759,0.07068301418217397
1681249576459642000,6.59364208984375,0.01981193758547306,0.025789154693484306,0.009807318449020386,0.1096549928188324,0.49355125427246094,-0.8627763390541077,0.0037636011838912964,0.00005537271499633789,-0.000306546688079834,0.9624887298336816,-0.2591798761142493,0.03791607373672999,0.07073737584388841
1681249576474675200,6.60867529296875,0.012378254905343056,0.01750379428267479,0.006765189580619335,0.11001625657081604,0.4933484196662903,-0.862846314907074,0.007323838770389557,-0.0019390881061553955,-0.00154876708984375,0.9625058316439316,-0.2590844263859011,0.03810649364685569,0.07075070685078379
1681249576489708300,6.623708251953125,0.008889567106962204,0.01293753832578659,0.0040692719630897045,0.11024389415979385,0.49321308732032776,-0.862894594669342,0.01028529554605484,-0.0025971829891204834,0.0019479990005493164,0.9625179370854449,-0.25901999400430703,0.0382274329818164,0.07075653175795982
1681249576504741000,6.6387412109375,0.010781371034681797,0.005528890062123537,0.0014210244407877326,0.11035331338644028,0.4930904507637024,-0.8629507422447205,0.01040475070476532,-0.0009791851043701172,0.0033469200134277344,0.962533090058445,-0.2589565364242887,0.03829019617605827,0.07074962338085095
1681249576519775200,6.653775146484375,0.019721390679478645,0.005734219681471586,0.0043731387704610825,0.11042139679193497,0.49290409684181213,-0.8630484938621521,0.007971562445163727,-0.0028680264949798584,0.0057334303855896,0.9625590297588674,-0.25885566614584954,0.03833414867399362,0.07074142307988261
1681249576534808000,6.66880810546875,0.02377338893711567,0.004754975438117981,0.006276233121752739,0.11053671687841415,0.4926186501979828,-0.8631966710090637,0.00607096403837204,-0.0006142258644104004,0.004355788230895996,0.9625964704898751,-0.25870276009059123,0.038399733188803326,0.07075653859869614
1681249576549841200,6.683841064453125,0.02483210153877735,0.0054055857472121716,0.008156425319612026,0.11067203432321548,0.4923003017902374,-0.8633609414100647,0.007080055773258209,-0.0006162822246551514,-0.00042384862899780273,0.9626364713030033,-0.25853332890798614,0.03847139837931163,0.0707918314104922
1681249576564874200,6.698874267578125,0.019578218460083008,-0.0014541847631335258,0.007957221008837223,0.1107579693198204,0.49202102422714233,-0.8635091185569763,0.00757395476102829,-0.0005659162998199463,-0.0018473267555236816,0.9626710089864817,-0.25838407908270183,0.03851127179598185,0.07084531213173352
1681249576579907000,6.713906982421875,0.011391021311283112,-0.005734416656196117,0.004972882568836212,0.11079762130975723,0.49180278182029724,-0.8636283874511719,0.008785523474216461,-0.0012936890125274658,0.000133514404296875,0.9626984132621332,-0.2582664428526665,0.03852614539870485,0.07089481682968689
1681249576594940200,6.728940185546875,0.009413091465830803,-0.010634366422891617,0.002349402289837599,0.11074014753103256,0.4916594922542572,-0.8637173175811768,0.010674051940441132,-0.0031340420246124268,-0.001990079879760742,0.9627189662091903,-0.2581853894654445,0.03849209796429156,0.07092965861941344
1681249576609973200,6.74397314453125,0.0055130524560809135,-0.010727576911449432,0.004266345873475075,0.11063755303621292,0.49154725670814514,-0.8637943267822266,0.010837681591510773,-0.005020707845687866,-0.004308640956878662,0.9627359883753722,-0.2581197329601687,0.03843210809171341,0.07097017003278314
1681249576625006000,6.759006103515625,-0.0005799407372251153,-0.011124921962618828,0.004840257111936808,0.11051011085510254,0.4915074110031128,-0.8638333082199097,0.010827794671058655,-0.006094753742218018,-0.004605352878570557,0.9627433246488836,-0.2580930837178777,0.038357423385793475,0.07100811263589564
1681249576640040200,6.774040283203125,-0.005862107500433922,-0.009620236232876778,0.005861579440534115,0.1104731410741806,0.4915420413017273,-0.863818347454071,0.007217913866043091,-0.00928795337677002,0.0003845691680908203,0.9627350507308355,-0.2581129837912637,0.038321087639618376,0.0710677731994533
1681249576655073300,6.7890732421875,-0.011245154775679111,-0.007980793714523315,0.006686626933515072,0.11042699217796326,0.4916653037071228,-0.8637540936470032,0.007584497332572937,-0.008983969688415527,0.0014342069625854492,0.9627136066116722,-0.25818192341812285,0.03827591488762126,0.07113104569308865
1681249576670106000,6.804106201171875,-0.009141897782683372,-0.007635913789272308,-0.0017143151490017772,0.11039799451828003,0.491798996925354,-0.8636816740036011,0.008605316281318665,-0.008003771305084229,0.0016974806785583496,0.9626911826988013,-0.25825692595111316,0.03824277548739264,0.07118111490955027
1681249576685139200,6.81913916015625,-0.004320137202739716,-0.005366634577512741,-0.0013100472278892994,0.11033377051353455,0.49189749360084534,-0.8636338114738464,0.007326766848564148,-0.0070646703243255615,0.0031601786613464355,0.9626779012886982,-0.2583091259319687,0.03820334557674224,0.07119132052080857
1681249576700172300,6.83417236328125,0.010209696367383003,-0.0008757458999752998,0.0007302003214135766,0.11032659560441971,0.4918075203895569,-0.8636859655380249,0.007837481796741486,-0.0005049705505371094,0.0024799108505249023,0.9626909340723517,-0.2582590035669439,0.03820095664031035,0.07119822820903068
1681249576715205000,6.849205078125,0.022243455052375793,0.003436977043747902,0.0008974469965323806,0.11039185523986816,0.4915643334388733,-0.8638160228729248,0.00613953173160553,0.0011267662048339844,0.00140458345413208,0.9627247827716738,-0.25812673441939943,0.03824351404644615,0.0711973834382734
1681249576730238200,6.86423828125,0.024108467623591423,0.004599446896463633,-0.00160379393491894,0.11049354821443558,0.49119243025779724,-0.8640145659446716,0.0023909807205200195,0.0034670233726501465,-0.00002956390380859375,0.962777647253766,-0.2579239042406672,0.03831421667895642,0.07117875402798647
1681249576745271300,6.879271240234375,0.02140791527926922,0.005894009489566088,0.0015568454982712865,0.11056085675954819,0.49085989594459534,-0.864194929599762,0.00537542998790741,0.0012665987014770508,-0.0005205869674682617,0.9628256864842162,-0.2577414755047513,0.0383650504955349,0.0711626708737348
1681249576760304000,6.89430419921875,0.020552774891257286,0.004731805995106697,-0.0007811435498297215,0.11066915839910507,0.49056851863861084,-0.8643465042114258,0.006304733455181122,-0.0009749531745910645,-0.0009335875511169434,0.9628656100028763,-0.2575842410681358,0.03843297793430355,0.07115647200600166
1681249576775338200,6.909338134765625,0.012949183583259583,0.0037813237868249416,0.0008580320281907916,0.11076018214225769,0.49035388231277466,-0.8644566535949707,0.005786463618278503,-0.002667665481567383,-0.0009608268737792969,0.9628945217968662,-0.2574689985233282,0.03848883500179098,0.07115187126636727
1681249576790371000,6.92437109375,0.005804135929793119,0.005031145177781582,0.0033214562572538853,0.1108783632516861,0.4902401566505432,-0.8645060062408447,0.005668282508850098,-0.0052547454833984375,-0.0012929439544677734,0.9629064556823894,-0.25741181609522784,0.03855074262807768,0.07116387459663366
1681249576805404200,6.939404052734375,-0.005896516144275665,0.005368035286664963,0.002393078524619341,0.11097326129674911,0.49024808406829834,-0.8644893169403076,0.005390271544456482,-0.005827277898788452,-0.0026218295097351074,0.9629010886219431,-0.2574212384289539,0.038596076387723305,0.07117682171247616
1681249576820437200,6.954437255859375,-0.009659988805651665,0.004272144287824631,0.0021600518375635147,0.11106459051370621,0.4903610944747925,-0.8644134998321533,0.006916381418704987,-0.007542431354522705,-0.0012786388397216797,0.9628808554245906,-0.25748869756148324,0.03863710525023523,0.0711851252625021
1681249576835470000,6.969469970703125,-0.015279258601367474,0.0006158906035125256,0.00015735451597720385,0.11110963672399521,0.4905427396297455,-0.8643046617507935,0.009526364505290985,-0.007800370454788208,-0.00042617321014404297,0.9628520113424273,-0.25759213864759734,0.03865189976487977,0.07119300304917658
1681249576850503200,6.984503173828125,-0.014146562665700912,0.001559981144964695,-0.001442939043045044,0.11112501472234726,0.4907185137271881,-0.8642028570175171,0.010380730032920837,-0.005214333534240723,0.0018524527549743652,0.9628250031296338,-0.2576909420854871,0.0386516089685333,0.07120067981021834
1681249576865536300,6.999536376953125,-0.0048558590933680534,0.002012452110648155,0.0013701579300686717,0.11114068329334259,0.4908192455768585,-0.8641436696052551,0.008366167545318604,-0.005406588315963745,0.001076042652130127,0.9628099725404535,-0.2577474963083957,0.03865755377670502,0.07119550805068513
1681249576880569300,7.0145693359375,0.007118619047105312,0.004622083622962236,0.00009370490442961454,0.11122440546751022,0.49077174067497253,-0.8641598224639893,0.0055053457617759705,0.0001951158046722412,0.0001462101936340332,0.9628138999233796,-0.2577251670950775,0.03870165641423458,0.07119874901764034
1681249576895603200,7.029603271484375,0.016247136518359184,0.007028249558061361,0.0035646026954054832,0.11134467273950577,0.49060317873954773,-0.8642400503158569,0.006025940179824829,0.0009739995002746582,-0.000521242618560791,0.9628352209359728,-0.2576368463337209,0.038771458702935975,0.07119250002783216
1681249576910636300,7.04463623046875,0.009662896394729614,0.006635433528572321,0.005269558634608984,0.11150354146957397,0.4903956353664398,-0.8643373847007751,0.005241468548774719,-0.0008936226367950439,-0.00008827447891235352,0.9628592554143048,-0.2575296020654471,0.0388563613183418,0.07120952957358878
1681249576925669000,7.059669189453125,-0.00024869682965800166,0.00186091847717762,0.0022034612484276295,0.11158564686775208,0.4903094172477722,-0.8643757104873657,0.006441101431846619,-0.0024706125259399414,-0.00024831295013427734,0.9628674752229587,-0.25748649255362493,0.03889545414318453,0.07123346206085249
1681249576940702200,7.0747021484375,-0.013066757470369339,-0.0029130643233656883,0.002328629605472088,0.11161258816719055,0.4903735816478729,-0.864335834980011,0.010778173804283142,-0.00924864411354065,-0.0005475878715515137,0.9628555506447202,-0.257524294662061,0.0389014556719212,0.07125468211141263
1681249576955735300,7.0897353515625,-0.017813310027122498,-0.009033807553350925,-0.0021774389315396547,0.111518993973732,0.4905740022659302,-0.8642341494560242,0.0106428861618042,-0.0080452561378479,0.00148695707321167,0.9628274712542337,-0.2576322336887381,0.038840181447024856,0.07127641711034167
1681249576970768100,7.10476806640625,-0.01932593248784542,-0.012796854600310326,-0.0038070271257311106,0.11139024049043655,0.49082687497138977,-0.8641071915626526,0.01093948632478714,-0.006299227476119995,-0.00005906820297241211,0.9627937699021053,-0.25776719744010157,0.03876183633367153,0.07128706236638996
1681249576985801200,7.11980126953125,-0.015520594082772732,-0.009966179728507996,-0.00394817441701889,0.11119361221790314,0.49107304215431213,-0.8639926314353943,0.009869635105133057,-0.005904525518417358,0.0009555816650390625,0.962763861301124,-0.25789492123514346,0.0386508428192197,0.07128939587093008
1681249577000834300,7.134834228515625,-0.0038098758086562157,-0.011385379359126091,-0.0024445538874715567,0.11103909462690353,0.49118849635124207,-0.8639469146728516,0.01031406968832016,-0.00197640061378479,0.0013370513916015625,0.9627519263053286,-0.25795189664256585,0.038566388025625745,0.07129113138172073
1681249577015868200,7.1498681640625,0.0025771833024919033,-0.007741641253232956,0.0018647069809958339,0.11091522127389908,0.4911629557609558,-0.863977313041687,0.0074777379631996155,-0.0013252794742584229,0.0011843442916870117,0.9627587697813412,-0.25793238734621426,0.03849983925519481,0.07130376806388243
1681249577030901200,7.1649013671875,0.0078016663901507854,-0.0039253318682312965,-0.002418987452983856,0.11088567972183228,0.49104705452919006,-0.8640469908714294,0.0074615031480789185,0.00011816620826721191,0.0019559264183044434,0.9627759142824995,-0.2578670262238939,0.03848516415379261,0.07131680412406245
1681249577045934000,7.17993408203125,0.006551152560859919,-0.0010744179598987103,0.0019126440165564418,0.11087514460086823,0.49095138907432556,-0.8641026616096497,0.006022453308105469,0.0007173717021942139,0.0003484487533569336,0.962789695883535,-0.2578136874439791,0.038480733864166235,0.07132561191251319
1681249577060967200,7.19496728515625,0.003744180779904127,-0.0037261275574564934,0.0015690961154177785,0.11089759320020676,0.4908478260040283,-0.8641586303710938,0.004840336740016937,-0.002642810344696045,-0.0010146498680114746,0.9628032039578679,-0.25775771502476574,0.038492019751759816,0.07134047044042029
1681249577076000300,7.210000244140625,0.00016782153397798538,-0.005554653704166412,-0.004313560202717781,0.11085918545722961,0.49084287881851196,-0.8641663789749146,0.00551961362361908,-0.0024242401123046875,-0.0025175809860229492,0.9628051228767925,-0.25775317613111187,0.038472207481338325,0.07134094391880773
1681249577091033300,7.225033447265625,-0.009451569058001041,-0.0054891398176550865,-0.005277092102915049,0.11079216003417969,0.49092209339141846,-0.8641299605369568,0.007982268929481506,-0.0029612481594085693,-0.0032100677490234375,0.9627962148302162,-0.25779380002214264,0.038436538411119915,0.07133424930648644
1681249577106066200,7.240066162109375,-0.010545329190790653,-0.00623402651399374,-0.006041419226676226,0.11070215702056885,0.4910498559474945,-0.8640689253807068,0.006485357880592346,-0.0033941566944122314,-0.002233564853668213,0.9627823043440451,-0.2578595349851398,0.0383928382825267,0.07130677546305926
1681249577121099300,7.255099365234375,-0.012870908714830875,-0.003512009046971798,-0.0047338069416582584,0.11062894761562347,0.4912125766277313,-0.8639857769012451,0.007947102189064026,-0.0031601786613464355,0.0011928677558898926,0.9627623716248386,-0.25794571280381073,0.038355145364187326,0.07128470849681277
1681249577136132400,7.27013232421875,-0.006357348989695311,-0.0007340656593441963,-0.004017416853457689,0.11058599501848221,0.4913472831249237,-0.8639146685600281,0.007028765976428986,-0.0032643377780914307,0.0028765201568603516,0.9627451588323319,-0.2580179366328208,0.03833276698343479,0.07126756720102478
1681249577151166200,7.285166259765625,-0.0009660990908741951,0.004921689163893461,0.0008271393598988652,0.11063411831855774,0.4913958013057709,-0.8638809323310852,0.007789358496665955,-0.003938466310501099,0.0033768415451049805,0.9627370538506115,-0.25804685528209814,0.038358219898796495,0.07125906912734883
1681249577166199300,7.30019921875,0.008238425478339195,0.010859206318855286,0.005055972840636969,0.11079271137714386,0.49130311608314514,-0.863913357257843,0.006196439266204834,-0.0007329881191253662,0.0014713406562805176,0.9627450522109565,-0.25800302076009574,0.03844181910276215,0.07126539116792081
1681249577181232000,7.315232177734375,0.014761997386813164,0.011599565856158733,0.005205642897635698,0.11099414527416229,0.49109482765197754,-0.8640059232711792,0.005750864744186401,0.00005513429641723633,-0.00005352497100830078,0.9627685427113883,-0.2578969609283852,0.038551340710986724,0.07127286394901147
1681249577196265200,7.33026513671875,0.015179049223661423,0.012017682194709778,0.005563837941735983,0.11119679361581802,0.49086540937423706,-0.8641101717948914,0.00466320663690567,-0.0010124444961547852,0.002217531204223633,0.9627951939377525,-0.25777912911221396,0.03866295766414432,0.07127763988946732
1681249577211298300,7.34529833984375,0.009995844215154648,0.009002450853586197,0.004685793537646532,0.11139654368162155,0.49068203568458557,-0.8641886115074158,0.004249833524227142,-0.001851409673690796,0.0002970695495605469,0.9628149532217543,-0.25768692017617495,0.038770391682736535,0.07128634174590771
1681249577226332200,7.360332275390625,0.002589806914329529,0.005597333423793316,-0.0016948740230873227,0.11151865869760513,0.4905944764614105,-0.8642225861549377,0.006889551877975464,-0.0034881234169006348,-0.0007065534591674805,0.962823976562792,-0.2576438760486707,0.03883750260640887,0.07128308568226514
1681249577241365200,7.375365234375,-0.0032197192776948214,0.003948037512600422,-0.0009249541908502579,0.11159574240446091,0.49059122800827026,-0.8642144799232483,0.008094213902950287,-0.005621075630187988,-0.0018132925033569336,0.9628218556389811,-0.25764571340048115,0.038877347024017676,0.0712835917468656
1681249577256398000,7.390398193359375,-0.003953686449676752,0.0027711866423487663,-0.000541458954103291,0.11163558065891266,0.49062132835388184,-0.8641922473907471,0.008771538734436035,-0.0049187541007995605,-0.0027205944061279297,0.9628173135625405,-0.2576636514711097,0.038901521016871575,0.07126628943190733
1681249577271431200,7.40543115234375,0.0013775890693068504,0.005719838663935661,-0.0021497420966625214,0.1116863265633583,0.49063268303871155,-0.864179253578186,0.008003629744052887,-0.0021377503871917725,-0.0011771917343139648,0.9628158753709577,-0.2576713409342381,0.038933946263261125,0.07124168983487324
1681249577286450000,7.420449951171875,0.0011596891563385725,0.00920671597123146,0.001687074196524918,0.11177564412355423,0.4906105101108551,-0.864180326461792,0.007487058639526367,-0.001963019371032715,-0.0013134479522705078,0.9654483003078197,-0.2540843016423241,0.057887949248084415,-2.7564412521706684e-18
1681249577301483000,7.43548291015625,0.0056317755952477455,0.011563080362975597,0.00035069987643510103,0.11192376166582108,0.4905502498149872,-0.8641952872276306,0.008056104183197021,-0.0016891062259674072,-0.0024580955505371094,0.9654520731351456,-0.2540512663826009,0.05796805727447827,-0.000013777239207879233
1681249577316515800,7.450515869140625,0.004508187994360924,0.01570722460746765,0.0015845425659790635,0.11212684214115143,0.4904475212097168,-0.864227294921875,0.006449215114116669,-0.0015863776206970215,-0.000213623046875,0.9654603678753213,-0.25399522168499383,0.058075610845872594,-0.000024720904671044844
1681249577331549000,7.465548828125,0.002917695324867964,0.015266206115484238,0.0019089154666289687,0.11236682534217834,0.49036362767219543,-0.864243745803833,0.007292605936527252,-0.004249095916748047,0.002106904983520508,0.9654647122346821,-0.2539503381765345,0.05820091315427887,-0.000029592642738808435
1681249577346582000,7.48058203125,-0.007589380722492933,0.011896241456270218,0.003635176457464695,0.11256670206785202,0.4903736710548401,-0.8642120361328125,0.006406083703041077,-0.0048694908618927,0.00201416015625,0.965456468714694,-0.25395744524189096,0.058306054549160234,-0.000033889245904963743
1681249577361614800,7.49561474609375,-0.004792368970811367,0.009457319043576717,-0.0013393419794738293,0.1127331405878067,0.4904628098011017,-0.8641397356987,0.005507223308086395,-0.005950450897216797,0.0045206546783447266,0.965437783846382,-0.2540084080815245,0.05839389747931046,-0.00003583970077132138
1681249577376648000,7.51064794921875,-0.0023901979438960552,0.006938234902918339,0.002880703192204237,0.11285599321126938,0.49053269624710083,-0.8640840649604797,0.007047578692436218,-0.007134228944778442,0.0016267895698547363,0.9654233426458413,-0.2540487436751827,0.058456896257428684,-0.000030128799800018718
1681249577391681000,7.525680908203125,0.003753501456230879,0.000994591973721981,-0.0005403937539085746,0.11293590068817139,0.4905036389827728,-0.864090085029602,0.00712025910615921,0.0015770792961120605,0.0020447969436645508,0.9654247965970403,-0.2540340175304594,0.058495121956983934,-0.000018465276754674072
1681249577406713900,7.5407138671875,0.004913042299449444,-0.0046699512749910355,-0.005482688080519438,0.11291445791721344,0.49044373631477356,-0.8641269207000732,0.009857766330242157,0.0011944770812988281,-0.0013973712921142578,0.9654343801076936,-0.25399941728351033,0.058488014126935974,-0.00003586887000905066
1681249577421748000,7.555748046875,0.007351112551987171,-0.0065789055079221725,-0.0037055606953799725,0.1128629595041275,0.49037399888038635,-0.8641732335090637,0.010412804782390594,-0.0012229681015014648,0.000022232532501220703,0.9654464357218212,-0.25395941514094245,0.058463702888409935,-0.00004761727767435177
1681249577436781000,7.570781005859375,0.008473902009427547,-0.0030169272795319557,0.0006156844319775701,0.1128120869398117,0.49026012420654297,-0.8642444610595703,0.01025005429983139,-0.000987023115158081,0.0015277862548828125,0.9654648835004613,-0.2538948363027607,0.058439543825608065,-0.00006020280312187426
1681249577451814000,7.58581396484375,0.01075681671500206,0.0006177546456456184,-0.00009671109728515148,0.11281823366880417,0.49011921882629395,-0.8643235564231873,0.009221568703651428,-0.0009987056255340576,-0.0006055831909179688,0.965485369934795,-0.2538164288050149,0.05844167967686776,-0.000060941962683693814
1681249577466847000,7.600846923828125,0.008799552917480469,0.008469020016491413,0.002303063403815031,0.112893246114254,0.48997923731803894,-0.8643931746482849,0.006216868758201599,-0.002033621072769165,-0.0001850724220275879,0.9655033966527617,-0.2537389452408905,0.058480482490867465,-0.00006495288730735634
1681249577481880000,7.615880126953125,0.009026347659528255,0.00938248448073864,0.004216544795781374,0.11305054277181625,0.48986709117889404,-0.864436149597168,0.005342409014701843,-0.005369991064071655,-0.0006761550903320312,0.9655145601538386,-0.25367810821918474,0.05856055022752528,-0.00006225183696566908
1681249577496913000,7.630912841796875,0.003543431404978037,0.011573201045393944,0.0008385911351069808,0.11322876811027527,0.4897838830947876,-0.8644599914550781,0.0037145987153053284,-0.004523813724517822,-0.001262664794921875,0.9655206615463757,-0.2536334430197795,0.05865227238304637,-0.000061496045704319
1681249577511946000,7.645946044921875,-0.0009668981074355543,0.01810593530535698,0.0040381127037107944,0.11348353326320648,0.48974332213401794,-0.8644495010375977,0.004970461130142212,-0.005536139011383057,-0.00012874603271484375,0.9655179141415521,-0.2536128505926652,0.05878571796228855,-0.00006663274857533393
1681249577526979000,7.66097900390625,-0.004701715428382158,0.020467359572649002,0.0038426369428634644,0.11378785967826843,0.4897614121437073,-0.864399254322052,0.005306996405124664,-0.0058441162109375,-0.0015674829483032227,0.9655048701455909,-0.25362516685837927,0.05894606266553834,-0.00007405130401321146
1681249577542013000,7.676012939453125,-0.0036119497381150723,0.02087695337831974,0.006361188367009163,0.11410848796367645,0.4898001551628113,-0.8643350601196289,0.005596719682216644,-0.005119949579238892,-0.0021352767944335938,0.9654883140394123,-0.2536491611391592,0.05911489593217774,-0.00008080454826404398
1681249577557046000,7.6910458984375,-0.0037381835281848907,0.0244197566062212,0.005066892132163048,0.11446447670459747,0.4898412823677063,-0.8642646670341492,0.004340469837188721,-0.003436833620071411,-0.00197678804397583,0.9654700351416668,-0.25367461497336624,0.05930308328609974,-0.0000911140621519385
