seconds_elapsed,rotationRateX,rotationRateY,rotationRateZ,gravityX,gravityY,gravityZ,accelerationX,accelerationY,accelerationZ,quaternionW,quaternionX,quaternionY,quaternionZ
2.0,0.07192912475480925,0.08412418697043207,-0.036256670344280706,0.1289613667796459,-0.35601774335021746,-0.9255375207214834,0.0217099890305738,0.014731832735857368,-0.0027599209155899397,0.9811838720074378,0.18187224865699966,0.06444828827451131,-0.00684579268466252
2.01,0.06720461660643477,0.06633059878947214,-0.03277089693421148,0.12977363356062765,-0.3565979847960136,-0.9252008207145257,0.025560399913564867,0.011951575543340852,0.0002579719865883044,0.981097262609784,0.1821947974750475,0.06484302296694568,-0.00696784272728542
2.0199999999999996,0.07049043536185227,0.06139567803034442,-0.011526304489371059,0.13038593781992205,-0.3571748134115152,-0.9248920765533469,0.02191323808560034,0.011300247084657659,-0.00925687520174361,0.9810181212014321,0.18251007555933474,0.06514570399410508,-0.007034429684427128
2.0299999999999994,0.06285344688098184,0.05360299728632496,0.012927033570014344,0.13091182626265224,-0.35774909331438676,-0.924595760250578,0.019011230200628917,0.017717194720977512,-0.012249594029095673,0.9809429028680277,0.1828159653898596,0.06542441150113545,-0.006992430361322037
2.039999999999999,0.043912549709090365,0.04167237783854632,0.037301789357438324,0.1313430182795501,-0.35824387030073673,-0.9243431768704503,0.016768287157290666,0.02479148374543098,-0.010548736308168962,0.9808793735487334,0.18307367033454117,0.06566912671225515,-0.0068716320905056714
2.049999999999999,-0.007325776801842203,0.014001246821973304,0.05017081455724171,0.1314861697876966,-0.35825639927915365,-0.9243179999676188,0.016036432258212757,0.011649497305402032,-0.002261054977374834,0.9808745605614512,0.18306603445004754,0.06578624601535576,-0.006637118748199929
2.0599999999999987,-0.04789613203239264,-0.01226464077049532,0.061453257435965386,0.13130306030742728,-0.35794269113825244,-0.9244654172259621,0.018122809228739763,0.0010217711957462346,0.006722259408227047,0.9809139675308316,0.18287983683588463,0.06574348512723995,-0.006358189863367309
2.0699999999999985,-0.07975017641582106,-0.03554557804627958,0.07150575823547456,0.1309103095451218,-0.35740327344363015,-0.9247297774354204,0.02235545701329875,-0.007513683753921631,0.015845607360708946,0.9809833274793763,0.18257026488934738,0.06559845283452137,-0.006047754220926941
2.0799999999999983,-0.09454070482215475,-0.04457802487297767,0.07945421549319745,0.1303676679917721,-0.3566088925984653,-0.9251129024937831,0.030074189900934287,-0.011779384593889539,0.023283062700451447,0.9810830590061345,0.18212221959730363,0.06538297861980069,-0.005697526536129472
2.089999999999998,-0.10791678043422655,-0.04921473995372342,0.09265656662031199,0.1297037769975992,-0.3557535144710224,-0.9255352668960533,0.03120603624409607,-0.007577043467982095,0.026747656024574275,0.9811929855411468,0.1816368739692758,0.06511699600530971,-0.005282198518106697
2.099999999999998,-0.12086924078779661,-0.05208513891895067,0.10753300700121676,0.12895858197546695,-0.35482960401740105,-0.9259942215581178,0.027848673816948652,0.00024543954230118846,0.028210596497861447,0.9813123412860498,0.1811117711298062,0.06481770615824857,-0.004819250029510001
2.1099999999999977,-0.13665610051893667,-0.06064795721051054,0.11257811635889821,0.12814469398669084,-0.3536797332339891,-0.9265466067711067,0.02025830348508751,-0.0013916340473987998,0.032011040068103874,0.9814554347536731,0.18046339124467176,0.06449368916336379,-0.0042919368475873056
2.1199999999999974,-0.1451934055253737,-0.06185380835821226,0.1251507099272432,0.12722702348831258,-0.35244808861347404,-0.9271418239690594,0.013366121523009566,-0.005525294797192656,0.03575305610545628,0.9816093180408492,0.17976847041916058,0.06412491931291374,-0.0037141482302313436
2.1299999999999972,-0.1487139414209908,-0.05871328053449357,0.14239903242416682,0.12624882888392547,-0.35118599154991187,-0.9277549158470558,0.007346659660513328,-0.009051734564411147,0.039626243429026445,0.9817676481194461,0.17905459173809213,0.06373302478490106,-0.0030902580818019574
2.139999999999997,-0.14761594100471154,-0.05637522844426674,0.16051140535494987,0.1252877700034998,-0.35006444973826856,-0.9283085698173527,0.004643547435313516,0.0030420799201785007,0.04472712359134596,0.9819105922055215,0.17840872287198284,0.06337044412578428,-0.0023518607685327937
2.149999999999997,-0.16726910341840054,-0.055159887010084285,0.1723487096480391,0.12427590049770015,-0.3488317061336946,-0.928908083375953,0.004580338341018909,0.007219938155939909,0.0421252831375046,0.9820647220161689,0.17770027690647439,0.06299360008325255,-0.001541029325073221
2.1599999999999966,-0.19746217582388048,-0.0539310503627944,0.1806601776299379,0.12322934127100818,-0.34748626114002784,-0.9295521048341779,0.005862481871660245,0.005723947452136271,0.03569227996319671,0.9822297463787113,0.17692963402940437,0.06260746579299038,-0.0006761222924102809
2.1699999999999964,-0.20887811413272603,-0.047096951599535856,0.19198763850399864,0.12215892885474751,-0.34579944072919755,-0.9303214203919328,0.004791197170584342,-0.0016063971162251526,0.03686760445314795,0.9824256343830308,0.1759765109206244,0.06221815556297521,0.00025913457686421954
2.179999999999996,-0.20227501305753345,-0.03643373869235976,0.2044720371719057,0.12112659323931838,-0.3441816685062287,-0.9310559339229041,0.004900679984471804,-0.004394485071525312,0.03564468260853072,0.9826116723049352,0.1750568557079266,0.06185975884890525,0.001264193265495701
2.189999999999996,-0.18745353847559534,-0.025107439668847212,0.21752895328678093,0.12012401330629047,-0.3426187532442465,-0.9317629042578713,0.006115965017623849,-0.003067415945717805,0.03352734879021126,0.9827898412111157,0.174163851545191,0.061525474810741373,0.0023239184006589773
2.1999999999999957,-0.20059278915767922,-0.028835780901172746,0.22916783897910617,0.11916656245445952,-0.3411452304012862,-0.9324257110053257,0.010270684285720852,0.008400405577684036,0.036808870621464485,0.9829548928761968,0.1733146951260376,0.06122745004326981,0.003467372609546139
2.2099999999999955,-0.2228975085830128,-0.029985285809772392,0.2373490677541747,0.11815295826062817,-0.3394427535598732,-0.9331750470328026,0.013092386240055962,0.008237997865728378,0.03838994167351829,0.9831404325609304,0.17234414648573299,0.060904066707495215,0.004650144188079796
2.2199999999999953,-0.24793767534478284,-0.0293805405878216,0.24389382691493583,0.11709934205293117,-0.33757393074117825,-0.9339864867855171,0.01567751280691976,0.0008215475050664784,0.03889976541949799,0.9833404911551585,0.17128532517777773,0.06056317668343279,0.005865922999129809
2.229999999999995,-0.24315889103187582,-0.028270682742403717,0.25622625698293605,0.11601834100214632,-0.3355644967059007,-0.9348441667257535,0.02405640093747944,-0.0029336965860768463,0.03984879588591343,0.9835498203066434,0.1701512697469451,0.060215001927410396,0.007145972372865911
2.239999999999995,-0.23181314255094623,-0.020133655413187776,0.2716546732257165,0.11492719311008806,-0.333676349762175,-0.9356543705486597,0.026023447573351628,-0.0038197126375235464,0.038716707847895444,0.9837447922830771,0.16907805413695698,0.059873130299175674,0.008499227277043189
2.2499999999999947,-0.21954701181885686,-0.007253695050222431,0.28801908874192017,0.11384311995828676,-0.3318692042200351,-0.9364304008176059,0.02389012100381462,-0.0010381971889624553,0.0361917676443607,0.9839291165497289,0.1680450505874973,0.05954410310282931,0.009912927664673561
2.2599999999999945,-0.24167992066667895,0.0054918853403386255,0.2930660493844291,0.11289511982982302,-0.330051342840366,-0.937186552804512,0.024097159787183475,0.018581193226688462,0.03382161120404409,0.9841043715209493,0.167002575654811,0.05929878808785469,0.011432929726170254
2.2699999999999942,-0.2691509677122434,0.008026114054780814,0.30107661872633107,0.11195425053835119,-0.3279921597856457,-0.9380212268520204,0.022639239215381426,0.02260164532612878,0.03340332453415311,0.9842970375334303,0.16583378848912303,0.05905643826160123,0.01298281541134111
2.279999999999994,-0.3003689332323748,0.0035663388720934192,0.3112169626002998,0.11101259379066547,-0.3257257527062156,-0.9389237633005074,0.019528036443048718,0.015001568741987418,0.03424094637961019,0.9845046957671912,0.1645563859097478,0.05881360060195647,0.014561978678939626
2.289999999999994,-0.3319252637997712,0.0002955294646406507,0.32206983114856375,0.11001008081741132,-0.32304359584720227,-0.9399661833040601,0.011182193752478574,-0.000693194218578351,0.033994288023438866,0.9847427867024895,0.16305977911416572,0.05854375982515078,0.016230900252552916
2.2999999999999936,-0.35566707869490605,-0.007985317625394141,0.3336576876009105,0.10891723306983521,-0.3201504632814909,-0.9410814444243393,0.008098933921201536,-0.00971638358660277,0.03269015049092356,0.9849960693726215,0.16145370049075605,0.05822704024732712,0.017938945116770945
2.3099999999999934,-0.3735120371783791,-0.01935600065154294,0.34667631608122756,0.1077430965311885,-0.31709075968148626,-0.942254350980122,0.009933130261585791,-0.013119568755560312,0.030559207931362502,0.9852609899899673,0.15976102126675726,0.05786920928613489,0.019686246139078222
2.319999999999993,-0.387800637367427,-0.025034520281123223,0.370141352526873,0.10637640464756085,-0.31385000352156944,-0.9434913301467888,0.025083825393284864,-0.006727762999114916,0.027614295096405186,0.9855348350387835,0.15797243911412207,0.05742383704857288,0.021563690867067303
2.329999999999993,-0.4085879611993208,-0.028097961177571632,0.39018921847822413,0.1049276357742923,-0.3104870486571369,-0.944764271651488,0.03352942262076937,3.963871494173758e-06,0.03128765081838328,0.9858123515868855,0.1561193966905126,0.05694335632675308,0.023530922772652313
2.3399999999999928,-0.43471558999620963,-0.028063305272183623,0.4069792734886186,0.10342253030920082,-0.3070004664386432,-0.9460721412971793,0.03559622156744445,0.0056669056153306205,0.03973678585056536,0.9860940154125659,0.15420143674123166,0.05643896235485748,0.025572540059492655
2.3499999999999925,-0.46800703923310344,-0.013114208368473927,0.4143011925413032,0.10196777846366993,-0.3030849542094555,-0.947487803244592,0.019257342984547766,-0.005384309658922655,0.047080274478070436,0.9863940534910106,0.15206097135467797,0.05595844925135846,0.02772077805968538
2.3599999999999923,-0.49605074663912885,-0.0003296660267676941,0.4203915654559859,0.10063031687249839,-0.29892842659682206,-0.9489485296352794,0.009019745948830519,-0.011118168105099515,0.05092893011407316,0.9867000103516395,0.14979634744252923,0.05553155810606573,0.029910977490210534
2.369999999999992,-0.518899678322449,0.010791877114544492,0.42589484629393115,0.09939125343180606,-0.29457371399083776,-0.9504448128870208,0.003401373685469417,-0.012763516757454305,0.05172345222855089,0.98701014558985,0.1474297120368134,0.05514952444605546,0.03213767399861316
2.379999999999992,-0.5243932785202734,0.021504254641202914,0.4362176738198236,0.09829093852465627,-0.2899903083912029,-0.9519627620600954,-0.0020247989999490163,-0.013357949380604913,0.04666416351673564,0.9873162086199312,0.14494643452069134,0.05482912884358862,0.0344322213435005
2.3899999999999917,-0.5217690399987376,0.03245462094404309,0.4554703316270142,0.0972609761170975,-0.28544215517706556,-0.9534414794635723,-0.0010806325201479705,-0.015265833069237008,0.04427447032599373,0.9876045233353782,0.14248008355970762,0.05454787419897217,0.03680773455430356
2.3999999999999915,-0.5134641606344025,0.04282500064874089,0.48035564402956626,0.09628526510623216,-0.2809289725103698,-0.9548853985042616,0.005429938958140117,-0.017773711610221347,0.04481331952837663,0.9878770643618984,0.14003077490730517,0.054297159229910394,0.03925430070233805
2.4099999999999913,-0.514908981482961,0.04116010135005796,0.48481781700205906,0.09530407850547853,-0.27653559109035364,-0.9562608330606966,0.021737957793147696,-0.013681486522675774,0.05883593232273265,0.9881181348409355,0.13764294093654772,0.054049011079716,0.04183018989870877
2.419999999999991,-0.5336328241750278,0.04351339387217998,0.491827919779385,0.09436684350632556,-0.2719332320357205,-0.9576709942637627,0.0314841875598441,-0.019479008854947858,0.06605349026314701,0.9883610345563412,0.13514925661178326,0.0538113044359676,0.04443316810393673
2.429999999999991,-0.5655574998976046,0.0500456171229362,0.49962671185648067,0.09347900270382926,-0.2671453117737727,-0.9591104603236136,0.036161376541838736,-0.031819372713901346,0.06764861005780243,0.988605325132241,0.1325616187268183,0.05358738706774579,0.047056042398590785
2.4399999999999906,-0.5872804488499147,0.07396414068464668,0.4852936993178602,0.09284697323326141,-0.2620192547086217,-0.960578848664343,0.043715745885084,-0.020279033780612056,0.06571672881297903,0.9888484174134298,0.12980335103768312,0.05346084804306319,0.04964868216484988
2.4499999999999904,-0.6368095083654876,0.09278327855303559,0.4984914864148312,0.09236445256536176,-0.25654245276268056,-0.9620998029124243,0.038636075032509015,-0.01684669170889047,0.05831778651963575,0.9890950285473322,0.12686155874500263,0.05339696746408081,0.05231584667721758
2.45999999999999,-0.7084141537600747,0.10704779147830604,0.5332973523863154,0.09201002483615185,-0.2507330474682288,-0.9636720277429988,0.023020474426661303,-0.019679021647107248,0.0463507723073532,0.9893454133490446,0.12374588074359966,0.053385917606464946,0.05505495244885495
2.46999999999999,-0.7658765290792936,0.11354023573513645,0.5490031008592389,0.09177197920231366,-0.24399325005324568,-0.9654128420669644,0.0034760660256738414,-0.014857912383377298,0.03250109683009754,0.9896140778605426,0.12014638174359678,0.053406186129709286,0.05801777540744553
2.4799999999999898,-0.808447934175189,0.1144348521170182,0.5623196139632713,0.09154051152408857,-0.2368761309873157,-0.9672018329725764,-0.004181525375665566,-0.015045867643034888,0.02811727653855476,0.9898831454719794,0.11635523262705194,0.053407731636395624,0.06105035993856525
2.4899999999999896,-0.8373129686194125,0.11106771155809914,0.5733053374696994,0.09131599828147151,-0.22943593834118106,-0.9690288891861977,-0.0014083210389004733,-0.019260849591875656,0.03159259476121426,0.990151243246902,0.11240024571645882,0.053392827175131496,0.06414316074410513
2.4999999999999893,-0.8376024878794612,0.11842388765178546,0.5765343376092648,0.09112579063010627,-0.22185560487462627,-0.9707970898053611,0.011875679631965381,-0.019025511113647916,0.03266039032302905,0.990387802244292,0.10838030778891111,0.053360876884352204,0.06727354528705258
2.509999999999989,-0.8522440673546721,0.12215031224951366,0.5808268764316131,0.0910170082644481,-0.2141502827967455,-0.9725340180091125,0.01966484833382854,-0.01854482777226204,0.037955769699751236,0.9906058988459951,0.10429750690586474,0.05334936395507054,0.07043837990129023
2.519999999999989,-0.879276481858133,0.12309382154392182,0.586262848147376,0.09098332420226697,-0.20632246269812607,-0.9742431105406711,0.0225328922006041,-0.01836762908876892,0.0468915060706454,0.9908072602848826,0.10015313852789658,0.05335611864196056,0.07363377010618456
2.5299999999999887,-0.9061345674200807,0.13428114858058174,0.5982340491327435,0.09108819987959306,-0.19807200155242308,-0.9759282581377462,0.020316804362695985,-0.033175028002433396,0.055499033189064025,0.9909857130055445,0.09579744796590788,0.053380739079665715,0.07685238321419281
2.5399999999999885,-0.9130416879735523,0.14684900456839015,0.6026662247687509,0.0913050411785199,-0.18975939792722984,-0.9775567870224933,0.01745081337865994,-0.04213314824062127,0.05832139212146767,0.9911380146923184,0.09140852999478916,0.05344160288256184,0.08011294603898274
2.5499999999999883,-0.9021081544214157,0.16077598736193172,0.6014682275219791,0.09162893593195079,-0.18139839933490845,-0.9791302409584945,0.013815509915031445,-0.04576288872711148,0.05524875189373617,0.9912651652519924,0.08699323289419197,0.05353798662981966,0.08341399960344392
2.559999999999988,-0.8859380011250828,0.17961520954772633,0.6388681796644532,0.0922352631548643,-0.17328302119384603,-0.9805265480246607,0.0031403246954960096,-0.044286461619375724,0.024306933043859835,0.9913209687865787,0.08269092336229542,0.05375743472889894,0.08683479726442075
2.569999999999988,-0.9104383537781155,0.19000470945808648,0.6796661895897782,0.09293564519430042,-0.16505851174413444,-0.9818767603170647,-0.0018389057683549594,-0.041043947738606076,0.008282715177519561,0.9913407904447874,0.07832377318528379,0.05400861968685313,0.09041413428392708
2.5799999999999876,-0.9753868261970182,0.19233393132688542,0.7236476516723032,0.09371943642695651,-0.156694932580007,-0.9831887698173505,-0.0016403905550634265,-0.03699487566943553,0.006030364036551555,0.9913275007898003,0.07387739614665986,0.054285135606992704,0.09414651300135095
2.5899999999999874,-1.206819252671337,0.17685556438679714,0.7719552605334479,0.09439291464679767,-0.14639175215027195,-0.9846856105603469,-0.001938315468786537,-0.07215594306057428,0.012815510770717168,0.9912976437940914,0.06844491357942294,0.054386863347372326,0.09830146961838382
2.599999999999987,-1.5242496554820961,0.14099210268011406,0.8100646476886174,0.09482825654992855,-0.13362016974889446,-0.9864255082011005,0.0019616229134686238,-0.10907110035433956,0.02536610189137014,0.9912954248706196,0.06178471248519378,0.054209824712120824,0.10264350222659537
2.609999999999987,-1.9224438243300734,0.0862528333629043,0.8387538489533064,0.09503366943558565,-0.11845625925903965,-0.9883964558600514,0.00986031277057707,-0.14771750725091592,0.04370484191957066,0.9913189958304348,0.05393497174081127,0.053762458511331095,0.10716558823359347
2.619999999999987,-2.3458234131936644,0.04542206189898991,0.8761015281051185,0.09470400980791718,-0.09707997300661178,-0.9906448461353704,0.023162163498778213,-0.1930893259606683,0.09138636955806112,0.9913383726794426,0.04302065135078681,0.052602215389868576,0.11206545254851825
2.6299999999999866,-2.7269849097149557,0.01239635572987918,0.9130067330792713,0.09421108915435898,-0.07282116363714129,-0.9926979851649899,0.027753471399893474,-0.22716311854098487,0.12330427975703144,0.9912656514387386,0.03069404347533518,0.05111137324458387,0.11716289756486234
2.6399999999999864,-3.0679288922326555,-0.012903261234344243,0.9493787914158519,0.09356437926424571,-0.04575639282833015,-0.9945558705167261,0.02386149309696434,-0.250147010834312,0.1396943779462706,0.9911019797766979,0.016992456064005266,0.04930069719377704,0.12245205564357789
2.649999999999986,-3.458321230082837,-0.004467148526522462,0.9698127372517228,0.09336469542784197,-0.013218779789387153,-0.9952782412916956,0.0028269097794908354,-0.23812514186100714,0.09919669187998983,0.9905720391527454,0.0005794881286297522,0.047154817989117984,0.12802498881170346
2.659999999999986,-3.798165326770495,-0.03755813376721873,1.0096290926636255,0.09316983220747148,0.021917363148647003,-0.9950492041081,-0.004568653694153409,-0.2231471773187328,0.06677195075855906,0.9897528270312653,-0.01711542013158844,0.044695251708413104,0.13377411818767687
2.6699999999999857,-4.088130338113379,-0.11160807964888675,1.0685597018869766,0.09297965173345342,0.05961694745061996,-0.9938814066156307,0.0014928669510065069,-0.20525123069265044,0.04231299192984172,0.9886481907201022,-0.03607495758034306,0.041926167347340865,0.1396970901427582
2.6799999999999855,-4.227176026806029,-0.18403020543077087,1.1063719798508416,0.09229839233656698,0.10036997507191493,-0.9902344234523136,0.03883673788140125,-0.17157268073134826,0.039955087126248554,0.9868023576367445,-0.056535350504381465,0.038332582587900524,0.1460017619963847
2.6899999999999853,-4.294237180260764,-0.25030298058621603,1.1446115492523212,0.09151571575209684,0.14139075892646746,-0.9852719001866058,0.05584219541658676,-0.15897520157746,0.046125689809627834,0.9845727741424299,-0.07715091186664369,0.034458128709615156,0.15240642282273179
2.699999999999985,-4.288401213833098,-0.31034844666294215,1.1832838270827652,0.0906303362626626,0.18268269349652472,-0.9789771590460846,0.05225139912324871,-0.1677260487108548,0.0609329202164619,0.9819545752375972,-0.0979236088165121,0.030299244991503237,0.15891234023297202
2.709999999999985,-4.319642592231433,-0.3104412224347935,1.2142936495421537,0.09020677862845505,0.2234524732203156,-0.9700771529840195,0.03273908233638312,-0.12780047978907985,0.047802826199569305,0.9785658032972094,-0.11858512995345549,0.025946042806942744,0.16558686745417125
2.7199999999999847,-4.309877545730023,-0.3547087906937944,1.2173962890719903,0.08985101281384288,0.2638653319002145,-0.9599167632751724,0.02263212262116286,-0.1022882272103214,0.030928869796018204,0.9748131913369152,-0.1391533494116719,0.021419916098957152,0.17224165525941496
2.7299999999999844,-4.257221290655242,-0.445317060564863,1.1915317904452267,0.08956261255703353,0.30391058523777115,-0.948463416443765,0.022413044679235633,-0.09209312896127356,0.010351064951327128,0.9706874615141977,-0.1596253027968099,0.016715291231574655,0.1788747755113543
2.7399999999999842,-4.064587362191386,-0.5794073331445888,1.1777986980055892,0.08842198093901775,0.34190281016666735,-0.9351244435550637,0.03537667238330297,-0.060509647791192826,0.0037333968350816435,0.9660151686707906,-0.17916605203459735,0.01131493045596823,0.18532273720962808
2.749999999999984,-3.855363533517543,-0.6095543297984994,1.1605414372094849,0.08726077525537466,0.37767925493459215,-0.9214638089059408,0.04878541827018159,-0.029888218475799616,-0.0026510690713380065,0.961230799953495,-0.1976604886006152,0.005907919112665548,0.19166699047455993
2.759999999999984,-3.6304142846340755,-0.5280643721756845,1.1393473744557299,0.08608973289088022,0.41111835280177544,-0.9074864756233593,0.06248182628061051,-0.0005989363186243435,-0.008985284205320675,0.9563345117239839,-0.2150506626687242,0.0005037133808992334,0.19790311395843546
2.7699999999999836,-3.5527961623891366,-0.43635185262208404,1.1424617287000405,0.0870599540875383,0.4420054327980162,-0.8924389294317081,0.05307300567177962,0.10444044177334671,0.008275187039123295,0.9511317093139948,-0.23155127722294758,-0.003913996664114727,0.20380428471158235
2.7799999999999834,-3.568353484405626,-0.3774505045009721,1.130565421541628,0.08864638220837597,0.472545637166697,-0.8765006608610939,0.03514142558981295,0.150669938473535,0.016365550138390073,0.9456744961341028,-0.24807350694474917,-0.00816559407852551,0.20956750122542597
2.789999999999983,-3.682845148534733,-0.35476069136024,1.1016690045704556,0.09086131655704872,0.5027618012387118,-0.8596091429586381,0.00837310106655717,0.13072578056143652,0.01387719910560496,0.9399450315421448,-0.26463910087407344,-0.012256807474020182,0.2151868184047089
2.799999999999983,-3.875981077835856,-0.37832860121188383,1.0654947545923013,0.09344660194845095,0.5341271059811665,-0.8397976670089363,0.010407837375334128,0.08172406581092675,0.031218574669482343,0.9334231947908316,-0.2822297718932514,-0.016656269650655843,0.22041738047359627
2.8099999999999827,-4.022780146890992,-0.4390930369089236,1.0063537569537302,0.09574003910030669,0.565844211073017,-0.8184721662172894,0.020203327772018345,0.03447439688962467,0.03902106772484195,0.926484213641021,-0.3002104076349754,-0.021449437234014247,0.22544473355698988
2.8199999999999825,-4.1149992077415805,-0.5403350713625874,0.9215710431012133,0.09769352094409474,0.5979224455051119,-0.7955307187320073,0.037860067440994134,-0.009916058411329212,0.03547673662455777,0.9190996364763644,-0.31859893455712607,-0.026676569734975945,0.23025510171487043
2.8299999999999823,-3.9360378494091957,-0.6646882540003152,0.8386848618362467,0.09817322023934945,0.6284513173221892,-0.7711152709915466,0.061318946429202464,-0.051834298588326,0.03626881348160423,0.9113163753698557,-0.3364260543891227,-0.032799138997839615,0.2345612419980138
2.839999999999982,-3.5504707897276884,-0.7465106151633762,0.7683980526556232,0.09801988492194644,0.6560951085192259,-0.7479426255625787,0.0767001154291865,-0.05916013276154252,0.037913030564263636,0.9038481648084835,-0.35268788775150345,-0.03898993960754109,0.23874175914905194
2.849999999999982,-2.9366589626547164,-0.7782364074892674,0.7126072929940972,0.09719255317082895,0.6804634575922508,-0.7262653422795884,0.08251095906481169,-0.02657831389461806,0.040371802365881046,0.896760015095137,-0.36716164150284814,-0.04522435395691011,0.24279687108866777
2.8599999999999817,-2.1825959978139795,-0.6925693871342526,0.7267030523444703,0.09703379793377459,0.6969099945722517,-0.7103785760095997,0.08376408421588055,0.13403724648325335,0.04281229791322356,0.8912118282417202,-0.3771535316766019,-0.0500397061905295,0.24679299414102
2.8699999999999815,-1.470982140288955,-0.5813645089937818,0.7284842689589702,0.09761164455857371,0.7092992900760331,-0.6980701368720322,0.07435486798161789,0.24729796019231404,0.04752919366243959,0.8866438284721229,-0.38477989724234124,-0.05379657205928675,0.25076785256812306
2.8799999999999812,-0.8166783661970283,-0.445577711330862,0.712207566459742,0.09903180677573307,0.717256996136525,-0.6897288571593088,0.05250197441681234,0.29801964803184305,0.054951427098020963,0.8831647917677892,-0.38981576689975705,-0.05636552265298957,0.25472034120346093
2.889999999999981,-0.4141335596581234,-0.37265939205681425,0.6610021675963659,0.10132051413043221,0.7201148352774561,-0.6864089894963868,-0.011013379089028913,0.27258912401614077,0.010462360963657644,0.8811844081577512,-0.39179585398387523,-0.05735250728014005,0.25828267144881634
2.899999999999981,-0.07457637590898619,-0.3425330705531994,0.6139821371701878,0.1034666499651559,0.7211337212958685,-0.685024353168477,-0.05232906920535897,0.23659063431008423,-0.01810458625566933,0.8797782024428972,-0.39258810882188083,-0.05798489779517013,0.26171911053366126
2.9099999999999806,0.20302422231979877,-0.36089658890607185,0.5741345411871388,0.10538746573384498,0.7202106457147682,-0.6857037837409495,-0.06409560157981337,0.1922031130580543,-0.024175093830273393,0.8789838784472608,-0.3921118957269961,-0.05827823872560176,0.2650250337352707
2.9199999999999804,0.31634589178788786,-0.38639064719422295,0.5566864451395014,0.10681264652552457,0.7176449419537385,-0.688163177482803,-0.016387137182895868,0.12190648449926364,-0.018717306975480307,0.8786835108334451,-0.3905113755228104,-0.058461937948699534,0.2683115601719578
2.92999999999998,0.4273311677238093,-0.3771169887562734,0.53214105461991,0.10813677091239923,0.7144549934183102,-0.6912640869892304,0.021447388175049063,0.08205008452372352,0.001567102380305217,0.8785677116382121,-0.3885076108459206,-0.058540602166120156,0.2715620679881319
2.93999999999998,0.5468771857455696,-0.32377552934995946,0.4971352206843203,0.10936891800528996,0.7105976476712214,-0.6950444325262062,0.04274910277702953,0.08215174700504681,0.0396252690527237,0.8786486601433531,-0.38607714733762144,-0.058495309468795754,0.27476879558009515
2.9499999999999797,0.6831464665456699,-0.2738614104719663,0.47398650707390894,0.11076356299311732,0.705573564898913,-0.6999069027495126,0.03372020024602288,0.04548192754486721,0.0614755577361982,0.8791467546218099,-0.3829957878295162,-0.05792593621587526,0.27757907161604545
2.9599999999999795,0.8051150496867305,-0.22593547201990358,0.4688003012821139,0.11229616688744905,0.699886893037944,-0.7053438313209661,0.01809295805741687,0.025813703055949787,0.07682076601547204,0.8927385642023474,-0.3792901565006403,-0.02290121418719982,0.19795582761622033
2.9699999999999793,0.907316453180897,-0.18028973160491643,0.48576935144812305,0.11399312047524328,0.6934423085110945,-0.7114321213637397,-0.003559633853712739,0.03102001952830402,0.08511172993693208,0.9231495967421802,-0.3748339660301611,0.05642897899772832,0.012263151579474385
2.979999999999979,1.031107598351725,-0.09347388967678666,0.47563884406860896,0.11649008633653805,0.6857794321217546,-0.7183837307743216,-0.0069478798810374415,0.060945287072103435,0.1024755380572423,0.9269216228656882,-0.37006193873873466,0.06204832552222589,0.001989204800605236
2.989999999999979,1.0903195057949702,-0.017542517942188272,0.4546956285199751,0.11922472607021598,0.6776987867436838,-0.7255666283103193,-0.009527384599575486,0.07373799078359618,0.09340897603979503,0.9288513018447735,-0.36507592821237456,0.06263596090720945,0.003934050313411187
2.9999999999999787,1.062139789747468,0.04015113820789353,0.4219912720124142,0.12219878610402876,0.6691797360433187,-0.7329745864025845,-0.012745049992706169,0.061570846739240064,0.048553473984376344,0.9308355650973299,-0.35983655658815566,0.06346203342556123,0.005634306326752318
3.0099999999999785,0.9397871556614875,0.08929058523603256,0.4012935052363572,0.12552635740171997,0.6615289276209663,-0.7393003974293187,-0.005773836371613334,0.04299164533317194,0.03361306089764903,0.9325221929540654,-0.355194127164419,0.06461354339600192,0.007072329136070015
3.0199999999999783,0.8204420373041076,0.12222522460716637,0.3772692726446795,0.12886995566948778,0.654410689912394,-0.7450523689182447,0.0002897896510676704,0.027517132966156446,0.028764599453648287,0.9340525381099702,-0.35090258775127253,0.0658298277261807,0.008400679419050965
3.029999999999978,0.7151996013099209,0.1340600666978948,0.34744973195481943,0.1321977168097924,0.6479234420353479,-0.750140052729086,0.004036849051900278,0.016941578361636192,0.034441005777238465,0.9354022777458318,-0.34702413499915546,0.06709947122258407,0.009607965292206273
3.039999999999978,0.6461717545546227,0.15240880315379898,0.3457755052691583,0.13551125000317954,0.642540887727081,-0.7541543352945719,0.01505036956565283,-0.0017476099842558442,0.03595048910795773,0.9364616695091179,-0.3438560801649263,0.06840847830125388,0.010745377789301883
3.0499999999999776,0.5879290599055461,0.17297685005821395,0.400615634441667,0.13918393168490092,0.6373860912394741,-0.7578538487289499,0.02094748970216899,-0.010026289829157086,0.042175608014237045,0.9374330038003313,-0.3408629519390063,0.06986161264446199,0.012036117447241803
3.0599999999999774,0.5403885065914998,0.19585976524992552,0.5309401006033557,0.1433594996216142,0.6324164864003553,-0.7612429924307362,0.01883241709635293,-0.002803335416347733,0.055481519884922725,0.9383163180451211,-0.33802863276236533,0.07151114485728809,0.013549208676538462
3.069999999999977,0.43801754331303583,0.16950615118886045,0.5428674170276842,0.14824719823015475,0.6279748381641115,-0.763965321796185,-0.006793116509148947,-0.015696158250332687,-0.012522597043650031,0.93900621950109,-0.3356134462579848,0.0733220739440416,0.01572020437786315
3.079999999999977,0.28873201419931205,0.12335067499491899,0.5250451721738423,0.15273162589473208,0.624441464528442,-0.7659873091891871,-0.021161585273586428,-0.01895511152879773,-0.07159548894496766,0.9395064720376836,-0.3337511949195047,0.07493435826285759,0.017873731650491408
3.0899999999999768,0.07955850504693696,0.0554307818633359,0.4805065559302373,0.1565419224443169,0.6221393746402883,-0.7670948623720386,-0.016223099751070055,-0.005691670552628744,-0.10691412933145608,0.9397608298203297,-0.33262536066583054,0.07624007611362674,0.019913628847076207
3.0999999999999766,0.08393078819149531,-0.05943285750241559,0.4657274912144618,0.1592760732099166,0.6207654783772388,-0.7676435610310346,-0.017336956248412663,0.00967494270307466,-0.12934684843825767,0.9398545338118478,-0.33206190004469566,0.07689464387895929,0.02219122554527553
3.1099999999999763,0.12981005975511495,-0.14517138293784998,0.43413624700235587,0.16134745515258322,0.6192690659751482,-0.7684204824809894,-0.007094044019871966,0.02448848876370505,-0.14273806228484048,0.9400057079515891,-0.331404039687041,0.0772060435173671,0.024442882501076867
3.119999999999976,0.2047699563190383,-0.18091603301648626,0.37328632931933226,0.16260360418487657,0.6174524830506931,-0.769617872190454,0.020800764945242228,0.03817049003296938,-0.14473798064030757,0.9402657586211328,-0.3305224608156399,0.07710945732228074,0.026620559993611764
3.129999999999976,0.2891325042708407,-0.17168423875171523,0.35931418236224677,0.16349602577650282,0.6147704558560357,-0.7715695418897169,0.017019619213792442,0.10246078514522827,-0.12312390869443078,0.9407290264533182,-0.3290825284111468,0.07693293252029373,0.028492902801506556
3.1399999999999757,0.3572276742643637,-0.16222871538666975,0.35531706705144617,0.16437360767177583,0.6117012263374382,-0.7738179856846141,0.005938052461299125,0.14725494055261862,-0.11046411478241017,0.9412694892501928,-0.32740752255733685,0.07677013461322268,0.030319991743567115
3.1499999999999755,0.39910390131127493,-0.15993512927522313,0.3586175805936541,0.1652893629953546,0.6081895836494389,-0.7763903514780036,-0.010923454621918993,0.15406535224152743,-0.11531144172645089,0.9418930380002336,-0.32546941721481915,0.07664146958587484,0.03212942744956871
3.1599999999999753,0.4169013419829166,-0.16333481642804495,0.33445540610790525,0.16614569322072673,0.6044750986584273,-0.7790978458213627,-0.019820040917993973,0.1364531655300786,-0.11075637579995602,0.9425501691779334,-0.3234087737359359,0.07652114243948432,0.03385751379979551
3.169999999999975,0.44649821264774525,-0.16005122244150724,0.3094074123902438,0.16688515764947875,0.6005550265734342,-0.7819661470172358,-0.021529639607086225,0.12039244287826609,-0.09816262896103645,0.9432511816779799,-0.32121717517186565,0.07638056365874522,0.03548412987244345
3.179999999999975,0.4989119845706025,-0.14530775700156828,0.2880391604028625,0.1674535212748157,0.5963520697472153,-0.7850600513615623,-0.01351105377159435,0.11124807282388215,-0.07477879739516685,0.9440143637142978,-0.31884415578960196,0.07620690150807899,0.03696766695020071
3.1899999999999746,0.7072634903361119,-0.16588829628306961,0.2799151943797494,0.16775208887985216,0.5908377723206297,-0.7891404630282923,-0.006529278284915281,0.09359521368940799,-0.03283169009077263,0.9450399306046869,-0.3156809726816222,0.07595677429917387,0.03831840712908552
3.1999999999999744,0.8943504398634528,-0.1470158593831836,0.27711651188971487,0.1681642128640789,0.5842453895706335,-0.7939369540307629,-0.004370367079204528,0.07952939964928375,-0.001356850103940311,0.9462557677485945,-0.3118890370415569,0.07581221278416322,0.03958670997192727
3.209999999999974,1.0157399054730203,-0.05776440296081345,0.2801644039572918,0.16881300380814598,0.5761915560711779,-0.7996807373102669,-0.009728795062890143,0.07293665913603613,0.009573613050839489,0.9477232584974634,-0.30724991151478553,0.07585230561911145,0.040749856920544135
3.219999999999974,1.1172674917388081,0.047964966414479705,0.2713499346778668,0.17047312189687147,0.5669956624900189,-0.8058436500372591,-0.02252783382124085,0.08469007498740913,0.05817524444447564,0.9493103699058986,-0.30199527225621725,0.07655757621000882,0.04159438746013353
3.229999999999974,1.198117199044629,0.1463959249935398,0.2655710790436053,0.1727200969072283,0.5572434212694198,-0.8121453766971718,-0.03657934581290657,0.08856823269548997,0.09228831518484809,0.9509377031137802,-0.29645452339133505,0.07762966236220091,0.04229770210957005
3.2399999999999736,1.2493150839918479,0.22913076686416223,0.26743600415398894,0.17570894117742725,0.5468286974189327,-0.8185825214393561,-0.05103793250532937,0.07538368736205515,0.09413755899321186,0.952604680210638,-0.29057936147203384,0.07915809601472007,0.04283925869412441
3.2499999999999734,1.285840579263965,0.2806586259435265,0.2341516036805375,0.17924266205852324,0.535905047650779,-0.8249738004465897,-0.04108491512007706,0.07457391145894096,0.08484725342891676,0.9542677015617737,-0.28446226204299985,0.08106413803963713,0.04311095106822979
3.259999999999973,1.3054768212262686,0.30946216460018344,0.18958415422926245,0.18281286953620435,0.52482480117085,-0.8313025729656749,-0.030064600096723997,0.0778291171632551,0.07691735188938882,0.9559206584485241,-0.2782696862015139,0.08304520065625522,0.04319546744729084
3.269999999999973,1.3000604962782367,0.30734998104728745,0.13445306099057203,0.18631222113778206,0.5136030789165423,-0.8375365723500737,-0.023180431977118797,0.08496040550510088,0.07400610894875453,0.9575575203020732,-0.27200810501645334,0.08506145518710104,0.043028458461175784
3.2799999999999727,1.2353159480928328,0.28186317481159046,0.0951026191563687,0.1892466956204548,0.5028152983336718,-0.8433719450792206,-0.011371147919117527,0.07560063779210187,0.05936890721372039,0.9590990586502498,-0.265989908766675,0.08684460212630535,0.04258697928174085
3.2899999999999725,1.1596528756666356,0.24633099360877939,0.07071344358178108,0.19189216692265706,0.49244809119964955,-0.848893385867873,-0.0016642732571756828,0.06730958268945224,0.046835105696328115,0.9605585483870731,-0.26021577036249294,0.08847628277889565,0.0421096211746033
3.2999999999999723,1.080717853422783,0.19949484731890518,0.06821790203461019,0.19418383007380868,0.4826989005716553,-0.8539733711832759,0.003067904048993625,0.0652644053818872,0.04108501827894964,0.9619003055250466,-0.25480250592650777,0.0899058058886037,0.041642641702665247
3.309999999999972,0.9920096629872058,0.1528150564306744,0.06914168697477283,0.19595957866131383,0.47390010503393204,-0.8584665825817561,0.01699488901289507,0.04609090225992951,0.0317069282786235,0.9630820053194978,-0.24993896844857813,0.09101637104867724,0.04129819044956966
3.319999999999972,0.9196698084403354,0.10369493771282408,0.0691758611745118,0.1974100011802494,0.46550664905898037,-0.8627281929194887,0.027962394014046835,0.031808520951894015,0.024820344142205145,0.9641996429963211,-0.2453084178035832,0.09193292511405256,0.041020523981998576
3.3299999999999716,0.8795420504343469,0.050148832305927205,0.06662341207629574,0.19842573719831677,0.4575657645938972,-0.8667438750144947,0.030955986289092532,0.03126379890941534,0.02345640788560753,0.9652486050837679,-0.24093700545856295,0.09259351698954658,0.04082728262963672
3.3399999999999714,0.8368193151906537,-0.01217723779707635,0.06703831944689399,0.19876724294858267,0.4500323793712751,-0.8705880083816352,0.03737307875563393,0.024526906384539676,0.0158239164806999,0.966247452932099,-0.23679405820594487,0.09287198996739676,0.04073587134002267
3.3499999999999712,0.7783219739407609,-0.07787719651430278,0.07528405628689674,0.19871507794406595,0.4428486392329541,-0.8742850952731935,0.04316943250642683,0.0176454180447642,0.008926975291290554,0.9672029535217094,-0.23284896816301387,0.09291600829818132,0.04075290719665774
3.359999999999971,0.6914928971515519,-0.14704824571678676,0.0970657732285417,0.19814767719392684,0.43618272866447144,-0.8777644580115246,0.046741348149215364,0.012445524864911503,0.005362008302890383,0.9680941285618286,-0.2291975781373478,0.09264705906911495,0.04093828475423821
3.369999999999971,0.5860179180517435,-0.19639408722972385,0.0994857246475041,0.19697259395238087,0.430500143484731,-0.8808227447992905,0.05062829647491882,-0.018660901041852182,-0.0029872794166525985,0.9688664772439072,-0.22609353890365513,0.09200560892937493,0.041337648908079186
3.3799999999999706,0.4684948537579194,-0.24080321647520025,0.10549383274355102,0.1955084083184888,0.42555632719169995,-0.8835547104164426,0.05210068654226065,-0.0478007458004094,-0.01147690655589662,0.9695494011748066,-0.22339657771102092,0.0911833245523435,0.04184593347056951
3.3899999999999704,0.3344185716578426,-0.282588008348042,0.12493445433370974,0.19370170821952423,0.4216821336586611,-0.8858096856118343,0.04887287588198872,-0.06435893195550424,-0.018600737694243922,0.9701027833788207,-0.2212871197127263,0.09014420089870513,0.04248836702163418
3.39999999999997,0.21073375115848994,-0.3137665957640393,0.13178416502493562,0.19154644806538335,0.4191897568791858,-0.8874587553318622,0.04285985037659285,-0.08074457584505754,-0.024101645347769006,0.9704902590820986,-0.21993539113908048,0.08886646004874435,0.04333112193187539
3.40999999999997,0.08924768044170099,-0.33842749705671765,0.13519477746928024,0.18923315386074654,0.4175095150070148,-0.8887484283833983,0.037020740173832146,-0.0936150752862296,-0.028704515009586325,0.970780494864863,-0.21902598957825734,0.08747827889695738,0.04426232069009258
3.4199999999999697,-0.03177157126026167,-0.3542405924721421,0.13652169290779223,0.18673910238470248,0.4169094922574573,-0.8895580011383355,0.032551625378398175,-0.0996635369504972,-0.03214799453980599,0.9709415607029632,-0.21870303167955513,0.08596194083346924,0.04529274032891854
3.4299999999999695,-0.15430007404155,-0.36288070700535374,0.13786919138558126,0.1841171865827373,0.41765642413586673,-0.8897524878484312,0.025076439525423162,-0.10109442080933222,-0.03959479850580371,0.9709380231283039,-0.21911006941128178,0.08433769207871386,0.04642203868449863
3.4399999999999693,-0.2821532549830166,-0.37078518194350535,0.14108884547428868,0.18143880782849356,0.41927682143596234,-0.8895395274379075,0.01936023844135926,-0.10141719798052139,-0.046092745751461425,0.9708262506238907,-0.21999010880419106,0.08265874366567022,0.04759854424139935
3.449999999999969,-0.4201516973266508,-0.38007231130208174,0.14807948916369063,0.17869756862850658,0.4221219435146806,-0.8887499779095961,0.018396585966288636,-0.10134913883497096,-0.04907481877030856,0.9705617961420616,-0.22153312956433696,0.08091251710905845,0.04883081417540825
3.459999999999969,-0.5049351270515066,-0.3751892496509983,0.13722648049556932,0.17594236866263926,0.4260973316588502,-0.8873950649346688,0.015270285855767673,-0.0989824950325356,-0.04591554948185194,0.9701462445611285,-0.2236919568943461,0.07911785108189598,0.050127740678041266
3.4699999999999687,-0.5702880659781427,-0.36853275320563206,0.13049591507818661,0.17322466066563996,0.43058180829057024,-0.8857644636186761,0.01169057558574237,-0.09631707140357564,-0.04151025718081646,0.9696577972902313,-0.22612901104348676,0.07732634672472356,0.05143297847755427
3.4799999999999685,-0.6182186892018521,-0.36430992329165535,0.14004916846265136,0.1705909651755111,0.43563681774296553,-0.8838047171839422,0.008102184189959956,-0.09402331918321438,-0.037166714943199855,0.9690830141385327,-0.22887869601513733,0.07556234689117905,0.05272756806817155
3.4899999999999682,-0.6385191814317223,-0.3528510368156305,0.13104184411116337,0.16801697390161618,0.4410051908765845,-0.8816244893397419,0.004845939732847011,-0.06307095695705661,-0.02527329651848103,0.9684486123457698,-0.2318036787917309,0.07381178388874185,0.05402323595704341
3.499999999999968,-0.6444867294831138,-0.3384919051857404,0.11989733206661769,0.16551165415439945,0.44644717963108915,-0.8793607762321705,0.0019161876037919522,-0.03686971376933335,-0.015786963630102607,0.9677934225028039,-0.23477025241144012,0.0720984300413063,0.05527836882647837
3.509999999999968,-0.6326081927646814,-0.3212885652864819,0.11282353835721881,0.1631257172887885,0.45190090254268056,-0.8770208722152197,-0.0004684804839058358,-0.0342134082602998,-0.01498033807184038,0.9671214603872172,-0.2377442686186331,0.07045857974546793,0.05644610182821344
3.5199999999999676,-0.6103294672956114,-0.3037583918256943,0.11035855346728446,0.16091720974519994,0.45714513268003054,-0.8747017716175163,-0.0007644674813456757,-0.01842963975376658,-0.012259006633836222,0.9664556781510779,-0.24061092045349583,0.06891782893979236,0.05756284007061384
3.5299999999999674,-0.5771368840410747,-0.28515926506403366,0.10269298287014993,0.158804604672136,0.462186667831313,-0.8724409428171618,-1.2134978253427499e-05,-0.004375700984686369,-0.010000570413866934,0.9658069010893563,-0.2433687021696657,0.06743898652330961,0.058627154056250914
3.539999999999967,-0.5250445244679053,-0.2643614010207421,0.08121559362472978,0.15681484410732804,0.4668854005440681,-0.8702984729436051,0.0020080643667950895,-0.0007416416741868959,-0.009727444061437582,0.9651926094084573,-0.2459397690765604,0.0660472011661896,0.059601205260159176
3.549999999999967,-0.47189265978048994,-0.24194808502442894,0.07068274483722536,0.15498829424817442,0.4710343196635863,-0.8683849755739095,-0.0005067196767772086,0.0019252450486403785,-0.005115882580830294,0.9646451946905505,-0.24820745890217322,0.06478422985389898,0.06042930272086256
3.5599999999999667,-0.4144397707220473,-0.21986510923287442,0.06134754130726215,0.1532657982628398,0.47481707862882283,-0.8666329716604674,-0.002793360175803037,0.0050713072465548474,-0.0006600125503238969,0.9641436159741257,-0.250273723753941,0.06360029698394563,0.06118292569360809
3.5699999999999665,-0.34775021910976367,-0.19941078873044218,0.04881510850033245,0.15169223192370707,0.47806248052546263,-0.8651252914918547,-0.002102839010901154,0.009834321302609412,0.0010904363994494101,0.9637103594663552,-0.2520448887620523,0.06252686749779517,0.06184574086230805
3.5799999999999663,-0.2818181485895316,-0.17917956578924968,0.03949207488289244,0.15028870071185674,0.4806426776689808,-0.8639391976573473,-0.0009559751032283544,0.014961731070070199,0.0028778252269493912,0.9633676840687553,-0.25344798701940613,0.06158808753228444,0.06238691934631017
3.589999999999966,-0.2193345795809071,-0.15924547921606044,0.030531024254301264,0.14898842479271734,0.48281892678873234,-0.8629523657453042,0.00034267835853872195,0.019564976141560365,0.004394426618561703,0.963081018159854,-0.2546274109835507,0.06073087329981389,0.06285768910430675
3.599999999999966,-0.16452554254296514,-0.13988064457891047,0.020550814479474946,0.14783203180376878,0.48443229047623837,-0.8622470159793646,0.0017325226921669377,0.02272213993229244,0.005252185856129879,0.9628733629312015,-0.2554949959114981,0.05998712498928758,0.06323366472562743
3.6099999999999657,-0.1251758767484749,-0.11847880792707588,0.00773388763564971,0.14682617661990086,0.4856081202767762,-0.8617572907272816,0.0024231987874566148,0.02350918684700693,0.005970591673072277,0.9627286030444907,-0.2561194986096726,0.05936145980504269,0.06350158487307588
3.6199999999999655,-0.093225005269858,-0.09819018413544078,-0.005207996907696329,0.1458988434911238,0.4865637371049269,-0.8613761586974521,0.002840499550502717,0.02239201915396266,0.006664561743274881,0.9626166785826007,-0.25662071097176464,0.058801447243413275,0.06369767917488539
3.6299999999999653,-0.06955747484297847,-0.08188343903451004,-0.01667487443496779,0.145067902993636,0.48725865073287045,-0.8611236718927424,0.0030319759797810594,0.018134377145994935,0.007386536025146567,0.9625450967973374,-0.2569747854964846,0.058326908349830155,0.06378701391022146
3.639999999999965,-0.055364354853742526,-0.07045710477341746,-0.02662936424300007,0.1443196627167368,0.4878098078738158,-0.8609372577510426,0.006005192784276193,0.012940309851158639,0.0076064643344883375,0.9624964439386966,-0.2572475018919222,0.0579221428236744,0.06379059062829674
3.649999999999965,-0.04587336283465752,-0.059362930944127645,-0.03542850702128877,0.143621259025295,0.48829564044475754,-0.8607787728729721,0.008161948778109409,0.008730601308279167,0.007259181351755665,0.9624581726110003,-0.2574833670380309,0.05755763999635186,0.06374708899815329
3.6599999999999646,-0.0417953468274948,-0.04581341171311465,-0.04234807881166031,0.14299216446916582,0.4887144487222852,-0.8606458373729436,0.006395736324518309,0.007621622680469812,0.00582710166296161,0.9624304971323805,-0.25768159825413806,0.05724713678593254,0.06364325904920666
3.6699999999999644,-0.041059808492889704,-0.03625079877977055,-0.048042052396763124,0.1424154645857964,0.48912928060888855,-0.8605057055418738,0.005830489416167744,0.0044539347655335685,0.0031580933341745746,0.96240457370586,-0.25787691411322683,0.05697876514756025,0.06348425840421927
3.679999999999964,-0.04232158864809006,-0.028612778923747202,-0.05241751556197064,0.14187520896906958,0.4895576913143498,-0.8603513707712104,0.00572874848797929,0.001724478119191531,0.00046739998779131984,0.962376601773635,-0.2580800917007233,0.05673569003204989,0.0633001871009476
3.689999999999964,-0.04634081107859625,-0.023076603492896502,-0.05426184511841426,0.1413914952453785,0.49002419751705045,-0.8601654185282505,0.005958710750061934,0.001623374021206961,-0.0013831618433196387,0.9623420477937349,-0.25830576976690695,0.05652768477071488,0.06309108076215657
3.6999999999999638,-0.05400333917166677,-0.01399566122461544,-0.05346429366106515,0.14099326929912007,0.4906027027334294,-0.859900890757661,0.007330322115963418,-0.0008709477638421791,-0.003099981650515663,0.9622881974564788,-0.25859692269511936,0.056365878873129965,0.06286405209840965
3.7099999999999635,-0.06283428240267651,-0.005401387874633356,-0.05230714396585845,0.1406490470271732,0.4912299251013719,-0.8595992223810617,0.008582288186139807,-0.0032572756522967934,-0.0042682854305997,0.9622248950030835,-0.25891760655628443,0.0562318280134236,0.0626333759785842
3.7199999999999633,-0.07196150688711059,-0.0008705499010912051,-0.05224230600694256,0.140383044127809,0.49190056246033687,-0.8592591557738405,0.0086249897992886,-0.0034914604972952194,-0.004070398939210995,0.9621512749653364,-0.25926648750892745,0.0561362163403213,0.06240687209248455
3.729999999999963,-0.08172242485619065,0.004265616848970733,-0.05059492992589126,0.14019642642395413,0.4926548730187516,-0.8588572139552294,0.006271953907127389,-0.005010401393266853,-0.004948245443479583,0.9620614661557859,-0.2596658455860589,0.056079849984833605,0.0621799220362027
3.739999999999963,-0.09235206106071768,0.009459788743456458,-0.04963406965698329,0.14004519540920948,0.4934705039601054,-0.8584135715795947,0.0038067871746016936,-0.006909660988102539,-0.005568064513657373,0.9619607996674752,-0.26010116888658347,0.05604036346837683,0.06195282882916098
3.7499999999999627,-0.1048607492157242,0.014308870212677498,-0.05189934871675541,0.13992573203882783,0.4943862245942406,-0.8579060207650393,0.003033020981823608,-0.008789652836204417,-0.004573382279085665,0.9618435585091611,-0.26059402463929254,0.05601487900931078,0.061725711609716113
3.7599999999999625,-0.11435782165663033,0.018889669987635565,-0.051750491309522625,0.13985298602284832,0.49539358282543805,-0.857336311026702,0.004099187626369764,-0.00908341418907961,-0.002813523088688001,0.9617104639992292,-0.2611401073499595,0.056013452395873055,0.06149131384852914
3.7699999999999623,-0.12216652654523392,0.022838244624173408,-0.05082953714945236,0.13980547023043308,0.49645435554262707,-0.8567303863241786,0.005218563485798174,-0.008984581699545415,-0.0006764051890267286,0.9615679429830344,-0.2617173551577185,0.05602419114224857,0.06125584430225493
3.779999999999962,-0.12783352667001005,0.02521373570051814,-0.04985950050191424,0.13978842213469428,0.4975861508660125,-0.8560763341488226,0.004839788498206016,-0.009182617137255458,0.001856505723682865,0.9614126020570517,-0.2623362567273147,0.05604824614588407,0.061023832076839944
3.789999999999962,-0.12488467415611633,0.02705709037290557,-0.04890132237136889,0.13980795783770056,0.49867945610968284,-0.8554365304733189,0.00636344085729128,-0.006843583717911866,0.004143238266058669,0.9612606488132692,-0.26293590078085527,0.056091402750814486,0.06079656519926391
3.7999999999999616,-0.11718815328789128,0.02920831682988733,-0.048534698188420544,0.1398417659920014,0.49973898274889433,-0.8548127491068582,0.007982979467182932,-0.003839207231838691,0.005732820569332426,0.9611129900089513,-0.2635173441398114,0.056143883836279114,0.06056646083428143
3.8099999999999614,-0.10368799944856977,0.03278737576937915,-0.04991455612097864,0.13988272372900912,0.5007352311312024,-0.8542228466758798,0.00805368409885669,-0.0013031580793824438,0.0054879860814111584,0.9609748274942914,-0.2640632633497155,0.05620566203634673,0.06032335023617373
3.819999999999961,-0.08009407475634592,0.032017779102654596,-0.05090098725652066,0.13991699634005872,0.5014842177743745,-0.8537778023355004,0.009460571578339471,0.0028475874354010394,0.005570367485868648,0.9608752115007019,-0.26446960968062594,0.0562748101647954,0.06006544252247625
3.829999999999961,-0.053495072778391446,0.029358463400232487,-0.05192482732975098,0.13992930654941307,0.5020780425315332,-0.85342688602614,0.011072403074031508,0.007160123724526619,0.005136256096073091,0.9608006234880632,-0.2647875041202035,0.05633943438920914,0.05979777905684112
3.839999999999961,-0.028086761668724994,0.02538003288980561,-0.053470880628075194,0.1398809137809048,0.5024499590973727,-0.8532159086224266,0.01193282689460718,0.010300241458878756,0.0027733964043810165,0.9607632134412436,-0.2649774677082955,0.05638250524167657,0.059515387881273855
3.8499999999999606,-0.009434964966465403,0.019957566655562975,-0.05384561199730213,0.1397984521060593,0.5026075186606455,-0.8531366278323879,0.01297037523857471,0.012924195098700002,0.0017546885266361784,0.9607598675648031,-0.26504582379691466,0.05641276318894866,0.05923545207129408
3.8599999999999604,0.0043991988548303775,0.014142965160216934,-0.053489853639011396,0.13968972622840095,0.5026666945739341,-0.8531195572010152,0.01334295682945622,0.014573898956249649,0.0014379259816894219,0.960772450037696,-0.2650580294240329,0.0564310118083945,0.05895877316905207
3.86999999999996,0.010359643043074199,0.008680219552567495,-0.05210326275803544,0.13953500470929314,0.5026498832665853,-0.8531548054374138,0.011396582124447113,0.013687340389461204,0.001868993277669967,0.9607980458340213,-0.2650260536898936,0.056425158627824365,0.05868976259829063
3.87999999999996,0.01387058888381917,0.004669366746684779,-0.047013870981027224,0.13938205423868014,0.502608410691152,-0.8532042195630131,0.01070974220807274,0.011788134230971442,0.0021500852649301815,0.9608255041765241,-0.26498211844985614,0.05641247288033848,0.05845103103497194
3.8899999999999597,0.016602272010794394,0.0010864705184652648,-0.04010253464958971,0.1392289283129406,0.502547715607984,-0.8532649587234364,0.010364203138491053,0.010010117398495935,0.0022821835326554203,0.9608544864565988,-0.26492875134558797,0.05639384556776012,0.05823521138559507
3.8999999999999595,0.01967390991216888,-0.00281034099272057,-0.03157196187457485,0.1390731090560467,0.5024527570532102,-0.8533463177858146,0.009647107455285507,0.00984121408186288,0.002099601426294977,0.9608862955020587,-0.26485840412685296,0.05636368536399922,0.05805917664602729
3.9099999999999593,0.022784393007146148,-0.0068909117435322015,-0.024181010384012328,0.13893995561412606,0.5023381527194188,-0.8534354495236299,0.008160423332428356,0.007754375870568255,0.001658615892667466,0.960917417835301,-0.2647806426267887,0.05633363412668874,0.05792721149181819
3.919999999999959,0.02561577150907901,-0.01088948932794219,-0.016062496314981262,0.13881650030210313,0.5022021254827818,-0.8535355603646898,0.00654127573183738,0.005717162383100482,0.0010722695704789666,0.9609492254885929,-0.26469339911107936,0.05629928481210189,0.05783104026882207
3.929999999999959,0.027437637618262168,-0.014370702903902344,-0.003982150760969017,0.13869735606114475,0.5020176005917933,-0.8536634669608069,0.005452563015539675,0.006307689612662342,0.00031712108019866115,0.9609842694862166,-0.2645830486783609,0.056250016251195176,0.05780149411170633
3.9399999999999586,0.031051774105471133,-0.015263625288059635,0.0069689711472405635,0.1386412871917283,0.5017972627646362,-0.8538021097007046,0.0045792245889100585,0.0051459290949424485,-0.0008156953552942804,0.9610186451044376,-0.26445869991725657,0.056218547478960865,0.0578297241437965
3.9499999999999584,0.03534431153381711,-0.015221678851091883,0.01770957465210342,0.1386237774330797,0.501542898077687,-0.8539544149538247,0.0035770186479073657,0.0036892055365521873,-0.0017537072889456822,0.9610542312157475,-0.2643192174094585,0.05619725018955172,0.05789699515744303
3.959999999999958,0.03959471790092336,-0.015400779308980093,0.029251731848429722,0.13865725081924582,0.5012162327195321,-0.8541407636834435,0.0018180353228039992,0.0035896080878708714,-0.0014760476818138873,0.9610950620102537,-0.2641449232898235,0.05618780401752556,0.058024262300223825
3.969999999999958,0.050215504406860935,-0.01815125395009547,0.04159344919637695,0.13874634649293172,0.5008033903949551,-0.8543683577808199,0.0035323063716465363,0.0020149746724029156,-0.0027182301585639114,0.9611427057043235,-0.26392847756244825,0.056192092218609664,0.05821495648575511
3.979999999999958,0.06281137878134449,-0.020458232109530777,0.05460230179498393,0.13887080303889923,0.5003108151239642,-0.854636672003842,0.006301061974436612,0.0004521327380464735,-0.004086635877123783,0.961198078505714,-0.26367163767363105,0.056204083566351225,0.05845215698017634
3.9899999999999576,0.07332786030354356,-0.017316442088992114,0.06890767177936413,0.1390444047224387,0.49964941590414846,-0.8549952941866933,0.00785298014200084,0.0011135716065280655,-0.0036772634019508347,0.9612720944680273,-0.2633270404625933,0.05622438994899229,0.05876837153675508
3.9999999999999574,0.06426553917680476,-0.019391784041159734,0.07776400677019933,0.13926829556592046,0.4989956190879872,-0.8553405040992125,0.007505763779114724,-0.0037718221325674546,-0.004619345392705658,0.9613389560786139,-0.26299240019031445,0.05625546504402247,0.059141058092824834
4.009999999999957,0.047009499841120655,-0.02538993448381739,0.08101773331335797,0.13948481352349998,0.4983993047891677,-0.8556529727093001,0.006771049397279412,-0.010753186636166086,-0.0059605296267987926,0.9613958603547004,-0.2626909991228271,0.05627547716323458,0.05953541056824632
4.019999999999957,0.029178273122024936,-0.038270654801033546,0.07125896753255498,0.13959286605017937,0.4980132853781959,-0.8558600973398379,0.007556202015461611,-0.017025605577798964,-0.006697360433444172,0.9614256160634188,-0.26250236102313523,0.056235571931083805,0.059923810186297374
4.029999999999957,0.025657021846766936,-0.04788018075611864,0.06717026507436526,0.1395656747310764,0.49771851058612365,-0.8560360192826636,0.009531289225072697,-0.01391859866527501,-0.007337160567367331,0.9614471453487956,-0.2623587732313496,0.0561234269115893,0.06031114303128614
4.0399999999999565,0.02977134525662463,-0.05319044984580433,0.06665395903273331,0.13948222974185998,0.4974336525409451,-0.8562151884190482,0.011507792975957916,-0.006221555911420884,-0.0077619050336099156,0.9614693992331638,-0.2622182489426589,0.05598192729019031,0.060698389454926165
4.049999999999956,0.04018627726598786,-0.046766815605929324,0.07083871074082548,0.139403367264698,0.49703269889574614,-0.8564608158931651,0.011454712462483465,0.00393376232979881,-0.007485787240268485,0.9615086444427958,-0.2620130175563456,0.0558456686698662,0.061087112174965486
4.059999999999956,0.037446043860814356,-0.04576557732540144,0.06878629161403266,0.13936666073641357,0.4966111601870397,-0.8567112414932705,0.011797132650089186,0.006294993685364172,-0.006647213264257922,0.961548838865009,-0.261798245499821,0.055731660195349815,0.06147736194031479
4.069999999999956,0.027420203596604704,-0.04757224132238827,0.062004051994218955,0.13932617710281656,0.4962187933855227,-0.8569452125127547,0.012217918702018578,0.003919899541127662,-0.0050873957982046905,0.9615853970592467,-0.2615989200472275,0.05561822796538354,0.0618558442683456
4.079999999999956,0.010981743751468698,-0.05120190817653505,0.04682000562297868,0.13919223399731986,0.495986927987478,-0.8571011903643121,0.012240221076574034,-0.0040190123002859564,-0.001531148361094364,0.9616049243504242,-0.26148207910890314,0.05546626891199384,0.06218205473409524
4.0899999999999554,-0.007207257373806908,-0.05559414819422439,0.030300277013552947,0.1389453463568799,0.4958899726919795,-0.857197327713265,0.010928058906840045,-0.012197914764363944,0.0017975201912345728,0.9616134307199776,-0.2614313886528133,0.05527140665898162,0.06243683663584029
4.099999999999955,-0.02409361210576016,-0.05971759671679387,0.014909689379659082,0.13862175550914563,0.495895023074988,-0.8572467896451855,0.00917639640509202,-0.018017002016355352,0.004551620071498352,0.961612805852976,-0.26143150677478,0.055046693013886185,0.06264459322379855
4.109999999999955,-0.03179447831333512,-0.06115022691698597,0.007121028325870603,0.13818543185334325,0.496080301290628,-0.8572100353319182,0.008140961583565625,-0.01300545029825514,0.005235519909198883,0.9615939550113325,-0.26152347191374475,0.054776019787194125,0.06278756461692944
4.119999999999955,-0.023982688303813664,-0.05965061074854834,0.001175023032586295,0.13773271688090422,0.4962544152264651,-0.8571820734874409,0.006131720923753925,-0.002470768048444906,0.005755068318708085,0.9615793994461184,-0.2616066171682285,0.05450581174895244,0.06289859377818083
4.129999999999955,-0.007815063308886032,-0.05646821488575823,-0.003922611718344231,0.13727118070683356,0.49638930917996205,-0.8571780366216106,0.004065969252171158,0.009186702741607275,0.00569317515092026,0.9615727063501966,-0.26166597086261373,0.05423904267933595,0.06298415188045776
4.139999999999954,0.013548036223370311,-0.051829414150501595,-0.00906488434541216,0.13680419113618797,0.49636803732526247,-0.8572650272072785,0.003822443191472863,0.014191734239018806,0.0033136218241846963,0.9615929225395528,-0.26163496813866816,0.053987065051004625,0.06302107098907049
4.149999999999954,0.03669214353527424,-0.050349416272956284,-0.01619273474915675,0.13634273801490382,0.496143713816121,-0.8574683220026867,0.004608831228144025,0.02178608110477584,-0.00043073658571315303,0.9616460130249757,-0.2614884927161331,0.053754635456602216,0.06301785353790519
4.159999999999954,0.05910814729511227,-0.05022763400871019,-0.022412526994574994,0.13587680632899882,0.49577190461025444,-0.8577573076090171,0.005989592281523426,0.02928547674496861,-0.003723536728369919,0.9617229542116754,-0.2612580753081084,0.05353061850760835,0.06299052216570927
4.169999999999954,0.07391623274096035,-0.04934363282240282,-0.01968770871727417,0.13537658072442615,0.49515993733838076,-0.8581896833322206,0.00784994780895433,0.03035420406556333,-0.0016975362969855025,0.9618386455967944,-0.26089075229134234,0.053301920280159294,0.0629399323326416
4.1799999999999535,0.0774454211778626,-0.044151510038378076,-0.018183200358168897,0.134949681237372,0.4944761690897942,-0.8586509438960742,0.0075999195862302285,0.02307489414797344,0.0038814056311344556,0.9619614831016234,-0.2604871186957496,0.05311185777655237,0.0628947788247069
4.189999999999953,0.07402080255657313,-0.03691679790328816,-0.01697792236575374,0.13456808846920482,0.4937846212555542,-0.8591089128983279,0.006219220473626717,0.012378519069296073,0.010605596778727053,0.9620832875731684,-0.2600814518977163,0.05294484631275579,0.06285219666074184
4.199999999999953,0.06368381365600062,-0.030131414512304576,-0.014238576953059913,0.13423193170852174,0.493232821811279,-0.8594783255175931,0.0044035298936682486,0.005277030317012073,0.014243381302174153,0.9621820818018963,-0.2597560309369535,0.05279763972696904,0.06280901650128674
4.209999999999953,0.06256791779443552,-0.026171804709163415,-0.011409025448888232,0.1339482836695384,0.4927495075139297,-0.8597997527560323,0.0032816261326092454,-0.0021886546800842536,0.018760943396882494,0.9622678452995428,-0.25947173545780094,0.05267347338472502,0.06277427342289704
4.219999999999953,0.06654759857771797,-0.023752236133557623,-0.008641628257881428,0.13369685702197087,0.49228726502388503,-0.8601036790074572,0.002543410503085207,-0.008429644501768243,0.022505295093893138,0.9623487901372041,-0.25920093780541964,0.05256434573075354,0.0627435640118096
4.2299999999999525,0.07261816013493703,-0.021859838011417523,-0.006445935868701234,0.1334742820067961,0.4917518716988818,-0.8604443910597236,0.0019641048543434297,-0.007214175170658558,0.0197907799627096,0.9624393746146092,-0.2588906760149945,0.05247263776444031,0.06271144394013314
4.239999999999952,0.08701874857270077,-0.021595978491506303,-0.006847164143696028,0.133269680268669,0.4911551931014568,-0.8608167485578664,0.003543335283310346,-0.0005262699853399999,0.015297666315006654,0.9625381150970028,-0.2585472127302953,0.0523917173189922,0.06268029052893728
4.249999999999952,0.10436082843498003,-0.021403449930465335,-0.007450910089461934,0.133081351454094,0.49048619830158086,-0.8612273019738258,0.005781680465813161,0.008185035975829178,0.010432262111207073,0.9626467089304871,-0.2581643196464737,0.05232102071274295,0.0626500825868989
4.259999999999952,0.11374310281373796,-0.01685244682906195,-0.0015983282571765955,0.13293106821702866,0.48959385626826524,-0.8617579373043833,0.005383842742733001,0.012173246395151775,0.008689250145929552,0.9627863021244905,-0.2576590241263687,0.052275700550149545,0.06262231171320257
4.269999999999952,0.12246838524377973,-0.014076620228432722,-0.00021697699068542624,0.1328323948961415,0.488607931880212,-0.8623323123372082,0.006087371277751713,0.01510859765058015,0.0053297310314692325,0.9629366852713207,-0.2571046257670658,0.05225761062672172,0.06260261759050648
4.279999999999951,0.13064596474578663,-0.01232953602271035,-0.0010539860834869984,0.13275912637421178,0.48755734582331206,-0.8629382762074487,0.007257109803005275,0.016717940258209347,0.0012892134694074886,0.9630951489541931,-0.25651566346061405,0.05225406740116208,0.06258455547243569
4.289999999999951,0.1376953443926855,-0.010987233420764065,-0.0007260725072362757,0.1326712337667463,0.4864243073222463,-0.8635907848985774,0.007669809556227926,0.013892391670359291,-0.0016210062194880067,0.9632667823538513,-0.25587971225112965,0.05224950433874754,0.06255047079745689
4.299999999999951,0.137382554717556,-0.010320216234906344,-0.003898078139821192,0.13257767321494307,0.48527630290073814,-0.8642506046010541,0.0069078119242594075,0.010194896715152196,-0.004086986441839431,0.9634405480239573,-0.25523530002484107,0.05224374642435111,0.06251125730757373
4.309999999999951,0.13288237212735735,-0.009832924037765664,-0.008146806975436707,0.13248355788353094,0.48412730461255504,-0.8649095755963095,0.005598318924328165,0.006363700114764406,-0.006108660494652888,0.9636143379470924,-0.25459034536853953,0.052238925987278896,0.062467396142273125
4.3199999999999505,0.12782195054417617,-0.008133124053664993,-0.007009473029224102,0.13240551812954696,0.48302366607469466,-0.8655381361043282,0.00494555251268587,0.0047064779136884415,-0.006911321121936704,0.9637809394731189,-0.2539711552710378,0.05224401575779897,0.062412441742509726
4.32999999999995,0.11825194606621317,-0.005705516850403425,-0.004517097070929074,0.13234401834366155,0.482020685786832,-0.8661065087490928,0.003914799870839983,-0.003428229536210855,-0.006902772936634971,0.9639315505211192,-0.25340916671612207,0.052253137774985026,0.06236375872565695
4.33999999999995,0.10521080953322094,-0.002466283692165882,-0.0006795761033689296,0.13230326757071864,0.48109737886719894,-0.8666262338105656,0.0026496167118448583,-0.013883815481473973,-0.00634838215596283,0.9640690424553836,-0.2528929212364243,0.05226866882615094,0.06232292493006273
4.34999999999995,0.08635312781352539,0.0033567712443033646,0.00688267195984701,0.13233631312373795,0.4803182610685684,-0.8670531498452526,0.0012666890618698865,-0.015256385422119241,-0.005261744462918177,0.9641806038435868,-0.25246166861580016,0.052311028365621105,0.06230995380536115
4.35999999999995,0.06289624355106133,0.008435708573427101,0.011391912306183433,0.13244401507023013,0.4797322114447773,-0.8673611939037607,0.0010990834050932474,-0.019089365563343372,-0.005079474379341443,0.9642597412185385,-0.2521421356211993,0.05238031739793211,0.06232111533601114
4.3699999999999495,0.03777282167701823,0.013013114931117743,0.014450467796992574,0.1326100730660375,0.47929068449659706,-0.8675799627799371,0.0015222081430332308,-0.02347904715164754,-0.0053280124408626875,0.9643145078499527,-0.2519063528701919,0.05247089708742087,0.06235091542935373
4.379999999999949,0.01989695241867592,0.017153509260135858,0.019929422149348862,0.1328757686882411,0.47906246677581305,-0.8676653660062347,0.0010738114684714912,-0.021667420310426927,-0.004867096700050521,0.9643327605514193,-0.2517948467103644,0.05259908942738508,0.06241136153394797
4.389999999999949,0.016797872803960168,0.024462000017896415,0.019494397809656575,0.13318904992159225,0.4789412468775865,-0.8676842410147821,0.0012982819389238905,-0.019179086864145704,-0.002930614861280275,0.9643339998649195,-0.2517445211838341,0.05275000899144183,0.06246768809700678
4.399999999999949,0.02689618756577297,0.034318185741039856,0.01731277516530525,0.13354801245631706,0.4788263809791123,-0.8676924202153156,0.0015951384999315708,-0.016259639603918696,8.636509344917714e-06,0.9643326972659226,-0.2516995486090601,0.052925393302784354,0.06252026008943946
4.409999999999949,0.06828061627821562,0.04880301302130073,0.028693016502848463,0.13403120083518524,0.4782798835930061,-0.8679192105841281,-0.0005831096424807139,-0.013185777660192759,0.0037473471068177997,0.9643887270293986,-0.2514204605647794,0.05317963855644768,0.0625635541355707
4.419999999999948,0.10317730682615016,0.056361765896705524,0.03655531291673427,0.13464956511024942,0.47742671780406726,-0.8682927275749396,-0.0032342096135757415,-0.008785992162408399,0.001961374863664317,0.9644808897909158,-0.2509792412337326,0.05350529700087277,0.06263446635120014
4.429999999999948,0.13543543374520786,0.05839631899088027,0.04208977748736252,0.1353511848734747,0.4763265321460994,-0.868787998702045,-0.005708689285502296,-0.004113868085341585,-0.0029332598602077983,0.9646034786079583,-0.2504060479802477,0.05387665040522011,0.0627220860727586
4.439999999999948,0.17875084757298254,0.0509292437777258,0.04656027929299189,0.13604496849608938,0.4747865727787121,-0.8695217488289229,-0.00447393048018363,-0.0038020857378486895,-0.005193825608279167,0.9647882800939848,-0.24958950832609858,0.054257330758137455,0.06280572295885539
4.449999999999948,0.19614194480495414,0.04550846267489197,0.05667711392527847,0.13673497042106722,0.4730340167607907,-0.8703675966895842,-0.0029013440466775786,-0.005554167896166263,-0.012538539489151328,0.9649981901497309,-0.24865933900188775,0.05462706311512241,0.06294766455214221
4.459999999999948,0.1969043069466136,0.040565407950737487,0.06868936878041419,0.13741478037527974,0.4711532247225333,-0.8712813244581409,-0.0013469319252172166,-0.007756570764651168,-0.022172304030624552,0.9652228048962941,-0.24766088610387757,0.05498421171904018,0.06313229680277722
4.469999999999947,0.19753450137738454,0.02860311325603443,0.06619398933402587,0.13802917583900579,0.4693398125452842,-0.8721617451887961,-0.001768488804987419,-0.002614155664375034,-0.023646543904061557,0.96543575235167,-0.24670060760547938,0.055294475692418674,0.06336178754102133
4.479999999999947,0.1834715599331096,0.018074466822325545,0.07195301595453782,0.1385678626304686,0.4675888646341167,-0.8730163035758621,0.0005469539230135148,-0.008148578445485733,-0.024859220606008064,0.9656394175407588,-0.2457743996248546,0.055554565140950675,0.06362896609326434
4.489999999999947,0.15751209089730148,0.00856455707870563,0.08242106346918887,0.13904698888944586,0.46592565016973686,-0.8738300140659999,0.004361120348913841,-0.019670603673136576,-0.025250083158261282,0.9658302720615628,-0.24489641599005238,0.055773350446654726,0.0639288013672125
4.499999999999947,0.11151791022650012,-0.0002768852571220764,0.08626426115430344,0.13943862494684536,0.46468413115709994,-0.8744281635534136,0.005410816000811912,-0.021687306341376476,-0.01975952603787978,0.9659605145827054,-0.24425180195426455,0.05591756631722347,0.06429942627185103
4.5099999999999465,0.05866895756412136,-0.010121301581895885,0.08826045324307832,0.13972633069044466,0.46386639349450237,-0.8748167505750205,0.005747559627430301,-0.032532601981744715,-0.012542241327312813,0.9660346382930911,-0.24383753417586615,0.05598968281976292,0.06469574978085688
4.519999999999946,0.002153619176259388,-0.020832052237665096,0.08917446080728499,0.13993603143588362,0.46339762972372045,-0.8750317726259162,0.005894462048289516,-0.0483162102309845,-0.004567507943458236,0.9660621184478619,-0.24361338197885515,0.05600570030404104,0.06511557277733748
4.529999999999946,-0.044812215533894605,-0.0333685915547132,0.09174037084617295,0.1400715032150909,0.4635334880836981,-0.8749380813068948,0.008905559493605098,-0.05391288872900497,-0.0006213707378148609,0.9660053206277994,-0.24372208209982252,0.05595083101678919,0.06559489720062242
4.539999999999946,-0.08938403389402164,-0.0428566829729737,0.09479673812083102,0.14014559734874346,0.4640057634958793,-0.8746756672055772,0.014186157181706972,-0.05268903407248378,0.0064113321460641465,0.965902094395367,-0.2440152891580586,0.055844412093920257,0.06611236265770444
4.549999999999946,-0.13027296215357775,-0.05034789550397093,0.09786841978896475,0.14017193523395713,0.4647455651812003,-0.8742787224444273,0.020476612954414643,-0.04700301710662362,0.014885084845611123,0.9657618839896744,-0.244455230542001,0.05569773661033836,0.0666590966963125
4.559999999999945,-0.1498036075114224,-0.05916829135339601,0.09748506675077312,0.14014504352632653,0.46583824276408564,-0.8737010017339435,0.020726805948260714,-0.04435034294050178,0.01586032308017083,0.9655723034161188,-0.2450888151256523,0.05550479531945902,0.0672345873120962
4.569999999999945,-0.1669941438904387,-0.06702543577639952,0.0941899673079477,0.14005695877170093,0.4670309870796205,-0.8730779217336718,0.021943499076925874,-0.03473272896430479,0.01345303657383814,0.9653700542777566,-0.24577533000924803,0.05527403780844151,0.0678193343367254
4.579999999999945,-0.18166020372594727,-0.07460146252800696,0.0879001625076611,0.13990889532117803,0.4683095194668234,-0.8724170385444912,0.023730416082870638,-0.020542504561258824,0.008731148780002928,0.965157657007366,-0.24650651879420865,0.055008555727079904,0.06840574620157654
4.589999999999945,-0.18650371767695792,-0.08689162036826517,0.07108024478116051,0.13957370298113506,0.4697520388658162,-0.8716943416975538,0.024116354594622417,-0.011094895511541742,0.005227561723422953,0.9649327329529831,-0.24731631875338975,0.05465447889878226,0.06893488201916757
4.599999999999945,-0.1815658097139153,-0.09516770100457606,0.05502606467665986,0.1391211572771859,0.471131971675059,-0.8710216327107309,0.024777569117048547,0.0012468635884107047,0.0010426952308916133,0.9647240810803429,-0.24808329851587624,0.05425369903258527,0.06941420844973889
4.609999999999944,-0.16875724768026165,-0.10012062230041784,0.03982055016748707,0.13857192001955893,0.4724602987632612,-0.8703900611444196,0.0254620629904855,0.015082922584359719,-0.0032264085228404173,0.9645291540115761,-0.2488147192981604,0.05381561270141597,0.06984795171696528
4.619999999999944,-0.14734595627052324,-0.10035853798378166,0.02824330359794572,0.13789071514047346,0.47371775679843164,-0.8698140756211756,0.023869617849270577,0.02085956929949353,-0.0021986587639082553,0.9643565614235792,-0.24949445556954455,0.05333992423354771,0.07016794366301847
4.629999999999944,-0.1270410402380064,-0.10082634018446483,0.017512440864796266,0.13716090585743088,0.4748200825926713,-0.8693283942311627,0.022880871538586395,0.027352138588520297,0.0010529210582839307,0.964210750335697,-0.2500835338856078,0.05285592613575559,0.07044087436494559
4.639999999999944,-0.10784753344134809,-0.10120683701841274,0.007332577750057856,0.1363898139813294,0.47579441478342777,-0.8689173736452869,0.02252242618767427,0.03391562953678978,0.005787620075089369,0.9640872483918059,-0.25059762514854245,0.052365098435301176,0.0706725493415871
4.6499999999999435,-0.09253313531876342,-0.09791400748733015,-0.004091613487236067,0.13555447866896644,0.47661675482346094,-0.8685970020192759,0.024616409630741798,0.03386471899622071,0.007751125432971798,0.9639929806244122,-0.25102023766434034,0.051866500207498195,0.0708239500982833
4.659999999999943,-0.0782100860975461,-0.091721479757183,-0.006640068215580965,0.13475048568207137,0.477337536207357,-0.8683263085723494,0.022792749128933035,0.029017494815054796,0.011798823104912572,0.9639134383690223,-0.25138686077669115,0.05139378056068947,0.07095061067437598
4.669999999999943,-0.06521445687522323,-0.08318542837642495,-0.00229889326061698,0.13397915273602662,0.47797215695018835,-0.8680968349308112,0.01816743472462212,0.02078249565916865,0.01717547120091112,0.96384601764117,-0.25170637155278336,0.05094568739115595,0.07105808632067451
4.679999999999943,-0.06100313517341157,-0.0731802521590329,0.002073996280965367,0.13333905427886059,0.478491087116652,-0.8679093729941487,0.01729515982168366,0.017807231277571053,0.01801314216873483,0.9637895269044696,-0.2519682106099709,0.05056912063369399,0.07116577555121693
4.689999999999943,-0.05739573698351084,-0.06394939611841123,0.006400853669419861,0.132790493276959,0.47897297567885794,-0.8677276994780166,0.017347975683579372,0.014891698790991222,0.02129070874967238,0.9637333885478502,-0.2522147580613007,0.050237313271406805,0.07128782958201883
4.6999999999999424,-0.05435696910417469,-0.05437632127689534,0.010849144367102756,0.13232993625348233,0.47942717752107283,-0.8675472960977193,0.01813715963216527,0.012050991815429304,0.02631231410336759,0.9636766461227403,-0.2524508792323196,0.04994883072439927,0.07142157587250961
4.709999999999942,-0.052875966511162914,-0.027669267259892737,0.018121289717734655,0.13213792144013276,0.4799142375524984,-0.8673071759780259,0.018907736657624432,0.009696240539271815,0.02774700802856329,0.9636040999389544,-0.2527184842591979,0.04979689418382547,0.07155963963689517
4.719999999999942,-0.04868372162870387,0.0020406323169710715,0.031070577399866732,0.1322026524866511,0.48038431985514757,-0.8670370019638387,0.018087935457675303,0.006850737214447884,0.029162778261722856,0.9635223861274363,-0.2529902000755864,0.04977359456023942,0.07171555141750004
4.729999999999942,-0.04214766658633661,0.03416540664138649,0.048588371550808654,0.13250363445803837,0.4808312942731801,-0.8667433036594566,0.016129599057760603,0.0038934293520118315,0.03054670089983496,0.9634332599070743,-0.2532615981096917,0.04986873177026762,0.07188860568311464
4.739999999999942,-0.033078963866527665,0.06537793446137904,0.06444256414325789,0.13333809747141961,0.4810892766970218,-0.8664719790261901,0.01753837182571557,0.006893721524590658,0.03159488707622436,0.9633461005454181,-0.2534573346225606,0.050232563810415964,0.07211351450644277
4.749999999999941,-0.019516538901130656,0.08741672417970327,0.06718500210776925,0.13435838834889005,0.4812915524027625,-0.8662017790376343,0.021876205203631552,0.013979773382281357,0.03224175795960956,0.9632595042182845,-0.25363139181024136,0.050695744720532315,0.0723334876380554
4.759999999999941,-0.0018553449530133344,0.10172860312613267,0.05891423011092152,0.13553835311556683,0.48143368855754104,-0.8659392767411352,0.028614741377183877,0.024145458633213775,0.032734175849309294,0.9631754569989728,-0.25377980605605155,0.051245823666468,0.0725450051483851
4.769999999999941,0.0234993729505736,0.11577042601108027,0.05099576237435767,0.1367997859940433,0.48125564333195237,-0.8658394794284069,0.03383930119054682,0.025714084451575504,0.03763843862590305,0.9631414266950624,-0.25374967229058687,0.05187637178625916,0.07265279537528258
4.779999999999941,0.04914819897948289,0.13010852843986323,0.04185711333035797,0.13815402561553572,0.48093185163154356,-0.8658041628579322,0.03577965108375014,0.025184671575844177,0.040085625596224556,0.9631282272243162,-0.25364058594366373,0.05257427057108864,0.07270621858803496
4.7899999999999405,0.07531878825388547,0.14426501772943007,0.03145976179755304,0.13958644834562914,0.4804687811192924,-0.8658321472323609,0.03488519018881707,0.022888832095194784,0.04042347857489956,0.9631352870856049,-0.25345557299420624,0.05333078988373526,0.07270880413586107
4.79999999999994,0.1092729851729744,0.14570102651888903,0.015109611234255822,0.14096129807474503,0.47961647955615805,-0.8660812241964291,0.03404830229486153,0.021924243686749834,0.04113946581099373,0.9632082375752374,-0.2530458226556881,0.05410025467455659,0.07259866474809604
4.80999999999994,0.14378977905949028,0.14230065826416885,-0.004508832265338868,0.14225064319052785,0.4785429284361889,-0.8664639146461989,0.03489450261099952,0.02139070478487179,0.03820758681456186,0.9633219610716018,-0.2525046004382595,0.054854037860677704,0.07240690040000496
4.81999999999994,0.17870950363951302,0.1344771043799538,-0.026993338364686145,0.14345602480864306,0.4772628641940352,-0.8669719431197722,0.03705726416806531,0.02126436110911344,0.03207383789883079,0.9634739362353194,-0.251840427934429,0.05559114191921959,0.0721384331383798
4.82999999999994,0.2101187070833366,0.12177256608488754,-0.04828118029041327,0.14436448016616654,0.47560727604075853,-0.8677295525650579,0.03277915357093089,0.02204708676056318,0.02716799064621617,0.9637022177216173,-0.2509445165340545,0.056227007756135414,0.07171261876063731
4.8399999999999395,0.23947492883409546,0.10670702685184724,-0.07015502115083225,0.14511758780072498,0.47379716584367104,-0.8685934082628255,0.025559948558698566,0.022230139230260983,0.01800253455452177,0.9639631233725553,-0.24995144793381782,0.05680512574364135,0.07121525229528763
4.849999999999939,0.26688823824760394,0.08933306938877551,-0.09239143332006626,0.145720778240984,0.4718401213898526,-0.8695586053704544,0.01579098182654905,0.021863822102598178,0.005094248299900882,0.9642550575007751,-0.24886595566568032,0.057326942118019364,0.07065074641499408
4.859999999999939,0.2907483404159446,0.0642367909522914,-0.10620774084328441,0.14591269081266997,0.46958139933468623,-0.8707465779902269,0.01241189913712061,0.021351533195523447,-0.0010158292858682217,0.9646109951313796,-0.2475889450219854,0.05766774492071768,0.06999072516656232
4.869999999999939,0.3004750048649801,0.04613491992065989,-0.11397794782170285,0.1459787343378918,0.46731185104613127,-0.8719555475621723,0.006594312361669257,0.018500706179599695,-0.011656782847718667,0.9649734327454033,-0.24629943349189135,0.05794770594964095,0.06930939147217632
4.879999999999939,0.2967948505990678,0.034565159166961554,-0.1159891289028424,0.1459239800941621,0.4650318756645496,-0.8731846703547649,-0.0014455792547977337,0.013478638010689884,-0.026399427149559188,0.9653420301922068,-0.2449979783994281,0.058168997942038045,0.06860869783847727
4.889999999999938,0.2794944129602653,0.022147869802798374,-0.11041805521189531,0.14564450656056643,0.46272983447510485,-0.8744514452295131,-0.005124628522293496,0.009680494063068125,-0.031009496476996124,0.9657164499777905,-0.24367816955858726,0.058261084421100305,0.06795076733706132
4.899999999999938,0.24650939504649638,0.01420603288535688,-0.09885151929767734,0.14536698723923683,0.46065507515340404,-0.8755929724123664,-0.011306136865607592,-0.0001794171216189886,-0.03486481928116814,0.966054099049091,-0.2424877572303677,0.05833198668247713,0.06734911749592797
4.909999999999938,0.19841643954561913,0.010587256077164972,-0.08150015766937119,0.14509179661828742,0.4588025057824106,-0.8766120504374583,-0.019847155635875992,-0.015809597327222355,-0.03796206690943854,0.9663557945696664,-0.24142385952212972,0.05838237314538636,0.06680263325536695
4.919999999999938,0.14435356981580716,0.010462539173236834,-0.06042422507795642,0.14488314212554487,0.45751759060021413,-0.8773172134119812,-0.021830949376994476,-0.023629432449532275,-0.03619113048789977,0.966564675006324,-0.24068565245100812,0.05840842025145177,0.06641820994648162
4.9299999999999375,0.08070318183441644,0.013686143595499143,-0.031460437041813116,0.14480679829795948,0.4566430519593546,-0.8777858491064228,-0.023752812699830973,-0.0363201325142559,-0.032960308976680223,0.9667041296944029,-0.2401860693698153,0.05846100481518053,0.06615238451414536
4.939999999999937,0.007596917584963779,0.020212135602294075,0.005282716855423237,0.14486096795574024,0.4561733166018569,-0.8780211699294516,-0.02561343822376482,-0.05381445289768494,-0.02828958507483242,0.9667751014996155,-0.23992186957766476,0.05853976611158289,0.0660035471213482
4.949999999999937,-0.05467526801286218,0.023785525929527828,0.029325460161926515,0.14516536561928575,0.4564981039229592,-0.8778020281942709,-0.024314100605134073,-0.05833128244371631,-0.023991917088636572,0.9667117772816326,-0.24011993657698225,0.058663270204097666,0.06610115308360674
4.959999999999937,-0.11589562026878426,0.030117343335596736,0.055663298248363045,0.14560880656509168,0.45720190950345363,-0.8773617013808573,-0.022200844244814652,-0.06586418620167574,-0.020727181448197234,0.9665840293345086,-0.24053893473170165,0.05882137851025595,0.0663032813897848
4.969999999999937,-0.176050388375829,0.039243649235175856,0.08432623530270386,0.146193108531063,0.4582896883174001,-0.8766972978967932,-0.019263028636308844,-0.07645259385367502,-0.0185088818643565,0.9663910154352141,-0.24118175231466177,0.059014543417183464,0.06661129847933467
4.9799999999999365,-0.21503515952728885,0.04444780960052383,0.09968911321301081,0.1470205902741539,0.45995462020139094,-0.875685137480105,-0.01581215641439417,-0.07471091350488676,-0.016426707914760107,0.9660962490262394,-0.24216424063583405,0.059273909145624144,0.06708586019133506
4.989999999999936,-0.244008114044822,0.04720127853086294,0.11094954978075643,0.14789164945805452,0.4617830681590462,-0.8745749780498894,-0.008668509224226788,-0.06352537686497317,-0.011441098444192301,0.9657724618270039,-0.24324269771431117,0.05953813260048575,0.0676084045882298
4.999999999999936,-0.2627113441489187,0.047432294029934666,0.11803355424242278,0.14880637389024182,0.46377765908064045,-0.8733652579620682,0.0023130212563733706,-0.04260037151698801,-0.0034342660910483096,0.9654191829557347,-0.24441865888190006,0.059806955740496555,0.06817972181308919
5.009999999999936,-0.2618815179459837,0.04546312619971392,0.11003709070165206,0.14971165874471665,0.4658677950675544,-0.8720952805716903,0.00758405155705208,-0.03154802308649338,-0.0012175616438965652,0.9650498370301098,-0.24564915803618115,0.06006707532294198,0.06874765573021696
5.019999999999936,-0.2524828674659833,0.042578513169127044,0.09764390002607726,0.15055001823128716,0.46787784671501875,-0.8708744248380453,0.01525570973805347,-0.017669607028020014,0.002120476425616785,0.9646959202127114,-0.2468308546914073,0.06030486336593231,0.06927385198492615
5.029999999999935,-0.23420986787756773,0.03874742613624533,0.08076911559587321,0.15131703158483095,0.46980100525334945,-0.8697068905739855,0.025572560227565665,-0.000632436530636292,0.00673847548622893,0.9643587110116746,-0.2479596520592291,0.06051892370565842,0.06975551799943736
5.039999999999935,-0.2044998904790756,0.03414258488728584,0.05996243680972421,0.15189847515941388,0.47147563897989625,-0.8686975809204162,0.026324656622850776,0.005719146963084503,0.007465410502422685,0.9640725741340519,-0.2489348102973956,0.06068090877366525,0.07009182944844854
5.049999999999935,-0.17325888082601792,0.029190908261311967,0.041377166931135086,0.15239418877925612,0.4729594840885008,-0.8678042236606707,0.028393888800278266,0.015589346893489266,0.007481031895183794,0.9638213949757595,-0.24979651420528454,0.060821953510136494,0.07035941274852665
5.059999999999935,-0.1405919088751982,0.023875995927446388,0.025314976951983835,0.1527999928745002,0.4742396007393164,-0.8670345241100138,0.03211915850001905,0.029554618056106867,0.006802682870705977,0.9636074219980986,-0.2505371984363806,0.0609411863127828,0.07055484169709099
5.069999999999935,-0.09847541187482341,0.013203822852387956,0.004233746579217004,0.15300276663029969,0.4751520894760335,-0.8664987383462941,0.03196602653809115,0.031988995100533504,0.006822703867262805,0.9634642447837447,-0.25105615082749955,0.06100242025326094,0.07061258687504926
5.079999999999934,-0.047911237762548825,-0.0009004352147873847,-0.017134517691641468,0.15303884224758868,0.4757589865463775,-0.8661596106719371,0.03314827547700938,0.034693166138276,0.007457673361854348,0.9633774916820654,-0.2513929390990907,0.061006292252595885,0.07059601506844872
5.089999999999934,0.011880694300724373,-0.018707393233305416,-0.03867300463327057,0.15289333164382257,0.47603285970591813,-0.8660348759690902,0.03595310139843176,0.038053013908967995,0.008764057253813065,0.9633521387559356,-0.2515312897484569,0.06094731726015361,0.07049992785679647
5.099999999999934,0.05235042870186358,-0.03342046207916823,-0.05805227100310077,0.15237407455418547,0.47573600904950475,-0.866289308425423,0.03425381412896454,0.039333675982157104,0.0071814153458802125,0.9634359533581559,-0.2513256385711433,0.060751312933878025,0.07025554047154549
5.109999999999934,0.07739422586653509,-0.04456684952559548,-0.07156804948459872,0.1517479417031822,0.47527973655100103,-0.8666493884596652,0.028885123007206158,0.035577089228045713,0.003912629011548433,0.9635501931464748,-0.25102396579491915,0.06051572362200822,0.06996936794138219
5.1199999999999335,0.0853572738333005,-0.05170961615621228,-0.07838627196068491,0.15101295455950003,0.4746616138499893,-0.8671166876356834,0.019449751569623336,0.026075583815781164,-0.0011924539093539736,0.9636953118146546,-0.2506248186119614,0.06023976113990148,0.0696407228068809
5.129999999999933,0.07239973573301385,-0.057876746305552756,-0.0765959946446981,0.15016813063221715,0.47411678899102305,-0.8675610410010142,0.017902558935600072,0.018147863149811677,-0.0009204343652991691,0.9638341195442439,-0.25026157895176604,0.05990394870383776,0.06931370220468035
5.139999999999933,0.05123900432012988,-0.06367029332015824,-0.0720031708380211,0.1493211058589819,0.47372352526296685,-0.8679221313288477,0.01520369273193651,0.008206858068044278,-0.0003415837485184681,0.9639489290341676,-0.24998435897716653,0.059553907556508884,0.06901879466203009
5.149999999999933,0.021360235587561907,-0.06906793383439587,-0.06450361577534941,0.148476856904311,0.47350670653362226,-0.8681854381189323,0.01074962108038996,-0.004202995932246245,0.0003378754386039191,0.9640355403091244,-0.24980756111412836,0.059189901014001386,0.06876195505482183
5.159999999999933,-0.009632971140125152,-0.07062894383363534,-0.056436585610196065,0.14763176294420077,0.47366871459910864,-0.8682409936608309,0.008939095121606698,-0.009034415986321133,0.0010032023591675099,0.9640634456614454,-0.24984477964976176,0.058796263338767585,0.06857281725730621
5.169999999999932,-0.03458935482061357,-0.07254088471743629,-0.048343062745276826,0.14683233911002697,0.47401580251765657,-0.8681871235127695,0.005807649310542494,-0.011584622135084018,-0.0011105760146358525,0.9640602272727947,-0.24998905023921525,0.05841069255745825,0.06842199705901196
5.179999999999932,-0.05211453086361051,-0.07510804545271885,-0.040250802503035026,0.14608868531520652,0.47456627759971576,-0.8680120435342055,0.0009081554470959721,-0.011800141782609935,-0.0066141770799337495,0.9640225106541285,-0.25025126390100977,0.05803671749756687,0.06831391957979245
5.189999999999932,-0.059672874069608806,-0.07321278231344062,-0.027611575229054407,0.14535277926024634,0.47517263237664814,-0.8678035743218048,0.0016047731112017606,-0.011360214173030316,-0.006210844214089546,0.9639710281187757,-0.2505492987468581,0.05764655843191225,0.06827707932425556
5.199999999999932,-0.06552113370328776,-0.07106875900694745,-0.01659974805450587,0.1446727555577111,0.4758007609768077,-0.8675730551451178,0.002081429727569633,-0.00999246550464903,-0.004263301929865876,0.9639111403840742,-0.25086440355794115,0.05727480995005667,0.06827805531734264
5.209999999999932,-0.06992420654456673,-0.06892568396493745,-0.007946834574320652,0.14406224539539622,0.4764522691912631,-0.8673172336437537,0.0018900592259679114,-0.007507503780493921,-0.0007939309798706325,0.9638416804700654,-0.2511983970683182,0.05692727626675081,0.06832144590697511
5.219999999999931,-0.07125348765407094,-0.06728148194520102,-0.004517198301350396,0.14347910444675233,0.47707450526444317,-0.8670716368003668,0.004286855972227741,-0.006787950575464243,0.001625982121273341,0.9637723881437964,-0.2515196951557799,0.0565853003757128,0.0684009153497065
5.229999999999931,-0.06765171781921003,-0.06473267949965891,-0.0013422110908100143,0.1429415553759845,0.4776549419614257,-0.8668409498832708,0.007016656762237136,-0.005248383359137951,0.0036076918008308007,0.9637060195405098,-0.2518208112509727,0.0562647688709505,0.06849339328439492
5.239999999999931,-0.0579511821173858,-0.06097841521639162,0.0019307242011197367,0.1424604803880379,0.4781839430525747,-0.8666286278293731,0.009964236013277429,-0.00250901254610518,0.005110717836153523,0.9636434019451349,-0.2520969754528294,0.05597139666927159,0.0685996799076237
5.249999999999931,-0.03463682510093558,-0.058858308555451946,0.002831999224976418,0.14199089272522056,0.47850750522839824,-0.866527013598639,0.012976157244151394,6.612932055894078e-05,0.00650647946889934,0.9636088389502107,-0.2522603607927745,0.05568803483352798,0.06871452593057154
5.2599999999999305,-0.00881638891690698,-0.05717394169128969,0.0013936099099387026,0.1415243295903553,0.4786566280152228,-0.8665210034128027,0.014976563840385999,0.003694129883118824,0.007326887281164091,0.963600025539912,-0.25232643138803934,0.0554151955214414,0.06881596212350616
5.26999999999993,0.01904297681506586,-0.055912771489490615,-0.002917098052772475,0.14106069038638663,0.4785942794755862,-0.8666310698967654,0.015633057287148037,0.008730087842162506,0.007396352871907095,0.9636226409307951,-0.25227435672610715,0.05515533579810508,0.06889885965579354
5.27999999999993,0.0406283744999833,-0.05849572204702835,-0.009605290491206352,0.14052658144090246,0.47827246944688045,-0.8668953232351965,0.015851791059952505,0.00889610927089914,0.005144754586119689,0.9636894876865698,-0.25207174222461004,0.054882764162578486,0.06892228681290072
5.28999999999993,0.05617850939588334,-0.06021159356197625,-0.014480928461981743,0.13996501685693455,0.4778443944015167,-0.8672221100761258,0.014676931609931535,0.008167859079391656,0.0024861551093295995,0.9637739571907313,-0.2518079128664259,0.054604364394491595,0.06892656978357668
5.29999999999993,0.06419625247379965,-0.0603393175905965,-0.016639985908685453,0.139373656388555,0.47729957995505246,-0.8676174340833808,0.011654988625779425,0.006743626138802186,-0.00047804146858770793,0.9638776582388413,-0.2514769493995065,0.054319400135938375,0.06891117854816661
5.309999999999929,0.05904787089617185,-0.0603563125118587,-0.01534885862678525,0.138782907843621,0.47676743256654275,-0.8680044481746377,0.012650100031984666,0.002625006048396005,-0.001731443425664786,0.963979576664764,-0.25115287085461735,0.05403619994921061,0.06888901460148295
5.319999999999929,0.04779597118576367,-0.0593536982855201,-0.011376421504724399,0.138233958835098,0.47630926377880983,-0.8683436494458249,0.013344544183178446,-0.004348534873111631,-0.0008853710816017657,0.9640675650328066,-0.25087302610954026,0.053766645434693755,0.0688886933271793
5.329999999999929,0.029606140351526904,-0.056940319141374374,-0.004074808746746407,0.13774331845116589,0.4759528957824639,-0.868617071086101,0.013134838983726527,-0.01498483889133086,0.0026868731327707703,0.9641363118358905,-0.2506541338579764,0.05351593751305496,0.068919696577573
5.339999999999929,0.008074605872142718,-0.05399717160820718,0.0023942683631241893,0.13730996893375047,0.47584460702215475,-0.8687449645037765,0.013906815137452313,-0.01948687104347422,0.0016329070537407803,0.9641640529965001,-0.25057773274107725,0.05327557231762791,0.06899494971901228
5.349999999999929,-0.011301920247476633,-0.05203570800272155,0.0066476820027095,0.13691389849106156,0.4758702208354352,-0.8687934581758004,0.014347547519650892,-0.022138002288473624,-0.000751768197965085,0.9641698352446167,-0.25057822442312216,0.05304529648639327,0.06908926725489463
5.359999999999928,-0.02713397975016093,-0.05155474775998177,0.007833694966970364,0.13656358839278013,0.4760544850176278,-0.8687476647104034,0.014180213042847488,-0.02296172959331149,-0.004421073688955843,0.9641496437578916,-0.25066981572244473,0.05282810312841923,0.06920496588784882
5.369999999999928,-0.029190248607241356,-0.05235738187495257,0.006609076538152261,0.1361750817705477,0.47631573858562926,-0.8686653924511069,0.014032650237349668,-0.021154896242092325,-0.007132324856837248,0.9641205097648023,-0.25080175105640856,0.052590334060947805,0.06931413946845294
5.379999999999928,-0.026412537389295162,-0.05418852380398601,0.003115556962181498,0.13577419477316705,0.4765613431529774,-0.8685934573201405,0.013715145188624905,-0.015972038552544084,-0.009337987911384637,0.9640945673949067,-0.25092400928551295,0.052348638249544645,0.06941564153048842
5.389999999999928,-0.018579992185117356,-0.05734347390136462,-0.003361754699136195,0.13536080115702315,0.4767722576563777,-0.8685422700612083,0.01314395723186486,-0.006205283547215546,-0.010942198985278206,0.9640746812495276,-0.25102591073316377,0.05210425090372275,0.0695068098812689
5.3999999999999275,-0.012617949026174313,-0.059207201766787995,-0.007896302196405629,0.13486145511468373,0.4769029780686071,-0.8685481154087752,0.011488538447185455,-0.0028311855683693693,-0.011584237368904843,0.9640726468875863,-0.251077033889387,0.051828845735098335,0.06955616386161796
5.409999999999927,-0.006831947406696006,-0.060548212430814756,-0.011805214056269935,0.1343429385674472,0.4769721233066923,-0.868590513259546,0.009598303386440812,-0.0008472148334230144,-0.01126310313755196,0.9640809882116976,-0.25109249356951713,0.05154875274381289,0.0695930822288815
5.419999999999927,-0.0010002126617987463,-0.06131240818983206,-0.01509015909225761,0.13380971972648179,0.47696129974823487,-0.8686788065367792,0.007533233849875059,9.736861070962764e-05,-0.009642225700134243,0.9641020793300354,-0.25106236045146146,0.05126673617273759,0.06961813284163773
5.429999999999927,0.0003393851996660154,-0.06080473937993112,-0.012520633255009093,0.13326735137078521,0.4769259290326385,-0.8687814961194114,0.005885503739311709,-0.0014470110842585275,-0.007716451820894327,0.9641271266874726,-0.25101806116124936,0.050981676518240905,0.06963986240933197
5.439999999999927,0.00033099169892891246,-0.05850279811283002,-0.00892553940639277,0.13275926286780662,0.47686696008508017,-0.868891670107376,0.004561226293973861,-0.004411890568912451,-0.004356845485456687,0.9641532945484383,-0.25096294522532225,0.05071215244659137,0.06967302554708045
5.4499999999999265,-0.0009489310838495872,-0.05363784733680718,-0.00481366609736859,0.132306326421002,0.4767757285048988,-0.8690108539970002,0.0036642049650216315,-0.009131806525159707,0.0011824696241234537,0.9641804782655801,-0.2508935801354511,0.050467419158453014,0.06972463369791737
5.459999999999926,-0.005754702875197172,-0.04986880169939928,0.0035913029204157915,0.13191681456153953,0.4767677583998067,-0.8690744146371188,0.0018480332485482144,-0.011575210665856187,0.0026851218625310773,0.9641912169517021,-0.2508747346934631,0.05024560699697214,0.06980389923483156
5.469999999999926,-0.012763828292376126,-0.04756719663551051,0.009752392330198902,0.13156505037189853,0.476802336986407,-0.8691088021608844,0.000583405627382686,-0.012942909475183319,0.004366780842849289,0.9641929483243075,-0.2508822344224608,0.05003679355906615,0.06990290877034881
5.479999999999926,-0.022588392273221736,-0.0473955327805158,0.011441890129333115,0.13126090545596134,0.47688819617236217,-0.8691077316469057,0.00039019767856746015,-0.013049048953734198,0.007156936757897265,0.9641835835639524,-0.250921696328151,0.04984415836135196,0.07002794838464078
5.489999999999926,-0.022825212093804743,-0.05239894493036726,0.009074801264130815,0.13089083112259284,0.47705392448629985,-0.8690725417743117,0.001907904404366934,-0.01288640845030194,0.008393218254967595,0.9641657867637067,-0.25100185491393173,0.04961624523800697,0.07014737177674131
5.499999999999925,-0.0187799687502752,-0.05813168908838259,0.005000795781244178,0.1304737603983874,0.4772020702080364,-0.8690539124938369,0.003377227888465606,-0.010497982738704621,0.00890012035416595,0.964152977328479,-0.25106951625389146,0.049367117615040354,0.07025712791705989
5.509999999999925,-0.009813278581480485,-0.06391207275096364,-0.0009826079903267875,0.12999390462671667,0.47730339401919153,-0.8690702083601585,0.004384885359664333,-0.0044990619929171725,0.008551047830820474,0.964150274475398,-0.25110748514364345,0.049090879767399974,0.0703521955808746
5.519999999999925,-0.0014030275708012052,-0.06378735306928715,-0.0051899885585204135,0.1294355498977317,0.4773176315602276,-0.8691456362371558,0.002640486715594497,-0.0006135560495580984,0.007560084506943978,0.9641651758097307,-0.25109189584928887,0.04878506006345659,0.07041613286815936
5.529999999999925,0.0035559244022330817,-0.061066550850033825,-0.008949638224002483,0.12887358804002821,0.47730229344670244,-0.8692375859806297,-0.0016119212173395737,0.0027626465220754823,0.006010465058122596,0.964185658191781,-0.2510588665620675,0.04848304289221075,0.07046212640167888
5.5399999999999245,0.002796758977497118,-0.055383791148383,-0.01238338395827145,0.12832466909228935,0.47725804769125,-0.8693431255872732,-0.009446542112728587,0.005790864086098834,0.0036699597468558163,0.9642113098156352,-0.2510093295858858,0.048194696177091705,0.07048528328510321
5.549999999999924,-0.00480071320227852,-0.04369802113122253,-0.007306070021654117,0.12788060972059767,0.47726881579611274,-0.8694026149379201,-0.01315111289116885,0.00735537702504811,0.0034141654577184077,0.9642250605389039,-0.25099522788395745,0.047958839726318925,0.07050807414826082
5.559999999999924,-0.011681810607667834,-0.0292729088974157,-0.0001512252869781505,0.1275557701473388,0.4773090691084869,-0.8694282981622866,-0.01625784153833354,0.0076327642100045565,0.003819658653409704,0.9642294209663572,-0.25100354923135476,0.04778139117253656,0.07053947786208102
5.569999999999924,-0.015489124548294039,-0.011666310455821415,0.008361102596874302,0.12741109216555613,0.47738612629061755,-0.8694072447207063,-0.019422082615924534,0.006053498375152138,0.004823721468061485,0.9642205619868205,-0.25104156623591944,0.04769190898345838,0.07058601441381945
5.579999999999924,-0.01855810708959258,0.006734155031686688,0.018437689635536457,0.12752256167845943,0.4775160594970702,-0.8693195266056406,-0.02043951631674073,0.005365056760922312,0.004965992178631724,0.9641921957852171,-0.2511225847959231,0.04772508482256951,0.07066319264475163
5.5899999999999235,-0.018395578146084612,0.022630070053789298,0.028286713817302134,0.1277693707350214,0.47763799549666835,-0.8692162589266724,-0.01894260172617577,0.006931524954591822,0.0041438844105931485,0.9641581991482581,-0.25120674300141893,0.04782289063106051,0.07076185207009193
5.599999999999923,-0.012642639741825615,0.03379666579427876,0.037272924104484365,0.12818493831423755,0.47773021829349666,-0.8691044100402354,-0.013552335863791497,0.012289883553112127,0.0018396228958593923,0.9641197508544377,-0.2512840591668259,0.048001187326289586,0.07089020373564385
5.609999999999923,-0.0040785502324555785,0.0409110594960513,0.03646132377158581,0.12870154420655355,0.47776101498743195,-0.8690110538676661,-0.009997288573844033,0.014986954404706765,-0.0001860372012331443,0.9640860647131965,-0.25133237413272314,0.04823360181284119,0.07101922941983818
5.619999999999923,0.004729720340157172,0.04286951865707787,0.030990480251068986,0.12919928195439406,0.4777509058552746,-0.8689427987124638,-0.004602876706646768,0.01664420960929629,-0.0015116292134165824,0.9640602773521257,-0.25135623657955636,0.04846264889679794,0.0711290410717503
5.629999999999923,0.013102977972921618,0.036572551571556054,0.01999448017256368,0.12963026995175503,0.4776845329106948,-0.868915123494234,0.004771251008537586,0.017218093719121686,-0.001630656441390579,0.96404759304053,-0.251344032032807,0.04866840350974405,0.07120311352231785
5.639999999999922,0.023812925861862014,0.025056721403860054,0.002451257872843199,0.1298820835071017,0.4775119016780192,-0.8689724156860248,0.010116936946008504,0.01618598216565566,-0.00014176167141564185,0.9640628407576108,-0.25126041352816364,0.04880567767537509,0.07119823655865086
5.649999999999922,0.031429328422444544,0.012825990011101969,-0.015697738386986924,0.1299819058564233,0.47731443554994113,-0.8690659846196948,0.01452305715339662,0.013095474509494165,0.0013214480282734602,0.9640917363072745,-0.25115281304981324,0.04888020371175729,0.07113575556632559
5.659999999999922,0.0323572751057066,0.0010192123669882543,-0.03276071280179184,0.12985365858272305,0.47710603249121775,-0.8691995544674715,0.018518288301469676,0.006635614036818777,0.0021858261289652214,0.9641370604446341,-0.2510239820727465,0.04885869569241666,0.07099061403986458
5.669999999999922,0.023078148059008444,-0.011438086413858715,-0.044472609318639486,0.12954454253565206,0.4769560546706578,-0.8693279298359516,0.019613013743527127,0.00033888981640522314,0.0019096952688911185,0.9641852832813183,-0.2509158978665977,0.04875675793194592,0.07078751206140763
5.679999999999922,0.01171604783677024,-0.0219230331010521,-0.051755055051490494,0.1291426538578961,0.47688284529063696,-0.8694278614374855,0.019542653369710297,-0.00788820674968452,0.0021651195685901507,0.9642272118810913,-0.2508451131864669,0.048608307715647246,0.07056894175974675
5.689999999999921,5.369913481971869e-05,-0.028298479800088275,-0.05233452723591366,0.12862588457881577,0.4769385327462297,-0.8694739339354555,0.018262833123821213,-0.01996173877363861,0.0038859789118706432,0.9642557210192717,-0.25083978886922775,0.04839845988889366,0.0703415270815456
5.699999999999921,-0.0159904234293871,-0.03228174519506515,-0.04682976049949268,0.12811290201492698,0.4771306530116415,-0.8694442130602987,0.016632013191584367,-0.027352580885058275,0.004565533064229403,0.964262162005726,-0.25091193004884826,0.04817733570219134,0.07014764157714112
5.709999999999921,-0.03293718635962872,-0.035710216102740805,-0.03959175213775844,0.12761391417815304,0.47741883682753994,-0.8693594241857069,0.015634068323873505,-0.031621446510121755,0.004181768333188506,0.9642523439685349,-0.2510393066131011,0.04795327196483858,0.06998071572191804
5.719999999999921,-0.04995063084412611,-0.038977000570477184,-0.031291560928632396,0.12714168322941657,0.47784640210341733,-0.8691937666790889,0.016055547331855755,-0.03146028927325026,0.0020671966516550054,0.9642185248274373,-0.2512472194980435,0.04772779076207685,0.06985481506801287
5.7299999999999205,-0.059260358916452295,-0.040219375749805476,-0.024337084338743074,0.1266995130313264,0.47837081203415577,-0.8689697242356595,0.014632071080072055,-0.029253407113968972,-0.0006014101910760297,0.9641652872431575,-0.2515131983072565,0.047499295270336805,0.0697879320710316
5.73999999999992,-0.06567640345036982,-0.04068356371511757,-0.01881281709819014,0.12628729530867935,0.4789352212768186,-0.8687188303959474,0.013153528035104752,-0.025632990455943697,-0.004134446213565796,0.9641030264999684,-0.25180420215620386,0.047277608951501515,0.06974925480258058
5.74999999999992,-0.06940438024124976,-0.040404368144104086,-0.015683199812161704,0.12592441491320128,0.479540963607056,-0.8684373202964752,0.01235927306149531,-0.01995576438509531,-0.009227122510256655,0.9640303902966382,-0.2521221583265978,0.04707140314899324,0.06974373923373055
5.75999999999992,-0.06781577358548617,-0.03892657777062229,-0.010335479514010062,0.12557418395047343,0.48013742643064283,-0.8681583172917824,0.011535714382673106,-0.015219447728958928,-0.009791269322699523,0.9639568444413952,-0.25243673894096985,0.04686625343202468,0.06976019188027902
5.76999999999992,-0.06420881391675784,-0.03565987415006621,-0.006089782662824708,0.125267774727138,0.48068182450894564,-0.867901406440306,0.010922850726990799,-0.010618743132057726,-0.009092943420200613,0.9638881575875821,-0.2527251858820684,0.0466822949088283,0.06978873334834965
5.779999999999919,-0.058755050634524575,-0.029114714705780642,-0.005245000050664304,0.1250494833531123,0.4811188433639919,-0.8676907271156471,0.010775763731415935,-0.005869419018607676,-0.007801511669835204,0.9638303216304286,-0.25295913520859564,0.0465433126583192,0.06983294992084145
5.789999999999919,-0.04400669674913267,-0.02755067846849317,-0.00426696969692843,0.12483169943167995,0.4814834614687033,-0.8675198172742353,0.010454527758335597,-0.004643542012218546,-0.007148139093329479,0.9637832581002551,-0.25315268769222943,0.04640881086016577,0.06987011949014629
5.799999999999919,-0.02575139386187458,-0.02649149308180343,-0.004167373622374239,0.12462703079240413,0.48173821605020783,-0.8674078786694123,0.010172232608709223,-0.0036530671139269736,-0.0067354767674437715,0.9637519734582205,-0.2532856640960731,0.04628648351153275,0.06990062255897415
5.809999999999919,-0.0044199988328914065,-0.02403846977270172,-0.0060791972885922765,0.12445113444232711,0.48178630988191584,-0.8674064116687749,0.010063922365701587,-0.0014072675570279002,-0.006533902950128582,0.9637501814043866,-0.2533049331706637,0.046188843119696704,0.06991992336597852
5.819999999999919,0.007458401890007169,-0.023128257973613262,-0.010036672270611322,0.12422718361232024,0.4816915411248336,-0.8674911110303377,0.009569059185298264,-0.001043997792465116,-0.006344594787013646,0.9637730234270687,-0.2532412632582291,0.04607922698541871,0.06990834050635712
5.829999999999918,0.01131785253392251,-0.021130876407778557,-0.013314696634217226,0.12400624478136921,0.48155477479759806,-0.8675986556207258,0.008275301161113961,-0.002573456224037215,-0.006078557036926537,0.9638026922589763,-0.2531538639897658,0.045975903085057564,0.06988406870046349
5.839999999999918,0.002001422579520462,-0.01581375156360023,-0.013930841332589084,0.12381827235984313,0.4813996865223747,-0.867711576854993,0.00536745051847785,-0.007402147416181035,-0.0056306784335972615,0.9638345730882285,-0.2530573173192512,0.04589344686781375,0.06984759405423582
5.849999999999918,-0.020162726061132164,-0.00716016164204731,-0.008172724771816178,0.12371641456125004,0.4814862624712206,-0.8676780666939095,0.00511441950058626,-0.010406625577678796,-0.004930730684962651,0.9638279125949726,-0.2530991718573872,0.045845106201308716,0.06982012318782321
5.859999999999918,-0.046807805660902355,0.0024048071005955646,0.00023987543011452046,0.12369686229851556,0.4817377619587576,-0.8675411813802305,0.006281498563049158,-0.012979018906170559,-0.0029316848848305902,0.9637929734698184,-0.2532372795192186,0.04582856381280364,0.06981271394303647
5.8699999999999175,-0.07650339755711999,0.012167650498879766,0.011182019453567737,0.12382089323754314,0.48223660164848053,-0.8672463142521083,0.00924308539717985,-0.015599200990606776,0.001980427979251814,0.9637139325546794,-0.2535212824889201,0.04586699997076901,0.06984730459849293
5.879999999999917,-0.08781692115232875,0.014597056440360214,0.018643071889668624,0.12403516984123641,0.4829243565302612,-0.8668326880696667,0.010614161287742868,-0.014617247863185948,0.0036361456352890847,0.9636005803664217,-0.2539167722373822,0.0459327577318841,0.06993131875731091
5.889999999999917,-0.08682444542611677,0.01216954069770165,0.020814150263605568,0.12426411195178283,0.4836378666783213,-0.8664021220439785,0.012836859857360548,-0.009114977177844028,0.00281397161046524,0.9634817323504897,-0.2543280440773093,0.0460013405180683,0.07003000044825858
5.899999999999917,-0.06745491941107132,0.0025382589665368764,0.012307729084469064,0.12447201447048596,0.48429530864945797,-0.8660049807067328,0.018130021012962093,0.0051169912019507525,-0.001988120138548242,0.963371078055626,-0.2547076451283854,0.04605962628736802,0.07013329767543744
5.909999999999917,-0.032688791822697974,-0.00981535720422726,-0.00444827030135026,0.12446419339438015,0.4846734076561672,-0.8657946220820786,0.019520084993094936,0.01542997978435452,-0.006091734967061708,0.9633143606139347,-0.2549185000980458,0.04603520567513111,0.07016250267579442
5.919999999999916,0.0038762743141885275,-0.02103000170261072,-0.021052770952306794,0.12432192484513833,0.48483100012362396,-0.8657268415473106,0.01855513714992519,0.024440899658946136,-0.008036798806511774,0.9632982540891829,-0.2549982509473425,0.045961612414623466,0.07014251584767425
5.929999999999916,0.03455293507261137,-0.027542565627210167,-0.03169977284992243,0.12398768116365239,0.48462339633759066,-0.8658910293391295,0.014311630120895662,0.03282958342873876,-0.00503054848931739,0.9633477228745763,-0.25486266948908703,0.045820380620066145,0.07004901898579277
5.939999999999916,0.04264407343849395,-0.030865470631268828,-0.03238382721034942,0.12358142021537132,0.4842709834721854,-0.8661461178239047,0.01250368230284762,0.03091748990040858,-6.079719310177374e-06,0.9634229449868377,-0.25464196983646215,0.04565486583916685,0.06992466581640952
5.949999999999916,0.03691559386665302,-0.03293643148760917,-0.027974659470666737,0.1231751008324932,0.48391858781572566,-0.8664009882098687,0.011108623659799132,0.020395329403068454,0.007123952629031784,0.9634974782181241,-0.25442172794790824,0.0454871258517823,0.06980857465383652
5.959999999999916,0.011715622326266571,-0.03407392197510123,-0.01757956048051646,0.12282092921238658,0.4836713982083198,-0.8665892797241153,0.009016631190000535,-0.004996528670440859,0.01825400716783366,0.9635515209893984,-0.2542644877678742,0.0453312441025304,0.06973633825297403
5.969999999999915,-0.013218042895001718,-0.036797737510730656,-0.008394955807161396,0.12247763507996043,0.4837045223982523,-0.8666193679666755,0.010940227932326076,-0.017347202190366992,0.0228717935438586,0.9635600385821438,-0.2542662215942552,0.045155133805012515,0.06972665627423887
5.979999999999915,-0.03413732585513719,-0.04056348702619572,6.065157899983083e-05,0.12215048845105501,0.4838925143196803,-0.8665605808697908,0.013070097678812122,-0.02385826247499102,0.023395801009310952,0.9635426871861948,-0.25435646367505993,0.04497189310999826,0.06975602301637952
5.989999999999915,-0.04449323771466183,-0.0458876139578151,0.007504398666408519,0.1218581836179651,0.4842774037436746,-0.8663867214699232,0.012621453200088712,-0.024872435699441243,0.018014961617238742,0.9634914336253781,-0.2545601919882695,0.04478529800036976,0.06984137274759804
5.999999999999915,-0.0430247309749337,-0.05331695231470196,0.006453607960245821,0.12148723221326468,0.48468972552708023,-0.866208169347042,0.01246196892546638,-0.019606061140079657,0.012208280716349194,0.9634376314051881,-0.25477626112958257,0.04455238252072233,0.0699443276558786
6.0099999999999145,-0.03676865036788929,-0.06208927847492565,0.0011800226319684088,0.12104791299574581,0.4850982354725813,-0.8660410063177599,0.012453205714112337,-0.009593382100175862,0.005820903315234897,0.9633868145190952,-0.2549869556571734,0.0442844287492936,0.07004638232741536
6.019999999999914,-0.02712861754935337,-0.0728255843818959,-0.008698727819746677,0.12048472617950926,0.4854731944619993,-0.8659093791599626,0.012620559535334353,0.008331322756847432,-0.0018213615371295618,0.9633464166015737,-0.2551724004391068,0.04395802972533004,0.07013119564382918
6.029999999999914,-0.022804030094500462,-0.08055561039701324,-0.017752521050558977,0.11976185717595327,0.48574010869014816,-0.8658598403096572,0.012700244550828257,0.016138940838999284,-0.007055339780321222,0.9633308484942547,-0.25528815702844215,0.04356521366233462,0.07016859841655343
6.039999999999914,-0.02095900575290858,-0.08556330605724823,-0.024970084633469312,0.1189777191239454,0.4859612441302592,-0.8658439549982139,0.011576584208407294,0.018617385206139297,-0.009897126373452327,0.9633256524466298,-0.25537461310298454,0.04314816713507834,0.07018365414416947
6.049999999999914,-0.021455046498850425,-0.08545435294068579,-0.02765402345503396,0.11816123736457354,0.4861480747121606,-0.8658508937401138,0.007074262576737649,0.014888069159593814,-0.00803270624990187,0.9633279136682019,-0.25543959360477186,0.04272126899268691,0.07017716569986623
6.0599999999999135,-0.023034315845638,-0.08041746600208761,-0.02253750191403219,0.11737645391522628,0.4863406624429601,-0.8658493917517203,0.004272068452510706,0.009459687959577015,-0.006230349006475562,0.9633274740078663,-0.25550965698882966,0.042308562732246806,0.0701782630783477
6.069999999999913,-0.024749009511747477,-0.07219121415501473,-0.015003394407376885,0.11665580505358221,0.4865290302306798,-0.8658410993766554,0.0021237622134447623,0.002451514711421091,-0.004270884020777009,0.9633243204965364,-0.25558098776416727,0.04192572217102477,0.07019235604653372
6.079999999999913,-0.025820369794320154,-0.05923676863475283,-0.007811263306042178,0.11609532736662775,0.48669928436689575,-0.8658207592807358,0.0002786270648076029,-0.0076152071470843765,-0.0017841189603832793,0.9633157024340073,-0.25565117965432993,0.04161801856606671,0.07023778145994679
6.089999999999913,-0.027302817323777713,-0.04715433356524451,-0.0009089981341752025,0.11566041089179437,0.4869104941303298,-0.865760218288677,-0.0005983204882201177,-0.01227699288517766,-0.000750321677576213,0.9632951949506023,-0.2557508607140313,0.04136851302782851,0.0703032156647555
6.099999999999913,-0.028239615969668893,-0.03575437177437329,0.004537792296842649,0.11531589695772623,0.4871415578047392,-0.865676246652918,-0.000988895751689978,-0.013846205435485091,-0.0010307524092259919,0.9632680411159018,-0.2558661440269759,0.041162954360672036,0.07037658042520196
6.109999999999912,-0.027068460418079077,-0.02555381032428851,0.005799154900550252,0.11511983784909781,0.48739135251313886,-0.8655617375865913,-0.0008841901364191366,-0.011487350389118214,-0.003855415111827636,0.9632327288885695,-0.25599894220516617,0.04103250788527373,0.07045364382019337
6.119999999999912,-0.026278348938599514,-0.01751675511617157,0.005777430295443972,0.11498259823264625,0.48762537884575724,-0.8654481429077682,-0.0003414346439815617,-0.009933388171632128,-0.004443166471851927,0.9631986422737351,-0.25612517129830276,0.04093666209309386,0.07051690598910822
6.129999999999912,-0.025259092252154038,-0.011000068141290117,0.004777597734728854,0.11488026728566689,0.4878491533583121,-0.8653356141831747,0.0006055880935873216,-0.007812996560222593,-0.0037600109090999757,0.9631658049543351,-0.2562467779811933,0.04086280432964183,0.07056664580044435
6.139999999999912,-0.023083737255081088,-0.006933677549031091,0.0020803696425389633,0.11482402252387847,0.48805771839092316,-0.8652254737667516,0.0023568375648498193,-0.0029872762847185253,-0.0015052645152986918,0.9631355954257959,-0.25636092532252136,0.04082069898497759,0.07058853795590572
6.1499999999999115,-0.0190212723209422,-0.003785028703831745,-0.0015024699938810892,0.11479178955639348,0.4882335326186277,-0.8651305720688268,0.004643645114052803,-0.001150158388219889,-0.001264478736869089,0.9631107505844522,-0.2564572128040769,0.0407971818773534,0.070591467471619
6.159999999999911,-0.014407777689718614,-8.087457809001302e-05,-0.004256009865165163,0.11477667972826625,0.48837134972414303,-0.8650548056863067,0.00686109476682631,-0.0007594022453604526,-0.0011223265469584858,0.9630915543627828,-0.25653280944418305,0.040786284653710085,0.07058517540925648
6.169999999999911,-0.010223133158667012,0.006562607960056275,-0.0032006985700085873,0.11478964505256584,0.4884223189118714,-0.8650242757177723,0.008208259365384968,-0.0015919386275670406,0.0011005327075074556,0.9630846759093258,-0.2565611450579804,0.04079501336433062,0.07057097422709055
6.179999999999911,-0.005255663908052986,0.008659292899985143,-0.0014386438180324728,0.11484276121629658,0.4884458806932915,-0.8650039116154346,0.008923800935767038,-0.0019165138234161772,0.0021136250042835844,0.9630801748684418,-0.2565762778922335,0.040824620859136594,0.07055990396086631
6.189999999999911,-0.0007544197976437321,0.008380125237518396,4.3458918536870144e-05,0.11491071846588653,0.4884466295580145,-0.8649944692523411,0.00961186904405989,-0.002386364571877766,0.002586775202600553,0.9630783314849081,-0.25657953382422416,0.04086203838363744,0.07055128444247935
6.1999999999999105,0.0011369559713297484,0.005758588146282983,-0.000345395956613369,0.11497822637195891,0.48840402637465075,-0.8650095756393692,0.01101614847336354,-0.004008378185864749,0.0027540952898924354,0.9630825853408251,-0.25655885120578703,0.04089954080414021,0.07054708263210938
6.20999999999991,0.001473376395749084,-0.0004203500375666901,-0.0025749145354084834,0.11497074592305861,0.4883788380337736,-0.865024796323225,0.013088828161201391,-0.005669780428849507,0.0024306923954489335,0.9630872876338318,-0.2565440672810213,0.04089922988843979,0.07053698533122428
6.21999999999991,-0.0006022680667328189,-0.0083890827853712,-0.005610301969453606,0.11491153013758308,0.48837277538694196,-0.8650360849522645,0.015091581345657008,-0.007001744467388639,0.002373232233795616,0.963091188531143,-0.25653734740003425,0.040872328993502814,0.07052378756127275
6.22999999999991,-0.009162209220293368,-0.017855504278399114,-0.008990647931575987,0.11477063898330382,0.48841111689218364,-0.8650331508556897,0.015922698894193565,-0.007100988301535352,0.003943608300601349,0.9630916045498346,-0.25655134062042145,0.0408024466888482,0.07050762721742555
