,seconds_elapsed,rotationRateX,rotationRateY,rotationRateZ,gravityX,gravityY,gravityZ,accelerationX,accelerationY,accelerationZ,quaternionX,quaternionY,quaternionZ
0,5.0,-0.003203116322401892,-0.010907296094228457,-0.0003931009750885861,0.3480648557306267,0.47781117976410314,-0.8065651945769787,-0.0010944504989310625,-0.0033463281462900005,-0.00017729883547870325,-0.2527556840386037,0.18119596539926974,0.007226778605917519
1,5.01,-0.0027231112278134906,-0.011431715461820945,-0.0012615255724181878,0.34798055598540484,0.47784892156736164,-0.8065791734959066,-0.0014639135369005495,-0.003196501313400252,0.001387347852377032,-0.2527762181443269,0.1811479727993351,0.00723728968672362
2,5.02,-0.001660843479328426,-0.009748075292918656,-0.0004975760439009588,0.3479043831903254,0.4778718535439111,-0.8065984835382551,-0.0019172951520885397,-0.002064706815872311,0.0006766685924958066,-0.25278881228667954,0.18110378709767858,0.007248801345634692
3,5.029999999999999,0.001037717428598141,-0.00827592105774127,0.0003000855191830178,0.3478222237546141,0.4778836598859356,-0.8066268545577168,-0.0030024537128950646,-0.00044450438263564786,3.6427773554920676e-05,-0.25279425634712166,0.18105697701868434,0.00725690346668036
4,5.039999999999999,0.002103062143792519,-0.00719930861706282,0.0010941301153757925,0.3477476227499128,0.47787678766977776,-0.8066631236077982,-0.003484592480002347,-0.0016715440727566922,0.0011258254593645796,-0.2526064256578313,0.18126718574058057,0.006309649375299699
5,5.049999999999999,0.00034127601632166034,-0.004563451998294613,0.0018571571379158694,0.34770012653024734,0.47785066805591503,-0.8066990507928297,-0.0018120461123819528,-0.003982066588701733,0.002682045764166837,-0.25138251832028996,0.18291336910810968,2.36801103488121e-06
6,5.059999999999999,0.0008100024934154216,-0.004970820344215572,0.0020770444082982465,0.3476630426972406,0.47782591096547544,-0.8067297086075996,-0.001644726325320975,-0.0031242102333634714,0.003373797901440186,-0.2513708354362107,0.18288754050085684,2.0400328247946945e-05
7,5.0699999999999985,-0.0008509456880663388,-0.002112658776553395,0.0029535206821991082,0.3476608985089593,0.4777946777837664,-0.8067490916840223,-0.0028304019800327106,-0.0034071182615630193,0.004325027855841387,-0.2513564072695156,0.18288083314526823,3.779312212117279e-05
8,5.079999999999998,-8.951588733926129e-05,-0.0009949674240491459,0.003171659489680599,0.3476678497972898,0.47776924370555207,-0.8067612146260217,-0.0026732005062507546,-0.0042904236761385425,0.0034210406593048865,-0.25134605716949393,0.1828785027050283,5.807210528520537e-05
9,5.089999999999998,0.0005896098387918497,0.0009924716111664685,0.002959077904938424,0.34767714410158185,0.47774553767464667,-0.806771217219838,-0.0048573322527780275,-0.00498805581308434,0.002672319183503056,-0.25133571602218946,0.1828790613583214,7.259257365480683e-05
10,5.099999999999998,-0.0013116149078235418,0.0016923599700171391,-0.00021239413094987356,0.3476877043761733,0.47773568632226715,-0.8067725123935136,-0.004430986348038118,-0.003459336332937492,0.003468674498000929,-0.2513318341033256,0.1828826463209669,7.980233796555088e-05
11,5.109999999999998,-0.0018978433295002988,0.0035368486173541045,0.0006980044840365008,0.34769489926237274,0.4777477535604339,-0.8067622981373533,-0.0024087600112612964,-0.002676447031044779,0.0028546278575365316,-0.2513397521781117,0.1828857334960731,8.435418345884738e-05
12,5.119999999999997,-0.004161849018544263,0.0032141162625579454,0.0006469772530900105,0.3477110111671209,0.47777461732257503,-0.8067394077734207,-0.0034963687910934366,-0.0027882475536901608,0.002286976104369577,-0.251355782068104,0.18289497236417984,8.587379878780577e-05
13,5.129999999999997,-0.004188727739297287,0.002148935303220705,-0.002349097142174506,0.3477252033671799,0.477809600049706,-0.8067125362927834,-0.0022020961082769904,-0.001371436610420939,0.0014356799120312724,-0.2513754755929843,0.18290460558204732,8.285929272769381e-05
14,5.139999999999997,-0.006479494318887815,0.000341352132466964,-0.0021626210799058896,0.34773180254787645,0.47785603250940667,-0.8066821816962412,-0.0018919525670892268,-0.00035912218892270964,0.00244206198404048,-0.2514005430798537,0.1829116352115859,7.518119685069523e-05
15,5.149999999999997,-0.008079066206182785,0.0014660832211686092,-0.0025246834226717424,0.347726567027136,0.477926913089741,-0.8066424643629033,-0.0011709481608693842,-0.0002699492150197427,0.0022118874516248808,-0.25143942345082615,0.1829124749124371,6.91674345938709e-05
16,5.159999999999997,-0.011174490337279528,0.0026257343868950228,-0.004289410959337459,0.34772376282827855,0.47801427380222206,-0.8065919206537704,-0.0005670112654178141,-0.0016353152531701366,0.002233466396357797,-0.25148739720029595,0.18291561399906187,6.139254058119038e-05
17,5.169999999999996,-0.010568927086202034,0.001466823686368632,-0.004248622724679409,0.3477139825332072,0.4781045409291091,-0.8065426307165963,-0.0011491453837067826,-0.002286421841739722,0.0035871860978830368,-0.2515359620408896,0.18291618688209735,4.917180635393619e-05
18,5.179999999999996,-0.011579150802675135,0.003557303938913922,-0.005643805534451147,0.34769500604784315,0.47819743648479546,-0.8064957650397946,-0.0004205621591796434,-0.000575084860141359,0.004170527194458839,-0.2515851731922885,0.18291258297947427,3.400786624932288e-05
19,5.189999999999996,-0.010211708933822256,0.0014540067115876671,-0.006378120485500702,0.34767658018996594,0.4782993225298022,-0.806443306410549,-0.0003018735443895282,-0.0005548400161446242,0.002882745684782924,-0.2516385904379977,0.18291082552313365,1.4036631782656292e-05
20,5.199999999999996,-0.011383813697193915,0.0024693102967610226,-0.001486548604915591,0.3476692387193907,0.47839577715785697,-0.8063892593418132,-0.0017412607849107027,-0.0017667788633835444,0.000852663237310507,-0.2516915627107605,0.18291182628740182,6.053540849377825e-06
21,5.2099999999999955,-0.010679976890821619,0.0010290189916888084,-0.0017851749113012038,0.34766701809256556,0.4784868054667402,-0.8063362070521437,-0.002171569291315579,-0.003554202701334673,0.0008909675964624542,-0.2517434710117296,0.18291290654590986,7.71031804741689e-06
22,5.219999999999995,-0.012005566647986014,0.0015458250386132957,0.001699452735398563,0.3476618347580369,0.4785768808149441,-0.8062849377398379,-0.002187629219406212,-0.004244157172070008,0.0016562321339743252,-0.2517969159152795,0.18290936569699093,2.056556084483131e-05
23,5.229999999999995,-0.011050506329633083,0.0013756880378617076,0.004563239310535581,0.3476838781293301,0.4786633006051967,-0.8062241521416879,-0.002526991253380913,-0.0044226509896048444,-0.00010887959974000767,-0.2518509091663498,0.18291809890692443,4.2938312594944776e-05
24,5.239999999999995,-0.008916859938335811,0.0016164809185903156,0.006919589676392995,0.3477121297168284,0.478714254123688,-0.8061817135337962,-0.0019528751433360396,-0.004843639734885793,-0.00019942115283976645,-0.25188737013156226,0.1829258977874767,7.770951988615336e-05
25,5.249999999999995,-0.006252405565983326,-0.00015704057214893278,0.007956916865835417,0.3477609717080579,0.47874144621127024,-0.8061445147726659,-0.0022409223744854915,-0.0037102101123569816,0.001450632266853713,-0.25191258757019025,0.1829420373564508,0.00012086280317353112
26,5.2599999999999945,-0.0023026453212752515,0.0023392109299404723,0.009518547836133779,0.34781999684668874,0.478744497353678,-0.8061172509161988,-0.00233340553466192,-0.003142352210011494,0.0016222342871699646,-0.251924997413585,0.1829622183158636,0.00016707545983436726
27,5.269999999999994,0.0019526716682664717,0.0024579679814868928,0.01191277043937384,0.34788954915485865,0.47871836392300104,-0.8061027468174757,-0.002648588954987514,-0.0023970873760654323,0.001295589825964625,-0.2519210960028091,0.18298742399365422,0.00021288149957806118
28,5.279999999999994,0.002987943906982313,0.004139779746692477,0.011403464880386396,0.34796028436488957,0.4786626474391564,-0.806105303453231,-0.0029211029046932653,-0.0018175037837442941,0.002524958776805279,-0.25190082385088663,0.18301184271219778,0.00026071687647467027
29,5.289999999999994,-0.0012922082680075395,0.005414064131974764,0.01194545131156537,0.34804565271511023,0.4785980359121793,-0.8061067843316132,-0.003567985450225849,-0.002451072786014368,0.004375644446705859,-0.2518767711689489,0.1830428827247848,0.0003128090819134045
30,5.299999999999994,-0.0014937143747032627,0.004554027675110956,0.012870386755594094,0.3481455845794698,0.47855802909543854,-0.8060873761205585,-0.004042183052662417,-0.002194347838665956,0.003960815985919609,-0.25186742513914356,0.18308224801923484,0.00036641600227905184
31,5.309999999999993,-0.0014931660549960082,0.007158686914912263,0.012563897137759787,0.3482464449820057,0.4785216309700376,-0.8060653838034036,-0.0022214755577787838,-0.004036754988116535,0.004262766900057124,-0.25185988460686337,0.18312262472927415,0.0004185357746560258
32,5.319999999999993,-0.0007395600249620383,0.010552808784862871,0.009809486530844177,0.3483648118536733,0.4784815409237695,-0.8060380583244969,-0.002118951706666868,-0.0038473637156902422,0.004548219576044138,-0.25184900593042686,0.1831749196058589,0.00046148760970615965
33,5.329999999999993,0.00047677348243797303,0.011266113626923932,0.0077288546648928095,0.3484797515065099,0.47844639661023136,-0.8060092501786985,-0.0028672532431157378,-0.001468454148038007,0.005081644310527531,-0.25183764922803253,0.1832298574668699,0.0004879582376018824
34,5.339999999999993,0.004310736496016383,0.013268898361959386,0.003003889638555018,0.34859137258754336,0.47839189793157855,-0.8059933518903563,-0.0026190171323840048,0.0024698560388040215,0.004242081000120518,-0.25181204633137105,0.18328670870019112,0.0004980700470768493
35,5.3499999999999925,0.005758296602300111,0.01070418074395493,-0.0016266189344353236,0.3486768180996793,0.47835678681360183,-0.8059772236914552,-0.0016110680357881726,0.004901695405408752,0.0036285104503431683,-0.25179161370786485,0.18333678563081846,0.00048191947130776433
36,5.359999999999992,0.003863416200682801,0.010574749409664158,-0.00865697513700299,0.34872258923380817,0.47833379077612764,-0.805971074058906,-0.0008955015495642708,0.004983933462832804,0.0012339855090859823,-0.2517715419337811,0.1833727401741197,0.0004383058172533446
37,5.369999999999992,0.0029507433298683336,0.010405426751217245,-0.01342446023618872,0.34875135534271895,0.4783431061427756,-0.8059530728159676,-0.00016781159699076782,0.003311745767138267,0.00011930229049094101,-0.2517646848273808,0.18340666202906608,0.00037086017534835995
38,5.379999999999992,-0.003505283983029784,0.010425738605919178,-0.0153621483904934,0.3487600528427884,0.47838877471614183,-0.8059222270381255,0.00012272043327077697,0.002640522048592709,-0.0011280395085286128,-0.25177526661517513,0.18343420119677561,0.00029006131700283803
39,5.389999999999992,-0.005293658182523765,0.009147196059737774,-0.0167619900016864,0.34875202726867316,0.4784669970308107,-0.8058792435456175,0.0019375826825401507,0.0016781715041203043,-0.0028727861717026287,-0.25180352777480924,0.18345397961836052,0.00020768759877253009
40,5.3999999999999915,-0.00942329378179327,0.0062045471203424395,-0.01813654394469092,0.3487234964553146,0.47858237544003834,-0.8058230821917711,0.0042969289526721,-0.0005776145935463453,-0.0018120212819893137,-0.25185125188417157,0.18346500619079625,0.00012017419492121042
41,5.409999999999991,-0.0129375061627876,-0.00047105940117142666,-0.015529732720424091,0.3486595215341133,0.47873991044408926,-0.8057571941601784,0.00542886985333415,0.0003946891128396886,-0.0011428527804088462,-0.25192384369523885,0.18345514050162273,4.298173335032974e-05
42,5.419999999999991,-0.01956049796201603,-0.0036212501292382116,-0.013550625831174891,0.3485694614714101,0.47894994676929487,-0.8056713138818421,0.004406337252400221,0.00021017114353585398,-0.0019508244664792776,-0.252030878523511,0.18342514011815492,-6.121171211155258e-06
43,5.429999999999991,-0.012579488880419923,-0.001778521606861195,-0.011524390811373875,0.3484811784670277,0.47913908845377706,-0.8055970554513143,0.0027672215756380544,-0.001754105396654268,-0.0035729511136142465,-0.2521276428679262,0.18339333095658536,-4.7198538371475714e-05
44,5.439999999999991,-0.0025654616472719164,-0.004116520091037157,-0.005399298329338697,0.3484215443444555,0.47925366643030426,-0.8055547313502757,0.0017811486090077689,-0.002224996268345962,-0.004707338500884552,-0.25218644411568386,0.18337022914301343,-7.026801934865602e-05
45,5.44999999999999,0.010435560766596921,-0.011575408090721908,-0.0034090290768508465,0.34832987071579424,0.47924556112675903,-0.8055991812290569,0.0012477336407906547,0.0019792655217143597,-0.004487976002607147,-0.2521749613512495,0.1833254002675684,-9.161094712608366e-05
46,5.45999999999999,0.01811412203619714,-0.027510891052317934,-0.0008620701148632139,0.34815466978412085,0.479128982114962,-0.8057442207105218,0.004360465425954148,0.0033372133732333317,-0.003917581564913366,-0.2521029953687215,0.18322651743105353,-9.42121636723506e-05
47,5.46999999999999,0.02517211873938425,-0.033303650079636565,0.0025036374557566698,0.34790562979034023,0.4789478354862611,-0.8059594650954155,0.004278414072349326,0.003155059774730469,-0.0006213649396269535,-0.2519957840474005,0.18308025171058778,-7.801545107406707e-05
48,5.47999999999999,0.027532618085668575,-0.04050130043896469,0.005744264515166666,0.34764769903844206,0.47869848414430866,-0.806218817851549,0.0005207972498785643,0.003640904224105477,0.0015476824820451877,-0.2518554491178821,0.1829191501246892,-3.174599470189213e-05
49,5.4899999999999896,0.029055588998034194,-0.04317185991906772,0.006962115424505161,0.347376264608649,0.47843669697697283,-0.8064912225828007,0.0006506059215911667,0.0022158724925069252,0.0019755494436561618,-0.2517106518563674,0.18274610551200696,3.0309507177131724e-05
50,5.499999999999989,0.025545175482442097,-0.041271144591743046,0.006607443687318798,0.34708484758527186,0.47818549122417725,-0.8067656069414091,0.0013710417868241318,-0.0006634204767019868,0.0012627041816278466,-0.2515704417137075,0.18256368042761226,8.791713490594253e-05
51,5.509999999999989,0.019834902381615793,-0.04205077993494434,0.007785230952114007,0.3467967199497276,0.4779612144883065,-0.8070223504097243,-0.0007791371699441334,-0.003940222762454777,0.0022649987220679985,-0.2514467080653334,0.1823824809739082,0.00015103523182246562
52,5.519999999999989,0.012913258996498244,-0.036487313884210476,0.005962383561155802,0.34651659658993617,0.4778027039574227,-0.8072365681291556,-0.00200044958182689,-0.008049293210203153,0.0014069240860412223,-0.25136080771848873,0.18220721196889497,0.0002157868810319773
53,5.529999999999989,0.007056932459338518,-0.03461237923591517,0.0048982557975382895,0.34625540519061027,0.4777082386365243,-0.8074044908161635,-0.0031261105560003665,-0.010363669063288238,0.001244425884202554,-0.25131189138111887,0.18204415220820955,0.00028094799943955415
54,5.5399999999999885,0.007003598133629362,-0.03232928887119165,0.003819359389959805,0.3460246173825001,0.4776449871555088,-0.8075408767123007,-0.0025609268035624556,-0.009769204755143191,0.0025436830532272223,-0.25128078846424123,0.18189976831148988,0.0003420146034822853
55,5.549999999999988,0.010336786917095634,-0.029027281440755948,0.00103597945238637,0.3458038569107812,0.47758589958542225,-0.8076703266755252,-0.002560193180294717,-0.0063664866689828875,0.0024160504821279347,-0.2512493066097919,0.18176526304643925,0.00038711813466658045
56,5.559999999999988,0.014777706481725498,-0.026701316376243192,-0.00034682635334679394,0.3456000714257245,0.4775023656249687,-0.8078069423630948,-0.0034238039210313744,-0.003322413405845609,0.0028121188050098007,-0.2512012651569702,0.18164372478034368,0.0004155399543616981
57,5.569999999999988,0.01987703640048744,-0.022667380087752924,-0.000763921107328805,0.3454044980506521,0.47737798784079133,-0.8079640898573806,-0.0038162804685331624,0.0011062285786528278,0.005491514016078226,-0.25112699227786184,0.1815301206478981,0.0004265412410849707
58,5.579999999999988,0.02361164894345717,-0.01813326582150887,-0.0027525460522995677,0.34524792449374236,0.47720444599326606,-0.8081335214737917,-0.002606560012645672,0.003513038659731572,0.005345519288673726,-0.2510229157520074,0.1814407157714674,0.0004212482064268657
59,5.589999999999987,0.025778089533321932,-0.016203258321133503,-0.004182181538034712,0.34509259429326156,0.4770183209726811,-0.8083097693528017,-0.00266899962931342,0.0024563041874541007,0.0070559293663902236,-0.2509088192308688,0.18135568251662032,0.00040059654761093487
60,5.599999999999987,0.022476216041994075,-0.012143611763585693,-0.007957613399153724,0.3449520915619364,0.476832647524391,-0.8084792555090079,-0.003244581486000798,0.0017004423277281059,0.008750022666906995,-0.2507933866907172,0.18128170026287407,0.0003689706098752323
61,5.609999999999987,0.01643714211705827,-0.008097549978443575,-0.009125723944211885,0.3448276254666189,0.47668495080993895,-0.8086194405855355,-0.006056110940633541,0.0011501437385896284,0.008436624699644934,-0.2506979046592778,0.1812204218796879,0.00032665103873382145
62,5.619999999999987,0.009791393888362374,-0.006118494970002244,-0.012136652715977948,0.3447313294454944,0.4765924482562695,-0.8087150234350701,-0.006804070006183155,0.0001443319342851624,0.007508531547501766,-0.250633152795834,0.1811781107691953,0.00027696270687176675
63,5.629999999999987,0.0005620772711184356,-0.0018124539996105828,-0.0142278913920456,0.34464538937486117,0.47658661393304924,-0.8087550510607304,-0.006494035226948205,-0.0035637291196023977,0.0066333996715937605,-0.25061494360486547,0.1811480744796215,0.00021197706034369233
64,5.639999999999986,-0.005628855907302977,0.0019219242876883412,-0.016250941745780293,0.3445813394610912,0.4766630091926553,-0.808737333660151,-0.005835219400959252,-0.005099392278650774,0.005131003251809922,-0.250643171667318,0.18113344512352111,0.0001429983913352429
65,5.649999999999986,-0.010265667936500127,0.0058878966116126565,-0.015991025359770386,0.3445368237511894,0.4767985692744827,-0.8086764096352357,-0.005664978230552686,-0.005873310515458556,0.0041109799477356945,-0.25070574884915103,0.18113096527662417,7.516903257020944e-05
66,5.659999999999986,-0.01139627850477163,0.00809065468085144,-0.014766694411532496,0.3445243159627739,0.476961361252551,-0.8085857358359007,-0.007496199701442533,-0.005550775347117174,0.0038188260313385468,-0.2507843085779802,0.18114736004749993,5.24292060798771e-06
67,5.669999999999986,-0.0011827844832960233,0.0069074307237559085,-0.014857556035732078,0.34452038035911725,0.4770877250851266,-0.8085128411685946,-0.005750916385492391,-0.004575312798248115,0.002376040328320329,-0.25084170280700785,0.1811684569775636,-6.877791228685313e-05
68,5.6799999999999855,0.005094553199076367,0.009143811916984514,-0.012433232914153396,0.3445195538168155,0.47714472907503397,-0.8084795835145387,-0.004039912665105209,-0.0018796486051303881,0.002358325393961453,-0.2508588100605388,0.18119067699380492,-0.00014834756281414558
69,5.689999999999985,0.009626766244511283,0.009078445283104137,-0.010868816649167995,0.34453282350514197,0.47714430742780684,-0.8084741985629079,-0.002902918624021348,0.0015303579850289807,0.001556522233297125,-0.25084542625417333,0.18121666544364406,-0.0002193940016119717
70,5.699999999999985,0.0112577786885364,0.008020915876613296,-0.01015488809269684,0.3445334220207553,0.47711100719080707,-0.8084935799966754,-0.003380607969374605,0.0014707627444039135,0.0006625671912237792,-0.2508120106064739,0.1812361620692955,-0.00029580936533806797
71,5.709999999999985,0.009242078676352017,0.00573812683539085,-0.007225733090367545,0.34453366409318076,0.47705501433159125,-0.808526527033516,-0.0030548588416813064,-0.0020008854361130758,0.0025969584745067316,-0.2507694625870815,0.18124961230755807,-0.0003526161456418431
72,5.719999999999985,0.003920883963622528,0.007422115546286173,-0.0037780373601852945,0.3445599201348956,0.477011498874629,-0.8085409657510041,-0.0027579546502925247,-0.0050472973883788725,0.0032041443795785126,-0.25073871725405167,0.18127221640940278,-0.0003886793342092428
73,5.729999999999984,0.00024760876441519755,0.005722702940723092,-0.003565041700777095,0.34457683073790696,0.47699076616610697,-0.8085460006377272,-0.0018246324147188511,-0.007064679333921204,0.0013757554780119098,-0.2507218196483989,0.18128866147864586,-0.00041831363208022835
74,5.739999999999984,-0.0006164167477322691,0.001818433640226014,-0.001025785892587426,0.34458187384286215,0.4769915152100402,-0.8085434231354651,0.0001391149156798355,-0.008398163786590931,-0.0015103254843106598,-0.25071872518214977,0.1812964955491798,-0.0004374955933241225
75,5.749999999999984,-0.0014994727760167595,0.0018903203111495558,0.001054426913616438,0.3445799774395709,0.4769879667182976,-0.8085462996255955,0.0001227268112426005,-0.0071025231947760585,-0.0020835685092595196,-0.2507158564138543,0.181296484021447,-0.00044177966298114015
76,5.759999999999984,-0.0036536192900861555,-0.0011498022957120452,0.005242500817649623,0.3445887361176064,0.4770097630336493,-0.8085297440661916,-0.0003895123726900982,-0.004567315990083825,-0.002435888872180944,-0.2507301896047173,0.1812995038631124,-0.00043263820477207516
77,5.769999999999984,-0.0018825569538922214,-0.004492689094604675,0.003186822492893944,0.34458099857438357,0.47702033598907284,-0.8085267795831896,6.410821806798685e-05,-0.004755864338948343,-0.0006104276864813455,-0.2507400305870258,0.18128994904317872,-0.0004112465901460456
78,5.779999999999983,0.0004301880799372174,-0.004213417353419653,0.005366527298858479,0.3445638315849455,0.4770269266836882,-0.8085302138291303,-0.0005266956607448102,-0.004854657878500257,0.0008921979484255378,-0.2507476204437543,0.1812747126706525,-0.0003883653091623893
79,5.789999999999983,-0.00048736955462584045,-0.00390391367631644,0.004015204103526814,0.3445501696551219,0.4770123483787757,-0.8085446615412365,0.0015284228837095172,-0.0019035125704271933,0.0022011509456210405,-0.2507436458622685,0.1812603223158269,-0.0003637819339952322
80,5.799999999999983,0.001326394472610384,-0.0070643773393884455,0.005459487630496666,0.34452969217926677,0.47697908704186104,-0.8085729573785926,0.002512741293740181,-0.0007736555225804393,0.0017567706368865385,-0.25072968961556796,0.181240553878507,-0.0003350247934942362
81,5.809999999999983,0.0011999241016501486,-0.008764615712120146,0.0051322120032655984,0.3444917955898052,0.4769318766762624,-0.8086169284693753,0.0014244998938269665,-0.0011472533823926364,0.0004954751547374521,-0.2507085657676683,0.18120910476589047,-0.00029966684081692826
82,5.8199999999999825,-0.00011781995091729507,-0.007279020974688679,0.006213303004926014,0.34445921728699164,0.47687400983873635,-0.8086649695886704,0.001183331052010488,-0.0023013609728497076,0.0012121177383174668,-0.2506824547333139,0.1811790038270832,-0.0002596183098110826
83,5.829999999999982,-0.003228412458176494,-0.0064263999709441065,0.0061432065967483,0.34443419233721223,0.47684194339672104,-0.8086945393995847,0.001364814184491824,-0.002679314150008579,-0.00014313217834302362,-0.25067196203535114,0.18115271943571104,-0.00021545126130780682
84,5.839999999999982,-0.005218038477755688,-0.009608548764787032,0.004046642669890248,0.3443868555148218,0.4768485216095209,-0.80871081149691,-3.486340043875615e-05,-0.0030249094325179677,-0.0013445624265942665,-0.25068184715926595,0.18111654719933334,-0.00017575900115240133
85,5.849999999999982,-0.010258388071981055,-0.007702915764350695,0.0054400548075386095,0.34433924712076813,0.47689166053838916,-0.8087056831254068,-0.002218542432141579,-0.003110817556649071,0.00023408054952626722,-0.25071326646627323,0.18108016356354817,-0.0001317506093866974
86,5.859999999999982,-0.014509693767081631,-0.005942003025192858,0.005813069286105182,0.34431450268842945,0.4769607302724238,-0.8086754812616432,-0.002420961594201761,-0.003944725162699647,0.003684612113866404,-0.25076070140583867,0.18105616871770264,-8.431902005688942e-05
87,5.8699999999999815,-0.012891105958622622,-0.0036444665810033733,0.006201288762804381,0.34431234909279734,0.47704841249797003,-0.8086246595019476,-0.0013778702734246473,-0.004624242123101094,0.0035596385831010847,-0.25081972430020577,0.18104458208719668,-3.500947745097858e-05
88,5.879999999999981,-0.01278868504688371,-0.0014844745793302886,0.005780466447843107,0.3443346282791176,0.4771350673482165,-0.8085640268032003,-0.002837548054769364,-0.003901449265211365,0.003962732085416822,-0.2508776009763718,0.18104809503728198,7.5768713735333864e-06
89,5.889999999999981,-0.0063777652605530475,0.0014725585377086037,0.0035376909827326045,0.3443564233835785,0.47719584403093895,-0.8085188871249557,-0.005040301871487541,-0.002494248724544102,0.005931596970189916,-0.25091845194878637,0.18105380472227256,3.7898951607535164e-05
90,5.899999999999981,-0.004714510509246654,0.004838399033962928,0.006495907515674914,0.34441263722134857,0.47721738812863135,-0.8084822729769751,-0.004679840860178488,-0.0017860477213488372,0.0037400999952518815,-0.2509370059006977,0.18107868929169244,6.254204471627353e-05
91,5.909999999999981,-0.004524376601649756,0.00415054748424761,0.006123585576326424,0.34447840837237875,0.47722228905477093,-0.808451340807369,-0.00717442420718932,-0.001772907326814939,0.0021879327425279598,-0.2509469537269914,0.18110757622309587,8.999160398236105e-05
92,5.91999999999998,-0.0039674874913801835,0.007930358066086838,0.004970992318108554,0.344553917869025,0.47722231058662334,-0.8084191480821326,-0.006038513545022021,-0.0008757035315834216,0.0018926371457722462,-0.25095374950882604,0.18114261590755334,0.00011376621098177993
93,5.92999999999998,-0.0046382444530469365,0.010564335964300463,0.003592822762366924,0.34463927682822293,0.4772313937962108,-0.8083773657019977,-0.004638620831457439,-0.0013537611795521904,0.004277032726819846,-0.2509642990476493,0.18118561705328515,0.00012886073970555897
94,5.93999999999998,-0.0029258861203957614,0.011863834680347164,0.002351613396659144,0.3447364908056952,0.47724132000462943,-0.8083300779729765,-0.0037166600452750867,-0.001431618717754664,0.006521754014100774,-0.2509729674851899,0.18123888745127523,0.00012966998937704227
95,5.94999999999998,-0.001841463716429449,0.011158497513184523,0.0013954677082041768,0.3448473484314282,0.47723832233035174,-0.8082845491655888,-0.002092824899190971,-0.00025331357262084616,0.004790050190489836,-0.2509742685316235,0.18129984398922855,0.00012818909172134473
96,5.9599999999999795,-0.004256692932268935,0.013587339459269909,-0.001419157673588964,0.34495312713498194,0.477248955267096,-0.8082331502352907,-0.00196778456398222,0.001384467450367967,0.0026829458742788134,-0.250981880354785,0.18136020308473094,0.00012005239194563322
97,5.969999999999979,-0.006865123642995297,0.011590353451896336,-0.0008408677333122333,0.34503495178651045,0.4772999551147221,-0.8081681136973203,-0.0017618224839674554,0.0003321919590255555,0.001451051700861129,-0.2510096961869075,0.18141136629002358,0.00010155270460400996
98,5.979999999999979,-0.01027292733658614,0.013901362266814911,-0.0014499956950452583,0.34511517227112126,0.47737376999995856,-0.8080902482996183,-0.0018894337981577383,-0.0007736910508630472,0.0011695895449668854,-0.251050586498095,0.18146206555853256,8.409423930669388e-05
99,5.989999999999979,-0.01649838263795754,0.013606334908111356,-0.0015883439773190324,0.34518277933654407,0.47749471901898544,-0.8079899112245779,-0.001371743060605951,-0.0023056497154888287,0.0020171092191120198,-0.25111809503635557,0.18150689710049026,6.799739954815893e-05
100,5.999999999999979,-0.01961106191579179,0.014661909321532034,-0.0012913472415652656,0.3452615835252798,0.47764884494390536,-0.8078651264062503,-0.0014121734086097093,-0.0031273644482981526,0.003149456878594986,-0.2512053768801342,0.18155796560440035,5.523577039935436e-05
101,6.0099999999999785,-0.019111416011919596,0.015692242642408285,-0.00015478322019460427,0.3453623482555195,0.4778088737133029,-0.8077274211213231,-0.0005633606111675219,-0.004082420979140007,0.005298261387757664,-0.2512980205910523,0.18161938029561875,4.952858023134387e-05
102,6.019999999999978,-0.00992225431653791,0.01369432545831441,-0.0003698137793652857,0.34546297515996494,0.47793550635800874,-0.8076094466812639,-0.0012094783353960574,-0.0027860161970742862,0.005147636322357766,-0.2513705241232486,0.18168143133238043,3.74397457810786e-05
103,6.029999999999978,-0.001507816605196353,0.00839352229811248,-0.0013934249985853478,0.34555069451880455,0.4779917307168218,-0.8075386410421396,-0.0017739078249183688,0.0008312130139271677,0.0030531728626247844,-0.25140166390704644,0.1817357548087176,1.9905196913877924e-05
104,6.039999999999978,0.004779209876311144,0.01146363576763769,-0.00019174549470910916,0.34562613298081585,0.4779979556892798,-0.8075026945998658,-0.0007412238965811528,0.004416313573090315,0.000612250005148557,-0.25140387123192426,0.18178216573948547,1.2598652864718114e-06
105,6.049999999999978,0.005624515403255135,0.010516021143662806,-0.00043066326684961946,0.34569367271251145,0.4779603677351064,-0.8074960261037711,-0.0011139426232890852,0.0032007430165829002,-0.0015002213051458079,-0.2513795655141031,0.1818249549841795,-2.494192092024462e-05
106,6.059999999999977,0.005844961235244344,0.008805051995801292,-0.0007677803459705047,0.3457580952865218,0.4779102509847917,-0.8074980906728393,-0.0012071666038935877,0.002000072778521238,-0.0016889261861849462,-0.2513492522431921,0.1818640065907055,-4.486125013243476e-05
107,6.069999999999977,0.003161087269729516,0.007261245427737048,-0.003248136018331397,0.34580531399073194,0.47788524292587664,-0.8074926324083218,-0.00019000860082330078,-0.0005934417943229116,-0.001219450312892396,-0.2513319535636424,0.18189538878889996,-6.855788713742437e-05
108,6.079999999999977,-0.0016192659076244733,0.007939546442456057,-0.0013745489511730318,0.3458569777612864,0.47787443712877564,-0.8074769126760658,0.00017023631880761826,-0.002955456977356914,-0.0007912786168198988,-0.25132445493680566,0.181927355513404,-8.369380307084288e-05
109,6.089999999999977,-0.006095947074929022,0.008422605692911598,-0.0022403479142175772,0.3459131862688374,0.477896479517385,-0.8074397836695821,0.0008324884387280212,-0.004519037814139166,0.0008575133032559428,-0.2513362449695166,0.18196210926314543,-9.622858738040575e-05
110,6.0999999999999766,-0.008814690315614946,0.006710068210657044,0.00038314456989188843,0.3459716062689137,0.477962711907228,-0.8073755622183666,0.002687706554229807,-0.004929413633602484,0.0022525089038769952,-0.25137489519793044,0.18199695292689477,-9.9582001374006e-05
111,6.109999999999976,-0.0065637439033316685,0.003740033706783075,0.0016582952748000587,0.34601546684293666,0.47803011890611724,-0.8073168610318218,0.002826081972819623,-0.003359671859280649,-0.0005336867774640861,-0.25141547664337427,0.18202147589401882,-9.394007135065944e-05
112,6.119999999999976,-0.0010095622503293487,0.006036447095275349,0.004703180843185742,0.3460659709940954,0.47806334369670367,-0.8072755059620249,0.0009184292503112146,1.1786197865630553e-05,-0.002972769139155681,-0.2514370774476209,0.18204845408532677,-8.754989875604074e-05
113,6.129999999999976,0.005359327138080452,0.006551041720691603,0.0036495539548919817,0.34612118868131236,0.47804460763718853,-0.8072629315949035,-0.0014497115320483663,-6.163185965486419e-05,-0.004652817397012428,-0.2514286011256526,0.1820774162125553,-8.486517448534281e-05
114,6.139999999999976,0.011703266937081997,0.002898118717873823,0.004854910309857046,0.34617121035844317,0.4779656841354156,-0.8072882184307671,-0.0021186184581846817,0.000849022443433651,-0.004672289086754291,-0.251385343102028,0.18210242030147444,-8.478605022107628e-05
115,6.1499999999999755,0.015451717541567439,-0.006793176576106735,0.006112212782855255,0.3461606474283176,0.47783885347215793,-0.807367859558311,-0.003394756254083696,0.0015404214472296066,0.0013391677246100322,-0.2513156812278494,0.1820892830315603,-7.131895615271989e-05
116,6.159999999999975,0.01486628294863507,-0.012641957758133504,0.009155689866902414,0.34610309741630985,0.4776695424216602,-0.8074927336143294,-0.0006741891825890338,0.0020372847546759297,0.004484946862905015,-0.2512238423932123,0.18204456896751547,-4.050686124289625e-05
117,6.169999999999975,0.014480388512141534,-0.01601347240990666,0.00945021895268211,0.34603850402901426,0.4775007988491749,-0.8076201743921623,0.0007768743120542261,0.0008708545726492231,0.005175075308847065,-0.2511354081074107,0.1819915289015716,7.373671750548101e-06
118,6.179999999999975,0.01556056210551961,-0.018093300731381757,0.008451706750746272,0.3459578093606981,0.47733267952935465,-0.8077541205784652,-0.001521134050563153,-7.974170148422694e-05,0.003744837616980568,-0.25104681321128525,0.18192974435847983,5.510539701671492e-05
119,6.189999999999975,0.015137013232668785,-0.01716310613811865,0.00851582838323471,0.3458611535699781,0.4771698293659085,-0.807891753512648,-0.0015589648444999148,-0.0001628978972492777,0.002333570559474479,-0.25096053507381716,0.1818596698552419,0.00010179430544682354
120,6.199999999999974,0.010307994478819612,-0.015608330866307588,0.005327519277733594,0.3457645678579868,0.477048051502061,-0.8080049908821818,-0.0022750133335679343,-0.0022761026266318153,-0.0004704670514912751,-0.2508961406438306,0.18179282749876424,0.0001410700624324859
121,6.209999999999974,0.005318481638535946,-0.013811692306823378,0.0032654306598526336,0.3456404399110856,0.47697460853717394,-0.808101435611496,-0.0012528799427849568,-0.004742888853275783,-0.0001735987658080017,-0.25085617101242097,0.18171531148014744,0.00016910245045707306
122,6.219999999999974,-0.0010071988730067935,-0.012783991728459527,0.0027796827749225848,0.34553631694467113,0.4769475861619558,-0.8081619357281654,-0.001654233783027932,-0.007349202630601222,0.001619368833047205,-0.2508437526206199,0.18164924183832004,0.00020045034292360696
123,6.229999999999974,-0.000197991079376574,-0.011587805718853383,0.0011657235284952667,0.34543811889898596,0.47696216166483624,-0.8081953368953876,-0.0019434317344358778,-0.008219448561491339,0.0026695102104698095,-0.2508541695921413,0.18158888957271466,0.00022711044244314336
124,6.239999999999974,0.0017506451422164104,-0.009858655512675953,0.0008173778158338411,0.34537304681926456,0.4769748531275945,-0.8082156001734313,-0.0019087337165384166,-0.005169400468092311,0.0035916165638150903,-0.2508629522669135,0.18154881868604883,0.0002455130486457477
125,6.249999999999973,0.0030873458619449924,-0.007477104995405175,0.003032620480625645,0.34532878447701204,0.4769675316059108,-0.8082388272794416,-0.0008227589931538362,-0.0022321275233324073,0.004570201637020193,-0.25086002591548623,0.18152085092284284,0.00025884202086507834
126,6.259999999999973,0.00781226563678003,-0.00478707911651722,0.0019310617874997496,0.345292137264798,0.47693170149767977,-0.8082756391145232,-0.0014581200160600414,-0.002238768159895912,0.004151181211560806,-0.25084069810208076,0.18149686909988336,0.0002697136459170937
127,6.269999999999973,0.00856814569804451,-0.00449574171502713,0.0009810280007564885,0.34526464019574016,0.47686699016193945,-0.8083255687257984,-0.0029546770452760314,-0.001697261527917832,0.0029371065778357967,-0.25080435606235013,0.18147833476649775,0.0002757404212926395
128,6.279999999999973,0.014144704708875917,-0.0032519988823649275,0.0010502297904233415,0.3452386265743583,0.4767656738535765,-0.8083964142333189,-0.004107945868636229,-0.00012862689981351722,0.004762765209740252,-0.2507453796045616,0.18146224803730676,0.00027147787859732576
129,6.2899999999999725,0.014959673081654473,0.0009280358951831638,0.004117244937112527,0.34524727833922936,0.4766216390271443,-0.8084776563628109,-0.003808332912738977,0.0001684091548604414,0.004285083530701447,-0.2506642589804041,0.18146238944132592,0.0002728395095175021
130,6.299999999999972,0.013003282605096799,0.0017198355489317714,0.0014678378190437933,0.3452794243902703,0.47647091535057123,-0.8085527681894639,-0.004280936032948174,0.002175400931905741,0.004835553443267714,-0.25057926249349205,0.18147628915428649,0.00026999732412850557
131,6.309999999999972,0.012751284673876274,0.0022783641747018846,-0.00241385945555592,0.3452977438922971,0.47633900609798757,-0.8086226661689578,-0.004774856287985795,0.0014853003900549108,0.004125622287391887,-0.2505021855219193,0.181486448295738,0.00025480651663567684
132,6.319999999999972,0.009501481540889097,0.004399813115751464,-0.0025185201663111352,0.34531607502792594,0.47625199561821707,-0.8086660712995213,-0.004814698187801033,-0.00042334260354036634,0.0040113014898361665,-0.25044850473520464,0.1815007160648892,0.00022901532063841027
133,6.329999999999972,0.0034766160187533084,0.005410099355596821,-0.005305098162299888,0.34533413577592,0.4762182438746094,-0.8086782468773891,-0.004289193535812927,-0.002936265108288435,0.0016670330776855057,-0.2504234759129985,0.18151849128571076,0.0001952392258676555
134,6.339999999999971,-0.002230334728152715,0.004425698007690505,-0.007818277004519742,0.34534273351978795,0.4762311037763981,-0.8086670355702759,-0.0019187358715332958,-0.0036976430172775566,0.0010657661874283362,-0.2504246097190748,0.1815323620084525,0.00016181724529178122
135,6.349999999999971,-0.005293096446428361,0.001885297473326887,-0.009418938671835143,0.3453181383003613,0.47629806996832424,-0.8086381008338016,-0.0011326799522518639,-0.0015622039100919595,0.001521142415684689,-0.25045448954357374,0.18153098735823303,0.0001234158662703102
136,6.359999999999971,-0.008478870630571794,0.0026036336716763783,-0.008937121164129732,0.3452794449787415,0.4763913957471447,-0.8085996235317616,-0.002080556435656833,-0.0029358575417703634,0.0002464699756823606,-0.25049774089972326,0.18152428089401199,7.897242787606055e-05
137,6.369999999999971,-0.008669805257125827,-0.00040986417169038507,-0.008649238776806284,0.34523655952992044,0.4765017583921503,-0.8085529363907137,-1.3166719733374762e-05,-0.003049206715805459,-0.0001218730622896287,-0.2505515113214644,0.1815143809290623,3.979147386996058e-05
138,6.379999999999971,-0.008157917220630851,-0.0006088067778964733,-0.008717061739323056,0.3451762678695139,0.4766128178005301,-0.8085132413177726,0.001533996007155533,-0.0027071998176621185,-0.0014018757119120308,-0.25060485281753414,0.18149545470121572,-1.0904872325883519e-06
139,6.38999999999997,-0.005501257952349956,-0.0016544517529835665,-0.007139289180496801,0.3451159006799573,0.47671654407167785,-0.808477849001065,0.0025673465570407524,-0.0027323360554893194,-0.0006626617396268622,-0.25065611867627874,0.18147340662608963,-3.112955524329127e-05
140,6.39999999999997,-0.004388416725162585,-0.0020444469261506094,-0.004114033992992633,0.3450628870452666,0.4767896393269441,-0.8084573572576658,0.003025890191132251,-0.0020821878173474667,-0.00018501656558848854,-0.2506923371913671,0.1814515987827076,-5.0225437333820966e-05
141,6.40999999999997,-0.0034559938269412083,-0.004584949082298614,-0.004350997533752909,0.3450016446266092,0.4768332921958062,-0.8084577331435866,0.0006007038202399251,-0.002004286000729024,-0.0005663907038997224,-0.2507116800956184,0.18142431606361675,-6.89942636423681e-05
142,6.41999999999997,0.0014866972548980698,-0.005179054246004785,-0.0012651519471941985,0.3449432650525304,0.47683756003722627,-0.8084800971292043,-0.0007354097460506825,-0.004619306751503053,-0.0003541215528464868,-0.25071143138115326,0.1813938303355745,-7.400429471057808e-05
143,6.4299999999999695,0.0013122446494763958,-0.005831879234080634,-5.138935493145694e-06,0.3448950729878562,0.47682104389023156,-0.8085104359604883,-0.004027628114998129,-0.004914079846639263,-0.0027319250337304855,-0.25070087686679315,0.1813666591345444,-7.281091815040597e-05
144,6.439999999999969,0.0034858019865388204,-0.0037354465994671464,0.0011744573381897235,0.34486158831049174,0.4767883903013264,-0.8085439678261447,-0.004606359905757302,-0.005170533862120384,-0.0027658272568946976,-0.25068283928603485,0.1813453490673049,-6.517086081396945e-05
145,6.449999999999969,-0.0017811221790486151,-0.002204247883915024,0.000653699480163352,0.3448484825699463,0.47676409954162186,-0.8085638880729675,-0.004756199172119308,-0.006573786512038931,-0.0009466117618353166,-0.250670548520685,0.18133486274104366,-5.5361179635951195e-05
146,6.459999999999969,-0.007912781893735696,-0.0036319816318759785,0.0025102539773827733,0.3448361985909287,0.47677769144502213,-0.8085611031812733,-0.001905975170668355,-0.007946377671038377,0.0011939433825271498,-0.2506820675247401,0.1813227903283505,-3.34835757111764e-05
147,6.469999999999969,-0.009313518597927227,-0.0060143775434344775,0.0035478461776664787,0.34482569262780793,0.47682253577291106,-0.8085391468314156,-0.0011626330433728807,-0.00620551045421459,0.002754274564821458,-0.25071346284600743,0.1813096448982401,-4.2447431670228214e-07
148,6.4799999999999685,-0.005162590756560957,-0.0072807977931685685,0.0051192959258827275,0.3448078104242247,0.4768564141158122,-0.8085267854672251,-7.067431765728709e-05,-0.004964869758719643,0.004102484212113309,-0.2507389382959403,0.1812914378315266,3.5295365450704075e-05
149,6.489999999999968,0.0023523953387302524,-0.006733218264451269,0.0012272357464112019,0.34477142650463466,0.4768455883542806,-0.8085486951016106,-0.0004911329227992735,-0.0010734174148613717,0.0016104011648210357,-0.2507355792741638,0.18126588695363077,5.549996229658603e-05
150,6.499999999999968,0.00541186278386903,-0.007073558834347033,-0.003019374807540465,0.3447085709522073,0.4768002325035924,-0.8086022422139647,-0.0012867429504651055,0.002613453740195264,-0.0019464730794353912,-0.25070775095405673,0.18123054654992984,5.4045351021138305e-05
151,6.509999999999968,0.0016800632078197764,-0.007302935294518733,-0.001838936839744514,0.34461899487758796,0.47675719333107075,-0.8086657868126221,-0.0026538925074931544,0.0026568504251012546,-0.0035359538497286456,-0.25067946461532803,0.1811819857252642,4.750154456462658e-05
152,6.519999999999968,-0.006375876431443269,-0.003958947957269848,-0.002075000557114829,0.34454915428577826,0.4767560869164297,-0.808696180912375,-0.003768260572548584,0.0017214756750108223,-0.0003386233424166426,-0.25067762259631104,0.18114256269007123,5.1962085328628374e-05
153,6.529999999999967,-0.013955456148195905,-0.0030156369028023454,-0.003884066252106479,0.3444887319041899,0.4768223754778615,-0.8086828599057271,-0.0018057859040903161,-0.0006537234284855294,0.005930576948899547,-0.2507139362068624,0.1811107086867826,5.480530078311664e-05
154,6.539999999999967,-0.01871516453060514,-0.002256476842691852,-0.003770568125543239,0.34444192218434194,0.47693977267481347,-0.8086335322979723,-0.0002431254943069759,-0.0034868606941042234,0.009360545051456151,-0.25077886674200195,0.18108890603912245,5.355989202964485e-05
155,6.549999999999967,-0.013695489585514394,-0.0026406781088846344,-0.003976792411836279,0.3444100047793895,0.47706221964309553,-0.8085749086653532,-0.0004823527704163324,-0.0024722047465244373,0.009609937686774466,-0.25084749393681927,0.18107482583800644,5.447722063765928e-05
156,6.559999999999967,-0.005749551029543687,-0.0003295456837423586,-0.005597200793412862,0.34439504060717535,0.47714131973696006,-0.8085346420533217,-0.0011451715505839681,0.0002046362209092825,0.005769120258320696,-0.2508905372890411,0.18107075822160237,4.761645815661232e-05
157,6.5699999999999665,0.00010710314467667588,-0.0008908370847110724,-0.005246057610950814,0.3443748555485472,0.47717947792064047,-0.8085207249296754,-0.001216569519962172,0.0021691938103068535,0.0008295186139631322,-0.2509074094362805,0.18106661096556187,2.5747729850302976e-05
158,6.579999999999966,0.002334873129532836,0.001606125765959778,-0.006207769883811601,0.34434769802798276,0.4771811114513868,-0.8085313023732994,-0.0029815211752021987,0.0029113908945374765,-0.002437396868862497,-0.2509016297828438,0.1810600199415268,-5.343756222519258e-06
159,6.589999999999966,-0.00043428544196929674,0.001299802247335806,-0.0031674029370624556,0.34432002137311046,0.47719678874884536,-0.8085337919267312,-0.004234756601683949,0.0024454270913497347,-0.0032512001005756946,-0.2509049628399638,0.1810519101787613,-3.0248945472583426e-05
160,6.599999999999966,-0.00769405599304493,0.0057871300206662445,-0.0025942022116103173,0.3443203072783943,0.4772494549288237,-0.8085026146945895,-0.00439167840159433,-0.0023858755230185542,0.0031184034523708535,-0.25093138623414457,0.18105839372423074,-4.830499556530287e-05
161,6.609999999999966,-0.010659158002708162,0.009051553906370732,-0.0022829971457539117,0.3443715724588005,0.47732954103184516,-0.8084335081833096,-0.002778283932503801,-0.006249708413020248,0.00840845940881467,-0.2509762903816553,0.1810915198119768,-5.862063367867045e-05
162,6.6199999999999655,-0.011030961793288293,0.010169807142369662,0.0017793261197426987,0.34445645120400037,0.47742313993460533,-0.80834207240776,-0.0008039417296880643,-0.008544249939195874,0.010168292742521401,-0.2510313878442426,0.1811414012731505,-6.110307099309686e-05
163,6.629999999999965,-0.010932210087375745,0.01144940713056508,0.0034190093568773907,0.3445495421525888,0.4775073092775029,-0.8082526872959184,-0.0012204598444802888,-0.006538720552445684,0.00892865034771158,-0.25108351881486546,0.181192518231926,-5.234377309472012e-05
164,6.639999999999965,-0.004796279223388994,0.009125473970946454,0.005389443471476256,0.3446402320349507,0.47757359166002494,-0.8081748648680209,-0.004333086036981644,-0.004165588334701153,0.0038828914980499753,-0.25112604307438263,0.18124096055139627,-4.045340833951511e-05
165,6.649999999999965,0.003882351182800831,0.00824489986809967,0.006229572827070356,0.34472398978783575,0.477568114771688,-0.8081423451401014,-0.005908552484381217,-0.0008110807638585249,-0.002105861056044442,-0.2511276236196596,0.1812835780559385,-2.8861503194590864e-05
166,6.659999999999965,0.01070854470395909,0.0062428789114761865,0.0030236092844222115,0.3447841272134936,0.47749371047615286,-0.8081606794452424,-0.005678963738608846,0.0022409578215688924,-0.006833301363671502,-0.2510873031365575,0.18131418857679293,-2.8504071806048615e-05
167,6.669999999999964,0.010811807107961403,0.004270715107708029,0.001902617461935023,0.3448161253982106,0.47739731669134944,-0.8082039583212463,-0.003926451718148694,0.005367126215434631,-0.0058464752568593,-0.251032503543674,0.18133033748695476,-3.4204383147485554e-05
168,6.679999999999964,0.0023402986956922974,0.005413427792155371,0.0016962421106782874,0.3448534553977685,0.4773347006215678,-0.8082250264336758,-0.0023399127270706034,0.001997069298468161,-0.00035773950297451917,-0.2509978683956937,0.1813492553740656,-3.549147216056675e-05
169,6.689999999999964,0.0010204056400696876,0.0034384400938382437,0.002090157474857194,0.34490298868177344,0.4773204596123137,-0.8082123129025385,0.00018477449048194474,-0.003659780515473521,0.0052758173427903485,-0.2509919413988528,0.1813749935245863,-3.192448554581506e-05
170,6.699999999999964,-0.0018494608077936857,0.003309398407910248,0.0029504635191698442,0.34495038694766755,0.477313196700556,-0.8081963612499887,0.000495305456956829,-0.006227112039766623,0.009959676611150473,-0.2509910015144539,0.18139826274719922,-2.2642719440192395e-05
171,6.7099999999999635,-0.0024234496347612755,0.002361367158306056,0.0004875535750530232,0.34498597456664387,0.47731484281289466,-0.8081801725372183,0.0008525437023365136,-0.0020231107545851637,0.0056927658082816185,-0.2509934766781606,0.18141714452909544,-2.013994026499506e-05
172,6.719999999999963,0.0027740028586065763,-0.0030074319872267605,-0.0012944462032975694,0.3449664146091501,0.4773105615631047,-0.8081911030602117,0.00029229122374589114,0.00024967058368315656,-0.0016724849077033312,-0.2509896804144681,0.1814073839253563,-2.424817020284913e-05
173,6.729999999999963,0.0009069525062402985,-0.005406768139592655,-0.00206317585151906,0.34490749722026554,0.4773117112446924,-0.8082155681564471,-0.0006192650427673329,-0.0006072359610726202,-0.0075318568036789255,-0.2509873580607584,0.18137687534357055,-3.071015412934491e-05
174,6.739999999999963,-0.007267861772809877,-0.006008619690857957,-0.0006529921852130331,0.34482355613707827,0.4773459585397899,-0.8082311799570217,-0.0011433618903986152,-0.0003030860538004136,-0.009617214835662207,-0.251005957192311,0.18132962168811037,-2.1881164663269767e-05
175,6.749999999999963,-0.015218879203888288,-0.003760036366712869,0.002941345298044857,0.3447568658826641,0.4774457437611994,-0.8082006532320523,-0.0015659620359696506,-0.0037750389834156775,-0.006292862110455323,-0.25106385567710165,0.18129150700014685,-4.545178425528077e-06
176,6.7599999999999625,-0.016062869635447025,-0.0011748657439333077,0.00479236235751563,0.344740950130599,0.47757730808426574,-0.8081297122626647,-0.0006025332981882787,-0.009554166641797519,0.002486742531638587,-0.2511442896980755,0.1812779191558629,2.8650211068644e-05
177,6.769999999999962,-0.011159852379339,-9.746687788413718e-05,0.005929904489791479,0.3447820474742909,0.47766696347680393,-0.8080592183512637,-0.0005233614370794141,-0.009427343031003094,0.009658799890884076,-0.25120470547639273,0.18129147015364871,7.256288760511549e-05
178,6.779999999999962,-0.0025954765359390785,0.0013948653006273333,0.0054014842507834095,0.3448290909870222,0.4776896270264583,-0.8080257029494392,-0.0008968332872177296,-0.004463994558327175,0.011733811064322695,-0.2512255819083584,0.18130870848611289,0.00010729568499436487
179,6.789999999999962,0.007948173922673397,0.0017170555577794065,0.004557747121330292,0.3448765217594319,0.4776411182839544,-0.8080341744133029,-0.0014951750575969388,-0.00040086004566583706,0.00847195558722465,-0.2512034149091271,0.18132777093103314,0.0001279349136396166
180,6.799999999999962,0.019570061155057387,0.00025561518310056894,0.004924470858313941,0.3449184549947861,0.4775044568513786,-0.8080970129397749,-0.003989673376126437,0.003218313023769873,0.0015303061269675898,-0.25112917926023304,0.18134396755025145,0.0001382624122563356
181,6.809999999999961,0.02143846865211291,2.1706585722418496e-05,0.0035847694542718725,0.344926745310584,0.47731455188232375,-0.8082056466977001,-0.004655594508846022,0.005713350146039987,-0.004422150549532603,-0.2510211741549478,0.181343739971317,0.00013508146479851083
182,6.819999999999961,0.017191299952555493,0.0009537896612034126,0.0010802916064658798,0.3449217453171503,0.47713571306946656,-0.8083133663253719,-0.0037343823060532895,0.004573787449674951,-0.006932622252651396,-0.2509177535430344,0.18133836731547182,0.00012510505009922758
183,6.829999999999961,0.005129084560325971,0.003734771243136422,-0.0005948749776184544,0.34493005995830267,0.4770296538668259,-0.8083723999393276,-0.0022758394741808283,-0.0003960904633375118,-0.004527373331277053,-0.2508550560466892,0.18134370907102662,0.000110225167636079
184,6.839999999999961,-0.009094982586106767,0.00460241875454174,-0.0005619838914090764,0.3449631437241995,0.4770229242827365,-0.8083622734885018,0.001457565812007548,-0.004584193888127793,0.0027142941641572836,-0.25085083801890096,0.18136350628191622,0.0001030225174486058
185,6.849999999999961,-0.022063527563943322,0.0045081486590646145,-0.0014725207204730351,0.3450142897650221,0.47713904357415626,-0.808271915638672,0.004191121422056332,-0.005873954552344411,0.007926815051826264,-0.25091992253737067,0.18139249488135864,0.00011225251389303691
186,6.85999999999996,-0.022475640349849463,0.005273325722973677,-0.001459771599225146,0.3450682846603738,0.47731587562229766,-0.8081444165669387,0.002028513536077404,-0.006064261842409341,0.007819997904896927,-0.2510241413439003,0.18142398694080059,0.00012468660256080395
187,6.86999999999996,-0.016288193674447584,0.008529575600674542,-0.0020123659084963145,0.34512026531600143,0.4774814920143248,-0.8080243804721139,-0.002064754295389148,-0.0036923456011581732,0.0032568667147926723,-0.25112027765635286,0.1814563533248298,0.00012838674777590644
188,6.87999999999996,-0.0010610367657549883,0.00975575142980272,-0.003477594393760287,0.34516841226868544,0.47756376473989803,-0.8079552109105862,-0.0052783819701216995,0.0030261453837596547,-0.003936525451693031,-0.2511643964676168,0.18149060723000673,0.00010766005806207478
189,6.88999999999996,0.006919441010648317,0.006404782024784087,-0.0013508514939305739,0.3451953731389774,0.4775486905773914,-0.8079525716101705,-0.006698697617704262,0.006127310599346166,-0.00906763251277196,-0.25115047917119526,0.18151349494464053,7.523245302288234e-05
190,6.8999999999999595,0.006845372086317256,-0.0028972418692736835,0.0004986203294379524,0.3451640222900355,0.4774911819641452,-0.8080000550668744,-0.005392023354014345,0.005439964805624842,-0.005330250891356912,-0.2511131127626659,0.18149983427510127,5.541192887330803e-05
191,6.909999999999959,0.0006887207764595088,-0.00514803415760727,0.000696587425412543,0.3450947485468582,0.4774534628728248,-0.8080518905865931,-0.004513692897310395,0.0010236388988510694,0.0038062165264281045,-0.2510890575459209,0.18146168094894216,5.2134685137720686e-05
192,6.919999999999959,-0.002162881138048472,-0.007222507083015966,0.002522321794927867,0.34506116653097574,0.4774359010330777,-0.8080765640756872,-0.0026370151889265653,-0.0025398033246564417,0.008809987691437706,-0.25108127325465945,0.18143845241885379,6.860038578951622e-05
193,6.929999999999959,-0.0019119189831095997,-0.0053187774736365495,0.003336380308197377,0.3450574925477273,0.47743121511014147,-0.808080929841931,-0.0009261964027382755,-0.00322325421084881,0.009983627605975836,-0.2510837952852429,0.18142895120729136,9.642093515038973e-05
194,6.939999999999959,-0.0029084136060974417,-0.005512390630439809,0.0003008835346677804,0.34505552672720585,0.47743751205407176,-0.8080780391956305,-0.001765912519641179,-0.00501034205609465,0.007896092998538317,-0.2510925368718942,0.181420853095649,0.00012374704264359846
195,6.949999999999958,-0.0026692547216783367,-0.005526484513228017,0.0030379584813217202,0.34502734697307474,0.4774514115037162,-0.8080818559232285,-0.0031328395649276018,-0.006348499524756795,0.002716634348347675,-0.25110376420534203,0.18140005184726857,0.00014565314704000589
196,6.959999999999958,-0.0018826871457487146,-0.004390245405548092,0.00427014893694995,0.3449811431330207,0.47747894494957355,-0.8080853320474143,-0.004083875882833253,-0.006327845012139724,-0.0022180947914181215,-0.2511220481015332,0.18136994093521522,0.00016695909568041324
197,6.969999999999958,-0.004944368829098936,-0.003813138112718708,0.00628405528352797,0.34493408196649417,0.4775073330747544,-0.8080886341325823,-0.0034179634698395635,-0.007111765957229226,-0.004422360617901407,-0.2511420052208987,0.1813377633764683,0.00019447408569601125
198,6.979999999999958,-0.0034535786050043467,-0.0016349682603757118,0.0036274207666691376,0.344893140083091,0.47754156864069164,-0.8080858497658624,-0.0024947018941006973,-0.007735208460787573,-0.0036740168247237064,-0.2511652277106074,0.18130938798955662,0.00022090620638299112
199,6.989999999999958,-0.0029306835015440883,-0.002831028292982221,0.0037276763984964998,0.34487210912756155,0.4775698557927181,-0.8080781100696149,0.001170825931616751,-0.005286068883319738,0.00047854101368757806,-0.25118525768459066,0.18129230295785256,0.0002451705432457059
200,6.999999999999957,-0.0020812010938689807,0.001315280275430834,0.004786006428541055,0.34488180547236036,0.47758680039908324,-0.8080639686628706,0.001963463108811566,-0.004498542479133561,0.004537070389697821,-0.2512003277415117,0.18129092328089538,0.00027233454834887444
201,7.009999999999957,-0.0028545381479162368,0.0010264061605122258,0.004968930037546454,0.34493008294375593,0.47758952785516157,-0.8080417701392435,0.0007936891052017257,-0.003877106803707208,0.006562938354900484,-0.25120855115172525,0.18131017119267026,0.00029977669779508427
202,7.019999999999957,-0.00023206047689195298,0.0007305125840044718,0.006980280769328145,0.3449778075918152,0.47757995277341286,-0.8080270323972667,-0.0009405501027638965,-0.0027930602033710322,0.008258073348496549,-0.25121013756636573,0.18132825868148827,0.00032910953256169235
203,7.029999999999957,0.00010519534938223575,0.004244395940320096,0.005005945726515039,0.3450313643512686,0.4775434509499961,-0.8080257507353181,-0.002314777118560898,-0.002639974068850977,0.006847546845152155,-0.25119558507123707,0.1813502141295212,0.0003529161039925567
204,7.0399999999999565,0.003410315005328914,0.003370885762600532,0.004657077630692926,0.3450639267290568,0.47749225739430157,-0.8080420982580708,-0.00385907934567047,-0.003647859804493699,0.0022492418414409862,-0.2511698594073684,0.18136328223965673,0.00036517419231171664
205,7.049999999999956,0.0016792563467871054,0.0013610226556683702,0.0036421368740320857,0.3450910665073024,0.47742582480932483,-0.8080697815443272,-0.0049350101479061995,-0.001271364796427198,-0.0020608966209645025,-0.2511354840506537,0.18137273965056608,0.0003781664352700862
206,7.059999999999956,0.0002000257469558604,0.001635662564174819,0.002193772325006447,0.3451030634808511,0.47738367890868727,-0.8080895777245004,-0.0019267591558830217,0.0015948973061453054,-0.0024965326717090925,-0.2511129792745357,0.18137665440800219,0.00038351997058798566
207,7.069999999999956,-0.003194840112050008,0.002484942224606164,-0.0003447071482864653,0.34512767544001677,0.4773816270273525,-0.8080802667813262,-0.0008335908314599965,-0.0005384629111943554,0.001746132590037237,-0.2511143229657425,0.18138761549944946,0.0003928106055305933
208,7.079999999999956,-0.008305748978902822,0.003640426268698255,-0.003654217729676691,0.34515622969033377,0.47744018642817654,-0.8080334562907855,-0.0014625283419805167,-0.0034341001610986195,0.004509947676224455,-0.2511473732453648,0.1814063608478607,0.0003875456363613929
209,7.0899999999999554,-0.008051554281400431,0.0034468002980662864,-0.004947146186076827,0.34516481912843544,0.4775182796693609,-0.80798365982023,-0.0029489780013416543,-0.0038916994960948186,0.004242967590765816,-0.2511883212988817,0.18141827715865655,0.0003688588064767467
210,7.099999999999955,-0.005829004138997714,0.0020679968154644953,-0.00620356449660273,0.34515604578986836,0.47759836430207453,-0.8079401010755236,-0.0015664512121465603,-0.002620278755824291,0.002825748795020026,-0.25122867508236296,0.18142246872507298,0.0003437560848716491
211,7.109999999999955,-0.006337220557482816,-7.854351747372602e-05,-0.00794911098433836,0.345135203429631,0.47766836053190603,-0.8079075229411223,-0.0010183989105335479,0.00020357630306418873,-0.00028638117550121317,-0.25126160365195227,0.18142170570343746,0.0003113950521886762
212,7.119999999999955,-0.005334727220828656,-0.0008743426098014427,-0.007305616624882503,0.3450850650285059,0.4777349314887193,-0.807889592528515,-0.0016002188650872853,0.0003743603923509816,-0.003168863722689594,-0.2512920423001514,0.18140428830207525,0.0002809148087911362
213,7.129999999999955,-0.01056443189950218,-0.00017618675452586203,-0.008521584724197916,0.34501732299939847,0.4778301937092964,-0.8078621990424906,-0.0012786215432424638,-0.001269279921804776,-0.003537879741839671,-0.2513377706410077,0.18137868374805385,0.0002481195675517845
214,7.139999999999954,-0.011406788950845962,-0.0025286833515382316,-0.006378022641027637,0.34496316887248585,0.47795016189280853,-0.8078144009307907,-0.0015190679277747232,-0.0026265290541580195,-0.0021014175828060317,-0.2513984959073785,0.18136041739009845,0.0002184511692955613
215,7.149999999999954,-0.01423133769398989,0.00028925236138309303,-0.006145557279112332,0.34493172160219865,0.4780784652344573,-0.8077518695718742,-0.0013709765941137969,-0.005374665672365577,-2.9844808956249e-06,-0.2514668612169575,0.18135179116332903,0.00020030579481504707
216,7.159999999999954,-0.011924593726502931,0.0007904853085812013,-0.003259864095709923,0.34491572427780487,0.4781836796175326,-0.807696410751457,-0.0012278987804581493,-0.007031313446552264,0.0032075961112633545,-0.25152422373694877,0.18134870378925028,0.00019068124956008045
217,7.169999999999954,-0.007843826026045319,0.0007343516936843185,0.00011617975901927736,0.3449042422880061,0.47825991564935666,-0.8076562122904842,-0.000995920848299815,-0.005648563284942649,0.0037355410343583757,-0.25156642104323806,0.18134559751216855,0.00018714239716338766
218,7.1799999999999535,-0.0027191618354067155,-0.00013576450032780937,0.00011483304077676543,0.3449085535103223,0.478294682817068,-0.8076337827078532,-0.0028316087671486656,-0.0017916643439154065,0.0019444668432736874,-0.25158790218232974,0.18134671374658184,0.00019572545430729594
219,7.189999999999953,0.0031685890843726086,-0.00019745960587611044,-0.001199290405365917,0.34489290388557703,0.47828643293413114,-0.8076453021872169,-0.004003066169514444,-0.0006278953434856304,0.0010417139227876628,-0.2515822608942863,0.18133866967414974,0.00019293427580060858
220,7.199999999999953,0.002904691244879789,-3.88362257873318e-05,0.0001945760129103421,0.3448779722512204,0.47825010123306083,-0.8076731865767088,-0.0028877635026169383,-0.0004358269660422031,-0.00022672380903244056,-0.25156024684687667,0.18133076406751258,0.00018786658729243427
221,7.209999999999953,0.0031387837884889443,0.0013908057637227488,-0.0014456693165324766,0.34486928400678485,0.4782188587131685,-0.8076953856685753,-0.001890235208816372,-0.0003097561482882297,-0.000782834450497531,-0.25154078192161683,0.18132714244675235,0.00018005134275106503
222,7.219999999999953,-0.003454264359573962,0.00041854412532918255,-0.0009461765849290173,0.344866242986101,0.4782104942587218,-0.8077016579183178,-0.0017537666885392997,-0.003231522099901389,0.000550535303260252,-0.25153512686488366,0.18132633674226062,0.00017583586358454255
223,7.2299999999999525,-0.00921379983255826,0.0005448918048929409,-0.0022227846174306958,0.3448647389861919,0.4782553509913457,-0.8076757680918395,-0.0010302669303094282,-0.0051120762510849585,0.0016955099258606052,-0.2515600065966895,0.18132756195978195,0.00017314077276726125
224,7.239999999999952,-0.017145931996594147,0.00043931685175083775,-0.0030343365487306385,0.3448610537568232,0.47836242144304003,-0.8076139595616021,6.119031180327691e-05,-0.005548949371312242,0.0032811418514670163,-0.2516207683815996,0.1813284644197933,0.00017401120080667894
225,7.249999999999952,-0.018574264345407897,-0.0001004964437188733,-0.0038535797029544566,0.34485188763080343,0.47851770116297354,-0.8075258749392084,0.0007737460856300771,-0.00549483117861478,0.0038211100234188788,-0.25170861656556087,0.18132798878278206,0.00017424331059705893
226,7.259999999999952,-0.01854603545563149,-0.00012300743198595266,-0.004655598134571592,0.3448295694911473,0.4786927779750324,-0.8074316306978384,-0.0006880579097374791,-0.004889040516068589,0.0005962561087362777,-0.25180708979561617,0.1813212038661785,0.00017334251071678646
227,7.269999999999952,-0.017346741107761632,-0.0009297948001489982,-0.001947186708026141,0.3447945746942426,0.47885717250173837,-0.8073490948881957,-0.0015882167383057808,-0.0023855576641024453,0.0005424292292448378,-0.2518982683680609,0.18130834073085988,0.00016796997780634538
228,7.279999999999951,-0.016122821250327282,0.0006903089152197553,-0.005796818908499427,0.3447502438422308,0.47900681333286893,-0.8072792597412412,-0.0022141740986507024,-0.0005492432481520425,0.0007785864995422616,-0.251979926466178,0.18129115365034476,0.00015798055640831547
229,7.289999999999951,-0.011239712993881736,0.0007412970917107535,-0.004885076248007413,0.3447249994918822,0.47912237155760484,-0.8072214657891892,-0.0017414837602631062,-0.0002528585078851031,0.002849667347620522,-0.2520416144425812,0.18128513041253963,0.00014154104058844248
230,7.299999999999951,-0.006973478433003519,-0.0007682596044986539,-0.007962113176796319,0.3446915734211178,0.4791939818878595,-0.8071931633076485,-0.0026849598957052042,5.684601729157325e-05,0.0026232749194535394,-0.2520781494676183,0.18127331642211153,0.00012514965185657343
231,7.309999999999951,-0.006637241915274653,0.00040410656847051794,-0.007780443656969085,0.3446672790538287,0.4792528330501225,-0.8071686229013723,-0.0004588021933140202,-5.132920704586648e-05,0.003966761221816726,-0.25210645005716587,0.18126783325303503,0.00010227418630774358
232,7.3199999999999505,-0.007436957462197307,0.001665399717665683,-0.004745454183355021,0.34466087718181404,0.47929976827257875,-0.8071435090925879,-0.0009149581043267673,-0.0016312180008461515,0.003958421842417113,-0.2521295809524577,0.18127032342302532,8.490707127843997e-05
233,7.32999999999995,-0.006522269024018066,0.0036675199358893102,-0.00477612515828189,0.3446792927775158,0.47934758908371244,-0.8071072036925887,-0.0021509716981019905,-0.0027938023257260552,0.0019950574169228102,-0.2521544838104573,0.18128571765949322,7.028229057262838e-05
234,7.33999999999995,-0.008112010200137024,0.003013943186692444,-0.004261815827882597,0.34468836296312744,0.4793999946010011,-0.8070722081315906,-0.004260449435325363,-0.0023136195285965513,0.0014497712583818982,-0.25218281529563147,0.18129455954687548,6.155705222270516e-05
235,7.34999999999995,-0.010432934262842442,0.004742956748600272,-0.0038878724769856664,0.3446979263603475,0.47948593196161127,-0.8070170979992779,-0.004313111951274194,-0.003171491113664102,9.039482266245987e-05,-0.252229270441657,0.18130597957490513,4.789282885931145e-05
236,7.35999999999995,-0.010685377321161883,0.004217631830493804,-0.002593204669412279,0.3447124171970335,0.47957673023426894,-0.8069569852761278,-0.002154064883934007,-0.003995833460859569,0.0006141393015514655,-0.2522794419709444,0.18131905225865447,3.8634720229090414e-05
237,7.3699999999999495,-0.013404147053233511,0.004636248588772088,0.0017407509058289016,0.344740481230761,0.4796766021596063,-0.8068856100166167,-0.0008046243033214231,-0.0026187860576888772,-0.0003473031911709025,-0.2523374904565467,0.18133669274875516,4.1314361548311625e-05
238,7.379999999999949,-0.00920144508043242,0.005821356601493064,-0.000836697275146944,0.3447689697379244,0.4797664566031013,-0.8068200256340791,-0.0008008914002811538,-0.003269417404228952,0.00047765408088361403,-0.25238896176742803,0.18135547964212975,3.93619156572739e-05
239,7.389999999999949,-0.004985295040143269,0.003979504253859257,0.0012465399959515483,0.3448050363466345,0.4798340653851082,-0.8067644022828397,-0.0016546305854196325,-0.0026781723371474197,0.002753751367203555,-0.25242933045859967,0.1813759616370713,4.4213597137337697e-05
240,7.399999999999949,-0.006009469168690003,0.0017927530388533678,-0.0010761837873661327,0.34483052902393846,0.47988330675450225,-0.8067242077882308,-0.001996039450047513,-0.0015812511585173042,0.0033704900845797476,-0.25245778984560807,0.18139176365598772,4.282664795897859e-05
241,7.409999999999949,-0.0026408516983703156,0.0022748199066211588,-0.0003866956759207865,0.344839401075342,0.47990501793453355,-0.8067075014841905,-0.0015453434087385157,0.00020110956868466724,0.0026940961590608526,-0.2524713172459807,0.18139595872145964,4.771796817315217e-05
242,7.419999999999948,-0.0013796878991665733,0.003414822684598609,0.0012105396649290025,0.3448421786561085,0.47991723709856154,-0.8066990091465414,-0.0016225761755738575,-0.00016555541150644576,0.0015251952936589314,-0.2524780838983716,0.1813981806290757,4.643467625315271e-05
243,7.429999999999948,-0.0006710775545050174,0.0020600988051123767,-0.00038566031083873097,0.34483618384444725,0.4799168892327527,-0.8067017869170617,-0.0022028355491974893,-0.0010335147162697945,0.0002551681172207708,-0.25247770642373524,0.18139489233470987,4.645382473716072e-05
244,7.439999999999948,-0.00441481217751729,0.0021151574034427023,-0.002209949245309031,0.3448369787852832,0.4799276596270061,-0.8066950307413601,-0.001683811831279117,0.0008895729669343819,-0.0007812919763167041,-0.25248392916802453,0.1813955569355081,4.683098282153157e-05
245,7.449999999999948,-0.00828946435751212,-0.0032736970482468743,-0.002023885547304951,0.3448181405435048,0.47997864098529525,-0.8066727215060966,-0.0014701335778503828,-0.00036593542970364144,-0.0003200929800084935,-0.2525116789074895,0.18138764952016245,4.351728502872656e-05
246,7.459999999999948,-0.012066132361283254,-0.0005146654201881915,-0.002216392675240152,0.34479795187278856,0.48006554401489715,-0.8066297293902466,0.0016444025154121323,-0.001829372340025133,0.0012737249492921464,-0.25255942967089273,0.18138047839032398,3.856201256343364e-05
247,7.469999999999947,-0.014453959779132079,-0.0026829813542393662,-0.002666855414510221,0.3447840742386862,0.48018280916906725,-0.8065658468133631,7.94288048903891e-05,-0.0034842448344438066,0.0007041558183454311,-0.25262535727412655,0.18137670386938773,3.735526063614275e-05
248,7.479999999999947,-0.016645583665096414,-0.0010896652535576533,-0.001141919196594523,0.3447655446404549,0.48031566518647656,-0.8064946388988785,-0.0009642674324048745,-0.002954767905755566,0.0011405996811798733,-0.25270133304394077,0.1813689940243452,4.3105103118732874e-05
249,7.489999999999947,-0.014208480180140615,-0.0009926532826885414,0.0003457182880312012,0.34474354776326016,0.4804441997248576,-0.8064274944783203,-0.0013113729689312027,-0.004081851333318751,0.002326719612931702,-0.2527754436797836,0.18135831143939865,5.2469232984122204e-05
250,7.499999999999947,-0.010157815476293753,-0.002495101750595274,0.002794373851869314,0.34473396351094554,0.48053314194191943,-0.8063785673625431,-0.0024998232377138187,-0.0038947886661868944,0.0029720226494777385,-0.252829619669844,0.1813501782351924,7.328441538823765e-05
251,7.5099999999999465,-0.008042227766206868,0.0009089040643325861,0.0027230623600099455,0.3447279923668246,0.4805894815173813,-0.8063475522038063,-0.001473288338447196,-0.0017793996492393568,0.004395499816742902,-0.2528645973911914,0.18134419410315597,8.98297007058967e-05
252,7.519999999999946,-0.005051055326536703,0.0024086195163466593,0.003977889775332489,0.3447455317265811,0.48062482155606456,-0.8063189986467253,-0.003004493993455074,-0.0017688099140445268,0.004855312408659207,-0.25288853193460537,0.18135022575433687,0.0001072569893380231
253,7.529999999999946,-0.0018569966556606205,0.004170956511172964,0.002011986290673892,0.34477969908477946,0.4806457431383721,-0.8062918903492342,-0.002876285618449501,-0.0007117620292680471,0.0036891280261772937,-0.2529033639402673,0.18136688568431886,0.00011731537797915629
254,7.539999999999946,0.000936973307186301,0.0030379033896138323,0.0004154562567864523,0.3448248094206219,0.48063121834120004,-0.8062812200329195,-0.003783362426974845,0.0001725813479614806,0.0015815966280258882,-0.25289738611430207,0.18138988213173618,0.00012209832009674342
255,7.549999999999946,0.00249671408216701,0.002273219667609909,0.004972100397341746,0.34487064633722153,0.4805901744126462,-0.8062861372047336,-0.0040248108853213884,-0.00029539323440273574,-3.562131314392567e-05,-0.2528761671067462,0.18141269638878743,0.00012600138914160144
256,7.559999999999945,0.003870766429000701,0.005806628985874032,0.00018131683814688425,0.3449201692340864,0.4805380293145281,-0.8062960115978312,-0.002380021783473543,-0.0012447162489691872,-0.00022369219418052788,-0.2528482137936778,0.18143806920401262,0.00012677472471423861
257,7.569999999999945,-0.00019720579560891221,0.005627140461452291,-0.0001229652361341469,0.34496330421665206,0.4805034521878139,-0.8062981497588675,-0.0013609586919651323,0.00034272216977340053,0.00045727980227536983,-0.2528287629406211,0.1814622000898511,0.0001209566159199109
258,7.579999999999945,-0.002125230602892674,0.0036508586655177927,-0.0012276486792872632,0.34499231753870835,0.4805168788094303,-0.8062777466198897,0.00026268931104124536,0.0007338878553142959,0.002930235775425006,-0.25283542744416404,0.18148105363486064,0.00011134259699992757
259,7.589999999999945,-0.008309648760027709,0.0029763270448474157,-0.001482667320419231,0.34500503617447686,0.48058021829418285,-0.8062345542405784,0.002925378851281887,0.0003847165049454083,0.002176231084164792,-0.25287038627054104,0.18149186234894807,0.00010400735985916677
260,7.599999999999945,-0.012023477597843685,0.0021657297120346417,-0.0037641284733450353,0.34501097604224923,0.480685814486059,-0.8061690207658107,0.002981130484859663,-0.0005002302554125561,0.0018602625932680505,-0.2529288195228709,0.1815006586730986,9.506492109085673e-05
261,7.609999999999944,-0.013740029137025388,0.004362818101366789,-0.004370173330829526,0.3450037668970294,0.48081649895897416,-0.806094199419022,-8.71280978463186e-05,-0.001677641855148793,-0.0006109599332019728,-0.25300079977557666,0.18150340152863675,8.456318013526198e-05
262,7.619999999999944,-0.008519814477501303,0.009214996559782205,-0.006708608213456163,0.34501146145339584,0.48092657089000523,-0.8060252674331426,-0.0005619227158631609,-0.0012397702448696448,-0.0029414852178866985,-0.2530597939021267,0.18151612554255794,6.498184162020634e-05
263,7.629999999999944,-0.007314658775615629,0.004981642418348223,-0.00472794496496956,0.3450196864774314,0.48100163220966363,-0.8059769223042786,-0.0004468420973826352,-0.0006235260877837574,-0.003160967926371336,-0.2530972093800256,0.18153053084655785,3.626003508502589e-05
264,7.639999999999944,-0.00594558743405708,-0.004168903910990528,-0.004142635274515581,0.34500102276314193,0.4810614964599302,-0.8059492136323274,-0.0029004035316694955,-0.0015538108864195758,-0.001861846805872904,-0.2531273112709194,0.18152676508205112,1.8788154042425226e-05
265,7.6499999999999435,-0.006694848350941115,-0.007302027463491834,0.000648176781946056,0.3449355930703984,0.48111882598916217,-0.8059430082274327,-0.003134466178793463,-0.0029555470051115247,0.0022348286630170353,-0.25315926709510356,0.18149070744427945,2.601498731675816e-05
266,7.659999999999943,-0.006476975323249359,-0.007230052987586561,0.006324641014953142,0.34489267732723355,0.48117767997774136,-0.8059262578682562,-0.003558523754876241,-0.0025779731306700042,0.005879556683657406,-0.25319678647555005,0.18146147305064972,5.41379631530628e-05
267,7.669999999999943,-0.004238839831496683,-0.009428980583540508,0.0026508121415732538,0.3448547345577233,0.48120860374756963,-0.8059240076262116,-0.0038558704206445396,-0.002041734315776064,0.005932857453470037,-0.2532202242702916,0.181431811561219,9.091274187583935e-05
268,7.679999999999943,-0.0015009630799515364,-0.007578147180306972,0.0036229986071913967,0.34481715788896905,0.48121817880846224,-0.8059343620560012,-0.0043278875387964795,-0.0035835466133055925,0.0034460683677338894,-0.2532300971325434,0.1814037695588239,0.0001200074608774425
269,7.689999999999943,-0.0011131035660502935,-0.007077152033912787,0.003959545926522755,0.3447802941031601,0.4811990774827982,-0.805961531906056,-0.004334775293740693,-0.004337809150659131,0.0022737595582240974,-0.25322347812469365,0.1813755647761833,0.0001479768116874915
270,7.6999999999999424,-0.0007396932377076214,-0.006503468153231598,0.006022573524444556,0.34474077114933427,0.48116969744982346,-0.8059959867924593,-0.004068639681952575,-0.0044853394610339685,0.0018185976019356725,-0.25321150167424333,0.18134484653840532,0.00017877707658107522
271,7.709999999999942,0.0020823708415955854,-0.0064795291540256745,0.009756963836337817,0.3447191918166937,0.4811349044466627,-0.8060259836463953,-0.00416380631651677,-0.0063402389925602525,0.001096775263436345,-0.25319928426353805,0.1813205195525752,0.00022178623700693455
272,7.719999999999942,0.0034349062458789914,-0.006073690144768582,0.007444001725263755,0.3446994558483456,0.48107617275732895,-0.8060694428852541,-0.0014775647152301737,-0.006129361089796181,0.0004274956466347389,-0.25317434936813066,0.1812953916152564,0.00026899692811926864
273,7.729999999999942,0.004804630063336324,-0.00545596728614588,0.00938369283588619,0.3446912418018953,0.48101918269133903,-0.8061069818126952,0.0005275734828123931,-0.0031957814130692845,0.00120341764413528,-0.25315011774954266,0.1812774597662608,0.00031302984909716605
274,7.739999999999942,0.0036235547053589294,-0.005326422177236018,0.009402437757972731,0.34468689061589997,0.48096260947226543,-0.8061425866206843,0.0004321025794824984,-0.002498852487554264,0.002040282642627825,-0.25312635143564755,0.18126154702367228,0.0003575095765394685
275,7.749999999999941,0.001551250839656629,-0.0062225367845290145,0.006153570914980549,0.3446744716100511,0.48093075009092007,-0.8061669083836022,0.0012570492690413524,-0.0017085589657650233,0.002285219774048401,-0.253116362796908,0.1812419402133687,0.00040201944540395936
276,7.759999999999941,0.0006886490133140303,-0.0039076999050186075,0.005936875071410019,0.3446710597387705,0.4808982550130288,-0.8061877876181864,0.001267372624841449,-0.0017022788291854753,0.003611663569904575,-0.25310514200709633,0.18122886952567116,0.0004404724269237931
277,7.769999999999941,0.0004981142698434048,-0.003375636643360858,0.006826961829917104,0.3446607856246515,0.4808623692207545,-0.8062135551895443,-0.0004013322879317212,-0.0009958405104994652,0.003277732804744733,-0.2530903350341015,0.18121397548750587,0.0004713105027711543
278,7.779999999999941,0.0005176088446617955,-0.0044776790705359625,0.0028670421848069816,0.3446326439178221,0.4808356871744955,-0.8062414885143458,-0.00037359098747783413,0.0010328920773220738,0.004521530586097387,-0.25307906773745675,0.18119115844161715,0.0004961320494626965
279,7.7899999999999405,0.0017514291186714907,-0.0036021916840151707,0.0013507188743121798,0.34459714921944884,0.48080544703573774,-0.8062747017330469,-0.0015866196819921063,0.0015229621956536195,0.0032421389198031736,-0.25306440215866327,0.18116581165351853,0.0005149702094888285
280,7.79999999999994,0.003167936679399505,-0.0046399118214325045,-0.0016303384631020637,0.3445670378336219,0.48076566535455667,-0.8063113050404351,-0.0015840397158187328,0.000917961416412838,0.002479432520347789,-0.2530417765300991,0.18114689754656355,0.0005196398483676784
281,7.80999999999994,0.0034748922946124614,-0.0018868097652163173,-0.0012683717728921194,0.344539527851423,0.4807259746797267,-0.806346724964238,-0.001616546271407952,0.001661357214032155,0.0015020235556587015,-0.2530177954645952,0.1811315368791911,0.0005163752108059745
282,7.81999999999994,0.0007998537098355229,-0.001822971309141095,-0.002484689882203654,0.3445231504592812,0.4807042088868911,-0.8063666980378912,-0.00351274040804645,0.002517681517951141,0.0027438232500525098,-0.25300412442694276,0.18112305556960662,0.0005121343437547165
283,7.82999999999994,-0.0010542394461741929,-0.001516646667882155,-0.003174663403447573,0.34451330214444215,0.480708449587897,-0.806368401508024,-0.002753984661863237,-0.0009309601670145032,0.003281371534991018,-0.2530052912495357,0.1811191086732153,0.0005071749668629348
284,7.8399999999999395,0.0004200056224602139,-0.002040923976888266,-0.002281626109383972,0.3444998217746617,0.480719250452239,-0.8063676777528598,-0.0026415241882285848,-0.002524179231845784,0.00223714648745823,-0.253009652373859,0.18111395957341467,0.0005000095804211196
285,7.849999999999939,0.0003779044670433853,-0.0026582607107991,-0.0016028594002925984,0.34447043374731195,0.48072536454516657,-0.806376626952925,-0.001428802358020063,-0.0019267294803668022,0.0023125399166876027,-0.25301091347432086,0.18109990666382073,0.0004930153469512318
286,7.859999999999939,0.0015216877119318033,-0.0029779810092184465,-0.0013069680671085038,0.3444454770903841,0.4807426350212653,-0.8063770124946079,-0.0015911104580837896,-0.0028616927233190877,0.0012650282636681041,-0.2530189489315062,0.1810881126841421,0.00048781877275646065
287,7.869999999999939,0.0018584509002121583,-0.004233843036742956,0.001202437471219561,0.3444173668959766,0.480746978672385,-0.806386428767459,-0.003504946555424774,-0.0041450758100866885,-0.00041777441470568395,-0.2530209322296401,0.1810723417311103,0.0004897458291879588
288,7.879999999999939,0.0015290101163398524,-0.0024090531634196133,0.003332383497682431,0.34439919232972904,0.48072510469937707,-0.8064072273162308,-0.0033529368753086246,-0.00416972186650486,-0.0009610951456119837,-0.25300953250807745,0.1810595334034437,0.0004980304929301474
289,7.889999999999938,0.0023944575829376075,-0.0041180918870735925,0.00294842924727244,0.34437920204102895,0.48070362379855625,-0.806428608266655,-0.0031524049323501603,-0.0023586826855235502,-0.0009505050953247529,-0.253000756138715,0.18104231942371488,0.0005191825741248264
290,7.899999999999938,0.005965667050493437,-0.0028766924810307575,0.004602341742121794,0.3443521595090852,0.48066925205426414,-0.8064605477801196,-0.002474224144866418,-0.002523004624567998,-0.0003380537289193904,-0.2529838943815279,0.18102172548940165,0.0005372370336786214
291,7.909999999999938,0.008536638430091087,-0.004981718156716038,0.0055568943087505405,0.34434192685876036,0.48059170180931743,-0.8065111642703411,-0.002509974525311897,-0.0020839233184192676,0.0001983648165962782,-0.2529450834734106,0.18100609884881447,0.0005662679945796202
292,7.919999999999938,0.008297538024209714,-0.003601095549829878,0.006046478181754338,0.3443503265510304,0.4805000488736208,-0.8065621911601981,-0.0020414841001164074,-0.002496867449448017,0.0017226903323196037,-0.2528983180440201,0.18100094135581293,0.0005927293265164372
293,7.9299999999999375,0.011335425540163804,-0.004788168715260423,0.0033503554121059155,0.3443406162930521,0.48040184652993695,-0.806624807417938,-0.00043977961864199083,-0.001047713122971292,0.002729020073661276,-0.25284633256741185,0.18098706802007242,0.0006140523119182021
294,7.939999999999937,0.012401544315715263,-0.00278346507141635,0.0034471773186705466,0.3443193373567438,0.4802816150337682,-0.8067055055666984,-0.0003007011754245573,0.0009360423126254165,0.0027069700857328106,-0.2527808789077291,0.18096703952016166,0.0006321953574755778
295,7.949999999999937,0.007181584219786589,-0.006862286495024233,0.0026543885668912012,0.34428547451389047,0.4801756770873912,-0.8067830287734974,0.0006973104726081102,0.0008639627834815313,0.0018733554403415399,-0.25272132447508905,0.18094313828783853,0.0006406740290701882
296,7.959999999999937,0.005597374132173828,-0.005691158796549145,0.0014515711060117402,0.34424027277906283,0.4801089181126871,-0.8068420341873688,0.00028727987224807123,3.87287538184807e-05,0.00035485679103063245,-0.25268377197740827,0.1809140385600018,0.0006496454529151128
297,7.969999999999937,0.0008155524346562527,-0.006016571838694181,-0.0005011170299541398,0.34417286157258825,0.4800800516881281,-0.8068879641534293,-8.419586521066791e-05,-0.0026041064702463867,0.0015030004025881085,-0.25266524511496186,0.180876441182214,0.0006491128187488135
298,7.9799999999999365,-0.0030123852740677175,-0.006763779621946659,-0.0016724243815242435,0.344109177944449,0.4800833776911862,-0.8069131592558343,0.0012483507257973795,-0.0022854129966133905,0.0017652130140938702,-0.2526663116480835,0.18084016347494092,0.0006548531956204244
299,7.989999999999936,-0.004644071045282106,-0.006283824909043817,-0.0033892712484191443,0.34403131832413614,0.48012021913438785,-0.806924410175087,0.0016563318499837952,-0.0024316007017466936,0.0016996587747142855,-0.2526846874850177,0.18079887267649222,0.0006538919612357934
300,7.999999999999936,-0.002168894071283971,-0.004398301802334424,-0.004522045763963038,0.3439630952927779,0.4801626798151034,-0.8069282872881338,9.114802482946039e-05,-0.0022084798833389273,0.0029522226004070635,-0.2527055140475776,0.18076445785945558,0.0006475484708317715
301,8.009999999999936,-0.0027435131962672693,-0.006393313835376613,-0.0050347607583989245,0.3438948330912042,0.48020933226686485,-0.8069295833590626,-0.001567391472252577,-0.0008051454113019564,0.0017284562189468422,-0.2527273584465322,0.18073208786040001,0.0006339284480841423
302,8.019999999999936,-0.0033961820259209947,-0.005134153591343767,-0.0051157097832360155,0.34381804597796917,0.4802573051711077,-0.8069337874185293,-0.0020533872884667594,6.758561358164487e-05,0.0011270910035649552,-0.252749052886157,0.18069595676954747,0.0006170515627765292
303,8.029999999999935,0.0019475956159718277,-0.008370912380145937,-0.005463692140875331,0.34374046051777274,0.48028323581392435,-0.8069514026575496,-0.002343818779969587,-0.0006287951187289641,0.0033804426172332697,-0.25275880732755446,0.18065795560386771,0.0006031761382668472
304,8.039999999999935,0.0003470794931455805,-0.004738900466792601,-0.0036877572638911124,0.3436655915757005,0.4802978132720454,-0.8069745860702823,-0.0014526705672268585,-0.002675048763195569,0.0027961861051104247,-0.2527625457125001,0.18062062022471362,0.0005911327963816774
305,8.049999999999935,0.00048789951931990205,-0.0061008657682243865,-0.0032913348976774674,0.343609105270973,0.4802970630477463,-0.8069990756100597,-0.002251171105812242,-0.0025247228186908756,0.0035117178536177374,-0.25275929610527526,0.1805912646120104,0.0005852166000487264
306,8.059999999999935,0.001597000905679037,-0.0038899743019518928,-0.0010798867597404714,0.34357141116601503,0.48028857013935883,-0.8070201693869575,-0.002694382296951445,-0.0029330679305797328,0.0038226917766313114,-0.25275267278445157,0.18057130836138258,0.000581727600811193
307,8.069999999999935,0.004326864258383528,-0.0044298567248894985,0.0014873375842795451,0.3435558237753079,0.48025150015221263,-0.8070488833258385,-0.0031110155320135204,-0.004664904874559277,0.0026871587903998222,-0.25273242905868726,0.1805599084042866,0.0005884196713316797
308,8.079999999999934,0.004455606851530145,-0.002475017223848163,0.002281317103253811,0.34355021484567955,0.4801922175404317,-0.8070865043897946,-0.004265199356188976,-0.005310255440846607,0.0020487689230567112,-0.25269999245134966,0.18055317134453389,0.0005956640323230036
309,8.089999999999934,0.006093416780975824,-0.0030027447087335097,0.003161303252156646,0.3435479626054075,0.480135368641948,-0.8071212834764283,-0.0035353944351993374,-0.004254542499437643,0.00026726453076416143,-0.2526691370659435,0.18054820681589465,0.000603427559540976
310,8.099999999999934,0.005604255074004388,-0.00034751457559288384,0.0033964892172203866,0.3435549842273252,0.4800852963378638,-0.8071480923744538,-0.0036367826371014895,-0.003499561130344054,0.000828182733967593,-0.25264276753087633,0.18054798175120423,0.0006131811776313624
311,8.109999999999934,0.0062817088896776506,-0.0005940246028976771,0.0032851891857777083,0.3435569776753252,0.4800314829721178,-0.8071792795992222,-0.0026153317252444715,-0.001848972313025471,0.0004190575069493895,-0.2526137903262576,0.18054535297955449,0.000621204096975908
312,8.119999999999933,0.00695074664284696,0.003588270923159869,0.00392807121865337,0.3435825390183092,0.47996436362590755,-0.8072083190787365,-0.002823531725144213,-0.0009334120895347776,0.0009307221441975583,-0.2525781476692263,0.18055504132712027,0.0006300087603216849
313,8.129999999999933,0.004529433657507172,0.004156857459920837,0.0033646142706567884,0.34361376487701445,0.4799052535295752,-0.8072301644436528,-0.0020900627706522297,-0.0009343068800331658,0.002807651999435574,-0.25254626325335383,0.18056940419245257,0.0006337606129129666
314,8.139999999999933,0.0049317428097325495,0.0043299572694412355,0.003218638861418219,0.3436501552119265,0.4798456172999574,-0.8072500931144297,3.287190703744654e-05,-0.001076145466326559,0.0034288657754914455,-0.2525142614665838,0.18058652611571094,0.0006376872288311467
315,8.149999999999933,0.0062815769533484675,0.0033209716448114094,-0.00012113274646849485,0.3436711000395008,0.47978557463211513,-0.8072769046179016,-0.0009295033407360726,-0.0004602607659839518,0.0022869766107728685,-0.25247978526642795,0.18059765000851222,0.0006323019083937759
316,8.159999999999933,0.008583515210745192,0.0018909200275867687,-0.002354161665864802,0.3436649471052852,0.47971764460937966,-0.8073198642363805,-0.0013617592280019866,0.0008209939522464283,0.0026324134054152106,-0.2524383624898133,0.1805960655830647,0.0006180959089603202
317,8.169999999999932,0.004155950200323467,-0.00028494235079803916,-0.0035452994345014184,0.34365013423067065,0.47965977314964037,-0.807360595574708,-0.000890309099298678,0.002767087292040582,0.0019065995617364084,-0.25240101270387477,0.18059187796577805,0.0005968746216639917
318,8.179999999999932,0.0015672833882134944,-0.0005302482828374688,-0.005002912515811966,0.3436143665857513,0.47964065518517507,-0.8073871974184391,-0.0001766038278926838,0.001974887865982334,0.0006493466734930384,-0.25238513613215185,0.18057727075294142,0.0005760835120130067
319,8.189999999999932,-0.0013520225912228695,-0.002694863896458563,-0.002991899539444668,0.3435671560372626,0.47964837316350434,-0.8074026537017188,0.0004930743495381205,0.0007942769134071182,0.0010146731264137354,-0.2523851982056938,0.18055576788819103,0.0005606649147827513
320,8.199999999999932,-0.0021342610546629132,-0.0025835388785241825,-0.0068029615692241155,0.3435146030638061,0.47967613489545324,-0.8074085484136841,0.0010898604608196897,-0.0004248163906231241,0.0003210661679601053,-0.2523955611285148,0.18053313183923816,0.0005406587938170809
321,8.209999999999932,-0.0058675514958839705,-0.003523181134634517,-0.004691701714426061,0.3434615682263554,0.47972419436097496,-0.8074025304882312,0.0002062726854664773,-0.0027336861658515234,0.00012147215336021318,-0.2524179015561315,0.1805102102937964,0.0005230144477349323
322,8.219999999999931,-0.007720158205454561,-0.0037554082744024673,-0.0029226760411968566,0.34341804127084247,0.4797867746363739,-0.8073838684423308,-0.0013096643553360988,-0.00396876729519759,0.001703672848977776,-0.25245083559792114,0.1804899930063842,0.0005163697861211485
323,8.229999999999931,-0.0026249373214702423,-0.0022555933155308876,-0.000503817376634103,0.34338450774932777,0.4798395243865699,-0.8073667738044372,-2.9483289192487444e-05,-0.0048334473011079045,0.0019987008593940333,-0.2524803283340583,0.18047241257355134,0.0005192944821263043
324,8.239999999999931,0.003936922135892712,-0.002090647977640625,0.001466266083541261,0.34335570901166657,0.47985656339442373,-0.807368881779257,-0.00016145973930933334,-0.004664099996455519,0.0018776987912015538,-0.2524892672341452,0.18045697739465297,0.0005200048632982118
325,8.24999999999993,0.008757673222282733,-0.0017852265532026384,0.0023645197749346605,0.3433427296687286,0.4798207880637926,-0.8073957034147244,-0.0018241845493817295,-0.0030131793478559276,0.0032622706272069923,-0.25246904542280824,0.1804481605187753,0.0005224752061302071
326,8.25999999999993,0.012863081124107322,-0.0014117931034221306,0.0025495459725119523,0.3433327841847195,0.4797386496854645,-0.807448692368804,-0.004095378445069774,-0.001678322071842416,0.002196786261887708,-0.25242233902512745,0.180440060883836,0.0005234619989333961
327,8.26999999999993,0.013235850009339415,-0.0005912459051631341,0.003223751120602738,0.3433326937840319,0.47961918062064884,-0.8075197243830184,-0.0029388678027344136,-0.0013452166924158774,0.0006871366640562448,-0.25235369688319037,0.1804376802949489,0.0005190080489196238
328,8.27999999999993,0.016347877937562306,-0.00036997143240126337,0.00030754506613933077,0.34334590987423025,0.4794929419547698,-0.8075890543462936,-0.002633134129221063,-0.0025718458729438076,0.0006117421765159691,-0.2522809899243498,0.18044326893535556,0.0005112825862335857
329,8.28999999999993,0.01168242631339194,-0.0001652973200827077,0.002290053582142539,0.34336426129029357,0.47936304556226633,-0.8076583989569717,-0.0029360524702014643,-0.0031351999715285564,0.0009435385568262306,-0.25220718304454176,0.18045039923750278,0.0005078606899391096
330,8.29999999999993,0.010341829050080404,0.0014971010860945714,0.002918700405656114,0.343382337872813,0.4792635531478213,-0.8077097492877693,-0.0021647261903413885,-0.005050592279983217,0.00028405042434189744,-0.2521514435613664,0.18045712666064262,0.0005087364990805891
331,8.30999999999993,0.0031719665164477925,0.0030156850419439762,-0.00012372400091741097,0.3434050866984761,0.47920132136205223,-0.8077369736973196,-0.0006868311786276558,-0.003655989526321101,0.0002571749035268045,-0.2521155406062825,0.18046956565359695,0.0005019443941618289
332,8.31999999999993,-0.0012032129962650923,0.00012665530254719044,0.00034412096644833293,0.34341945447401434,0.47918159627192713,-0.807742544352812,0.0016688078150797789,-0.0017349789805471254,0.0003418372283508429,-0.25210387633489995,0.18047813882089964,0.0004971169694262171
333,8.329999999999929,-0.006611877018518368,0.001999021173324937,0.001073636120988342,0.3434192164078883,0.4792158705192125,-0.8077223247148647,0.0019149773834106437,-0.0022446440378234753,0.0008001305511708343,-0.25212428101820794,0.18047764728006258,0.0005022500686335614
334,8.339999999999929,-0.00279298887190629,0.0012855418822955503,-0.00027870530574303324,0.3434105004493705,0.47925756606705866,-0.8077013472679639,0.000988176322826671,-0.0018101535196669936,-0.00042534298793338635,-0.2521486782851954,0.1804726318728834,0.0005076834502583636
335,8.349999999999929,-0.0008557826061951125,0.006914726966555254,-0.0005843889904265903,0.3434297780488826,0.47926793611832785,-0.807686996802488,-0.0016088077711878207,0.0013485860697014466,-0.0009454788516336174,-0.25215433959118166,0.18048459150966786,0.0005034995918044442
336,8.359999999999928,0.0037793922222785718,0.005989737281400902,-0.002885648107482718,0.3434635963051647,0.4792563996086603,-0.8076794682916103,-0.0026770791854623154,0.002454587403721411,-0.0007289236174156286,-0.252145420551612,0.1805074987914582,0.00048563730765791783
337,8.369999999999928,0.004131251414757517,-0.0004578920627388765,-0.0027568646506331866,0.34346458444984973,0.47922244030258765,-0.8076991670276719,-0.003836663019175946,0.0009459327390204292,0.00018269895409742738,-0.252121921103794,0.18051300028094025,0.0004631674111223086
338,8.379999999999928,0.0035668673299299324,-0.009240070065747162,-0.0001425366875724776,0.34341242347145495,0.47917570996432945,-0.8077491034331612,-0.004129497678516397,0.000618173895792822,0.004528963231116084,-0.2520932900698589,0.18048388362149548,0.00046019784249843796
339,8.389999999999928,0.0024202733385471865,-0.008863307150828826,0.002602547399269062,0.3433569252277109,0.4791340323716343,-0.8077974092834056,-0.0038287621691697822,-0.000648447786672995,0.006435370972857946,-0.25207125065631414,0.1804477143131387,0.0004774519512461907
340,8.399999999999928,0.0031934118829605065,-0.009483007440086528,0.000917243054016555,0.34330362221666116,0.47909884983221007,-0.8078409187649778,-0.003968396825295901,-0.0003553756719480436,0.005435869683822181,-0.2520546150415061,0.18041066716835935,0.0005033359060696389
341,8.409999999999927,0.0031852709387581914,-0.009609446044623313,0.003387679146814518,0.34325023360062096,0.47906191500933015,-0.8078854932273448,-0.003796037334265387,-0.0013208386575805536,0.0030337719548872186,-0.25203628949585827,0.1803744731897564,0.0005255921767295559
342,8.419999999999927,-0.0007762708482422387,-0.00501104385237092,0.0021987967042848486,0.34320492872664776,0.4790291159154847,-0.8079241725639164,-0.003538207347331114,-0.0028240296939611707,0.003192341840719394,-0.2520197675540623,0.18034396513647574,0.0005436138603250729
343,8.429999999999927,-0.0015810726204273792,-0.003456730810444539,0.004881352138323019,0.34317574257656824,0.4790270122626679,-0.8079378227892448,-0.004217216531103885,-0.005877450753163284,0.0029056041690682516,-0.2520218534565308,0.1803221414236333,0.000565496562320829
344,8.439999999999927,-0.0021337608113050784,-0.0030839417245510058,0.004120483898086012,0.3431612518160863,0.47903484210099867,-0.8079393397532524,-0.004380015878433331,-0.007733801205734561,0.0023686574365848197,-0.252029920396948,0.18030877665215753,0.0005868936540940338
345,8.449999999999926,-0.00020346490187133216,-0.00012222872975267544,0.003358817931348604,0.3431524465740948,0.479048540112126,-0.8079349794585141,-0.0038103154809524644,-0.0081747953081605,0.0027815100533004396,-0.25204080728375144,0.180299620802886,0.0006047589516456125
346,8.459999999999926,0.0033789914639930888,0.0025962373341446594,0.007336280263781505,0.34316811864031016,0.4790346692294867,-0.8079365211173479,-0.0033892568787688617,-0.006430986158880199,0.004947393963832941,-0.25203755522779936,0.1803020087514286,0.0006265674935359775
347,8.469999999999926,0.008598675347821296,0.003236425490836128,0.0061090727141422186,0.34321082000169517,0.4789749916293665,-0.807953784613346,-0.0018981302950192057,-0.002013241816194338,0.004368148700452011,-0.2520085304051477,0.1803186558522945,0.000645301486208249
348,8.479999999999926,0.011611778731827052,0.00342019644875709,0.004377865456932506,0.3432590310809118,0.47887954511204633,-0.8079898594317052,-0.0009750019696792337,0.0015358858930043318,0.003941809423352618,-0.25195812102473564,0.18033907810412356,0.0006572674755778494
349,8.489999999999926,0.013770384000858532,0.003745374618070178,0.004698384263681106,0.34330139540810467,0.4787561171596633,-0.8080450154247785,-0.00016954756206469132,0.002539647584928059,0.002138994894072095,-0.2518910591447267,0.18035629960742441,0.0006661702664586115
350,8.499999999999925,0.011996031444084636,0.0031501258723354696,0.004809642721341209,0.34335099091847365,0.47862741178122337,-0.8081001999840092,0.0006968695072055457,-0.0005274826227658736,0.0030640535650891232,-0.2518210603889437,0.180377547981235,0.0006741768063090932
351,8.509999999999925,0.0112349128294894,0.0025864187016158276,0.0010426733043456368,0.34338808410877114,0.4785113606858511,-0.8081531539005338,-0.0002824790060757618,-0.0009656754772884535,0.004174616360506302,-0.2517566253961807,0.18039407318810383,0.0006756108081017706
352,8.519999999999925,0.0100005615204155,0.0031847782666777043,0.0019475944567400175,0.3434164792671061,0.47841216749836063,-0.8081998132637258,-0.0007878372551560122,-0.0011697742868927268,0.004407962571241831,-0.2517001293651187,0.18040824109052897,0.0006698295746309219
353,8.529999999999925,0.0064345501968036435,0.0030398216324309824,-0.003452462871566892,0.343433256370523,0.47833183100033055,-0.8082402132321849,-0.0023872652076686743,-0.0009587224680890094,0.001640359665897835,-0.2516530804179832,0.18041791082131461,0.000659202322936316
354,8.539999999999925,0.0011637921717208267,0.004706790732421717,-0.004365681363063759,0.3434394425275967,0.4783119441330197,-0.8082493862617414,-0.0019256586376290078,-0.0006190953819768426,0.0018155051875537345,-0.2516371608809428,0.1804274207441974,0.000633796987165198
355,8.549999999999924,-0.0036517333598411164,0.002716492431110026,-0.005503199068002599,0.34344720463969247,0.4783560930831397,-0.8082199690456318,-0.001965889922862095,-0.00223297614484685,0.0015931691454619799,-0.25165723101674814,0.18044020311518083,0.0006064493622893933
356,8.559999999999924,-0.0076588078069995845,0.0029028675188830294,-0.0070299362409976,0.3434449587919517,0.47844173587945904,-0.8081702426221459,-0.0024632648172103373,-0.0033170273163663716,0.002236384912986404,-0.25169989761121375,0.18044957067051,0.0005757894545243076
357,8.569999999999924,-0.007759969171721272,0.0048269849957229966,-0.006854562870214268,0.3434388143087827,0.47854359082011083,-0.8081125331139175,-0.0009213772637575027,-0.0037527217545843786,0.0009004120051075672,-0.25175138895371296,0.18045767504819824,0.0005437301065667156
358,8.579999999999924,-0.006391693468083784,0.003034117341951689,-0.005950683522944623,0.34343928378948474,0.4786333390191425,-0.808059146703454,-0.0008879123342926458,-0.0032372058049160803,7.89806363557396e-06,-0.2517976453636179,0.1804670632188785,0.0005191553037554362
359,8.589999999999923,-0.004372679415589024,0.0014836231197205374,-0.004111467997933003,0.34343097505392767,0.47869822632613385,-0.8080242464416907,-0.0009848095964686441,-0.0024901940602200024,-0.0005492131384747115,-0.25183049060463414,0.18046958666761262,0.0004996293716506687
360,8.599999999999923,0.001152790954033479,-0.0003580971821596787,-0.004251262284239439,0.3434133471810322,0.47873539395594705,-0.8080097234623935,-0.0022437508820835127,-0.004160007750930339,-0.0014656087102196615,-0.251846531545964,0.18046731272040692,0.0004759121567350136
361,8.609999999999923,0.005142273722245444,-0.00266691131607142,-0.0018171956430714166,0.34339081907528474,0.47873189424572066,-0.8080213497509247,-0.0022483613516661415,-0.0023288169715688523,-0.0018442605505919357,-0.2518416537183261,0.18045802803613212,0.00046410521154945843
362,8.619999999999923,0.003761767360229447,-0.000983204276545815,0.00035333598300274326,0.3433670736750185,0.4786996944998558,-0.8080504824314071,-0.0024719895700086947,-0.0024148593902608576,0.0006961595673102878,-0.2518214522177502,0.18044584929815144,0.00045753604268799477
363,8.629999999999923,0.005645933860655341,-0.0025157637514606887,0.004551239568597854,0.34336452011080204,0.47864827210643773,-0.8080820295272205,-0.003476920138266196,-0.004955851222447748,0.0005786140515342448,-0.2517937019880736,0.18044085915561503,0.0004654184910563979
364,8.639999999999922,0.003149629574155103,-0.0025717755835555516,0.004771367168744661,0.3433673759448947,0.47859238323703496,-0.8081139332119484,-0.0025252614498867914,-0.005996970650605121,0.00022881184805606425,-0.251765838016266,0.18043554252851457,0.00048516794108306944
365,8.649999999999922,0.003532993123282424,-0.0022217738602522963,0.005425437127726934,0.3433904958321057,0.47853286927084177,-0.8081393765200073,-0.001749279404548125,-0.0069324577382250605,0.000661252946908631,-0.25173816168207525,0.18043895694946568,0.0005135205217249577
366,8.659999999999922,0.0032734233578408825,0.00027124118857980404,0.008214770163518759,0.3434171688647466,0.47847610877567337,-0.8081616357333014,-0.002529445147757626,-0.007814271124320841,0.0006155333833715782,-0.2517122574613877,0.1804442419297888,0.0005424138854323234
367,8.669999999999922,0.002326647202533593,-4.2236851708317636e-05,0.007087341340215773,0.34344065941967505,0.4784248711300994,-0.8081820177854407,-0.0014608860481515073,-0.006035667577842325,0.0009582341277496508,-0.2516887366576581,0.18044882107726848,0.0005679321258644514
368,8.679999999999922,0.0026015026858471,-0.00198012426118609,0.0030445093300274697,0.3434518571528214,0.4783793857638157,-0.8082041845935992,-0.0011236053206992625,-0.00395945837837754,0.0009920142099649576,-0.2516683704969176,0.18044652118507623,0.0005947450352286681
369,8.689999999999921,-0.00016117455622817917,-0.0034728550707916563,0.0015935420468343965,0.3434450292993231,0.47835664995115607,-0.8082205344145658,-0.0023545857010032673,-0.001700170057168454,0.0011990207623664823,-0.25165862513239295,0.1804374211784592,0.0006124767506719265
370,8.699999999999921,-0.00431413257954893,-0.0022539417403449375,0.002653278475560187,0.3434268278033415,0.4783587421588888,-0.8082270476006671,-0.002905094461335445,-6.370988563621352e-06,0.00033796047500015086,-0.2516616172916375,0.1804242573704078,0.0006248633404172596
371,8.709999999999921,-0.006279864569957269,0.0002422462599567099,-0.0015930317383432073,0.343409748610303,0.47838598473973654,-0.8082182098901142,-0.0001064548755793096,0.00047633359623765745,0.0014389259572985301,-0.251678575448493,0.1804128421126999,0.0006356143977983631
372,8.71999999999992,-0.007160224203126461,-0.0015825247076429632,-0.0002583727371566701,0.34339105792758173,0.4784245474431773,-0.8082032906136324,0.0009146155321023618,-0.0007411237827967249,0.0032328077075189344,-0.2517006631694821,0.18040266032778385,0.0006397093103312976
373,8.72999999999992,-0.009532164800983603,-0.003000356520185437,-0.0026630724221222988,0.34336659551464216,0.4784813932949879,-0.8081800654580363,-0.0007447975136268076,-0.0008407246109823924,0.003004386273516077,-0.25173362489001155,0.18038890259669763,0.0006473998044771254
374,8.73999999999992,-0.008308868660483679,-0.0003652186901021117,-0.0024753465944676516,0.34333750739897384,0.4785298999340734,-0.8081636431074005,-0.0016503216436951325,0.0013146974859390994,0.0030290574766579687,-0.2517591455548899,0.18037603340609548,0.0006413530083440561
375,8.74999999999992,-0.00660649139615072,-0.0004952988807641101,-0.006926643282437598,0.3433140432472329,0.4785884157657967,-0.8081389395014703,-0.0004159496538460555,0.001485487808899182,0.0043565840041905135,-0.25178918603199985,0.18036832125264707,0.0006284701455655049
376,8.75999999999992,-0.005379587566966544,-0.0001089381249063537,-0.006093836151672505,0.3432808397073159,0.47865057953219275,-0.8081162460712168,-0.0015248278963892992,0.0011000985689164529,0.004402081529144593,-0.2518194105527363,0.1803575916966031,0.0006072185117019787
377,8.76999999999992,-0.0037090074024071574,0.0009814923713105496,-0.006153906809578185,0.3432544983799746,0.4786977784897312,-0.8080994762000048,-0.002890690103235059,0.0003010587577599311,0.0026439094013761323,-0.25184118346906686,0.18035042196532464,0.0005850560265979803
378,8.77999999999992,-0.0040580228199660106,0.001981610225937595,-0.006744536674732744,0.34322656470052365,0.4787544224732446,-0.8080777997061352,-0.0024506078057975316,4.529932785296185e-07,0.0027238090308227855,-0.25186647664174916,0.18034514944238667,0.0005534910073632939
379,8.78999999999992,-0.005158705168117501,0.0037637507767369132,-0.006159978364634655,0.34322401816098114,0.4788130773122243,-0.8080441302299736,-0.0022152529854772163,-0.0017801350622840997,0.002893368029615084,-0.25189408220031545,0.1803532880326357,0.0005240105048389961
380,8.799999999999919,-0.0062951594235698405,0.005785026975251161,-0.004826028391062659,0.34324968807030387,0.4788685942674537,-0.8080003299572057,-0.002300293005765054,-0.002678640109653495,0.003160404696001332,-0.25192166636008895,0.1803754764023889,0.000499391545611072
381,8.809999999999919,-0.006284104708318016,0.006108799841372275,-0.005460720018360806,0.34328991307196255,0.47893629364356205,-0.8079430644142962,-0.0013838762833333325,-0.004510527411311042,0.0030446774416606056,-0.25195666988809234,0.18040591165887548,0.0004750964984807451
382,8.819999999999919,-0.008991669791379121,0.011246796543883296,-0.0036063586904967306,0.3433459761499719,0.4790188690877268,-0.8078703121102342,-0.003129448033646674,-0.0054606769281400624,0.0034293036398538655,-0.2519997576851994,0.18044655481581487,0.0004465735770513318
383,8.829999999999918,-0.0161694110239078,0.011513574677212366,-0.008269019559121049,0.3434043765743191,0.4791538880365139,-0.8077654106031938,-0.0032357203111660414,-0.00566085266270009,0.0027670202084439533,-0.25207168499669075,0.18049141765109983,0.0004127987656342022
384,8.839999999999918,-0.02025544081334393,0.01882182037567208,-0.01090200986471569,0.34347319902742995,0.4793410709312352,-0.807625117234478,-0.0048319316016199616,-0.006535013003770959,0.0020263189435182354,-0.25217149277124484,0.18054636588279782,0.0003683475372375458
385,8.849999999999918,-0.025926172586964245,0.021772833796084932,-0.012861421342596673,0.34356972307749517,0.4795688399272927,-0.807448831158696,-0.0028288654954452077,-0.0073558900819056024,0.0020903269899231317,-0.2522921688488508,0.18062186231189412,0.0003081667148630645
386,8.859999999999918,-0.03364219547932875,0.021070574673240857,-0.016291751225224024,0.34366413024254067,0.47986559294440384,-0.8072322911670219,-0.005213530408214978,-0.009036832156576736,-0.00037777784892200104,-0.25244972447859126,0.18070140176400787,0.00023620689496910645
387,8.869999999999918,-0.04064567465889737,0.02087252215061063,-0.014962175559093533,0.34375586821798076,0.480214407987807,-0.8069857478959546,-0.004796324976080211,-0.007706134505939868,0.00012047722544924883,-0.25263592663348267,0.18078222270900204,0.00015985119318973916
388,8.879999999999917,-0.04700178361828373,0.0195762688044576,-0.017828635641341642,0.3438333870850277,0.480628041250069,-0.8067064373635418,0.0013710034733083439,-0.009667707252508885,-0.0006509066786307572,-0.25286129705062116,0.18085339173788864,9.80388018873839e-05
389,8.889999999999917,-0.05326553425839228,0.016015052176850744,-0.014876034081408404,0.3439062080710624,0.48107956341555536,-0.8064062223806034,-0.0007043354807391756,-0.008411938051599642,-0.001147262351191171,-0.2531090327315453,0.1809218328039334,4.118948820466641e-05
390,8.899999999999917,-0.053254661372487036,0.0141475637209634,-0.014716176487413612,0.34395568161408335,0.481542305451746,-0.8061088233147291,-0.00293822188291519,-0.004475144678356694,-0.0009303896784116157,-0.25336533949146467,0.18097397525957598,-9.210217924567223e-07
391,8.909999999999917,-0.04845334548500191,0.014852163486749642,-0.01086756575716141,0.34400228249592724,0.4819817867181578,-0.805826271273564,-0.0008004704849115074,-0.0010306018050097708,-0.0002628138220190182,-0.2536113541484365,0.18101969496261475,-2.7358071914096803e-05
392,8.919999999999916,-0.045866446872727736,0.01112917998084294,-0.005556981862916684,0.344041498884094,0.48236451089926086,-0.8055805062312975,-0.0024656416521978515,-0.00013221742707711964,-0.0007163371038486497,-0.2538275876003047,0.18105603839132708,-4.0028868218079506e-05
393,8.929999999999916,-0.038850059184652064,0.007696450089678758,0.0012737047030387098,0.3441034479359619,0.48268359952852147,-0.8053629124354639,-0.005135406250565946,0.00022681897551393043,-0.0003120879949042745,-0.25401362491376933,0.1810956144045502,-2.527067159201751e-05
394,8.939999999999916,-0.033522325677187235,0.009309794003074356,0.012730227269230942,0.3441821280523096,0.4829056117843328,-0.805196162319408,-0.008908053855144302,-9.249682289535151e-06,0.0033681220915405537,-0.25415285045253433,0.18113044575226392,3.056889788984504e-05
395,8.949999999999916,-0.025175079866590466,0.009285843869574916,0.02403845066701546,0.3443143110402143,0.4830455387738764,-0.8050557005044547,-0.010318533671670823,0.0006378297897831628,0.006251458544256881,-0.2542566028870869,0.18117869694824695,0.00013657324030307713
396,8.959999999999916,-0.012332363584737861,0.008090146680054937,0.03383766149373761,0.3445292574716077,0.48305119398736646,-0.8049603702558483,-0.009818349228243843,0.00010166953588241787,0.009455273619546106,-0.25429406456805465,0.18125769252018709,0.00028198405589015436
397,8.969999999999915,0.013538238472605005,0.006249647596996992,0.03884892093088333,0.3447571775547943,0.48288106559229077,-0.8049647807318315,-0.005753738202003805,0.0030889628501199334,0.012439964502282132,-0.2542359983756799,0.18133298898412517,0.00044824853783634636
398,8.979999999999915,0.042995660123549474,0.006017160237213011,0.040787036794433254,0.3449898309918333,0.4824904636625483,-0.8050993231881854,-0.0038529209705494326,0.010029388591583682,0.012572563980947554,-0.25405182825046435,0.18140561518438547,0.0006096452557943841
399,8.989999999999915,0.06959283668568844,0.0051291861524518515,0.03981361923107543,0.3452261123424634,0.48188631045796865,-0.8053597901589368,-0.0014857539423398696,0.01685635724134436,0.011172826251057354,-0.25374131363929503,0.1814812112655843,0.0007440352332551181
400,8.999999999999915,0.0927544960416315,0.0029619358452146237,0.0370388804884156,0.34542458606301657,0.48110059368774133,-0.8057443685480354,0.001870764035236844,0.018625001428881113,0.006484065169987052,-0.2533208706110072,0.1815387729120641,0.0008486084621806419
401,9.009999999999915,0.10350890699424152,-0.0007853124929010051,0.03494863471203695,0.3455924279186635,0.48019931928282605,-0.8062099170323929,0.0049876541433912305,0.01856589238824665,0.0008001058511818928,-0.2528289481916695,0.18158342019060114,0.0009264224081355146
402,9.019999999999914,0.09445988887286674,-0.0007328621882386686,0.03153889157298402,0.3457072637364028,0.4793035822513115,-0.8066935609400352,0.005851278515181935,0.01692342149695933,-0.000661897721876457,-0.25233506819641505,0.1816045449372183,0.0009847529607450681
403,9.029999999999914,0.07835465569259835,-0.003009730856342953,0.02475690856827388,0.34579024814922615,0.47853076065623734,-0.8071167283913241,0.006184860476102031,0.010050093379986268,-0.0002809400196515379,-0.25190917868809853,0.1816133176162901,0.0010378123815019623
404,9.039999999999914,0.058738103353216185,-0.003236037717128553,0.01766920824521776,0.3458378862891435,0.47794087619921893,-0.8074458223681549,0.008052585358517567,0.0008148623094544075,0.0014677430300508512,-0.2515818139205141,0.1816141124621714,0.0010683419373228036
405,9.049999999999914,0.044055035384321185,-0.007894260146207782,0.013813701631391706,0.3458513150748336,0.47752983162063395,-0.8076831800921339,0.010928018621007337,-0.004792163166009102,0.00044685831527603825,-0.25135442174356687,0.18160221183737474,0.001096020526726974
406,9.059999999999913,0.028689066674523322,-0.01381126507535172,0.004581467228402479,0.34579039532311223,0.4772879785420951,-0.8078522108551245,0.015753070406691515,-0.0021520392403141186,-0.0011374581000802124,-0.2512181426274634,0.1815581060477758,0.0011101933200317945
407,9.069999999999913,0.013097897939306435,-0.019815739567244844,0.00024892721263876816,0.34564775301189127,0.4772076579290352,-0.8079606737224707,0.016485918505124326,-0.001463948791895428,-0.0034405098051560044,-0.2511695406174612,0.18147596185937723,0.0011168000614625512
408,9.079999999999913,0.0066118731587595765,-0.024184660874767377,-0.005873880261884572,0.3454445217819181,0.47722988108582864,-0.8080344786126573,0.011804438033118099,-0.0030646924809385264,-0.006962715739878062,-0.25117409324101925,0.1813679236797226,0.001107100414998418
409,9.089999999999913,0.007708822177045585,-0.027844107921370084,-0.008991793909150288,0.3451971944508864,0.47728306477947596,-0.8081087964703321,0.008520476883915301,-0.001985747870640896,-0.0090752554009298,-0.2511939041170257,0.1812380543291761,0.0010921714893809477
410,9.099999999999913,0.011128176119055354,-0.02798925503088213,-0.011331816896031834,0.34492776378699885,0.47730788701144705,-0.8082091771011614,0.002280615701598382,-0.0020199200392422584,-0.012848086200439465,-0.25119418107139097,0.18109914945798694,0.0010625909788064666
411,9.109999999999912,0.015272624809331642,-0.027150322377255842,-0.012069587316680914,0.3446714680864898,0.4772823878871598,-0.8083335498838763,-0.0020451470605388784,-0.003523640090859295,-0.012067220445275731,-0.25116630536988954,0.18096605659828194,0.001032796030209367
412,9.119999999999912,0.01332515305310799,-0.03441570171413389,-0.009705085387765081,0.34440774845716315,0.47720995413255973,-0.8084886939148402,-0.005354530390442679,-0.006498161127068031,-0.007030089118110646,-0.251113063795662,0.18082553337367682,0.0010105874816393357
413,9.129999999999912,0.015040120340134654,-0.037388774749471734,-0.004124430947776269,0.34413616216202697,0.4770963895793505,-0.808671394725897,-0.00839488085920837,-0.008923753192449412,-0.00043586619656664483,-0.2510419540451076,0.1806716615346476,0.001018228187023541
414,9.139999999999912,0.020729629615361567,-0.031115318917492023,-0.0014291289887796966,0.343915061845152,0.4769421564256179,-0.8088563881106311,-0.012114036309194338,-0.008615999249705221,0.0049649950055427544,-0.2509518659643731,0.18054074412231658,0.0010391782146414526
415,9.149999999999912,0.033254565737171365,-0.0250885751568195,-2.9326509784973126e-05,0.3437478671969633,0.4767030619933319,-0.8090683512965278,-0.01449985855099697,-0.009376676047255433,0.007167991200294648,-0.2508152745242657,0.18043703510480316,0.0010596796009518942
416,9.159999999999911,0.04163001082251897,-0.018572843725323796,-0.0008170789768552971,0.34360782806652396,0.4763729159024599,-0.8093222641758019,-0.014576296843468528,-0.008982610921246767,0.005925294771516747,-0.25062348449014826,0.18035171163400493,0.0010568680294216661
417,9.169999999999911,0.05128774051881272,-0.00983963358538444,-0.004386703036669623,0.34351443428664213,0.47597713843019307,-0.809594689590535,-0.014697636704993371,-0.006686963866511704,0.0055129160782291745,-0.25038990368298497,0.1802984551265314,0.001022014093485396
418,9.179999999999911,0.05050875473521269,-0.0029548176478980154,-0.005751014330471035,0.3434359978074363,0.47555617080886614,-0.8098753683618941,-0.01349285520238758,-0.006264985169334453,0.004804580871177084,-0.2501383396030995,0.1802585113485091,0.0009649549646012293
419,9.18999999999991,0.04089894239521529,0.002199205772375887,-0.0035798616538828074,0.34340390619472594,0.4751740563020604,-0.8101132095034683,-0.011428419320176464,-0.007444747330731321,0.005386234377521341,-0.24990953851156594,0.18024597883168028,0.0009042349921086091
420,9.19999999999991,0.032787109512538784,0.00671034017824761,-0.0015916435324359584,0.3434103385956999,0.4748635196893013,-0.8102925941238934,-0.008034064564085779,-0.007957946633172078,0.00451652055697339,-0.24972267887331975,0.18025619808268872,0.0008447533823914752
421,9.20999999999991,0.02396977598269133,0.007184548671926998,-0.002488774216121799,0.3434362226864317,0.47461705398163895,-0.8104259766289027,-0.004612525488546038,-0.007188524719106908,0.0061144657083684086,-0.2495735944881591,0.1802776644500108,0.0007899840626864054
422,9.21999999999991,0.008191166010336627,0.01573310199094432,0.00028779071150773343,0.34350527510572165,0.4744796875124739,-0.8104771436477196,0.001965940440937082,-0.005893827369358204,0.007421399865807734,-0.24948936285977766,0.18032330160072352,0.0007448537110048955
423,9.22999999999991,-0.006972729425702583,0.016635817257670136,-0.002895072340886256,0.3435770493162716,0.4744852305401551,-0.8104434546826895,0.004168340383136548,-0.0054935153924205605,0.00977443152842458,-0.2494874310486194,0.1803726645137783,0.0007068405269000461
424,9.23999999999991,-0.011597261056804618,0.0181783964240814,-0.002640333873677181,0.34365397448363644,0.47457036590769874,-0.8103609647313291,0.0022073067864551593,-0.008448768034721143,0.009398656159696761,-0.24953154283731224,0.18042595073950154,0.0006733716161917128
425,9.24999999999991,-0.013395969494866817,0.01968912770876989,-0.006050431113547423,0.34374026968578947,0.47469481403282077,-0.8102515114493335,0.002356729049053704,-0.005320367348360601,0.007702847876673755,-0.24959719046931594,0.18048681715172737,0.0006347940568759709
426,9.25999999999991,-0.011790400617454292,0.024713029064684124,-0.006722577023307275,0.34383523839341984,0.47482095501658594,-0.8101372897344133,0.0009707452032929212,-0.00010342220611583744,0.008790562295835998,-0.24966131713276207,0.1805563109788666,0.0005817010880769508
427,9.269999999999909,-0.005613881059615777,0.028508200981886757,-0.010223470140668111,0.343960520543119,0.4749012323486945,-0.8100370473933641,-0.00570394988504707,0.0013324413616166806,0.006607983455353437,-0.24969716937833045,0.1806455144010933,0.0005116135139412153
428,9.279999999999909,0.0014395383850153076,0.029756137786340685,-0.01060069122687258,0.34411494015340444,0.47492611888944425,-0.8099568744867669,-0.00812376359876561,0.0034604961241680933,0.004169749711875633,-0.24969973828598976,0.18075288327955183,0.000427009497063592
429,9.289999999999909,0.005897098614534094,0.03201356092415753,-0.01102413446531951,0.34430428598770424,0.4749188511269408,-0.8098806225092069,-0.011283414854019999,0.0047721066578000956,0.005145785679814362,-0.24968317625442113,0.18088117034779908,0.0003319728983932416
430,9.299999999999908,0.005577598661287073,0.03436897908378561,-0.01295661944350316,0.3445348619287075,0.47490514717840615,-0.8097906481298681,-0.011136928026504239,0.0021195404807403282,0.005381093180316501,-0.24966272930221725,0.18103368468810047,0.00022969185370368437
431,9.309999999999908,0.005528360758389192,0.03461213201816281,-0.012732476347217601,0.3447839206623007,0.47490075180685387,-0.8096871642075721,-0.008754827322294838,-0.00020392636213841938,0.004962610562504169,-0.2496477955518362,0.18119708780662605,0.0001256701052485657
432,9.319999999999908,0.0027569387200332292,0.0355698546046997,-0.010429044087690745,0.34503853889213126,0.47489288813204134,-0.809583336594335,-0.00553016020120656,-0.0020473208241444042,0.0049833018670575316,-0.2496313314095062,0.1813629855973377,2.3313207720516032e-05
433,9.329999999999908,-0.005598276200002223,0.03429523590120704,-0.008819580744829593,0.3452873855661145,0.4749274049359409,-0.8094569922194931,-0.004287382114369858,-0.0035923549989440536,0.0029242054078928,-0.2496413625971731,0.18152324873397405,-6.483474366008903e-05
434,9.339999999999907,-0.013384141074251848,0.03143653898451619,-0.006956035917194575,0.34552947839624776,0.4750369150349307,-0.8092893891059263,-0.0034543419894330508,-0.005298887530197487,0.00034285326023800904,-0.24969815805349294,0.1816759264835976,-0.00012950390997562352
435,9.349999999999907,-0.023369416956689596,0.027071075682187615,-0.003322677795237938,0.34572701255349303,0.47521799400045855,-0.8090986582348063,-0.0007945318401215674,-0.007877320797694109,-0.0031057323919063437,-0.249797569729435,0.1818016373195839,-0.0001762464132210482
