time,seconds_elapsed,rotationRateX,rotationRateY,rotationRateZ,gravityX,gravityY,gravityZ,accelerationX,accelerationY,accelerationZ,quaternionW,quaternionX,quaternionY,quaternionZ
1681567763141467100,0.088467041015625,-0.0022643001284450293,-0.009370289742946625,-0.00874459370970726,0.359887033700943,0.477790892124176,-0.8013721108436584,0.0016700029373168945,0.0034713149070739746,0.00017887353897094727,0.9490448840207325,-0.25172197219705267,0.18960485336453367,3.2036281607705135e-17
1681567763151467000,0.098467041015625,-0.007048219442367554,-0.012046967633068562,-0.010643493384122849,0.3597681224346161,0.4778379201889038,-0.801397442817688,0.002506077289581299,0.004553467035293579,0.0002652406692504883,0.9490515333802917,-0.25173933706045953,0.18954836727523697,-0.00002822768542847759
1681567763161468000,0.108468017578125,-0.007475124206393957,-0.010493545792996883,-0.01092019584029913,0.35963621735572815,0.4779103994369507,-0.8014134168624878,0.0028210878372192383,0.0039011240005493164,-0.00017648935317993164,0.9490556870350131,-0.25176993499813033,0.18948666962161653,-0.000060734084072132534
1681567763171468000,0.118468017578125,-0.013036120682954788,-0.009598257951438427,-0.010887638665735722,0.3595075011253357,0.4780038595199585,-0.8014154434204102,-0.00042238831520080566,0.001961350440979004,0.00034433603286743164,0.9490562432632496,-0.2518144431612842,0.18942483632088686,-0.00008369935390585707
1681567763181468400,0.128468505859375,-0.018661782145500183,-0.007684243842959404,-0.01367117464542389,0.35938867926597595,0.47814372181892395,-0.8013853430747986,-0.0019057393074035645,-0.004220932722091675,0.001840054988861084,0.9490483677653868,-0.2519069260991584,0.1893415964131836,3.300960187343913e-18
1681567763191468500,0.138468505859375,-0.021479006856679916,-0.007651486899703741,-0.009069498628377914,0.3592643737792969,0.4783255159854889,-0.8013325333595276,-0.0012626349925994873,-0.008003830909729004,0.0023671388626098633,0.9490344582003077,-0.25200244035347275,0.18928416044807828,-0.00001985231684767916
1681567763201468400,0.148468505859375,-0.029756642878055573,-0.005192324053496122,-0.008527811616659164,0.359169602394104,0.4785436987876892,-0.8012447357177734,-0.0021902620792388916,-0.006818234920501709,0.0015469193458557129,0.9490113404952002,-0.2521220582745354,0.18924081226455922,-0.000027243551050887714
1681567763211469300,0.15846923828125,-0.02822847291827202,-0.003101675771176815,-0.004623950459063053,0.35911956429481506,0.478800505399704,-0.8011137843132019,-0.0029794275760650635,-0.007456451654434204,0.0028197169303894043,0.9489767969738407,-0.25226706320362335,0.1892206392225974,-0.000024606332767357728
1681567763221469400,0.168469482421875,-0.021276557818055153,-0.0016353391110897064,-0.007645573001354933,0.3590771555900574,0.4790361523628235,-0.8009918332099915,-0.0025860369205474854,-0.007447987794876099,0.0021790266036987305,0.9489446477062465,-0.2523987273635599,0.1892061132268472,-0.000029901563338088577
1681567763231470300,0.17847021484375,-0.016686582937836647,-0.0003773290663957596,-0.007000222336500883,0.35905978083610535,0.4792276620864868,-0.8008850812911987,-0.0017905235290527344,-0.004801392555236816,0.002682626247406006,0.9489165448489203,-0.2525052235806016,0.1892050830368453,-0.00003937051864333723
1681567763241470500,0.188470458984375,-0.009740791283547878,0.0025888998061418533,-0.007435383275151253,0.3590346872806549,0.4793630838394165,-0.8008153438568115,-0.0025588274002075195,-0.0004049241542816162,0.0049779415130615234,0.9488981716373838,-0.25257819491248634,0.1891998841410913,-0.000055757501351036175
1681567763251470300,0.19847021484375,0.003434398677200079,0.0038240740541368723,-0.003382850904017687,0.3590300679206848,0.47940319776535034,-0.8007933497428894,-0.0027220547199249268,0.0024236440658569336,0.00471186637878418,0.9488923941441675,-0.2525959965071555,0.18920511196269346,-0.00008019517237758466
1681567763261471500,0.208471435546875,0.01401859987527132,0.0014120489358901978,-0.005411913152784109,0.35902586579322815,0.4793407618999481,-0.8008326292037964,-0.005128741264343262,0.0019825100898742676,0.005391955375671387,0.9489027816146833,-0.25255405056511265,0.18920921213799075,-0.00011172401521997533
1681567763271471600,0.2184716796875,0.019386500120162964,-0.00045256316661834717,-0.003436779836192727,0.3590145409107208,0.479196697473526,-0.8009238839149475,-0.003393203020095825,0.001714557409286499,0.0031638741493225098,0.948926710093347,-0.2524658656186923,0.18920636561170937,-0.00014139236150396988
1681567763281472500,0.228472412109375,0.02177935093641281,-0.000007016584277153015,-0.0038996373768895864,0.3589894771575928,0.47902119159698486,-0.8010401129722595,-0.0012319087982177734,0.0015238821506500244,0.0013269782066345215,0.9489573376560053,-0.25235850054184567,0.18919601989771664,-0.00017518821385437348
1681567763291472400,0.238472412109375,0.017684292048215866,-0.0017426647245883942,-0.0025642619002610445,0.3589618504047394,0.4788587689399719,-0.8011496067047119,-0.0003345012664794922,-0.00035837292671203613,-0.00008940696716308594,0.9489861801099319,-0.25225863249444463,0.18918452050534726,-0.00020837900364465437
1681567763301473300,0.248473388671875,0.009284148924052715,-0.002590615302324295,-0.003202621592208743,0.35893717408180237,0.47873353958129883,-0.8012354969978333,-0.0011337995529174805,-0.00583311915397644,0.000698387622833252,0.9490088272244273,-0.25218256678420803,0.18917240868079657,-0.0002288044298966249
1681567763311473400,0.258473388671875,0.00038890750147402287,-0.0024781632237136364,-0.0047981878742575645,0.3589022755622864,0.47869858145713806,-0.8012720346450806,-0.0009005367755889893,-0.0075987279415130615,0.0016504526138305664,0.9490184619674238,-0.2521587363163656,0.1891559177958316,-0.00024318934367889623
1681567763321473300,0.268473388671875,-0.010475457645952702,0.00018286705017089844,-0.0029986901208758354,0.3588706851005554,0.4787704646587372,-0.801243245601654,-0.0020591318607330322,-0.007731616497039795,0.00046199560165405273,0.9490109025111527,-0.25219611233416644,0.1891441358598907,-0.00025576846744981163
1681567763331474400,0.278474365234375,-0.017511796206235886,-0.000004353001713752747,-0.007745774462819099,0.3588303029537201,0.478932648897171,-0.8011643886566162,-0.0034683644771575928,-0.008809328079223633,-0.00048655271530151367,0.9489901596463327,-0.2522853700793288,0.1891292849945127,-0.0002643089572502266
1681567763341474300,0.288474365234375,-0.021581105887889862,0.0018497398123145103,-0.006288226693868637,0.35878801345825195,0.4791549742221832,-0.8010504245758057,-0.003029346466064453,-0.00787198543548584,0.001642465591430664,0.9489601021011974,-0.25240769340316044,0.18911678136002502,-0.00027842919106307363
1681567763351475500,0.298475341796875,-0.019293183460831642,0.002721924800425768,-0.00925285741686821,0.3587632477283478,0.47935178875923157,-0.8009437322616577,-0.0014176368713378906,-0.00504755973815918,0.002024054527282715,0.9489319889671849,-0.25251427547887695,0.18911550960537515,-0.000301509585002227
1681567763361475600,0.3084755859375,-0.013293880969285965,0.005611454602330923,-0.012975157238543034,0.3587328791618347,0.4795372188091278,-0.80084627866745,-0.002760559320449829,-0.0009452700614929199,0.0017740726470947266,0.948906283535928,-0.2526103089923309,0.18911604788251662,-0.0003442671448626654
1681567763371476500,0.3184765625,-0.008069291710853577,0.00324630131945014,-0.012633739970624447,0.35869523882865906,0.4796577990055084,-0.8007909655570984,-0.00112074613571167,0.0028099119663238525,0.004938364028930664,0.9488917091038536,-0.2526672300963188,0.18911314862939171,-0.0003968895426371409
1681567763381476400,0.328476318359375,-0.008702059276401997,0.005852736998349428,-0.012955982238054276,0.3586658537387848,0.47974058985710144,-0.8007544875144958,-0.0017780661582946777,0.0029864609241485596,0.004993438720703125,0.9488819757204071,-0.2527019288374593,0.18911502845093978,-0.0004547291935810594
1681567763391476500,0.3384765625,-0.010047221556305885,0.009266642853617668,-0.011129853315651417,0.3586594760417938,0.4798295795917511,-0.8007040619850159,-0.0030228793621063232,0.002668619155883789,0.0063315629959106445,0.9488687701327212,-0.2527411381884495,0.18912925683713452,-0.000510834686396734
1681567763401477400,0.348477294921875,-0.011874949559569359,0.009898611344397068,-0.010431305505335331,0.35867026448249817,0.4799197316169739,-0.8006451725959778,-0.004086524248123169,0.0012967288494110107,0.006364226341247559,0.9488532210475156,-0.2527824533935076,0.1891518721981977,-0.0005626510688474741
1681567763411477200,0.358477294921875,-0.015522148460149765,0.010555613785982132,-0.008524748496711254,0.358688622713089,0.4800264835357666,-0.8005729913711548,-0.0045626163482666016,-0.0006258189678192139,0.006429314613342285,0.9488341985916329,-0.2528342806643017,0.18917801977584353,-0.0006101297231873169
1681567763421478400,0.368478515625,-0.019265754148364067,0.01421453058719635,-0.005632556509226561,0.35874143242836,0.4801689088344574,-0.8004639148712158,-0.0036693811416625977,-0.0038810670375823975,0.00482487678527832,0.9488054517741441,-0.25291018609342064,0.18922071134512636,-0.0006442100770083489
1681567763431478500,0.378478515625,-0.009818722493946552,0.01252821646630764,-0.005130284000188112,0.35879871249198914,0.48028719425201416,-0.8003672361373901,-0.0031163394451141357,-0.0058608949184417725,0.002027451992034912,0.9487798547300864,-0.25297355482465944,0.18926373602402477,-0.0006730491292753837
1681567763441478400,0.388478515625,0.005417222157120705,0.009372103959321976,-0.0033973653335124254,0.3588551878929138,0.48031389713287354,-0.800325870513916,-0.0038747191429138184,-0.0040260255336761475,0.0013451576232910156,0.9487689218251785,-0.2529844823705175,0.18930375897873034,-0.0007033021132838188
1681567763451479600,0.3984794921875,0.014657176099717617,0.008954054675996304,0.00016880719340406358,0.3589172065258026,0.48024970293045044,-0.8003366589546204,-0.003066927194595337,0.0007531344890594482,0.0008829236030578613,0.9487718147957931,-0.252944932363448,0.1893423881396219,-0.000727924208204537
1681567763461479400,0.4084794921875,0.01964501105248928,0.006426981184631586,-0.0001475763419875875,0.35897523164749146,0.48012465238571167,-0.8003856539726257,-0.0028503239154815674,0.0025719106197357178,0.0005962252616882324,0.9487847118437703,-0.25287103239814857,0.18937640275497003,-0.0007506751101768011
1681567763471480300,0.418480224609375,0.018789071589708328,0.005556393880397081,0.0038743296172469854,0.35903090238571167,0.4799988865852356,-0.8004361391067505,-0.00376051664352417,0.0009124279022216797,0.0009518861770629883,0.9487980112830297,-0.25279609237270206,0.18940981606760768,-0.0007761317440212167
1681567763481480400,0.42848046875,0.009848172776401043,0.004977156408131123,0.004783798940479755,0.35908380150794983,0.47988274693489075,-0.8004819750785828,-0.002348572015762329,-0.002191096544265747,0.001898050308227539,0.9488099979535808,-0.2527314935725966,0.18943549590898895,-0.0007770720101305655
1681567763491480300,0.438480224609375,-0.002048783702775836,0.006538634188473225,0.008479400537908077,0.3591509163379669,0.4798443913459778,-0.8004748821258545,-0.0018968582153320312,-0.004761934280395508,0.002806425094604492,0.9488081473761395,-0.25271549905618684,0.18946620555734825,-0.0007582583576543688
1681567763501481200,0.448481201171875,-0.006068825721740723,0.00443633459508419,0.009745467454195023,0.3592323958873749,0.4798579812049866,-0.800430178642273,-0.0023903250694274902,-0.008788615465164185,0.0033720731735229492,0.9487964560795352,-0.2527329622353189,0.1895018781124378,-0.0007221738503447365
1681567763511481600,0.458481689453125,-0.007925398647785187,0.0052774278447031975,0.00947615597397089,0.35930803418159485,0.47987639904022217,-0.8003851771354675,-0.0025880634784698486,-0.012087643146514893,0.0006567835807800293,0.9487846047029482,-0.25275502003842665,0.18953183385364933,-0.0006759985321049815
1681567763521482500,0.468482421875,-0.0028550056740641594,0.0019519384950399399,0.0063157822005450726,0.359368234872818,0.47988471388816833,-0.8003531098365784,-0.00042045116424560547,-0.007533639669418335,-0.0009316205978393555,0.9487761606097012,-0.25277026852577567,0.18955375678228978,-0.0006328469053406702
1681567763531482400,0.478482421875,0.004009025637060404,-0.001772225834429264,0.004969021771103144,0.3593917489051819,0.4798698127269745,-0.8003515005111694,-0.0017409920692443848,-0.0021781623363494873,0.000913083553314209,0.9487757319036345,-0.2527674935940768,0.1895596037781636,-0.0006079535243526088
1681567763541483500,0.4884833984375,0.009733506478369236,-0.0007504378445446491,0.005450854077935219,0.3593936264514923,0.4798114597797394,-0.8003856539726257,-0.00007966160774230957,0.003388643264770508,0.0011302828788757324,0.9487847379289996,-0.2527380166435274,0.18955387357277334,-0.0005895975921389685
1681567763551483400,0.4984833984375,0.008496634662151337,-0.0035879025235772133,0.005456846207380295,0.35939329862594604,0.4797235131263733,-0.8004385828971863,-0.0017730295658111572,0.006421536207199097,0.0004202723503112793,0.948798770593541,-0.25269176687870976,0.18954575199432047,-0.0005703920193835341
1681567763561483300,0.508483154296875,0.002926900051534176,-0.0024419445544481277,0.0012325403513386846,0.359380841255188,0.47966650128364563,-0.8004783391952515,-0.0018368661403656006,0.006554841995239258,0.002230048179626465,0.9488092916081718,-0.2526624441120039,0.18953238294213606,-0.000552780455373615
1681567763571484400,0.518484375,-0.0054970779456198215,0.000005767215043306351,0.0020109822507947683,0.3593829572200775,0.47965046763420105,-0.8004869222640991,-0.0028460919857025146,0.0015507042407989502,0.0031084418296813965,0.9488114612851353,-0.2526570672648495,0.18952821800062547,-0.0005345831452100459
1681567763581484300,0.528484375,-0.00926811434328556,0.002218854147940874,-0.001986156217753887,0.3594016432762146,0.4796900749206543,-0.8004547953605652,-0.0013847053050994873,-0.0014185905456542969,0.004464864730834961,0.9488029916459346,-0.2526819465452253,0.18953743397413508,-0.0005257855613339501
1681567763591485400,0.5384853515625,-0.01263684593141079,0.005482158157974482,-0.001785753294825554,0.3594277501106262,0.47974374890327454,-0.8004109263420105,-0.0003883838653564453,-0.0036389529705047607,0.0054891109466552734,0.9487915042135687,-0.25271354643064003,0.18955312720750775,-0.0005244234239554438
1681567763601485600,0.548485595703125,-0.017664095386862755,0.00729257520288229,-0.00230320543050766,0.3594779670238495,0.4798475205898285,-0.8003261685371399,0.0011177361011505127,-0.004948228597640991,0.006197750568389893,0.94876916280275,-0.25277336922245025,0.18958517017345536,-0.000528461598933169
1681567763611485400,0.5584853515625,-0.014717972837388515,0.005907198414206505,-0.0032528885640203953,0.35950812697410583,0.4799906015396118,-0.8002268075942993,0.002033621072769165,-0.004541993141174316,0.0028024911880493164,0.9487430010517676,-0.25285352169417086,0.1896092868847674,-0.0005395139325929779
1681567763621486300,0.568486328125,-0.009188718162477016,0.007056619040668011,-0.003885922022163868,0.3595424294471741,0.4801136553287506,-0.8001376390457153,0.0010838210582733154,-0.003535836935043335,-0.00014007091522216797,0.9487195098329281,-0.2529217463545232,0.18963591835603194,-0.0005538318139610324
1681567763631486500,0.578486572265625,-0.004906904883682728,0.005887291859835386,0.0004400501784402877,0.35957714915275574,0.4801988899707794,-0.8000708818435669,-0.0029945075511932373,-0.00021836161613464355,-0.0021294355392456055,0.94870192766345,-0.25296946278031845,0.1896602665629809,-0.0005632346507299989
1681567763641487400,0.5884873046875,0.0002204792108386755,0.007985862903296947,0.0015527189243584871,0.35963284969329834,0.48023661971092224,-0.8000231385231018,-0.00495755672454834,-0.0003019273281097412,-0.002955317497253418,0.9486892303975617,-0.25299213993868197,0.18969292793892406,-0.0005660936232717342
1681567763651487200,0.5984873046875,0.004302439279854298,0.015575605444610119,0.005106174387037754,0.35973623394966125,0.4802192747592926,-0.7999870777130127,-0.005549222230911255,0.00017321109771728516,-0.0014197826385498047,0.9486797357026019,-0.2529843408552188,0.18975086497114585,-0.0005719108802388148
1681567763661488400,0.60848828125,0.0021809653844684362,0.01680571958422661,0.0071312421932816505,0.35990315675735474,0.4801708459854126,-0.7999410629272461,-0.007013142108917236,-0.00012931227684020996,-0.0017404556274414062,0.948667697401414,-0.252963287959398,0.189839502236563,-0.0005653745975955956
1681567763671488500,0.618488525390625,-0.006436025258153677,0.02114534005522728,0.011190165765583515,0.360108345746994,0.4801490902900696,-0.7998617887496948,-0.01007169485092163,-0.004074841737747192,0.0014609098434448242,0.9486468014288835,-0.2529618311646698,0.18994581125928983,-0.0005428360555947207
1681567763681488600,0.628488525390625,-0.006953743752092123,0.019549041986465454,0.009938213974237442,0.36032283306121826,0.4801606833934784,-0.79975825548172,-0.009218066930770874,-0.007000863552093506,0.005751907825469971,0.9486195316573225,-0.2529814829993346,0.19005590565216365,-0.0005112410899093691
1681567763691489500,0.638489501953125,-0.0060407621785998344,0.019910233095288277,0.011064665392041206,0.36053481698036194,0.48016464710235596,-0.799660325050354,-0.007995754480361938,-0.007142156362533569,0.008446335792541504,0.9485937568782843,-0.2529981939880412,0.1901624398745311,-0.00047230551423919844
1681567763701489400,0.648489501953125,-0.0034372559748589993,0.018506214022636414,0.013055910356342793,0.3607523739337921,0.4801414906978607,-0.7995761036872864,-0.007557183504104614,-0.00518113374710083,0.009689629077911377,0.9485715928315305,-0.2529996059234203,0.19027124474731,-0.0004336385027322373
1681567763711490300,0.658490234375,-0.0018002442084252834,0.020596396178007126,0.01316310279071331,0.36096134781837463,0.4801158308982849,-0.7994971871376038,-0.008864760398864746,-0.0021952688694000244,0.00904613733291626,0.9485507438596651,-0.2530007365260001,0.19037343438449267,-0.0003880853586032622
1681567763721490400,0.668490478515625,-0.0011192739475518465,0.018198486417531967,0.017234809696674347,0.36118438839912415,0.4800577759742737,-0.799431324005127,-0.008065462112426758,-0.001191169023513794,0.009529590606689453,0.9485334367139494,-0.2529853206119544,0.19048035961689735,-0.00033519478110107014
1681567763731490300,0.678490234375,0.010086525231599808,0.017894819378852844,0.013636413030326366,0.36137405037879944,0.4799617826938629,-0.7994032502174377,-0.004821896553039551,0.00046122074127197266,0.005778372287750244,0.9485260815904413,-0.25294530646092966,0.19057033172422036,-0.0002921654761077937
1681567763741491200,0.6884912109375,0.019392941147089005,0.018320659175515175,0.012219344265758991,0.3615460693836212,0.47981271147727966,-0.7994149923324585,-0.002415180206298828,0.0029601454734802246,0.005118727684020996,0.9485291745814994,-0.2528703563799934,0.19065440004426346,-0.0002698290572407996
1681567763751491300,0.6984912109375,0.025887543335556984,0.009747875854372978,0.00855223834514618,0.36166858673095703,0.4795878231525421,-0.7994944453239441,0.0015668869018554688,0.0052449703216552734,0.002421081066131592,0.9485500407405356,-0.25274773839374776,0.19071277332006817,-0.0002623692394153035
1681567763761492500,0.708492431640625,0.02645586058497429,0.009955602698028088,0.006700276397168636,0.36174342036247253,0.4793403446674347,-0.7996090054512024,0.0057187676429748535,0.007750719785690308,0.0030391812324523926,0.9485802409580701,-0.25260683649623716,0.1907492864320491,-0.00027430920896110404
1681567763771492600,0.71849267578125,0.01932794414460659,0.008926690556108952,-0.003743442939594388,0.36180517077445984,0.4791429340839386,-0.7996993660926819,0.007503330707550049,0.007719278335571289,0.0025497078895568848,0.9486040563841658,-0.25248975155334397,0.19078583390430814,-0.00030748178243365716
1681567763781493500,0.728493408203125,0.024530962109565735,0.0028181979432702065,-0.006603678222745657,0.3618199825286865,0.4790114164352417,-0.7997714281082153,0.006160944700241089,0.005500912666320801,0.0021793246269226074,0.9486230437864867,-0.25240390780032546,0.19080497749420777,-0.00036451030130570057
1681567763791493400,0.738493408203125,0.016567694023251534,-0.00030775368213653564,-0.0078050969168543816,0.36177247762680054,0.4788948595523834,-0.7998627424240112,0.005933821201324463,0.003496497869491577,-0.0016356110572814941,0.9486470844695942,-0.25232384594988033,0.19079125046255396,-0.0004253313832200472
1681567763801493500,0.748493408203125,0.010376643389463425,-0.004520874470472336,-0.01031672302633524,0.36168113350868225,0.4788477420806885,-0.7999322414398193,0.005765765905380249,-0.00033211708068847656,-0.00033015012741088867,0.9486653622482215,-0.2522815017385093,0.19075615807360363,-0.0004883287828921182
1681567763811494400,0.758494384765625,-0.0020889807492494583,-0.00818445160984993,-0.009755728766322136,0.3615630269050598,0.47888076305389404,-0.7999659180641174,0.004449576139450073,-0.002272486686706543,-0.0022191405296325684,0.9486742259105928,-0.2522869990363775,0.1907048005912925,-0.000535979158946322
1681567763821494300,0.768494384765625,-0.010109356604516506,-0.010398603975772858,-0.009966650977730751,0.36143720149993896,0.47898605465888977,-0.7999597191810608,0.003659844398498535,-0.005872011184692383,-0.009656369686126709,0.9486725771206468,-0.25233702215368903,0.1906467136453797,-0.0005655279672964253
1681567763831495400,0.778495361328125,-0.02289818786084652,-0.011694498360157013,-0.010183165781199932,0.36130937933921814,0.47917741537094116,-0.7999028563499451,0.004733741283416748,-0.007696062326431274,-0.007256567478179932,0.9486576182260562,-0.2524385161794188,0.19058688430132495,-0.0005823637236337831
1681567763841495600,0.78849560546875,-0.02711343951523304,-0.012614354491233826,-0.007530391216278076,0.36118561029434204,0.4794562757015228,-0.7997916340827942,0.003652036190032959,-0.01163703203201294,-0.003308892250061035,0.948628285343812,-0.25259229331869415,0.19052901696151764,-0.0005875348826595544
1681567763851496400,0.798496337890625,-0.018300209194421768,-0.010921250097453594,-0.005304121877998114,0.36109596490859985,0.47969943284988403,-0.7996863126754761,0.0015749335289001465,-0.012871980667114258,0.0004614591598510742,0.9486004891353838,-0.2527279857433057,0.1904872990423231,-0.00058702744067844
1681567763861496600,0.80849658203125,-0.008490720763802528,-0.009458907879889011,-0.004457769449800253,0.36101850867271423,0.47984063625335693,-0.7996365427970886,0.0015760958194732666,-0.007809996604919434,0.00019812583923339844,0.9485873626418677,-0.2528069307583344,0.19044784168684795,-0.0005821045498550543
1681567763871496400,0.818496337890625,-0.0007520739454776049,-0.010003125295042992,-0.0012844798620790243,0.3609532415866852,0.4798981547355652,-0.7996315360069275,0.0009394586086273193,-0.002938896417617798,0.0005134940147399902,0.9485860745354594,-0.25283881872745334,0.19041211836662794,-0.0005760874404757849
1681567763881497300,0.828497314453125,0.003724966198205948,-0.005992671009153128,0.0008444511913694441,0.36091306805610657,0.4798784852027893,-0.7996614575386047,-0.0026824772357940674,-0.003743201494216919,0.0028932690620422363,0.9485939681571508,-0.25282956722280864,0.1903851002327805,-0.0005601268003842336
1681567763891497500,0.83849755859375,0.007496468257158995,-0.003799823112785816,0.005571029614657164,0.3609069585800171,0.47979816794395447,-0.7997124195098877,-0.004003852605819702,-0.005783826112747192,0.0033257007598876953,0.9486073851289074,-0.2527882547061287,0.19037305471195556,-0.0005372535802103143
1681567763901498400,0.848498291015625,0.007597668096423149,0.0023552742786705494,0.005993406753987074,0.36094585061073303,0.4796677827835083,-0.7997730374336243,-0.006179004907608032,-0.001594632863998413,0.0026233792304992676,0.948623387715201,-0.2527205664542202,0.19038328235438043,-0.0005108504628542284
1681567763911498200,0.858498291015625,0.002299775369465351,0.0060964832082390785,0.0021126484498381615,0.3610193133354187,0.47956517338752747,-0.7998014688491821,-0.0070916712284088135,-0.0018276870250701904,0.005291581153869629,0.9486309381937718,-0.2526673207714048,0.1904166245428914,-0.0004965069736742654
1681567763921498400,0.868498291015625,-0.004278232343494892,0.011846780776977539,0.000908899586647749,0.36112532019615173,0.47952568531036377,-0.7997772693634033,-0.006663620471954346,-0.003878682851791382,0.00723576545715332,0.9486245256297019,-0.252649043103329,0.19047266271560043,-0.0004922974657541047
1681567763931499500,0.87849951171875,-0.010029278695583344,0.01767091453075409,-0.002330636139959097,0.36126992106437683,0.47954219579696655,-0.7997020483016968,-0.007494896650314331,-0.004658132791519165,0.007435202598571777,0.9486046906506809,-0.25266167601858464,0.19055460402945087,-0.0004988111845398943
1681567763941499400,0.88849951171875,-0.009955509565770626,0.022220658138394356,-0.008191455155611038,0.36142289638519287,0.4796159267425537,-0.7995887398719788,-0.009005874395370483,-0.0036332309246063232,0.00814586877822876,0.9485748306521536,-0.2527014602760828,0.19065050485597027,-0.0005335511168293081
1681567763951500300,0.898500244140625,-0.005400854628533125,0.019322672858834267,-0.009674902074038982,0.3615613281726837,0.4796975553035736,-0.7994771599769592,-0.007664233446121216,-0.0012581944465637207,0.0070424675941467285,0.9485453977072931,-0.25274102254583736,0.19074433029412668,-0.0005894960392337056
1681567763961500400,0.90850048828125,0.0023228449281305075,0.01874103769659996,-0.011894647032022476,0.3616727590560913,0.4797457754611969,-0.7993977665901184,-0.006188720464706421,0.004339337348937988,0.004628539085388184,0.9485243872418478,-0.25275808455721277,0.19082571697910933,-0.0006586228811950818
1681567763971501300,0.918501220703125,0.0043784393928945065,0.019164614379405975,-0.01185802835971117,0.36176085472106934,0.47975289821624756,-0.7993536591529846,-0.005010336637496948,0.005842834711074829,0.003180563449859619,0.9485127108349425,-0.25274708455279066,0.19089808561235666,-0.0007471495104740756
1681567763981501400,0.92850146484375,0.01184248086065054,0.01365320198237896,-0.01287668664008379,0.3618089258670807,0.4797259569168091,-0.7993480563163757,-0.0041734278202056885,0.005289942026138306,0.0013744831085205078,0.948511145204683,-0.25271569167053703,0.1909469657481599,-0.0008343943867491918
1681567763991501300,0.938501220703125,0.008387545123696327,0.009120834991335869,-0.011149161495268345,0.3618190288543701,0.4797064960002899,-0.799355149269104,-0.0010859966278076172,0.002898484468460083,0.0004660487174987793,0.9485129374623342,-0.25268688314131527,0.19097579395807007,-0.0009240571143535895
1681567764001502500,0.94850244140625,0.0040817465633153915,0.01051180437207222,-0.009035943076014519,0.3618246018886566,0.4796980917453766,-0.7993577122688293,-0.0006642937660217285,-0.0003279447555541992,0.0002701878547668457,0.9485135260806418,-0.2526679392227107,0.1909975520838829,-0.0009952170182890502
1681567764011502600,0.958502685546875,-0.006005242466926575,0.006446489132940769,-0.011113208718597889,0.3618163764476776,0.47974851727485657,-0.7993311285972595,0.0018158555030822754,-0.00468134880065918,-0.0008702278137207031,0.9485064633265685,-0.2526840435753145,0.19101098436929753,-0.0010565391810723702
1681567764021503500,0.96850341796875,-0.013811500743031502,0.006225180346518755,-0.008467358537018299,0.36179813742637634,0.47986501455307007,-0.7992694973945618,0.0009033083915710449,-0.007727533578872681,-0.0010997653007507324,0.9484901827742214,-0.25274061041764995,0.19101686618495545,-0.0011021171468034764
1681567764031503400,0.97850341796875,-0.018176503479480743,0.002186030149459839,-0.004645255859941244,0.3617698550224304,0.4800146818161011,-0.7991924285888672,0.00108414888381958,-0.009464144706726074,-0.0010852813720703125,0.9484698780173946,-0.25282133071534185,0.1910109064897387,-0.0011199869013843497
1681567764041503500,0.98850341796875,-0.01624411530792713,-0.001023078802973032,-0.002405537525191903,0.3617268204689026,0.4801943004131317,-0.7991039752960205,0.0022868216037750244,-0.010238826274871826,-0.0019060969352722168,0.948446532262972,-0.25292022479410703,0.19099571562678344,-0.0011300473068089861
1681567764051504400,0.99850439453125,-0.009311090223491192,-0.008156688883900642,-0.002431836212053895,0.3616586923599243,0.4803365468978882,-0.7990493178367615,0.005132108926773071,-0.008809417486190796,-0.00334930419921875,0.9484321374655359,-0.2529997659248992,0.19096191544841223,-0.0011267583562699919
1681567764061504300,1.008504150390625,-0.003222039435058832,-0.012383390218019485,0.0028047373052686453,0.36156266927719116,0.48040810227394104,-0.7990497946739197,0.004083722829818726,-0.005493521690368652,-0.0023265480995178223,0.9484322925261887,-0.2530414123906502,0.19090613289458402,-0.0011073706925765702
1681567764071505400,1.01850537109375,0.0011859915684908628,-0.01473056897521019,0.005619831848889589,0.3614734709262848,0.48040783405303955,-0.7990903258323669,0.00359305739402771,-0.002731412649154663,-0.0010500550270080566,0.9484430337168197,-0.2530460853624129,0.19084685863458253,-0.0010695158598063826
1681567764081505300,1.02850537109375,0.006599132902920246,-0.016143109649419785,0.007904292084276676,0.36139342188835144,0.48034510016441345,-0.7991642355918884,0.0022692978382110596,-0.0018141567707061768,-0.0017696022987365723,0.9484625687977504,-0.25301885166947863,0.19078614541797329,-0.0010149467492575422
1681567764091506400,1.03850634765625,0.0069974916987121105,-0.018004193902015686,0.01070547103881836,0.3612992465496063,0.4802300035953522,-0.7992759346961975,0.0028212368488311768,-0.0018821954727172852,-0.0023750662803649902,0.9484920329881316,-0.25296231890234866,0.190714691271107,-0.0009556450079787969
1681567764101506600,1.048506591796875,0.006328772287815809,-0.01657966896891594,0.011673529632389545,0.3612266182899475,0.480104923248291,-0.7993839383125305,-0.00000527501106262207,-0.002459019422531128,-0.0011531710624694824,0.9485206081587083,-0.2529028978591644,0.19065193745497616,-0.0008856551072935672
1681567764111506400,1.05850634765625,0.003980080597102642,-0.01591154932975769,0.012251501902937889,0.36115872859954834,0.47998175024986267,-0.7994885444641113,-0.0014327466487884521,-0.003602325916290283,0.0013318061828613281,0.9485482486076939,-0.25284533413787535,0.19059106998603353,-0.0008126158454168973
1681567764121506600,1.068506591796875,0.006446167826652527,-0.01849348098039627,0.011214200407266617,0.36109593510627747,0.47986748814582825,-0.7995855212211609,-0.004711627960205078,-0.0030608177185058594,0.0035650134086608887,0.948573891035276,-0.2527931344289658,0.19053313117769072,-0.0007388774620721367
1681567764131506400,1.07850634765625,0.006804745644330978,-0.018169840797781944,0.01112545095384121,0.3610386550426483,0.47973355650901794,-0.7996917366981506,-0.004669606685638428,-0.0019960999488830566,0.005059778690338135,0.9486019083030619,-0.2527296865503786,0.19047791560170033,-0.0006662883344300537
1681567764141507600,1.088507568359375,0.009762185625731945,-0.017395127564668655,0.009523559361696243,0.3609634339809418,0.4796094000339508,-0.7998001575469971,-0.005082666873931885,0.002385258674621582,0.00562596321105957,0.9486305277792889,-0.25266920350407907,0.19041583771597956,-0.0006038184753378262
1681567764151507700,1.0985078125,0.01224436890333891,-0.016989994794130325,0.0076970974914729595,0.36088827252388,0.4794832766056061,-0.7999096512794495,-0.003771573305130005,0.0026334524154663086,0.007566511631011963,0.9486593469755003,-0.2526061893924821,0.1903556931737744,-0.000548545188720038
1681567764161508600,1.108508544921875,0.013463296927511692,-0.019581250846385956,0.008126664906740189,0.3607930839061737,0.4793446660041809,-0.8000356554985046,-0.007063835859298706,0.0025584399700164795,0.007890880107879639,0.9486925734863597,-0.2525342834788999,0.19028560091703306,-0.000498923278079173
1681567764171508500,1.118508544921875,0.018090972676873207,-0.01885327324271202,0.00444764131680131,0.36067986488342285,0.4791836142539978,-0.8001831769943237,-0.0060961246490478516,0.003390878438949585,0.005795419216156006,0.9487314949321634,-0.252446904105993,0.1902076925998334,-0.00045988503209342513
1681567764181508600,1.128508544921875,0.02190355397760868,-0.018941693007946014,0.00035835770540870726,0.3605412244796753,0.4790079891681671,-0.8003507852554321,-0.0038059651851654053,0.0054128170013427734,0.003384232521057129,0.9487756152824769,-0.25234684030399196,0.19012017804136078,-0.00043901213941208384
1681567764191509500,1.138509521484375,0.022015323862433434,-0.019698496907949448,0.0017527223099023104,0.36038196086883545,0.4788263142108917,-0.8005312085151672,0.0004578828811645508,0.005579203367233276,0.0009249448776245117,0.9488231793132146,-0.2522404479495813,0.19002409009124535,-0.0004293052203341198
1681567764201509400,1.14850927734375,0.008897123858332634,-0.01748913712799549,0.0055607762187719345,0.36023208498954773,0.4787020683288574,-0.8006730079650879,-0.0002467334270477295,0.0026822686195373535,0.0032334327697753906,0.948860643427133,-0.2521691974370987,0.18993208006186063,-0.00040857040071587647
1681567764211510500,1.158510498046875,-0.00810940656810999,-0.00979772862046957,0.005558712407946587,0.36013269424438477,0.47867903113365173,-0.8007314801216125,-0.004297703504562378,-0.002879410982131958,0.005336642265319824,0.9488761059068067,-0.25216180692365825,0.18986488177843258,-0.0003644665209231404
1681567764221510700,1.1685107421875,-0.009477738291025162,0.003485586494207382,0.013128215447068214,0.3601157069206238,0.4787527620792389,-0.80069500207901,-0.006615281105041504,-0.014107346534729004,0.00891643762588501,0.9488663893298531,-0.25221342498449795,0.18984437395683915,-0.00031361937541435586
1681567764231510500,1.178510498046875,-0.010581834241747856,0.01735273376107216,0.01197073794901371,0.3602572977542877,0.4788162410259247,-0.800593376159668,-0.013013005256652832,-0.013575732707977295,0.01673412322998047,0.9488396668660876,-0.2522645004915416,0.18991035322551789,-0.000260974542519253
1681567764241511700,1.18851171875,-0.00025223189732059836,0.0345519594848156,0.014926847070455551,0.36049631237983704,0.47884464263916016,-0.8004688024520874,-0.015540868043899536,-0.010292977094650269,0.022026419639587402,0.9488068888812797,-0.25229363184935544,0.19003558992972705,-0.00023352892656127624
1681567764251511600,1.198511474609375,0.020979853346943855,0.06010005995631218,0.015620999969542027,0.36093729734420776,0.4787421226501465,-0.8003314137458801,-0.015295177698135376,-0.006680935621261597,0.023140251636505127,0.9487707073689944,-0.25224993858587563,0.190274200545065,-0.0002297175593837383
1681567764261512400,1.208512451171875,0.0406680703163147,0.07361267507076263,0.014785034582018852,0.36152294278144836,0.4784679710865021,-0.8002309799194336,-0.018368035554885864,0.0017414093017578125,0.019988059997558594,0.9487441763465553,-0.25210324084023394,0.190600289790394,-0.0002754393007786608
1681567764271512600,1.2185126953125,0.05456212908029556,0.08675264567136765,0.013433546759188175,0.36223867535591125,0.4780438244342804,-0.8001607656478882,-0.020106106996536255,0.010313749313354492,0.015782713890075684,0.9487256349093846,-0.2518685223659246,0.19100225360177037,-0.0003549260997582437
1681567764281513500,1.228513427734375,0.06146504357457161,0.10390553623437881,0.007064330391585827,0.3630412518978119,0.4775570333003998,-0.8000876903533936,-0.01906237006187439,0.014889836311340332,0.01467210054397583,0.9487062456390755,-0.2515918840324469,0.19146196914204824,-0.0004791079059261441
1681567764291513300,1.238513427734375,0.056103385984897614,0.11727693676948547,0.002033685799688101,0.36393269896507263,0.4770681858062744,-0.7999743819236755,-0.017588675022125244,0.013700276613235474,0.015245378017425537,0.9486763983577807,-0.25130691820617335,0.19198346180850617,-0.0006518820996230358
1681567764301513500,1.248513427734375,0.03762611001729965,0.1325477659702301,-0.005262310616672039,0.3649013042449951,0.47667065262794495,-0.7997700572013855,-0.01623794436454773,0.010420441627502441,0.015742957592010498,0.9486223538306373,-0.25107048606301363,0.1925579907157293,-0.0008529707293622338
1681567764311514600,1.2585146484375,0.010525264777243137,0.14225812256336212,-0.01686457172036171,0.36592546105384827,0.4765258729457855,-0.7993882894515991,-0.012333571910858154,0.006246984004974365,0.016566693782806396,0.948521419948342,-0.2509684379321777,0.19318566068084253,-0.0011077155567556847
1681567764321514500,1.268514404296875,-0.017723683267831802,0.1505352258682251,-0.024727288633584976,0.3669534921646118,0.4766579568386078,-0.7988381385803223,-0.008753389120101929,0.0029715895652770996,0.017511844635009766,0.9483760518383259,-0.251016980173713,0.19383346950848765,-0.001395450664260976
1681567764331515600,1.278515625,-0.03230184316635132,0.15452176332473755,-0.03531288728117943,0.36799317598342896,0.47699856758117676,-0.7981562614440918,-0.003369152545928955,-0.00010034441947937012,0.017562389373779297,0.9481957951463436,-0.25117788904236255,0.1945033051276124,-0.001714436061545536
1681567764341515500,1.288515625,-0.04320668801665306,0.15205594897270203,-0.04164881259202957,0.36897575855255127,0.477489173412323,-0.797408938407898,-0.000048726797103881836,0.0027659833431243896,0.00938403606414795,0.9479980322865406,-0.25141543993879945,0.1951558557092935,-0.0020662686775579147
1681567764351516400,1.298516357421875,-0.04701785743236542,0.1436607986688614,-0.05068138986825943,0.36985936760902405,0.47807493805885315,-0.7966482639312744,0.0008376836776733398,0.005842328071594238,0.003633737564086914,0.9477965651170694,-0.2516980303863375,0.19576507514411245,-0.0024465334523911916
1681567764361516500,1.3085166015625,-0.04926956072449684,0.13652725517749786,-0.058049559593200684,0.37064290046691895,0.4787219762802124,-0.7958952188491821,0.0019156932830810547,0.009894996881484985,-0.001605391502380371,0.9475967867573055,-0.25200745448587775,0.1963278972464065,-0.0028500290160891426
1681567764371516400,1.318516357421875,-0.04716295003890991,0.12956662476062775,-0.05986376851797104,0.3713487982749939,0.47938403487205505,-0.7951673269271851,0.0026441216468811035,0.009736478328704834,-0.0034929513931274414,0.9474034235860834,-0.25232077869591524,0.19685159854470527,-0.003263592120167947
1681567764381517600,1.328517578125,-0.04059932380914688,0.11737440526485443,-0.060511182993650436,0.3719768524169922,0.4800063967704773,-0.7944979667663574,0.0029621124267578125,0.007344067096710205,-0.0028652548789978027,0.9472251168009814,-0.2526090422874558,0.19733138605150022,-0.0036769069526813207
1681567764391517700,1.338517578125,-0.029036343097686768,0.10702429711818695,-0.06112691015005112,0.3725283145904541,0.48055723309516907,-0.7939064502716064,0.0012815296649932861,0.00784611701965332,-0.004158735275268555,0.9470673892660061,-0.2528556626383907,0.19776450397238338,-0.0040819761127885885
1681567764401518600,1.3485185546875,-0.01815679669380188,0.09449306130409241,-0.06273731589317322,0.3729848861694336,0.48101070523262024,-0.7934172749519348,0.003388434648513794,0.0072553157806396484,-0.00585329532623291,0.9469363952225354,-0.2530428144613393,0.19814309636388003,-0.00449120474000898
1681567764411518500,1.3585185546875,-0.00754857761785388,0.08197786659002304,-0.05846700817346573,0.37338173389434814,0.4813500642776489,-0.7930247187614441,0.0068215131759643555,0.001193910837173462,-0.008702576160430908,0.9468307897816732,-0.25316683545499286,0.19847971194798758,-0.004881480607797554
1681567764421518600,1.3685185546875,0.0002443644334562123,0.06384094059467316,-0.05360594019293785,0.37368103861808777,0.4815891981124878,-0.7927385568618774,0.006522238254547119,-0.0035313069820404053,-0.011674284934997559,0.9467533678740689,-0.25323689707517666,0.1987506156434867,-0.005241340203843187
1681567764431519500,1.37851953125,0.004795490298420191,0.049914006143808365,-0.04539921134710312,0.3738853931427002,0.4817574918270111,-0.7925398945808411,0.008011609315872192,-0.007041275501251221,-0.01541292667388916,0.9466991680111526,-0.2532737469827878,0.19895340336169695,-0.005552581225544776
1681567764441519600,1.38851953125,0.0020662827882915735,0.030722467228770256,-0.034897565841674805,0.3739924430847168,0.48189350962638855,-0.7924066781997681,0.006363391876220703,-0.010808885097503662,-0.018277525901794434,0.9466623967587662,-0.2533017595825144,0.19908512902545814,-0.005804059220404219
1681567764451520500,1.3985205078125,0.005344534292817116,0.01765633374452591,-0.027778005227446556,0.3740309476852417,0.48199909925460815,-0.7923243045806885,0.007545590400695801,-0.016651779413223267,-0.022586584091186523,0.9466395383846326,-0.253324435048078,0.19915970133821465,-0.005988255702033844
1681567764461520400,1.408520263671875,0.005239872261881828,0.002721858210861683,-0.016534140333533287,0.37399372458457947,0.4820480942726135,-0.7923120260238647,0.01037520170211792,-0.020591765642166138,-0.02159172296524048,0.9466355096828548,-0.2533246342152913,0.19917480277700064,-0.006114985074784345
1681567764471521500,1.418521484375,0.006880861707031727,-0.01127471774816513,-0.007514212746173143,0.37388038635253906,0.4820501506328583,-0.7923642992973328,0.012395888566970825,-0.02285212278366089,-0.021005451679229736,0.9466489078420276,-0.25330916824891614,0.19912888697892206,-0.006178046065629265
1681567764481521700,1.428521728515625,0.009683039970695972,-0.02312019281089306,0.0041917115449905396,0.3737347424030304,0.4820030927658081,-0.792461633682251,0.013045072555541992,-0.022850841283798218,-0.020892858505249023,0.9466746461974673,-0.2532791997543536,0.1990448083513188,-0.006172229718649441
1681567764491521500,1.438521484375,0.017407605424523354,-0.03514569625258446,0.0135846808552742,0.37356412410736084,0.48184558749198914,-0.792637825012207,0.01570284366607666,-0.02350202202796936,-0.01888561248779297,0.9467216011890338,-0.25319927670832604,0.1989251495043483,-0.006100606398963929
1681567764501522400,1.4485224609375,0.023187730461359024,-0.04832727834582329,0.022036222741007805,0.3733275830745697,0.4815836548805237,-0.7929084300994873,0.015008628368377686,-0.020600348711013794,-0.015792131423950195,0.9467938890078406,-0.2530687070583488,0.19875113720325113,-0.005976908506482736
1681567764511522600,1.4585224609375,0.03344729170203209,-0.061110179871320724,0.0300078634172678,0.37304672598838806,0.48119255900382996,-0.7932779788970947,0.014373958110809326,-0.01479235291481018,-0.013759374618530273,0.9468925657255807,-0.25287408903554515,0.1985338917508259,-0.005800926791132712
1681567764521523500,1.4685234375,0.041414402425289154,-0.0711178109049797,0.03577733412384987,0.37269356846809387,0.48068732023239136,-0.7937501072883606,0.015779942274093628,-0.01010623574256897,-0.012661576271057129,0.947018481596844,-0.2526199147462505,0.19826273485793036,-0.005588196328309835
1681567764531523600,1.478523681640625,0.04956692457199097,-0.07988113909959793,0.03887958452105522,0.3722822368144989,0.4800868332386017,-0.7943063974380493,0.014955341815948486,-0.006194591522216797,-0.009953856468200684,0.9471666731184817,-0.2523144916731941,0.19795001338822188,-0.0053525682082639185
1681567764541524700,1.488524658203125,0.04866570979356766,-0.09040968120098114,0.042928121984004974,0.37183162569999695,0.47943609952926636,-0.7949102520942688,0.012186378240585327,-0.00510135293006897,-0.007702052593231201,0.9473274837658011,-0.2519857860876947,0.19760576475877112,-0.005085863522179121
1681567764551524600,1.498524658203125,0.0417773574590683,-0.09991763532161713,0.04206785187125206,0.3713226020336151,0.47881147265434265,-0.7955244183540344,0.011077940464019775,-0.005300700664520264,-0.008110225200653076,0.9474909779787468,-0.25167491846972084,0.19722457509786967,-0.004796691603898847
1681567764561524700,1.508524658203125,0.03042110800743103,-0.10877823829650879,0.04624555632472038,0.37073957920074463,0.47824957966804504,-0.7961341142654419,0.011660963296890259,-0.006798744201660156,-0.0072563886642456055,0.9476534021229829,-0.25140396983531466,0.19679683896386851,-0.0044764860956385405
1681567764571525600,1.518525634765625,0.020884312689304352,-0.11207782477140427,0.044672891497612,0.37013277411460876,0.4777680039405823,-0.7967053651809692,0.010985970497131348,-0.007171690464019775,-0.007783710956573486,0.947805647397213,-0.2511826968255022,0.19635318078261854,-0.004133495718219951
1681567764581525500,1.528525390625,0.0091959647834301,-0.1170041412115097,0.044357042759656906,0.3694863021373749,0.4773886203765869,-0.7972327470779419,0.007390528917312622,-0.006517618894577026,-0.0070427656173706055,0.9479463188632772,-0.25102056784939186,0.19588850379378142,-0.0037790932962432516
1681567764591526400,1.5385263671875,0.006372031755745411,-0.12142106890678406,0.03924011066555977,0.36878544092178345,0.4771023392677307,-0.797728419303894,0.004978597164154053,-0.005208998918533325,-0.004243016242980957,0.948078346798848,-0.250908585247291,0.19539871836397643,-0.0034297995462979894
1681567764601526500,1.548526611328125,0.007844493724405766,-0.12651649117469788,0.037109583616256714,0.36804962158203125,0.4768584370613098,-0.7982139587402344,0.00388336181640625,-0.0028441548347473145,-0.002185821533203125,0.9482075029889347,-0.2508184984615887,0.1948925607482999,-0.0030849855518317224
1681567764611526400,1.5585263671875,0.014539730735123158,-0.13077695667743683,0.03430813550949097,0.3672526776790619,0.47660544514656067,-0.7987319231033325,0.0035663843154907227,0.00030800700187683105,-0.001087963581085205,0.9483450819499807,-0.25071830320528543,0.19435628238513755,-0.0027540043694959803
1681567764621527600,1.568527587890625,0.01802580989897251,-0.13262838125228882,0.034904152154922485,0.36641642451286316,0.4763152301311493,-0.7992889285087585,0.002251178026199341,0.005038559436798096,-0.0007293224334716797,0.9484927300683524,-0.250592356632275,0.19380145897804302,-0.002438492727375861
1681567764631527400,1.57852734375,0.02225589007139206,-0.13054971396923065,0.03308647871017456,0.3655747175216675,0.4760027527809143,-0.7998602986335754,0.000010639429092407227,0.005747795104980469,-0.00018846988677978516,0.9486441040129003,-0.2504531083800756,0.19324359175017816,-0.0021243016696133273
1681567764641528600,1.588528564453125,0.024772576987743378,-0.1252521574497223,0.02784830518066883,0.36475828289985657,0.4756699502468109,-0.8004308342933655,-0.0003173649311065674,0.0036239027976989746,0.0014958977699279785,0.9487950850918908,-0.2502991251009404,0.19270426314228029,-0.0018286673683640818
1681567764651528700,1.59852880859375,0.028429780155420303,-0.11764702945947647,0.03101220726966858,0.3639768064022064,0.4753130376338959,-0.8009983897209167,-0.001702636480331421,0.0035688281059265137,0.0046422481536865234,0.9489451816842498,-0.2501287592730757,0.19218843950732648,-0.001550738561675118
1681567764661529600,1.608529541015625,0.024295222014188766,-0.10593923926353455,0.0312604121863842,0.36326900124549866,0.47496774792671204,-0.8015243411064148,-0.006228595972061157,0.0036547482013702393,0.01197361946105957,0.9490840674762193,-0.24996452739170433,0.19171738962527884,-0.001285844911129084
1681567764671529500,1.618529541015625,0.021821944043040276,-0.08753573149442673,0.02686326950788498,0.3626658618450165,0.4746430516242981,-0.8019896745681763,-0.008906066417694092,0.0001341700553894043,0.01829826831817627,0.9492069069596897,-0.24981102498431182,0.19131025750560957,-0.001041136121037922
1681567764681529600,1.628529541015625,0.016048211604356766,-0.0750548243522644,0.02464938350021839,0.3621766269207001,0.47438347339630127,-0.8023642897605896,-0.011789053678512573,-0.002947896718978882,0.0246543288230896,0.949305869003808,-0.24969193990821592,0.19097588713214927,-0.0008258591940088874
1681567764691530500,1.638530517578125,0.012811372056603432,-0.05504343658685684,0.02484605647623539,0.361806720495224,0.4741763472557068,-0.8026535511016846,-0.014898151159286499,-0.0020388662815093994,0.02595067024230957,0.9493821396192672,-0.24960086844659185,0.19071611124175117,-0.000637442777452991
1681567764701530400,1.6485302734375,0.013750403188169003,-0.04087541997432709,0.019225722178816795,0.3615614175796509,0.4740234315395355,-0.8028544187545776,-0.014835923910140991,-0.0024657845497131348,0.023755908012390137,0.9494351581463456,-0.24953702905433628,0.1905362683229009,-0.000485408985862663
1681567764711531500,1.658531494140625,0.013572053983807564,-0.020923083648085594,0.01731923222541809,0.3614145517349243,0.47388261556625366,-0.8030036687850952,-0.01688632369041443,-0.0027979910373687744,0.022577643394470215,0.9494745306451219,-0.24947473163989287,0.19042198065455632,-0.00037494428202177875
1681567764721531600,1.66853173828125,0.019725553691387177,-0.005975027102977037,0.012730338610708714,0.3613865375518799,0.47372251749038696,-0.8031107187271118,-0.017667025327682495,0.003877609968185425,0.019541382789611816,0.9495027206996258,-0.24939721495806294,0.19038297410501567,-0.0003042586308279426
1681567764731532500,1.678532470703125,0.022361701354384422,0.010784711688756943,0.004117742646485567,0.3614368438720703,0.4735385477542877,-0.8031964898109436,-0.015321731567382812,0.010760188102722168,0.01768934726715088,0.9495252295512338,-0.24929724561944946,0.19040123160430308,-0.00029019090291302317
1681567764741532700,1.68853271484375,0.021761957556009293,0.022514071315526962,0.0008684195927344263,0.3615739941596985,0.47337982058525085,-0.8032283782958984,-0.015596210956573486,0.013833343982696533,0.018804550170898438,0.9495336508292268,-0.24920564595403585,0.1904792774158354,-0.0003189655902142317
1681567764751532500,1.698532470703125,0.015534155070781708,0.03669540584087372,-0.005070162937045097,0.3617915213108063,0.47327378392219543,-0.8031929135322571,-0.015859514474868774,0.012230366468429565,0.019440531730651855,0.949524315719758,-0.249138248836609,0.1906139441375487,-0.0003885948155569958
1681567764761533400,1.708533447265625,0.010421151295304298,0.04710916429758072,-0.011639649048447609,0.3620685040950775,0.4732256233692169,-0.8030964732170105,-0.014641106128692627,0.009333640336990356,0.022670507431030273,0.9494988849682331,-0.24909784890631198,0.190793117364555,-0.0004962163635515096
1681567764771533600,1.718533447265625,0.002760702045634389,0.055689603090286255,-0.017746809870004654,0.3624001145362854,0.4732644855976105,-0.8029240369796753,-0.013034850358963013,0.006944924592971802,0.023428797721862793,0.9494534379857186,-0.249100314787721,0.19101575838425258,-0.000644378249938796
1681567764781534500,1.728534423828125,-0.005796034354716539,0.06220183148980141,-0.02464492991566658,0.3627626895904541,0.47338613867759705,-0.802688479423523,-0.011780023574829102,0.005617797374725342,0.01980578899383545,0.9493911224071777,-0.24914456691322925,0.19126618075840307,-0.0008230659615316404
1681567764791534300,1.738534423828125,-0.012057608924806118,0.06673672795295715,-0.02919207699596882,0.36313366889953613,0.47358354926109314,-0.8024042844772339,-0.010915040969848633,0.0030247867107391357,0.015340685844421387,0.949316201867613,-0.24922665072901454,0.19153051283008937,-0.0010278973673300599
1681567764801535500,1.748535400390625,-0.015399876050651073,0.06794420629739761,-0.0338912233710289,0.3634955585002899,0.47384870052337646,-0.8020837903022766,-0.004502028226852417,0.0015083551406860352,0.009008288383483887,0.9492314595630181,-0.24934183765593765,0.19179873133367753,-0.0012577659310643858
1681567764811535600,1.75853564453125,-0.018783556297421455,0.06643792241811752,-0.03816506639122963,0.36382555961608887,0.4741600751876831,-0.801750123500824,-0.004633665084838867,0.0032569468021392822,0.0025100111961364746,0.9491432616135315,-0.2494787527001051,0.1920554614681329,-0.0015045879071953012
1681567764821535500,1.768535400390625,-0.02133939228951931,0.06360538303852081,-0.03857972100377083,0.36413219571113586,0.47451677918434143,-0.801399827003479,-0.0036127567291259766,0.0021220743656158447,0.001228928565979004,0.9490505719795623,-0.24963920210251045,0.19230279019307525,-0.001758461185766841
1681567764831536600,1.77853662109375,-0.022535083815455437,0.06256382167339325,-0.03941115736961365,0.3644150495529175,0.4748823046684265,-0.8010546565055847,-0.0021713674068450928,-0.000364452600479126,-0.0011304020881652832,0.9489591751527828,-0.2498042571500206,0.1925370212223466,-0.002010569515845719
1681567764841536500,1.78853662109375,-0.020798437297344208,0.06159443035721779,-0.037719517946243286,0.36469149589538574,0.47524601221084595,-0.800713062286377,0.0007565319538116455,-0.0005602836608886719,-0.0009226799011230469,0.9488685531620201,-0.2499694060951768,0.19276611056709278,-0.0022560703245086224
1681567764851537400,1.798537353515625,-0.021389007568359375,0.061193957924842834,-0.03497786074876785,0.36496642231941223,0.47559261322021484,-0.8003818988800049,-0.000006705522537231445,-0.0014715194702148438,0.002286255359649658,0.9487807116456551,-0.25012619641039646,0.19299204334762193,-0.002494389600174284
1681567764861537500,1.80853759765625,-0.021738681942224503,0.06151566654443741,-0.03554404899477959,0.365254670381546,0.47594940662384033,-0.8000382781028748,-0.002568483352661133,-0.004208654165267944,0.002720773220062256,0.9486895337314039,-0.25029102295571637,0.1932233638838703,-0.0027234341271227896
1681567764871538700,1.81853857421875,-0.02007763460278511,0.06578084826469421,-0.032671697437763214,0.36557018756866455,0.476274698972702,-0.7997004985809326,-0.001937955617904663,-0.008531749248504639,0.003756284713745117,0.9485998462059936,-0.2504385929389301,0.19346901588274312,-0.002953137066249935
1681567764881538600,1.82853857421875,-0.018726347014307976,0.07012712955474854,-0.028520362451672554,0.3659544587135315,0.4765680730342865,-0.7993499040603638,-0.0032377541065216064,-0.012151539325714111,0.0051451921463012695,0.9485067943774659,-0.25057344212052507,0.19374723049330744,-0.003166102518901954
1681567764891538700,1.83853857421875,-0.025564279407262802,0.0759783610701561,-0.02861064299941063,0.36637571454048157,0.47686469554901123,-0.7989799976348877,-0.006008893251419067,-0.010983318090438843,0.004073381423950195,0.9484085744657991,-0.25071205601952296,0.19404504388228389,-0.0033748742808883416
1681567764901539600,1.84853955078125,-0.027156049385666847,0.0845622569322586,-0.02872995287179947,0.3668520450592041,0.4771815836429596,-0.7985720634460449,-0.007049769163131714,-0.009804844856262207,0.000049114227294921875,0.9483001323772329,-0.25086210830688854,0.194376379258061,-0.0035921204140366655
1681567764911539500,1.85853955078125,-0.02778806909918785,0.09487102925777435,-0.027199899777770042,0.3674263060092926,0.47748231887817383,-0.7981281876564026,-0.008081793785095215,-0.00816771388053894,0.0017109513282775879,0.948182340766643,-0.2510055857675813,0.19476164342016475,-0.003810275435544179
1681567764921540600,1.86854052734375,-0.0326579250395298,0.1110105812549591,-0.0269977655261755,0.36811235547065735,0.4778067171573639,-0.7976177334785461,-0.012780934572219849,-0.006096482276916504,0.006892085075378418,0.9480467288903192,-0.25116421022743485,0.1952118549689952,-0.004036351493810685
1681567764931540500,1.87854052734375,-0.03828270360827446,0.12975862622261047,-0.022416530176997185,0.36893975734710693,0.4781668186187744,-0.7970194220542908,-0.018185973167419434,-0.006548166275024414,0.013053417205810547,0.9478879318611528,-0.25134667130312965,0.19574253728054458,-0.004265467250749723
1681567764941541400,1.888541259765625,-0.033928435295820236,0.15280936658382416,-0.023852240294218063,0.36993321776390076,0.47852185368537903,-0.7963455319404602,-0.02081209421157837,-0.00908517837524414,0.02145850658416748,0.9477089797196746,-0.2515263865056058,0.19637134186363922,-0.0045175247449311985
1681567764951541500,1.89854150390625,-0.02178587019443512,0.17351697385311127,-0.02083481289446354,0.3710959255695343,0.47880876064300537,-0.7956318259239197,-0.026201486587524414,-0.004931807518005371,0.027412891387939453,0.9475193279717272,-0.25166403796619374,0.19710223671891794,-0.0048088821165775935
1681567764961542700,1.908542724609375,-0.008475123904645443,0.1958337277173996,-0.024284936487674713,0.372437447309494,0.47896823287010193,-0.7949087023735046,-0.02894681692123413,0.0031332671642303467,0.03325098752975464,0.9473268160455598,-0.2517279002014002,0.19793614894662104,-0.005130537979183311
1681567764971542500,1.91854248046875,0.011990886181592941,0.21353888511657715,-0.029238348826766014,0.3739239275455475,0.4790225028991699,-0.794177770614624,-0.028892189264297485,0.011578112840652466,0.03508353233337402,0.9471317369380504,-0.251722629709593,0.19886384115383712,-0.005515143268526592
1681567764981542700,1.928542724609375,0.02354074828326702,0.226361483335495,-0.03416067361831665,0.3754996061325073,0.47897228598594666,-0.7934643030166626,-0.028514742851257324,0.015153110027313232,0.0314556360244751,0.9469406977816912,-0.25164668366458276,0.1998544150530681,-0.0059626049640000315
1681567764991543600,1.93854345703125,0.038559045642614365,0.23812440037727356,-0.04034879058599472,0.3771350383758545,0.478843092918396,-0.7927663326263428,-0.023573637008666992,0.02123323082923889,0.026576757431030273,0.9467530749750948,-0.251514159521594,0.20089165341769993,-0.006469877658762987
1681567765001543400,1.94854345703125,0.044095490127801895,0.2419915795326233,-0.05243874341249466,0.3787743151187897,0.4786849319934845,-0.7920800447463989,-0.017385125160217285,0.02615213394165039,0.018947720527648926,0.9465677952685719,-0.2513519946476239,0.20194593061165012,-0.007035377585665241
1681567765011544600,1.958544677734375,0.04155728593468666,0.241624653339386,-0.06199636310338974,0.3803709149360657,0.4785718321800232,-0.7913829684257507,-0.012100011110305786,0.024708837270736694,0.011216402053833008,0.9463788425245361,-0.25120009440929075,0.2029951311569353,-0.007662562492871265
1681567765021544400,1.96854443359375,0.032563790678977966,0.23803791403770447,-0.07723923027515411,0.38189032673835754,0.4785497188568115,-0.7906643152236938,-0.005501747131347656,0.019939690828323364,0.006271004676818848,0.946183233243715,-0.25108509989629296,0.20401991283510448,-0.00834404055927639
1681567765031544300,1.97854443359375,0.020665032789111137,0.22642605006694794,-0.08762563019990921,0.38326290249824524,0.4786909520626068,-0.7899142503738403,0.0057294368743896484,0.017128169536590576,0.00024139881134033203,0.9459782706409476,-0.25104775283021513,0.20498266936748452,-0.009072771890539831
1681567765041545700,1.988545654296875,0.00542882364243269,0.2141888290643692,-0.10109084099531174,0.3844747245311737,0.4790310263633728,-0.789118766784668,0.014451056718826294,0.014056771993637085,-0.004673898220062256,0.9457605053009028,-0.25111312946108016,0.2058708301575295,-0.009824789627242269
1681567765051545600,1.998545654296875,-0.011920539662241936,0.19495894014835358,-0.11026515811681747,0.38547030091285706,0.4795757532119751,-0.7883018255233765,0.018551915884017944,0.00754585862159729,-0.010083794593811035,0.9455360711765337,-0.2512823750946945,0.20665492849598419,-0.010603763038327555
1681567765061546500,2.00854638671875,-0.023881062865257263,0.1714291125535965,-0.11662665009498596,0.3862523138523102,0.4802754521369934,-0.7874926328659058,0.02008923888206482,0.0032145678997039795,-0.014905989170074463,0.9453131249133798,-0.25153445454763745,0.20732607418027685,-0.011377753793766125
1681567765071546600,2.018546630859375,-0.0327741876244545,0.14846587181091309,-0.11796688288450241,0.38685137033462524,0.4810654819011688,-0.7867159843444824,0.021946877241134644,-0.0016342997550964355,-0.020733356475830078,0.9450983484528637,-0.2518370651791719,0.20789444215702477,-0.012130900044114556
1681567765081547500,2.028547607421875,-0.03424052521586418,0.1203269213438034,-0.11529893428087234,0.38728028535842896,0.4818553626537323,-0.7860212922096252,0.022097796201705933,-0.003446519374847412,-0.026661813259124756,0.9449052563911459,-0.2521444322177362,0.20835676572091555,-0.012838936679549483
1681567765091547400,2.03854736328125,-0.029389478266239166,0.09125465154647827,-0.1121583953499794,0.3875221014022827,0.4826006293296814,-0.7854446768760681,0.021337151527404785,-0.007502913475036621,-0.031144678592681885,0.9447436193129146,-0.2524334178665264,0.20869843266858243,-0.013490511685104034
1681567765101548500,2.048548583984375,-0.02705947868525982,0.06400012969970703,-0.10344266891479492,0.38757675886154175,0.48328396677970886,-0.7849974036216736,0.022732079029083252,-0.012657105922698975,-0.036566317081451416,0.944616588644009,-0.25269466333393736,0.20891793663062988,-0.01408407215009593
1681567765111548400,2.05854833984375,-0.02227136306464672,0.033224839717149734,-0.09194041043519974,0.38748130202293396,0.4838775396347046,-0.7846787571907043,0.021347403526306152,-0.01546323299407959,-0.03604567050933838,0.9445245988694122,-0.2529211953629657,0.2090250850572269,-0.014584310024646639
1681567765121548800,2.068548828125,-0.01480359397828579,0.005661655217409134,-0.07748717069625854,0.387246310710907,0.4843611717224121,-0.7844963669776917,0.019522488117218018,-0.01875448226928711,-0.036838412284851074,0.9444700228853194,-0.25310251339289586,0.2090237511654776,-0.014988035281099587
1681567765131550000,2.078550048828125,-0.007049201522022486,-0.023340968415141106,-0.06285043805837631,0.38686639070510864,0.48470357060432434,-0.7844723463058472,0.020116031169891357,-0.02532246708869934,-0.03849512338638306,0.9444589393201211,-0.25322290061708486,0.2089066225246376,-0.015285076533857802
1681567765141549800,2.0885498046875,-0.0027876109816133976,-0.051667679101228714,-0.0424431674182415,0.38634175062179565,0.4849165976047516,-0.7845993041992188,0.020564377307891846,-0.02887710928916931,-0.03836822509765625,0.9444896410815041,-0.2532912169138552,0.20867178342418674,-0.015466219709246358
1681567765151550700,2.09855078125,0.004587281029671431,-0.07397138327360153,-0.022195421159267426,0.3857184946537018,0.4849971830844879,-0.7848560214042664,0.021126598119735718,-0.03464922308921814,-0.03554797172546387,0.944556326208332,-0.25330552185296373,0.20834657222413597,-0.01553783714828589
1681567765161550800,2.10855078125,0.017274046316742897,-0.09365773946046829,-0.003330653067678213,0.38501888513565063,0.4849245250225067,-0.785244345664978,0.020132511854171753,-0.037063777446746826,-0.03348124027252197,0.9446597484354076,-0.2532540841663566,0.20794274709053803,-0.015501046083613251
1681567765171551700,2.1185517578125,0.030392862856388092,-0.10614084452390671,0.01040946040302515,0.3842651844024658,0.4846707582473755,-0.785770058631897,0.02059626579284668,-0.0349942147731781,-0.031048178672790527,0.9448009307068703,-0.25311769944343643,0.20747628191809236,-0.015373068102854142
1681567765181551600,2.128551513671875,0.04300825670361519,-0.11903347074985504,0.0295698381960392,0.3835006654262543,0.48425421118736267,-0.7864001393318176,0.015959203243255615,-0.03299075365066528,-0.024314522743225098,0.9449711321596229,-0.2529063069335304,0.2069742150008502,-0.01516105465994627
1681567765191551700,2.1385517578125,0.049446433782577515,-0.13227197527885437,0.04583076760172844,0.38271892070770264,0.4836934506893158,-0.7871257662773132,0.01564231514930725,-0.03125503659248352,-0.020476162433624268,0.9451678212755188,-0.2526311585662065,0.20643307805785727,-0.014861359434114577
1681567765201553000,2.148552978515625,0.05912036448717117,-0.13843905925750732,0.05722030997276306,0.3819393217563629,0.4830029010772705,-0.78792804479599,0.015811532735824585,-0.02990838885307312,-0.01486736536026001,0.9453855879163862,-0.2522961532436749,0.20587044753724118,-0.014496021044418873
1681567765211552800,2.158552734375,0.06747159361839294,-0.141728937625885,0.07199319452047348,0.38117673993110657,0.482178658246994,-0.7888016700744629,0.01195073127746582,-0.02790921926498413,-0.00920248031616211,0.9456230123492202,-0.25189698944042765,0.2052975051635116,-0.01407589243111906
1681567765221554000,2.168553955078125,0.06914432346820831,-0.14276276528835297,0.07814642786979675,0.3804561197757721,0.4812641739845276,-0.7897075414657593,0.010001063346862793,-0.0190601646900177,-0.007854104042053223,0.945869448842612,-0.25146026007689537,0.2047290212450242,-0.013596053685395074
1681567765231553800,2.1785537109375,0.0639510527253151,-0.14113783836364746,0.08129974454641342,0.37976640462875366,0.48032861948013306,-0.7906085848808289,0.006540387868881226,-0.01563742756843567,-0.005198299884796143,0.9461146689281137,-0.25101844660686906,0.2041701760901344,-0.013087486148048284
1681567765241554700,2.1885546875,0.056801531463861465,-0.13430629670619965,0.08300017565488815,0.3791242241859436,0.4794139862060547,-0.7914714217185974,0.004084974527359009,-0.013624191284179688,-0.0014514923095703125,0.94634972223193,-0.25059271586935605,0.2036358979973617,-0.01256484096006193
1681567765251554800,2.198554931640625,0.05338699370622635,-0.12476086616516113,0.08017203211784363,0.37854501605033875,0.47852465510368347,-0.7922865152359009,-0.00011175870895385742,-0.010064542293548584,0.002842545509338379,0.9465718495400599,-0.25018203204785483,0.20313962693091203,-0.012046205166740237
1681567765261554700,2.2085546875,0.04455861821770668,-0.11450903117656708,0.07898639142513275,0.37805232405662537,0.47768762707710266,-0.7930265069007874,-0.0054631829261779785,-0.0047414302825927734,0.010128557682037354,0.9467736036714112,-0.24980090415665482,0.20269745267903624,-0.011538917951038223
1681567765271555800,2.218555908203125,0.029620761051774025,-0.10152911394834518,0.07170484215021133,0.3776439130306244,0.47697144746780396,-0.7936518788337708,-0.00839647650718689,0.0016510188579559326,0.017727255821228027,0.9469444613757091,-0.24948560825381993,0.20231405851668635,-0.011055600701138346
1681567765281556000,2.228555908203125,0.01852416805922985,-0.08384359627962112,0.06522616744041443,0.3773147463798523,0.47641345858573914,-0.7941434383392334,-0.009837329387664795,0.004375755786895752,0.0225980281829834,0.9470792166440574,-0.24925280935185867,0.201993354614724,-0.010617055658076666
1681567765291556900,2.238556884765625,0.012791764922440052,-0.07229579240083694,0.053614720702171326,0.37705197930336,0.47596272826194763,-0.7945383787155151,-0.014075934886932373,0.006245523691177368,0.024991929531097412,0.9471876496840366,-0.24907102210697696,0.20172860462611886,-0.010233410259480708
1681567765301556700,2.248556640625,0.00465713907033205,-0.05955576151609421,0.044220153242349625,0.3768291473388672,0.47565367817878723,-0.7948291897773743,-0.0152263343334198,0.013787269592285156,0.026717007160186768,0.9472678421077285,-0.24895642623302439,0.20150956714139973,-0.009917241101815459
1681567765311558000,2.258557861328125,-0.003468132112175226,-0.04485497996211052,0.03357643261551857,0.37665435671806335,0.4754580855369568,-0.7950290441513062,-0.014288634061813354,0.01767551898956299,0.025192618370056152,0.94732335635653,-0.24889670961329327,0.20133530203993652,-0.00965240117677164
1681567765321557800,2.268557861328125,-0.009116163477301598,-0.03076765686273575,0.02334669791162014,0.3765209913253784,0.47536593675613403,-0.7951472997665405,-0.01465877890586853,0.019522398710250854,0.023952841758728027,0.9473565176455401,-0.2488821439295472,0.2012064236360513,-0.009457196309666044
1681567765331558700,2.27855859375,-0.012427388690412045,-0.01848389394581318,0.012782802805304527,0.3764307200908661,0.47537896037101746,-0.7951822280883789,-0.01740667223930359,0.020043402910232544,0.025681495666503906,0.9473669546345198,-0.24891515639968323,0.201122206263743,-0.00932513002151631
1681567765341558800,2.288558837890625,-0.01688552089035511,-0.004176061600446701,0.004190646577626467,0.37637096643447876,0.47548648715019226,-0.7951462268829346,-0.015485316514968872,0.022545158863067627,0.02553868293762207,0.9473580776200418,-0.24898723408169918,0.20107770859027752,-0.009265951892997167
1681567765351558700,2.29855859375,-0.018189718946814537,0.007824608124792576,-0.004321548622101545,0.3763677179813385,0.4756692051887512,-0.7950384616851807,-0.013254284858703613,0.020516127347946167,0.024942636489868164,0.9473296905138885,-0.24909186600723027,0.20108207877877535,-0.00926229668766411
1681567765361559800,2.308559814453125,-0.020763399079442024,0.018627986311912537,-0.016058897599577904,0.3764108717441559,0.47590482234954834,-0.7948769927024841,-0.015983015298843384,0.017884880304336548,0.023011207580566406,0.9472865656529088,-0.24921652244806364,0.2011283632131485,-0.009312209589545942
1681567765371560000,2.318559814453125,-0.023298395797610283,0.025543950498104095,-0.019987327978014946,0.3764839172363281,0.47621482610702515,-0.7946567535400391,-0.014835327863693237,0.013729661703109741,0.020959854125976562,0.9472274808237008,-0.24937404704275265,0.20120690327881763,-0.00941055359747711
1681567765381560800,2.328560791015625,-0.027028152719140053,0.03647436201572418,-0.023834530264139175,0.37660473585128784,0.4765786826610565,-0.7943812608718872,-0.011538177728652954,0.008528739213943481,0.018502414226531982,0.9471534980977871,-0.249558243347423,0.2013207433444083,-0.009533961599395025
1681567765391560700,2.338560791015625,-0.033356208354234695,0.03785194829106331,-0.027383124455809593,0.37675565481185913,0.4770010709762573,-0.7940561771392822,-0.007752329111099243,0.0041085779666900635,0.013782739639282227,0.9470662857403392,-0.24977216860090265,0.20145911979662734,-0.009678081282710077
1681567765401561900,2.348561767578125,-0.03893286734819412,0.042231783270835876,-0.02808832935988903,0.37692973017692566,0.47746142745018005,-0.7936968207359314,-0.004310041666030884,-0.00009012222290039062,0.011439681053161621,0.9469699311976848,-0.25000692357872667,0.2016137919822862,-0.009829033293991563
1681567765411561700,2.358561767578125,-0.03596392273902893,0.03734707832336426,-0.026727788150310516,0.37708336114883423,0.4779411256313324,-0.7933350205421448,-0.002800494432449341,-0.0044914186000823975,0.006271421909332275,0.9468726929812028,-0.2502519839347786,0.20175838504309063,-0.009981230175183087
1681567765421561600,2.3685615234375,-0.02634565159678459,0.03598380833864212,-0.021966855973005295,0.37722012400627136,0.47836607694625854,-0.7930138111114502,0.0001907944679260254,-0.005541950464248657,0.0002739429473876953,0.9467863322744704,-0.2504670235049317,0.20188949883549698,-0.010125726094090072
1681567765431563000,2.37856298828125,-0.020486930385231972,0.02800271287560463,-0.0204005166888237,0.3773505389690399,0.4787246584892273,-0.7927353382110596,0.002669602632522583,-0.005259662866592407,-0.005604445934295654,0.9467115078476135,-0.2506478250032046,0.2020098902849716,-0.01025269186740936
1681567765441563000,2.38856298828125,-0.012488391250371933,0.01982787437736988,-0.018157068639993668,0.3774092197418213,0.47901463508605957,-0.792532205581665,0.005708485841751099,-0.004542559385299683,-0.008706808090209961,0.9466566077269076,-0.2507893359637266,0.20208560470906617,-0.010371506416027635
1681567765451563800,2.398563720703125,-0.009272292256355286,0.011413084343075752,-0.011941518634557724,0.37741243839263916,0.47925564646720886,-0.792384922504425,0.008024603128433228,-0.006416261196136475,-0.009952664375305176,0.9466165968167244,-0.2509070736345495,0.20212168673783243,-0.010464143497858468
1681567765461564000,2.40856396484375,-0.004923083353787661,0.002757544629275799,-0.00601971335709095,0.37739306688308716,0.4794158339500427,-0.7922972440719604,0.007769256830215454,-0.011962801218032837,-0.010421812534332275,0.9465928285684243,-0.25098636625736437,0.20213169706697837,-0.010518002207546758
1681567765471564800,2.418564697265625,-0.002428250852972269,-0.005371421575546265,-0.0015110482927411795,0.37734490633010864,0.4794861078262329,-0.7922776937484741,0.008656710386276245,-0.012887567281723022,-0.010029375553131104,0.9465875719976542,-0.25102133388979864,0.2021124207105377,-0.010535595038468187
1681567765481564700,2.428564697265625,-0.004035468678921461,-0.01397636067122221,0.0007614271016791463,0.37726032733917236,0.479525625705719,-0.7922940850257874,0.007291704416275024,-0.014636039733886719,-0.009433209896087646,0.9465920841028129,-0.25104504055532273,0.20206273347270615,-0.01051930023298778
1681567765491565800,2.43856591796875,-0.0039215353317558765,-0.02429164946079254,0.004985000938177109,0.3771265745162964,0.4795258939266205,-0.7923575043678284,0.006769329309463501,-0.016940414905548096,-0.011353373527526855,0.9466091937463701,-0.2510502894229331,0.20197768933746493,-0.010478568794771092
1681567765501565700,2.448565673828125,-0.005977229680866003,-0.03431472182273865,0.013007240369915962,0.3769455850124359,0.4795016348361969,-0.7924583554267883,0.006996065378189087,-0.01661098003387451,-0.012488484382629395,0.9466368511167962,-0.25105073267371536,0.2018522961053682,-0.010388475319854415
1681567765511565600,2.458565673828125,-0.012123155407607555,-0.04217923805117607,0.011656684800982475,0.3767057955265045,0.47948378324508667,-0.792583167552948,0.005664229393005371,-0.016822010278701782,-0.013218224048614502,0.9466711982751478,-0.2510606689076902,0.20168528242833428,-0.010263484452885408
1681567765521567000,2.46856689453125,-0.01873711682856083,-0.050752487033605576,0.015215467661619186,0.37641477584838867,0.47951582074165344,-0.7927020788192749,0.007435351610183716,-0.016960859298706055,-0.015403389930725098,0.9467042738599395,-0.2511026725093513,0.2014855009763646,-0.0101145544065172
1681567765531566800,2.47856689453125,-0.022457171231508255,-0.0612223744392395,0.017465239390730858,0.37607577443122864,0.47956472635269165,-0.7928333282470703,0.00722503662109375,-0.015712738037109375,-0.015333116054534912,0.9467407026050728,-0.2511585920956705,0.20125278385375295,-0.009939214629164429
1681567765541567700,2.488567626953125,-0.022318683564662933,-0.06944701075553894,0.01820559799671173,0.37568068504333496,0.47960662841796875,-0.7929953336715698,0.005560189485549927,-0.013496369123458862,-0.013050198554992676,0.9467856018375329,-0.25121437581817085,0.20098179103008942,-0.009738015472885525
1681567765551568000,2.49856787109375,-0.017845189198851585,-0.07500229775905609,0.01906599849462509,0.3752295970916748,0.4796207845211029,-0.7932003140449524,0.005629807710647583,-0.012472927570343018,-0.011044681072235107,0.9468419650063138,-0.25125578079234395,0.20067480086996142,-0.009522282765855622
1681567765561568800,2.50856884765625,-0.007460726425051689,-0.08367008715867996,0.01935841329395771,0.37473616003990173,0.47957709431648254,-0.793459951877594,0.005619704723358154,-0.007882088422775269,-0.010113656520843506,0.9469126455744241,-0.2512640026992169,0.2003407910164024,-0.009301553467608867
1681567765571568600,2.518568603515625,-0.0007066836697049439,-0.09351605921983719,0.022715061902999878,0.3741722106933594,0.4794430136680603,-0.7938070893287659,0.007129698991775513,-0.004192709922790527,-0.00874418020248413,0.9470066141068052,-0.2512209637981601,0.1999612211750011,-0.009069695343686122
1681567765581569800,2.52856982421875,0.004557586740702391,-0.10312661528587341,0.022201603278517723,0.3735223114490509,0.4792516231536865,-0.7942285537719727,0.007001399993896484,0.0009730160236358643,-0.008032798767089844,0.9471200250796004,-0.2511439777917566,0.19953051620563708,-0.008832334811815733
1681567765591570000,2.53856982421875,0.01043691486120224,-0.11642830073833466,0.023609085008502007,0.3728056252002716,0.47901520133018494,-0.7947077751159668,0.0072297751903533936,0.003406703472137451,-0.008911550045013428,0.9472487885545707,-0.25104258056828455,0.1990571375341215,-0.008579513818922292
1681567765601569800,2.54856982421875,0.009772456251084805,-0.1271408647298813,0.023951034992933273,0.3720015287399292,0.47875651717185974,-0.7952402830123901,0.009681850671768188,0.0008272528648376465,-0.007646679878234863,0.9473917907672675,-0.25092929398270614,0.19853046467891267,-0.008310590158732404
1681567765611571000,2.558571044921875,0.007563513237982988,-0.14496146142482758,0.028018813580274582,0.37108075618743896,0.47851866483688354,-0.7958133816719055,0.013028770685195923,0.000012248754501342773,-0.010522007942199707,0.9475455001681897,-0.25082916200344324,0.19793440241292412,-0.008019289826032758
1681567765621570800,2.56857080078125,-0.00432670209556818,-0.15650227665901184,0.029887020587921143,0.3700498044490814,0.4783261716365814,-0.796409010887146,0.014486968517303467,-0.002541869878768921,-0.012795090675354004,0.9477054450430494,-0.25076067520265727,0.19726781260094373,-0.0076841394609596615
1681567765631571700,2.57857177734375,-0.014179432764649391,-0.17394186556339264,0.03513278067111969,0.3689344823360443,0.47821304202079773,-0.796994149684906,0.015159785747528076,-0.005465209484100342,-0.013674795627593994,0.9478628285236687,-0.2507455155718277,0.19654417415348854,-0.007296931113888312
1681567765641571800,2.58857177734375,-0.02903641015291214,-0.1889066994190216,0.044019218534231186,0.36772483587265015,0.47819435596466064,-0.7975641489028931,0.015698015689849854,-0.009306997060775757,-0.015454590320587158,0.9480164576980826,-0.25079444364699366,0.19575510661249135,-0.00684483168150116
1681567765651572700,2.59857275390625,-0.0393359512090683,-0.20542030036449432,0.05350127071142197,0.3664258122444153,0.4782596230506897,-0.7981227040290833,0.018004119396209717,-0.01387360692024231,-0.015369057655334473,0.9481674114888354,-0.25090219961886956,0.19490183634000283,-0.006323812514674626
1681567765661572600,2.608572509765625,-0.042685940861701965,-0.2207220196723938,0.06214642524719238,0.3650467097759247,0.47836506366729736,-0.7986912727355957,0.016667157411575317,-0.013963818550109863,-0.014983594417572021,0.9483209872377619,-0.2510438751641587,0.19398798920065619,-0.005734186452232627
1681567765671572700,2.61857275390625,-0.04149329662322998,-0.23578624427318573,0.06744245439767838,0.36358553171157837,0.47846856713294983,-0.7992956042289734,0.01690766215324402,-0.013044923543930054,-0.011709034442901611,0.948484031304951,-0.25119057865428196,0.19301681213285038,-0.005098142181409563
1681567765681574000,2.628573974609375,-0.03714275360107422,-0.24967171251773834,0.07551742345094681,0.3620472252368927,0.47850301861763,-0.7999729514122009,0.0168590247631073,-0.01214858889579773,-0.010299265384674072,0.9486660273665538,-0.25130665922084955,0.1919856438517496,-0.004403541832151827
1681567765691573800,2.63857373046875,-0.03277813270688057,-0.26293012499809265,0.08930926769971848,0.36046555638313293,0.4784512519836426,-0.800717830657959,0.018105030059814453,-0.00993010401725769,-0.010332584381103516,0.9488654974489257,-0.2513849865709602,0.1909101335369668,-0.003640888765213146
1681567765701575000,2.648574951171875,-0.030294470489025116,-0.27104103565216064,0.09896934777498245,0.35886549949645996,0.47831928730010986,-0.8015149831771851,0.01817917823791504,-0.008592694997787476,-0.011458039283752441,0.9490784062580757,-0.25142897531116803,0.18980508234912608,-0.0028125468327584373
1681567765711574800,2.65857470703125,-0.029963405802845955,-0.27559733390808105,0.10690756887197495,0.3572527766227722,0.4781387150287628,-0.8023427128791809,0.015488982200622559,-0.00906825065612793,-0.009791016578674316,0.9492985132035324,-0.2514537777003296,0.18867864626675646,-0.0019326706283728425
1681567765721575700,2.66857568359375,-0.02500166930258274,-0.27419623732566833,0.11857807636260986,0.355678528547287,0.4778839945793152,-0.8031934499740601,0.0084877610206604,-0.009607017040252686,-0.0033556222915649414,0.9495239701997614,-0.2514452200164072,0.18755955688263024,-0.0010062839060981596
1681567765731575800,2.678575927734375,-0.026771673932671547,-0.26528021693229675,0.12585756182670593,0.3542025089263916,0.4775642454624176,-0.804035484790802,0.003616124391555786,-0.008600592613220215,0.005192101001739502,0.9497462348400674,-0.2514079443436113,0.18648407174927942,-0.00004491415814268768
1681567765741576700,2.68857666015625,-0.024841947481036186,-0.250732421875,0.12922751903533936,0.35284480452537537,0.4772389829158783,-0.8048251867294312,-0.0001684129238128662,-0.0077259838581085205,0.012680411338806152,0.9499535984467333,-0.2513732135497903,0.18546946849919305,0.000934944089775681
1681567765751576800,2.698576904296875,-0.011560862883925438,-0.23415599763393402,0.1301770806312561,0.35162466764450073,0.4768542945384979,-0.8055868148803711,-0.004410892724990845,-0.006441056728363037,0.021254539489746094,0.9501525782687906,-0.2513039637246886,0.18453430598990858,0.0018964384972571552
1681567765761577000,2.708576904296875,0.00774119608104229,-0.21569044888019562,0.13106843829154968,0.3505507707595825,0.4763360917568207,-0.8063610792160034,-0.009409993886947632,-0.003359377384185791,0.024409174919128418,0.950353994865595,-0.2511564504636278,0.18368425307587088,0.0028281894315213105
1681567765771577900,2.718577880859375,0.023532560095191002,-0.19333061575889587,0.12927059829235077,0.34963634610176086,0.4756999909877777,-0.8071331977844238,-0.013393670320510864,0.007835805416107178,0.026325762271881104,0.9505540916162536,-0.2509362410312314,0.18293275085675445,0.003708879499207758
1681567765781577700,2.72857763671875,0.043032754212617874,-0.16092340648174286,0.12511900067329407,0.348905473947525,0.47493287920951843,-0.8079008460044861,-0.019620805978775024,0.014431774616241455,0.028848111629486084,0.9507523510003221,-0.2506343143470274,0.18229653213349944,0.0045240701142881595
1681567765791579000,2.738578857421875,0.06483691930770874,-0.13211598992347717,0.11862381547689438,0.34837499260902405,0.47403496503829956,-0.8086567521095276,-0.02641451358795166,0.01931220293045044,0.03201490640640259,0.9509474095814573,-0.2502465758335802,0.1817918342134159,0.005246898040378436
1681567765801578800,2.748578857421875,0.07380751520395279,-0.10379938781261444,0.10828062891960144,0.3480152487754822,0.4730478525161743,-0.8093893527984619,-0.030296742916107178,0.02319851517677307,0.034044504165649414,0.9511362280144534,-0.24979686178178928,0.18140245802201996,0.005881484235747367
1681567765811579600,2.75857958984375,0.07449103146791458,-0.0771968811750412,0.09625332802534103,0.34782591462135315,0.4720848798751831,-0.8100327253341675,-0.03370848298072815,0.026374012231826782,0.03801429271697998,0.9513017596058041,-0.24934988988980128,0.18113054216090793,0.006429335718973455
1681567765821579800,2.768579833984375,0.06927496939897537,-0.05773608759045601,0.08240488916635513,0.347732275724411,0.47120535373687744,-0.8105848431587219,-0.03100559115409851,0.023850828409194946,0.041435062885284424,0.9514436822780392,-0.2489345983183776,0.18093964209963875,0.006878363754724157
1681567765831581000,2.778580810546875,0.06284447759389877,-0.031245030462741852,0.06347294896841049,0.3477451801300049,0.4704456031322479,-0.8110204935073853,-0.031201571226119995,0.022520095109939575,0.041123032569885254,0.951555711912651,-0.24857030896664062,0.1808384564060831,0.007220198077651942
1681567765841580800,2.788580810546875,0.051126573234796524,-0.0040187351405620575,0.04775816574692726,0.34787148237228394,0.4698183238506317,-0.8113299608230591,-0.030534416437149048,0.022552311420440674,0.04047119617462158,0.9516352547922267,-0.24826377238835654,0.18083177983062507,0.007451120478492372
1681567765851581000,2.798580810546875,0.039401255548000336,0.017770249396562576,0.027166536077857018,0.3481004536151886,0.4693766236305237,-0.8114873170852661,-0.0297410786151886,0.02256673574447632,0.03582209348678589,0.9516756317322913,-0.24804394137303362,0.18091582095013173,0.007567390449256359
1681567765861581800,2.808581787109375,0.02474348247051239,0.039189256727695465,0.006405597552657127,0.3483932316303253,0.46912235021591187,-0.8115087151527405,-0.028721600770950317,0.020577996969223022,0.03172355890274048,0.9516812219477341,-0.24791084498128788,0.1810686397573741,0.007571253279898332
1681567765871581700,2.818581787109375,0.01403719186782837,0.05940204858779907,-0.011134181171655655,0.34874504804611206,0.46905213594436646,-0.8113982081413269,-0.026830345392227173,0.017565935850143433,0.030560195446014404,0.951653005375898,-0.24786343334902905,0.18128602638888056,0.0074683832282496625
1681567765881582800,2.828582763671875,0.002187456702813506,0.0744616910815239,-0.024072883650660515,0.349174439907074,0.46910935640335083,-0.8111804127693176,-0.022712647914886475,0.018866747617721558,0.028969109058380127,0.9515971765520227,-0.24787516411557553,0.18157012144114085,0.007284360284575829
1681567765891582700,2.838582763671875,-0.014993161894381046,0.08751983940601349,-0.035469748079776764,0.34965330362319946,0.4693434238433838,-0.8108386993408203,-0.020917922258377075,0.0171220600605011,0.028566360473632812,0.9515093996300403,-0.2479749105341653,0.18190407473729006,0.007029785096984847
1681567765901583600,2.84858349609375,-0.030289025977253914,0.09894826263189316,-0.04798474162817001,0.3501913547515869,0.46973535418510437,-0.8103793859481812,-0.019151896238327026,0.009741604328155518,0.028168082237243652,0.9513908767646679,-0.24815641112732678,0.18228739988957177,0.006726018944752313
1681567765911584000,2.858583984375,-0.03677728772163391,0.1095268726348877,-0.05228840932250023,0.3507694602012634,0.4702410399913788,-0.8098359107971191,-0.01561012864112854,0.0062146782875061035,0.02269601821899414,0.9512503980200323,-0.24839536610483764,0.1827068402181114,0.006380041370027897
1681567765921585000,2.8685849609375,-0.046242695301771164,0.11309843510389328,-0.05983500927686691,0.35137253999710083,0.4708297550678253,-0.8092321753501892,-0.013100415468215942,0.00416111946105957,0.01586669683456421,0.9510941486266509,-0.24867579277102403,0.18315095904443124,0.006001651282705566
1681567765931584800,2.878584716796875,-0.05320978909730911,0.11345610022544861,-0.06495706737041473,0.3519643247127533,0.47150471806526184,-0.8085817694664001,-0.009816467761993408,0.002128124237060547,0.009616315364837646,0.950925662210422,-0.24899968121000196,0.18359816958472275,0.005598214768031782
1681567765941585000,2.8885849609375,-0.05976516008377075,0.11405770480632782,-0.06489448249340057,0.3525277376174927,0.47223401069641113,-0.8079104423522949,-0.004901975393295288,-0.002354830503463745,0.003467082977294922,0.9507514879548336,-0.24935227920593245,0.18403321112671525,0.005189523533670182
1681567765951585800,2.898585693359375,-0.06238358095288277,0.11072156578302383,-0.0650811642408371,0.3530881106853485,0.4730047285556793,-0.8072145581245422,-0.003890693187713623,-0.006299376487731934,-0.0025693774223327637,0.9505705706011688,-0.24973031804992116,0.18446540436172618,0.004791828954432251
1681567765961585700,2.908585693359375,-0.06115799397230148,0.10363462567329407,-0.06198471412062645,0.3536137342453003,0.4737860858440399,-0.8065259456634521,-0.001273036003112793,-0.009598463773727417,-0.004539668560028076,0.9503913286435987,-0.2501145150785303,0.18487768530117263,0.004400844641633089
1681567765971586800,2.9185869140625,-0.05674378573894501,0.09709303081035614,-0.055578943341970444,0.35409507155418396,0.47452497482299805,-0.805880069732666,0.0004886388778686523,-0.009177684783935547,-0.008664548397064209,0.9502230130432064,-0.2504783359389944,0.18525808777053251,0.004036453574009564
1681567765981586700,2.928586669921875,-0.04976843297481537,0.08986707776784897,-0.05121668428182602,0.35454991459846497,0.47519782185554504,-0.8052834868431091,0.003207683563232422,-0.010216712951660156,-0.00836092233657837,0.9500674906187969,-0.2508089182751061,0.18561560926596715,0.0036984150617670516
1681567765991587800,2.938587890625,-0.04484942927956581,0.0807345062494278,-0.04644210636615753,0.35495662689208984,0.4757775664329529,-0.8047617673873901,0.0050439536571502686,-0.01102536916732788,-0.007951796054840088,0.9499313088661455,-0.25109129754148596,0.18593619680133505,0.0033920128652890013
1681567766001588000,2.948587890625,-0.03823014348745346,0.06677314639091492,-0.03788749873638153,0.35531407594680786,0.4762848913669586,-0.8043038249015808,0.005525797605514526,-0.01289069652557373,-0.009233713150024414,0.949811685013319,-0.25134029076453396,0.18621529977109996,0.003133468929716004
1681567766011588900,2.9585888671875,-0.03050709143280983,0.058158550411462784,-0.03158106654882431,0.35561278462409973,0.4766974449157715,-0.8039273619651794,0.0069665610790252686,-0.013379544019699097,-0.011578619480133057,0.9497133321139068,-0.25154059868099893,0.18645015157176856,0.0029108646159269817
1681567766021588700,2.968588623046875,-0.0225042924284935,0.0428142175078392,-0.02429199405014515,0.3558444678783417,0.47699007391929626,-0.8036511540412903,0.007696181535720825,-0.014053672552108765,-0.015165925025939941,0.9496410520977907,-0.2516794578579961,0.18663298200590386,0.0027331999495312813
1681567766031589600,2.978589599609375,-0.01605614461004734,0.025703806430101395,-0.01686670072376728,0.3559980094432831,0.4771665632724762,-0.8034783601760864,0.009862005710601807,-0.012399077415466309,-0.0179632306098938,0.9495959116048863,-0.25176117870161296,0.18675415675014834,0.0026136447266367677
1681567766041589800,2.98858984375,-0.008089565671980381,0.01304447092115879,-0.006282767280936241,0.35608434677124023,0.4772558808326721,-0.8033870458602905,0.010630130767822266,-0.01299196481704712,-0.021258950233459473,0.949572049912033,-0.2518020246748245,0.18682132776447666,0.0025490646683184906
1681567766051589600,2.998589599609375,-0.0058197700418531895,-0.003961876966059208,-0.0012217623880133033,0.35609450936317444,0.47725710272789,-0.8033818602561951,0.01130664348602295,-0.013191521167755127,-0.020256996154785156,0.9495707877317708,-0.2518000149186465,0.1868309856191243,0.002533761985461911
1681567766061590800,3.0085908203125,-0.004210954532027245,-0.01724252849817276,0.005272622220218182,0.35602331161499023,0.4772372543811798,-0.8034251928329468,0.012125492095947266,-0.012012004852294922,-0.020412087440490723,0.9495821136613635,-0.2517923650109193,0.18678329785632378,0.0025639414595665043
1681567766071591000,3.0185908203125,-0.006944756023585796,-0.02793724834918976,0.01163517963141203,0.3558971583843231,0.4771899878978729,-0.8035091757774353,0.008482754230499268,-0.012117326259613037,-0.019900858402252197,0.9496040039125384,-0.2517769706661167,0.18669165374812804,0.002642991738089277
1681567766081591800,3.028591796875,-0.009318697266280651,-0.03805460035800934,0.014086886309087276,0.35572296380996704,0.47713592648506165,-0.8036184310913086,0.005727261304855347,-0.013528108596801758,-0.015870094299316406,0.949632434210265,-0.2517640281132457,0.18656276028935073,0.002762228355978627
1681567766091592000,3.038592041015625,-0.013345730490982533,-0.04216279089450836,0.019347162917256355,0.35549986362457275,0.477084219455719,-0.803747832775116,0.004699140787124634,-0.013857871294021606,-0.011636078357696533,0.949666065267947,-0.25175720201744506,0.18639848254917543,0.002913983279852208
1681567766101592800,3.0485927734375,-0.012748116627335548,-0.04785583168268204,0.02466336451470852,0.35525307059288025,0.4770219624042511,-0.8038938641548157,0.004488170146942139,-0.010774403810501099,-0.00920116901397705,0.9497039476161138,-0.2517498360429256,0.1862124431310264,0.003097674784045602
1681567766111592700,3.0585927734375,-0.011153615079820156,-0.05474143475294113,0.023421797901391983,0.35498178005218506,0.47695013880729675,-0.8040562868118286,0.0022264719009399414,-0.008596867322921753,-0.006505787372589111,0.9497459147861532,-0.2517400668060069,0.18600750024744994,0.003301103674169225
1681567766121593300,3.06859326171875,-0.006445679347962141,-0.056859709322452545,0.025951268151402473,0.35468611121177673,0.4768372178077698,-0.8042537569999695,0.0002333521842956543,-0.005920439958572388,-0.004355251789093018,0.9497971905747181,-0.25170621816268607,0.1857877961636149,0.003505367748535095
1681567766131593200,3.07859326171875,-0.004200151655822992,-0.05919217690825462,0.02399124950170517,0.35437527298927307,0.4767008125782013,-0.8044716119766235,0.0012155771255493164,-0.0018930137157440186,-0.0012229681015014648,0.949853761177856,-0.2516595230642084,0.18555775723881152,0.003714960052382268
1681567766141593300,3.08859326171875,-0.0010842534247785807,-0.058427844196558,0.02584907039999962,0.3540630340576172,0.47653356194496155,-0.8047081828117371,-0.0009288489818572998,0.0013565123081207275,0.0028130412101745605,0.9499151687471682,-0.25159596089817876,0.18532510592529286,0.00392844759808838
1681567766151594200,3.09859423828125,0.003112888429313898,-0.05827951058745384,0.02338298410177231,0.35373586416244507,0.47635066509246826,-0.804960310459137,-0.0013341009616851807,0.002897411584854126,0.003843367099761963,0.949980690466419,-0.25152116297753796,0.18508633961719206,0.004132758991470063
1681567766161594000,3.108593994140625,0.004429022781550884,-0.05695405229926109,0.02272944338619709,0.3534068465232849,0.47616490721702576,-0.8052146434783936,-0.0028666555881500244,0.005356729030609131,0.005730390548706055,0.9500466522376563,-0.25144201058815924,0.18485023000126524,0.00432340183668656
1681567766171595000,3.118594970703125,0.002050320617854595,-0.05568678677082062,0.020674947649240494,0.35308510065078735,0.4760035276412964,-0.8054511547088623,-0.0017056763172149658,0.006937146186828613,0.007508039474487305,0.9501080498837919,-0.2513749295925318,0.18462142216824098,0.00450421374896636
1681567766181595100,3.12859521484375,-0.0016080639325082302,-0.05059802159667015,0.018698349595069885,0.3527829349040985,0.4758766293525696,-0.8056585192680359,-0.0012204349040985107,0.006652086973190308,0.006021678447723389,0.9501618046140812,-0.25132625186549973,0.18440676812241594,0.00467598751986991
1681567766191596300,3.13859619140625,-0.0037345148157328367,-0.0468912348151207,0.017955660820007324,0.3525044918060303,0.47579124569892883,-0.8058307766914368,-0.0036427676677703857,0.005440473556518555,0.008162379264831543,0.9502063222564179,-0.2512991046366804,0.1842101001794747,0.004833462076478861
1681567766201596200,3.14859619140625,-0.004641055129468441,-0.04335721954703331,0.01667041890323162,0.3522337079048157,0.4757419228553772,-0.8059783577919006,-0.004363805055618286,0.003368854522705078,0.007913172245025635,0.9502444706328733,-0.25128885657795413,0.18402373865307253,0.004971599402758893
1681567766211597300,3.158597412109375,-0.006131742615252733,-0.03594144806265831,0.01418309286236763,0.3520047664642334,0.4757215678691864,-0.8060903549194336,-0.0050351619720458984,0.004472553730010986,0.00868135690689087,0.9502732999197584,-0.2512937080249147,0.18386484499050945,0.005095724034549598
1681567766221597200,3.16859716796875,-0.008481449447572231,-0.02944626286625862,0.016081128269433975,0.3518144488334656,0.47574517130851746,-0.806159496307373,-0.006218165159225464,0.005227118730545044,0.010718882083892822,0.950290822761132,-0.25132466258487823,0.1837284875370554,0.005219278675248767
1681567766231597300,3.178597412109375,-0.0076582832261919975,-0.026163320988416672,0.012612294405698776,0.351656049489975,0.4757714867591858,-0.8062131404876709,-0.006929457187652588,0.0023626983165740967,0.012054204940795898,0.9503043316661023,-0.2513555672435651,0.1836132390863107,0.0053293469872796265
1681567766241598200,3.18859814453125,-0.005981823429465294,-0.025815509259700775,0.01392549928277731,0.3515164852142334,0.4758037030696869,-0.8062549829483032,-0.0071103572845458984,0.000682532787322998,0.011516213417053223,0.9503147493652462,-0.25138888054604197,0.18351063079208013,0.0054313698639568975
1681567766251598000,3.19859814453125,-0.00870309118181467,-0.019540369510650635,0.013317831791937351,0.35140883922576904,0.47585228085517883,-0.8062732219696045,-0.006697505712509155,0.0034720897674560547,0.009840726852416992,0.9503190054623871,-0.25143105124380144,0.18342797719037343,0.00552567751652811
1681567766261599000,3.208598876953125,-0.003790624439716339,-0.012268342077732086,0.01318600494414568,0.35134756565093994,0.4758841395378113,-0.8062811493873596,-0.007277101278305054,0.0007852017879486084,0.01062685251235962,0.9503205516790624,-0.2514652116198498,0.1833703537944545,0.005619705585945817
1681567766271599000,3.21859912109375,0.0014280729228630662,-0.00853312574326992,0.011122189462184906,0.3513253331184387,0.47589102387428284,-0.8062867522239685,-0.007041245698928833,-0.0019987523555755615,0.010174691677093506,0.9503216074058349,-0.25148265489280935,0.18333874903128494,0.005693785009244672
1681567766281600300,3.228600341796875,0.003956211730837822,-0.003737306222319603,0.009933620691299438,0.35133132338523865,0.4758550524711609,-0.8063054084777832,-0.00755077600479126,0.00009712576866149902,0.007080554962158203,0.9503262092975326,-0.2514727490739595,0.1833269371068466,0.005747242140275462
1681567766291600100,3.23860009765625,-0.0009811557829380035,-0.0006264676339924335,0.008896850980818272,0.351352721452713,0.47583237290382385,-0.8063094615936279,-0.009098052978515625,0.0016456842422485352,0.00606226921081543,0.950326991723935,-0.251469197525741,0.1833262796179377,0.005791732435189081
1681567766301601300,3.248601318359375,-0.00300542451441288,0.004111029673367739,0.00553221395239234,0.35139402747154236,0.4758550226688385,-0.8062780499458313,-0.009291976690292358,0.0011500418186187744,0.004199802875518799,0.9503185206620488,-0.2514892796898906,0.18334153384866209,0.005821980819751158
1681567766311601200,3.25860107421875,-0.007902512326836586,0.006610406097024679,0.003774261334910989,0.3514361083507538,0.47593337297439575,-0.8062134385108948,-0.0064958930015563965,-0.0018580257892608643,0.0037385225296020508,0.9503014442164718,-0.25153768674549615,0.18336320448968224,0.005835072895254215
1681567766321602000,3.26860205078125,-0.0151814641430974,0.01162220910191536,0.0008341313805431128,0.3514986038208008,0.47604256868362427,-0.8061217665672302,-0.007336616516113281,-0.00309637188911438,0.0035552382469177246,0.9502772735856927,-0.25160245858205277,0.183399379839453,0.005838725896114622
1681567766331602200,3.278602294921875,-0.02432507835328579,0.014274118468165398,0.0016507231630384922,0.3515903949737549,0.4762234091758728,-0.8059749007225037,-0.007947206497192383,-0.003658682107925415,0.004125535488128662,0.9502386627474885,-0.25170791985097674,0.1834548467751119,0.005837378157036575
1681567766341602000,3.28860205078125,-0.028040453791618347,0.017929572612047195,-0.0039879875257611275,0.35169386863708496,0.4764653742313385,-0.8057867288589478,-0.003976583480834961,-0.004800915718078613,0.005951523780822754,0.9501892551375626,-0.2518474691743179,0.18351969953947772,0.005830863470068819
1681567766351603200,3.298603271484375,-0.029357053339481354,0.020104045048356056,-0.005432752892374992,0.35180631279945374,0.4767344892024994,-0.8055784106254578,-0.005218178033828735,-0.005573570728302002,0.005575358867645264,0.950134433598614,-0.25200020631336095,0.1835938594821338,0.005810771766548551
1681567766361603300,3.308603271484375,-0.025028618052601814,0.022326452657580376,-0.005747804883867502,0.3519110679626465,0.4769783020019531,-0.8053882718086243,-0.005872249603271484,-0.004840821027755737,0.006224513053894043,0.9500846722418101,-0.25213456912509696,0.18366820982461748,0.0057714830441882425
1681567766371604200,3.318604248046875,-0.01455358974635601,0.023128796368837357,-0.008121679536998272,0.35201650857925415,0.47717663645744324,-0.8052247166633606,-0.004085570573806763,0.0010491013526916504,0.004474043846130371,0.9500419734979073,-0.25224093840528405,0.18374477509971582,0.005720731132119544
1681567766381604000,3.32860400390625,-0.010028612799942493,0.021434759721159935,-0.010210663080215454,0.35210898518562317,0.47732090950012207,-0.8050987720489502,-0.004147529602050781,0.004872113466262817,0.0024712085723876953,0.9500091544327767,-0.25231370460712094,0.1838162485827833,0.005657121352862411
1681567766391605200,3.338605224609375,-0.007813328877091408,0.022808950394392014,-0.013413913547992706,0.35220521688461304,0.47744864225387573,-0.8049809336662292,-0.003953844308853149,0.004942715167999268,0.001941382884979248,0.9499786330662437,-0.25237491446812166,0.18389245542548227,0.0055818006292725295
1681567766401605000,3.348605224609375,-0.007298539858311415,0.021022502332925797,-0.01226689014583826,0.35228827595710754,0.4775511622428894,-0.8048837780952454,-0.003304511308670044,0.0023377835750579834,0.00024205446243286133,0.9499535513603413,-0.25241994759964176,0.18396272142106926,0.0054991710581644235
1681567766411606000,3.35860595703125,-0.0035089615266770124,0.017234820872545242,-0.014405542053282261,0.3523503839969635,0.47763654589653015,-0.8048058748245239,-0.003137737512588501,0.0013978779315948486,-0.0017431378364562988,0.9499335058545602,-0.25245412539396683,0.18402164873589869,0.005414324977234929
1681567766421606100,3.368606201171875,-0.0076696183532476425,0.019702507182955742,-0.015821808949112892,0.352424681186676,0.47772565484046936,-0.8047204613685608,0.0001906752586364746,0.002956777811050415,-0.0007451772689819336,0.9499115395309031,-0.25248941032320443,0.18408926435736808,0.00532232640412334
1681567766431607300,3.378607177734375,-0.012866177596151829,0.01757570542395115,-0.015255888924002647,0.35248318314552307,0.47785264253616333,-0.8046194911003113,0.003931611776351929,0.0010139644145965576,0.0007559657096862793,0.949885477596004,-0.25254652896678376,0.184148089287196,0.005234673467626122
1681567766441607200,3.388607177734375,-0.019894259050488472,0.012835279107093811,-0.015195169486105442,0.35251539945602417,0.4780353009700775,-0.8044968843460083,0.0034111440181732178,-0.002220451831817627,0.0017625093460083008,0.9498536717194962,-0.2526363735493589,0.18419128631979487,0.005157342179213881
1681567766451608000,3.398608154296875,-0.024168450385332108,0.008008366450667381,-0.015322001650929451,0.35251012444496155,0.47827765345573425,-0.8043551445007324,0.00370633602142334,-0.0030426383018493652,-0.0011715888977050781,0.9498167438502819,-0.25276102701220265,0.184212648526812,0.005090975522812692
1681567766461608200,3.408608154296875,-0.026121079921722412,0.006274648476392031,-0.01305831503123045,0.3524750769138336,0.478549063205719,-0.8042089939117432,0.0022307634353637695,-0.0029478371143341064,-0.001195669174194336,0.9497785439834456,-0.2529025058967132,0.1842167647753185,0.00503121956442237
1681567766471608000,3.418608154296875,-0.02391648292541504,0.0031639430671930313,-0.011700236238539219,0.3524351119995117,0.47881433367729187,-0.8040686249732971,0.0010957717895507812,-0.0020534396171569824,-0.0052727460861206055,0.9497418124674142,-0.2530426557227482,0.18421482913645829,0.004983446419467293
1681567766481609200,3.428609130859375,-0.02476043812930584,0.005993551574647427,-0.00978089589625597,0.3524031937122345,0.47906383872032166,-0.8039339780807495,-0.0006880760192871094,-0.0031879544258117676,-0.007101178169250488,0.9497065932190615,-0.2531751761171882,0.18421548001781549,0.0049410039030565525
1681567766491609000,3.438609130859375,-0.02322961948812008,0.002426114398986101,-0.009954134002327919,0.35237640142440796,0.4792921245098114,-0.803809642791748,-0.000890195369720459,-0.0034162700176239014,-0.006004750728607178,0.9496740388652019,-0.2532976137064715,0.18421588570275715,0.004907879760674008
1681567766501610000,3.44860986328125,-0.025445370003581047,-0.00538919772952795,-0.008930148556828499,0.35230904817581177,0.47951120138168335,-0.803708553314209,-0.0007617771625518799,-0.003177553415298462,-0.0035271644592285156,0.9496476193744159,-0.25341588668340403,0.18419042129460453,0.004887330009999809
1681567766511610400,3.4586103515625,-0.026037773117423058,-0.011703886091709137,-0.00398832093924284,0.3522331118583679,0.479727566242218,-0.8036127090454102,-0.00100630521774292,-0.00452306866645813,0.00020694732666015625,0.949622289506917,-0.25353916604444976,0.18415087653176454,0.004901748828491247
1681567766521611300,3.468611328125,-0.026687584817409515,-0.014859199523925781,-0.002451943000778556,0.3521147072315216,0.4799356758594513,-0.8035402894020081,-0.0025511085987091064,-0.004731178283691406,0.0038881897926330566,0.9496030054670845,-0.25365833587694675,0.18408505842521497,0.004926453640419535
1681567766531611100,3.478611083984375,-0.021622683852910995,-0.018101464956998825,-0.0011809493880718946,0.3519955575466156,0.48010554909706116,-0.8034909963607788,-0.0019284486770629883,-0.005160480737686157,0.003549039363861084,0.9495897968480213,-0.25375909171132144,0.1840131183057638,0.004968489655502678
1681567766541612000,3.488612060546875,-0.013745054602622986,-0.01825486309826374,-0.0004033063887618482,0.35186782479286194,0.4802207350730896,-0.8034781217575073,-0.0023957490921020508,-0.0026969313621520996,0.0035513639450073242,0.9495861931226572,-0.25382794723427154,0.18393564556250652,0.005007942777853378
1681567766551612200,3.498612060546875,-0.008844887837767601,-0.0173257514834404,0.001254045288078487,0.3517220616340637,0.48029354214668274,-0.803498387336731,-0.0022500157356262207,-0.0020525753498077393,0.0007640719413757324,0.9495913686987444,-0.2538710001961727,0.1838486011105676,0.005041848824570742
1681567766561613000,3.508613037109375,-0.009049685671925545,-0.01811564713716507,0.003363268915563822,0.351580947637558,0.48033517599105835,-0.8035352826118469,-0.003177046775817871,-0.0029487013816833496,-0.0003892183303833008,0.9496008716643813,-0.2538980814968549,0.1837610439185873,0.005084030105729132
1681567766571613200,3.51861328125,-0.010122072882950306,-0.018031222745776176,0.004615487065166235,0.35145580768585205,0.48037368059158325,-0.8035670518875122,-0.003723233938217163,-0.004589349031448364,0.002175450325012207,0.9496090196588174,-0.25392564454843825,0.18367971911477946,0.005135278246439433
1681567766581613000,3.528613037109375,-0.012031559832394123,-0.01828582212328911,0.006082089617848396,0.3513457477092743,0.48042401671409607,-0.8035851120948792,-0.003811568021774292,-0.0037394165992736816,0.0032005906105041504,0.9496134379390564,-0.2539623984981683,0.18360435056874372,0.005196525538249189
1681567766591614200,3.5386142578125,-0.013658285140991211,-0.012838325463235378,0.010904009453952312,0.3512638211250305,0.4804745614528656,-0.8035906553268433,-0.0031345486640930176,-0.0034390389919281006,0.003892838954925537,0.9496145036155061,-0.2540019542622707,0.1835420211353391,0.005266670954423262
1681567766601614300,3.5486142578125,-0.011834818869829178,-0.014609062112867832,0.008125800639390945,0.3511887490749359,0.4805278480052948,-0.8035916090011597,-0.001548856496810913,-0.0006999373435974121,0.004519402980804443,0.9496143378092173,-0.2540447243629074,0.18348149966154867,0.005344368629639847
1681567766611615200,3.558615234375,-0.01065438985824585,-0.011459540575742722,0.006997352000325918,0.3511120676994324,0.48058244585990906,-0.8035925030708313,0.00037416815757751465,-0.00286024808883667,0.007724583148956299,0.9496142091776258,-0.25408628558645596,0.18342276561384735,0.005412188309393535
1681567766621615000,3.568614990234375,-0.004646564368158579,-0.012939460575580597,0.006226366851478815,0.35105395317077637,0.4806240499019623,-0.8035929799079895,0.0003712177276611328,-0.002169400453567505,0.006443321704864502,0.9496139051968847,-0.2541190408955024,0.18337675043277113,0.0054693561959496
1681567766631616000,3.578615966796875,0.0007495994213968515,-0.010474970564246178,0.004299037158489227,0.35099077224731445,0.4806136190891266,-0.8036268353462219,-0.0007252693176269531,0.0039598047733306885,0.005439579486846924,0.9496225800432008,-0.25411961344027245,0.18332979379903236,0.005514214362756959
1681567766641616100,3.5886162109375,0.0059736561961472034,-0.012318411841988564,-0.0007276794058270752,0.3508966863155365,0.48056498169898987,-0.8036969900131226,-0.0006311535835266113,0.0053664445877075195,0.0029615163803100586,0.949640977660626,-0.2540919780031788,0.18327238844326224,0.005530949317618344
1681567766651617000,3.598616943359375,0.010723170824348927,-0.014258390292525291,-0.005232017021626234,0.350763201713562,0.4804975986480713,-0.8037955164909363,-0.0010775327682495117,0.007554829120635986,0.0033957958221435547,0.9496669251026447,-0.25404835348598687,0.18319843342510442,0.005526936870184341
1681567766661617200,3.6086171875,0.011295750737190247,-0.016582263633608818,-0.01033703051507473,0.35059961676597595,0.48043161630630493,-0.8039063215255737,-0.0005934834480285645,0.006918877363204956,0.0023773908615112305,0.9496962840695287,-0.25399858887429805,0.18311623856454146,0.005492157969738455
1681567766671618300,3.618618408203125,0.010196947492659092,-0.01724359393119812,-0.012969497591257095,0.3504068851470947,0.4803709387779236,-0.8040266036987305,0.00013327598571777344,0.004675477743148804,0.0024518966674804688,0.9497281673263428,-0.25394974098222145,0.1830197543577984,0.005451591758745329
1681567766681618200,3.6286181640625,0.00314409751445055,-0.017833484336733818,-0.01594638079404831,0.35019558668136597,0.48038432002067566,-0.8041107058525085,0.001397460699081421,0.0024953484535217285,0.003527820110321045,0.949750691367466,-0.25393931445003476,0.18291931073941892,0.005395203435506158
1681567766691619000,3.638619140625,-0.0023751207627356052,-0.021698463708162308,-0.017845546826720238,0.3499780595302582,0.4804457128047943,-0.804168701171875,0.0032476484775543213,0.0007860362529754639,0.0007782578468322754,0.9497662694448041,-0.25395736167815686,0.18281491830642446,0.005345754855102305
1681567766701619200,3.648619140625,-0.013035488314926624,-0.019564740359783173,-0.017168836668133736,0.34973233938217163,0.48057621717453003,-0.8041976094245911,0.002867788076400757,-0.0023504793643951416,-0.0015732645988464355,0.949774037006481,-0.25401373390764437,0.18269707739093058,0.005295868846966951
1681567766711619000,3.658619140625,-0.014453371986746788,-0.02346593514084816,-0.01730765402317047,0.34947967529296875,0.4807678163051605,-0.8041929006576538,0.00099945068359375,-0.0041747987270355225,-0.000769197940826416,0.9497730922287958,-0.2541050279530328,0.18257648012207847,0.005248263200246897
1681567766721620000,3.668619873046875,-0.02186255156993866,-0.026405800133943558,-0.016057299450039864,0.34921035170555115,0.4809924364089966,-0.804175615310669,-0.0024391114711761475,-0.006199926137924194,-0.0010458827018737793,0.9497687424386247,-0.25421767710549664,0.1824433077832771,0.005216887407195057
1681567766731620000,3.6786201171875,-0.020388824865221977,-0.025867842137813568,-0.012240724638104439,0.34893327951431274,0.4812418818473816,-0.8041466474533081,-0.002604573965072632,-0.008219420909881592,-0.003394186496734619,0.9497612436879125,-0.2543463663901765,0.18230357634861732,0.005196730937363224
1681567766741621200,3.688621337890625,-0.023043464869260788,-0.024700045585632324,-0.010592760518193245,0.348680317401886,0.48148858547210693,-0.8041086792945862,-0.0035265088081359863,-0.008481353521347046,-0.002791285514831543,0.9497512745491832,-0.25447691234733766,0.18217341916311805,0.005189971924273824
1681567766751621000,3.69862109375,-0.029105018824338913,-0.021802792325615883,-0.01158052682876587,0.34844040870666504,0.48175421357154846,-0.8040536046028137,-0.004446268081665039,-0.008380770683288574,-0.001854538917541504,0.9497368144417292,-0.2546204886647483,0.18204833637746248,0.005192839197765033
1681567766761622300,3.708622314453125,-0.024312393739819527,-0.023221459239721298,-0.006731709465384483,0.3482351005077362,0.4820041358470917,-0.8039928078651428,-0.005095452070236206,-0.007776200771331787,-0.0007252097129821777,0.9497207180302757,-0.25475933503791554,0.18193759581711524,0.005211388566421465
1681567766771622100,3.7186220703125,-0.017204584553837776,-0.0225981455296278,-0.00007899994670879096,0.3480362296104431,0.4821709096431732,-0.8039789199829102,-0.0043319761753082275,-0.00866013765335083,0.00031375885009765625,0.9497169059605446,-0.2548531565171553,0.18182523386860405,0.005240738431629654
1681567766781623000,3.728623046875,-0.013444200158119202,-0.023769136518239975,0.0016901380149647593,0.34786805510520935,0.4822624921798706,-0.803996741771698,-0.003294050693511963,-0.004891246557235718,0.000926673412322998,0.9497213052778393,-0.2549089562399334,0.18172245175388593,0.005289487757516273
1681567766791623200,3.738623046875,-0.01593145914375782,-0.02037094347178936,0.005564504768699408,0.3477269113063812,0.4823404848575592,-0.8040109872817993,-0.005685895681381226,-0.002039581537246704,0.002924621105194092,0.94972464278867,-0.25496033568070814,0.18163076135623787,0.0053508287193410565
1681567766801624000,3.7486240234375,-0.01628219708800316,-0.016971684992313385,0.010315051302313805,0.3476150631904602,0.4824221134185791,-0.8040103912353516,-0.007908612489700317,-0.006546229124069214,0.0055332183837890625,0.9497241023991547,-0.25501700174929365,0.1815520188973986,0.005423986352880916
1681567766811624000,3.7586240234375,-0.013790477998554707,-0.013322887942194939,0.007983187213540077,0.34753790497779846,0.48248231410980225,-0.8040076494216919,-0.007404237985610962,-0.007430374622344971,0.0077124834060668945,0.9497229693622052,-0.2550639670958126,0.18148980076707552,0.0055041971046789475
1681567766821625300,3.768625244140625,-0.010663127526640892,-0.0075635360553860664,0.012976880185306072,0.34750887751579285,0.4825136661529541,-0.8040013909339905,-0.006139218807220459,-0.006469905376434326,0.0066991448402404785,0.949720852694353,-0.2550966403370623,0.18145248875319558,0.00558697823711606
1681567766831625200,3.778625244140625,-0.00191476009786129,-0.002932365518063307,0.012261089868843555,0.34751540422439575,0.48248594999313354,-0.8040151596069336,-0.007549583911895752,-0.0016204416751861572,0.007109642028808594,0.9497239692250797,-0.25509628000283313,0.1814340080667307,0.005666421284073014
1681567766841626000,3.788626220703125,0.002392370253801346,0.0011667720973491669,0.012002763338387012,0.34754765033721924,0.4824047088623047,-0.8040499687194824,-0.006590008735656738,0.0033588409423828125,0.006564617156982422,0.9497327492509804,-0.2550637466575235,0.18143178750093014,0.0057323577760235505
1681567766851626200,3.798626220703125,0.004775450099259615,0.005063708871603012,0.009737278334796429,0.3476136028766632,0.4823065400123596,-0.8040803670883179,-0.006121903657913208,0.005318641662597656,0.006808638572692871,0.9497404310999581,-0.25501967917061,0.1814518702923089,0.0057824185456322
1681567766861626000,3.808626220703125,0.017456891015172005,0.012951726093888283,0.008004359900951385,0.34771713614463806,0.48217490315437317,-0.8041145205497742,-0.006027042865753174,0.005557030439376831,0.00861281156539917,0.949749281808371,-0.2549517051058999,0.1815003083260442,0.005800234044781251
1681567766871627000,3.818626953125,0.033797480165958405,0.017677372321486473,0.005718968342989683,0.34784719347953796,0.4819398522377014,-0.80419921875,-0.004921138286590576,0.007104337215423584,0.01300048828125,0.9497716815573781,-0.25481921610706265,0.18156973687108288,0.005783705676505749
1681567766881627100,3.828627197265625,0.04615561291575432,0.027537193149328232,0.0022456732112914324,0.3480246663093567,0.48159340023994446,-0.8043299317359924,-0.0026572048664093018,0.01523280143737793,0.015023350715637207,0.9498063938717293,-0.2546184837367741,0.18167128213070718,0.005733254534317838
1681567766891628300,3.838628173828125,0.0435095950961113,0.0363268218934536,0.000168540864251554,0.34826067090034485,0.481228232383728,-0.8044463396072388,-0.005944997072219849,0.019641578197479248,0.015292346477508545,0.9498375492852499,-0.254403637588201,0.1818120039409205,0.0056542894263904115
1681567766901628200,3.848628173828125,0.03432062640786171,0.04699943959712982,-0.004466957412660122,0.3485509753227234,0.4809201657772064,-0.8045048713684082,-0.008783489465713501,0.011847227811813354,0.016876697540283203,0.9498536016035531,-0.25421852216898655,0.1819903741439518,0.005551410552224664
1681567766911629300,3.85862939453125,0.028160566464066505,0.056857530027627945,-0.004718759562820196,0.34890732169151306,0.4807061553001404,-0.8044782280921936,-0.010299503803253174,0.003623098134994507,0.01779615879058838,0.9498471286701141,-0.254086473540166,0.1822112455584548,0.005434521254353841
1681567766921629200,3.868629150390625,0.01867571845650673,0.06614983081817627,-0.006537431851029396,0.34933945536613464,0.48057276010513306,-0.8043704628944397,-0.013112038373947144,0.0019865036010742188,0.017947733402252197,0.9498195734223729,-0.2539991699548468,0.18248068872319603,0.005299229677390602
1681567766931630000,3.878630126953125,0.006356402300298214,0.07332492619752884,-0.008652514778077602,0.3498421907424927,0.4805452525615692,-0.8041683435440063,-0.014392971992492676,0.0008696019649505615,0.016769051551818848,0.9497672058544944,-0.25397291019064083,0.18279380645418009,0.005156185864897978
1681567766941630200,3.888630126953125,-0.0030711879953742027,0.08217194676399231,-0.01342489942908287,0.350389689207077,0.4806273579597473,-0.8038808703422546,-0.009721964597702026,-0.001409769058227539,0.011400461196899414,0.9496924111452135,-0.2540077848889178,0.1831381887672593,0.004999438697436899
1681567766951631000,3.898631103515625,-0.011252734810113907,0.08565662056207657,-0.014812072739005089,0.35097357630729675,0.48079898953437805,-0.8035234212875366,-0.010229557752609253,-0.002847909927368164,0.009044051170349121,0.9495990518990816,-0.2540929123933494,0.18350771232187219,0.004833038539566868
1681567766961631000,3.908630859375,-0.0204803217202425,0.0825689509510994,-0.018743963912129402,0.35154643654823303,0.48107779026031494,-0.8031060695648193,-0.009078145027160645,-0.002943575382232666,0.003926992416381836,0.9494901188433892,-0.25423566072208764,0.1838782437124871,0.004651734559701796
1681567766971632000,3.918632080078125,-0.018643507733941078,0.08071792125701904,-0.021723108366131783,0.35208287835121155,0.4814058244228363,-0.802674412727356,-0.006944328546524048,-0.001852571964263916,0.000809788703918457,0.949377441387408,-0.25440281481571964,0.1842335910022759,0.00445838534164119
1681567766981632300,3.92863232421875,-0.007476339116692543,0.07566297799348831,-0.026958882808685303,0.35257241129875183,0.48167288303375244,-0.8022992014884949,-0.005450218915939331,-0.0022569596767425537,-0.001961052417755127,0.9492796259083757,-0.2545292622503358,0.18456774520682281,0.004242351600338876
1681567766991633200,3.938633056640625,0.009089671075344086,0.06837756931781769,-0.027237383648753166,0.35298413038253784,0.48180699348449707,-0.8020375967025757,0.0000432431697845459,0.0022628605365753174,-0.004740357398986816,0.9492117156350839,-0.2545751372086913,0.18485860611749028,0.00401497543199132
1681567767001633300,3.94863330078125,0.01778941974043846,0.057637039572000504,-0.030124250799417496,0.3533066511154175,0.481841117143631,-0.8018750548362732,0.0035659074783325195,0.008667975664138794,-0.005757391452789307,0.9491697903673904,-0.2545581550556586,0.18510167709477118,0.0037728409641742244
1681567767011633200,3.958633056640625,0.018783293664455414,0.04720230773091316,-0.02857009507715702,0.3535459339618683,0.48182421922683716,-0.8017796874046326,0.005203425884246826,0.010195434093475342,-0.007866859436035156,0.9491455464486779,-0.25451069607304255,0.1852956111444435,0.003538029795962203
1681567767021634000,3.968634033203125,0.017708709463477135,0.0378522165119648,-0.023540183901786804,0.35370755195617676,0.4817909896373749,-0.801728367805481,0.007559537887573242,0.005086451768875122,-0.006041347980499268,0.9491328103211877,-0.2544564027434172,0.18543934560285388,0.003329513295836515
1681567767031634200,3.97863427734375,0.009665845893323421,0.024901462718844414,-0.022424787282943726,0.3538040816783905,0.481778621673584,-0.8016932010650635,0.007493525743484497,-0.003629148006439209,-0.004901587963104248,0.9491241238201077,-0.2544202827310094,0.1855362629142555,0.0031644692317753438
1681567767041635300,3.98863525390625,-0.0017125096637755632,0.01335985492914915,-0.018552284687757492,0.35381636023521423,0.48182016611099243,-0.801662802696228,0.007115066051483154,-0.009987890720367432,-0.008594095706939697,0.9491165255813722,-0.2544195176123566,0.18557826834729757,0.003037431235065155
1681567767051635200,3.99863525390625,-0.009360259398818016,0.0030340473167598248,-0.016819164156913757,0.3537542521953583,0.48193302750587463,-0.8016224503517151,0.008184224367141724,-0.013289809226989746,-0.012525498867034912,0.9491062380153095,-0.25446213904686465,0.18557425383647133,0.0029373365321827207
