time,seconds_elapsed,rotationRateX,rotationRateY,rotationRateZ,gravityX,gravityY,gravityZ,accelerationX,accelerationY,accelerationZ,quaternionW,quaternionX,quaternionY,quaternionZ
1681143719838188300,0.151188232421875,-0.24082578718662262,0.17148171365261078,0.029592255130410194,0.10228846967220306,-0.3471207916736603,-0.9322254061698914,-0.006325952708721161,-0.043260037899017334,0.06972241401672363,0.9829103084392067,0.17657805834569693,0.05203347018997041,5.7548791556274e-18
1681143719848247300,0.161247314453125,-0.20545567572116852,0.18621966242790222,0.035607270896434784,0.10377112030982971,-0.3452947735786438,-0.9327395558357239,0.003162473440170288,-0.0445672869682312,0.06614714860916138,0.9830409392274441,0.17560475237803472,0.05285071226821568,0.00039210341321188884
1681143719858305300,0.17130517578125,-0.12595126032829285,0.1963263601064682,0.03390897437930107,0.10538125038146973,-0.3439655303955078,-0.9330500960350037,0.018932096660137177,-0.0326366126537323,0.05669212341308594,0.9831197596712062,0.17489233858722955,0.05373651679025667,0.0007936658593132024
1681143719868364300,0.1813642578125,-0.0511501207947731,0.21175217628479004,0.03125353530049324,0.10709595680236816,-0.34333986043930054,-0.9330853223800659,0.03742002695798874,-0.005109876394271851,0.04526793956756592,0.9831282403991516,0.17455109390380877,0.05467416356733532,0.0011671934786067109
1681143719878422300,0.19142236328125,-0.012279420159757137,0.2080056369304657,0.026892341673374176,0.10890403389930725,-0.34326955676078796,-0.9329018592834473,0.06159767508506775,0.012443751096725464,0.045832157135009766,0.983081216492036,0.17450242286903386,0.05565933287938974,0.0015222044603446854
1681143719888481300,0.201481201171875,-0.02832603082060814,0.1891280859708786,0.04136395826935768,0.11059369146823883,-0.34333109855651855,-0.9326804280281067,0.08078204095363617,0.009117841720581055,0.05180579423904419,0.9830260320284723,0.1746297125608,0.056251660957409855,-2.821116022724352e-19
1681143719898539300,0.211539306640625,-0.07988350093364716,0.20397761464118958,0.05869314819574356,0.11217960715293884,-0.34308484196662903,-0.9325816631317139,0.09167782217264175,-0.00925588607788086,0.06838488578796387,0.9830007957192742,0.17448322765961838,0.05713826202922736,0.00044219152587360934
1681143719908598500,0.2215986328125,-0.15762338042259216,0.22996708750724792,0.09338832646608353,0.11393682658672333,-0.3422468900680542,-0.9326764941215515,0.10034234821796417,-0.0300370454788208,0.09403818845748901,0.983024444941524,0.1740172202049093,0.058135691940881695,0.0010366330510477738
1681143719918657300,0.2316572265625,-0.23055484890937805,0.2473985254764557,0.15118931233882904,0.11572127789258957,-0.34073367714881897,-0.9330108165740967,0.09343094378709793,-0.05240905284881592,0.10888361930847168,0.9831082396422152,0.17317875645875405,0.059192206656737814,0.0019153972929381426
1681143719928715300,0.24171533203125,-0.3105015456676483,0.27903828024864197,0.20637235045433044,0.11756588518619537,-0.3385504186153412,-0.9335747957229614,0.07838748395442963,-0.06898131966590881,0.11562740802764893,0.9832486176812242,0.17196806445778517,0.06032901550624176,0.0031138219634522647
1681143719938774300,0.251774169921875,-0.33823490142822266,0.30331671237945557,0.2625586688518524,0.11952167749404907,-0.33586105704307556,-0.9342975616455078,0.07487529516220093,-0.07588213682174683,0.11407661437988281,0.9834263566591934,0.17047107350689514,0.061569755510695504,0.004625300918527174
1681143719948832300,0.261832275390625,-0.35351285338401794,0.32290688157081604,0.324632465839386,0.12149341404438019,-0.3329431712627411,-0.935087263584137,0.07696239650249481,-0.0713842511177063,0.10201841592788696,0.9836167710925601,0.16883157035777224,0.06286705374330147,0.00645839557290641
1681143719958891300,0.271891357421875,-0.3512430489063263,0.34310001134872437,0.36737725138664246,0.12349920719861984,-0.33001676201820374,-0.9358615875244141,0.07982415705919266,-0.05851781368255615,0.07439613342285156,0.9837973517060504,0.16716585911661003,0.06422450298969114,0.008580048221796168
1681143719968949200,0.28194921875,-0.3529660999774933,0.3445349335670471,0.3840459883213043,0.1255151331424713,-0.3271423280239105,-0.9366022944450378,0.08679565787315369,-0.03430786728858948,0.04471081495285034,0.9839631568835912,0.16551386383727376,0.06560501174402446,0.01084712357563725
1681143719979008300,0.29200830078125,-0.34872767329216003,0.3414911925792694,0.38471364974975586,0.1275082677602768,-0.32429319620132446,-0.9373236298561096,0.0919283777475357,-0.017869889736175537,0.00940614938735962,0.9841183654535087,0.16386837648112781,0.06697271454724035,0.013150463042153457
1681143719989066200,0.302066162109375,-0.3579198122024536,0.3401314616203308,0.3627067804336548,0.1295308917760849,-0.3214406669139862,-0.9380285739898682,0.0912027508020401,-0.008027106523513794,-0.02123039960861206,0.9842648034778189,0.16222033147489046,0.0683393326710095,0.015402226432296972
1681143719999125200,0.312125244140625,-0.36470475792884827,0.33552658557891846,0.3227127492427826,0.13163994252681732,-0.3184184730052948,-0.9387654662132263,0.08448554575443268,-0.006731092929840088,-0.04844766855239868,0.9844168946266648,0.16049011270897895,0.06971501672415512,0.017500551871070955
1681143720009184300,0.322184326171875,-0.3473678529262543,0.32421162724494934,0.28068435192108154,0.13382741808891296,-0.31542497873306274,-0.9394664764404297,0.08277107775211334,-0.004963785409927368,-0.06540101766586304,0.9845595842351385,0.15878671084911716,0.07108824425073976,0.01937757487124637
1681143720019242200,0.3322421875,-0.3344101905822754,0.31228646636009216,0.2387300282716751,0.1360543668270111,-0.31251803040504456,-0.9401178956031799,0.0897146612405777,-0.006756871938705444,-0.07088363170623779,0.9846909513006418,0.15714044526938614,0.0724425432915047,0.021040609623762415
1681143720029301500,0.342301513671875,-0.3256538510322571,0.29160013794898987,0.20589405298233032,0.1382582187652588,-0.30964526534080505,-0.9407467842102051,0.09494185447692871,-0.014069974422454834,-0.07040739059448242,0.9848185164523331,0.1555251835700033,0.07374643945987851,0.022489921872267456
1681143720039359200,0.352359130859375,-0.31976214051246643,0.2624499797821045,0.1873834878206253,0.14031609892845154,-0.3068258464336395,-0.941365659236908,0.09352484345436096,-0.02461034059524536,-0.06467682123184204,0.9849450359178508,0.15394743917671405,0.07494905720999198,0.023791579498321027
1681143720049418200,0.362418212890625,-0.3318425118923187,0.22450925409793854,0.1723312884569168,0.14211855828762054,-0.3039599061012268,-0.9420247673988342,0.09150873124599457,-0.040842920541763306,-0.055304884910583496,0.9850829105331171,0.1523542362566044,0.07599867945230825,0.024979405846696414
1681143720059476500,0.3724765625,-0.35949942469596863,0.1887504607439041,0.16461238265037537,0.14364098012447357,-0.3008294403553009,-0.9427984356880188,0.08678197860717773,-0.0655646026134491,-0.045208096504211426,0.9852503955493483,0.15063032634151802,0.07688485818167154,0.026092686770250822
1681143720069535200,0.38253515625,-0.36522987484931946,0.14330022037029266,0.16782937943935394,0.14477390050888062,-0.2975586950778961,-0.943662703037262,0.07643274962902069,-0.086794912815094,-0.03437983989715576,0.9854402110613679,0.14883806651833456,0.07756203717541578,0.027182558979604764
1681143720079593500,0.392593505859375,-0.3602502942085266,0.10726951062679291,0.17432242631912231,0.1455557942390442,-0.2942413091659546,-0.9445822238922119,0.06098717451095581,-0.10088503360748291,-0.022992849349975586,0.9856434998197373,0.14702640886633828,0.07805206869870462,0.028250846619725822
1681143720089652200,0.40265234375,-0.33401137590408325,0.08136194944381714,0.17807546257972717,0.14604230225086212,-0.2910590171813965,-0.9454926252365112,0.04496721923351288,-0.11065912246704102,-0.0063201189041137695,0.985843208891521,0.14528824990125266,0.07839016038158954,0.029315902828776726
1681143720099711500,0.41271142578125,-0.304325133562088,0.07277432084083557,0.18607214093208313,0.14635108411312103,-0.2881489098072052,-0.9463358521461487,0.027690663933753967,-0.1169414222240448,0.01841837167739868,0.9860247751066704,0.1436933817740999,0.07864020294893317,0.030381700773173665
1681143720109769500,0.42276953125,-0.2841000556945801,0.0747004970908165,0.19444122910499573,0.1466122567653656,-0.28551310300827026,-0.9470940232276917,0.004968538880348206,-0.11980611085891724,0.038143277168273926,0.9861823571581773,0.1422385743174832,0.07887440656353929,0.03148525860384573
1681143720119828200,0.432828125,-0.2760610282421112,0.07850109785795212,0.1979672610759735,0.14687688648700714,-0.28302493691444397,-0.947799563407898,-0.015544503927230835,-0.11895260214805603,0.054626405239105225,0.9863245208987741,0.1408586753045784,0.07911410888781795,0.03261240561717292
1681143720129886500,0.442886474609375,-0.2704385817050934,0.0883176252245903,0.20728416740894318,0.14719611406326294,-0.28061842918395996,-0.9484654068946838,-0.03119879961013794,-0.12357163429260254,0.07033735513687134,0.986454263397504,0.13951803625048237,0.07938529342591455,0.03377274369870839
1681143720139945200,0.4529453125,-0.27964699268341064,0.10118388384580612,0.21968278288841248,0.14760024845600128,-0.2782159745693207,-0.9491101503372192,-0.04202468693256378,-0.1307196021080017,0.08187687397003174,0.9865750069714309,0.13817366202961026,0.0797055751456633,0.03499513008774792
1681143720150003200,0.463003173828125,-0.2961256206035614,0.11079739779233932,0.22604900598526,0.14807483553886414,-0.27573323249816895,-0.9497604966163635,-0.04741261899471283,-0.13552168011665344,0.08998876810073853,0.9866933116002495,0.13678163286155093,0.08006578433058976,0.03628376860553715
1681143720160062200,0.473062255859375,-0.31190913915634155,0.11655382066965103,0.24211347103118896,0.14856696128845215,-0.27310431003570557,-0.9504429697990417,-0.05290961265563965,-0.13509884476661682,0.09520316123962402,0.9868155862179705,0.1353089760325152,0.08043621401830547,0.037634097981967395
1681143720170120200,0.4831201171875,-0.2967185974121094,0.12028481066226959,0.2419591099023819,0.14907288551330566,-0.2704966962337494,-0.9511092305183411,-0.04862426221370697,-0.1283833086490631,0.09087973833084106,0.9869297591647967,0.1338424549146228,0.08081814522226176,0.03904137549817959
1681143720180179500,0.493179443359375,-0.265960156917572,0.11717797070741653,0.2346961349248886,0.14961323142051697,-0.2681412398815155,-0.951691210269928,-0.03688129782676697,-0.11682277917861938,0.07756096124649048,0.987021980273647,0.13250809283723494,0.0812157500783295,0.04041350570056595
1681143720190238200,0.50323828125,-0.23185132443904877,0.11377233266830444,0.22806645929813385,0.1501440554857254,-0.2660764455795288,-0.9521870017051697,-0.026486828923225403,-0.10800805687904358,0.05310863256454468,0.9870919837648527,0.13132641636810818,0.0816080365795406,0.04174798435698589
1681143720200296400,0.51329638671875,-0.18993929028511047,0.10161659866571426,0.21416369080543518,0.1506197154521942,-0.26437318325042725,-0.9525862336158752,-0.018310755491256714,-0.09120240807533264,0.031931936740875244,0.9871391605626063,0.1303378408080903,0.08196910721137475,0.043004057379172705
1681143720210355200,0.523355224609375,-0.1614254117012024,0.08435912430286407,0.19213025271892548,0.1510053277015686,-0.2629843056201935,-0.9529095888137817,-0.006962373852729797,-0.0736703872680664,0.02194035053253174,0.9871708574627581,0.1295219068445192,0.08227568909006978,0.04414307832086755
1681143720220413200,0.5334130859375,-0.14868058264255524,0.05909370630979538,0.16684673726558685,0.15124548971652985,-0.2617645561695099,-0.95320725440979,0.006621941924095154,-0.0692291259765625,0.0067046284675598145,0.9872010912926292,0.12880707955985674,0.08249300470669937,0.04514067768080997
1681143720230472400,0.543472412109375,-0.1452179253101349,0.0366249680519104,0.13259944319725037,0.15134871006011963,-0.2605660855770111,-0.9535192251205444,0.01973283290863037,-0.06105870008468628,-0.007204651832580566,0.9872416889697232,0.12811942949055113,0.0826184259429863,0.04597274834762383
1681143720240530200,0.5535302734375,-0.15784849226474762,0.010526522062718868,0.09286373853683472,0.15131019055843353,-0.25927066802978516,-0.9538784027099609,0.022670522332191467,-0.05484679341316223,-0.019586563110351562,0.9873026532669028,0.1274007796563974,0.08264293260847536,0.04661267953722863
1681143720250589400,0.56358935546875,-0.14733068645000458,-0.002996227703988552,0.04643743857741356,0.15118755400180817,-0.2578778564929962,-0.9542753100395203,0.021480903029441833,-0.054469555616378784,-0.027475178241729736,0.9873834784852448,0.1266527582496974,0.08259196100803493,0.04702746834258944
1681143720260647400,0.5736474609375,-0.10045772790908813,-0.019113944843411446,-0.01400086935609579,0.1510573774576187,-0.2566627860069275,-0.9546234607696533,0.021107539534568787,-0.0533500611782074,-0.03112483024597168,0.9874656350302312,0.12602064311673655,0.08250504193896396,0.04715265351070102
1681143720270706400,0.58370654296875,-0.02242172323167324,-0.02893148735165596,-0.06709146499633789,0.15099135041236877,-0.2559492886066437,-0.9548254013061523,0.019113615155220032,-0.04516765475273132,-0.03728574514389038,0.9875261044515183,0.12567181480887624,0.08242502466417691,0.04695715693009349
1681143720280765200,0.59376513671875,0.06632944941520691,-0.04241533949971199,-0.11891098320484161,0.15094628930091858,-0.2560000419616699,-0.9548189640045166,0.01934179663658142,-0.03608369827270508,-0.0409543514251709,0.9875476639340508,0.1257396482752564,0.08234120033157476,0.04646676726875545
1681143720290823200,0.6038232421875,0.14608405530452728,-0.05808486044406891,-0.1652822047472,0.15090319514274597,-0.25675177574157715,-0.9546238780021667,0.01798108220100403,-0.03119683265686035,-0.04835158586502075,0.9875348175379225,0.1261919307990509,0.08224147093357033,0.045682130364880565
1681143720300882400,0.61388232421875,0.2226845622062683,-0.07611606270074844,-0.21279007196426392,0.15083056688308716,-0.2581852972507477,-0.9542486667633057,0.015444457530975342,-0.030648350715637207,-0.048543691635131836,0.9874884559481409,0.12701812832691367,0.08211009651565322,0.04461954511348998
1681143720310940200,0.623940185546875,0.29368647933006287,-0.09544781595468521,-0.2455018013715744,0.15062934160232544,-0.26043257117271423,-0.9536696076393127,0.010762855410575867,-0.033405959606170654,-0.046894967555999756,0.9873996890311884,0.12828457598606524,0.08190405816517993,0.04332062392448469
1681143720320999400,0.63399951171875,0.3400995135307312,-0.12150178849697113,-0.2585425078868866,0.15028788149356842,-0.26323172450065613,-0.9529546499252319,0.006786078214645386,-0.043195247650146484,-0.04857116937637329,0.9872816494715332,0.12985089960413562,0.0816174626120589,0.04185940673142442
1681143720331057400,0.644057373046875,0.34522899985313416,-0.1446378529071808,-0.25174200534820557,0.149738609790802,-0.2662849724292755,-0.9521925449371338,0.010799095034599304,-0.05491253733634949,-0.044374167919158936,0.9871511726242518,0.13155466128732046,0.08122247530651239,0.0403600694082482
1681143720341116200,0.6541162109375,0.3179515600204468,-0.16103839874267578,-0.21292109787464142,0.14898265898227692,-0.2690790593624115,-0.9515253901481628,0.012867316603660583,-0.06771296262741089,-0.03680157661437988,0.9870385909625174,0.13312039780358922,0.08072329206227485,0.03895479580702798
1681143720351174400,0.66417431640625,0.24987457692623138,-0.1745428442955017,-0.13126906752586365,0.14790979027748108,-0.27151578664779663,-0.951000452041626,0.014794662594795227,-0.07444670796394348,-0.030170142650604248,0.9869485844857443,0.13448143113036387,0.0800906587893634,0.037852592411724284
1681143720361233200,0.674233154296875,0.16085122525691986,-0.18317416310310364,-0.014670280739665031,0.1464603841304779,-0.2733584940433502,-0.9506968259811401,0.0180293470621109,-0.08311730623245239,-0.022325575351715088,0.9868937303529229,0.13549867491089038,0.07932015640865193,0.03727249158044259
1681143720371291400,0.68429150390625,0.04507061094045639,-0.20386159420013428,0.10480103641748428,0.1445227414369583,-0.27439212799072266,-0.9506956338882446,0.015572473406791687,-0.09827330708503723,-0.02336442470550537,0.9868912882913687,0.1360541162908295,0.07836752478653763,0.0373296781920384
1681143720381350400,0.694350341796875,-0.06713289022445679,-0.24838724732398987,0.18332327902317047,0.14197681844234467,-0.27448856830596924,-0.9510512948036194,0.022024646401405334,-0.10066404938697815,-0.03483426570892334,0.9869593054634229,0.13609427076792052,0.07715366356183448,0.037908426929191795
1681143720391409400,0.704409423828125,-0.12992316484451294,-0.2791081368923187,0.21001935005187988,0.13892021775245667,-0.2737617492675781,-0.9517119526863098,0.05591922998428345,-0.07577130198478699,-0.05997622013092041,0.9870938143864125,0.13569872036090103,0.07569591545481186,0.03875392192582937
1681143720401467400,0.71446728515625,-0.1068040132522583,-0.2981606721878052,0.20215928554534912,0.13560521602630615,-0.2728559672832489,-0.9524499177932739,0.09207116067409515,-0.0301835834980011,-0.0946386456489563,0.9872455683893268,0.1352151331759466,0.07410741751893785,0.039637656151991926
1681143720411526100,0.724526123046875,-0.038249421864748,-0.30179816484451294,0.17458295822143555,0.13221390545368195,-0.27236661314964294,-0.9530665874481201,0.10649459064006805,0.0035983026027679443,-0.11980938911437988,0.9873705345536703,0.13495917918240133,0.07247569966069335,0.040407921024550805
1681143720421584400,0.73458447265625,0.07346698641777039,-0.29539912939071655,0.12739679217338562,0.1289505809545517,-0.2727119028568268,-0.9534149169921875,0.0905928760766983,0.025992512702941895,-0.1264190673828125,0.9874364696970717,0.13515075518142952,0.07090010472976072,0.04094728576946489
1681143720431643100,0.74464306640625,0.18018949031829834,-0.2644454836845398,0.09578245878219604,0.12597307562828064,-0.2740958631038666,-0.953416109085083,0.06640973687171936,0.05661231279373169,-0.12071108818054199,0.9874236974463794,0.13589058357318476,0.06946726944158171,0.04126180966796393
1681143720441701400,0.754701416015625,0.19010576605796814,-0.24215777218341827,0.08056116104125977,0.12332233041524887,-0.2760423719882965,-0.9532010555267334,0.05892864614725113,0.07569444179534912,-0.0914309024810791,0.9873611835975779,0.13692458472444974,0.06819925226885053,0.04145442134569174
1681143720451760400,0.764760498046875,0.122653067111969,-0.2360730916261673,0.07423412799835205,0.12081881612539291,-0.27766966819763184,-0.9530490040779114,0.06028774380683899,0.06543514132499695,-0.05836457014083862,0.9873154616209381,0.13779393209276725,0.06699505080017328,0.041626220108579345
1681143720461819400,0.7748193359375,0.04080214723944664,-0.22344306111335754,0.0666867345571518,0.11843063682317734,-0.2785113453865051,-0.9531031847000122,0.05031631141901016,0.03778865933418274,-0.03678023815155029,0.9873219483192482,0.13825702550872906,0.06582869126098176,0.041797467810354
1681143720471877400,0.78487744140625,0.020765695720911026,-0.2079811692237854,0.050515059381723404,0.11618641763925552,-0.2788223624229431,-0.9532884359359741,0.038079939782619476,0.017713934183120728,-0.03268873691558838,0.9873631761684343,0.13844711743009863,0.06471619578706772,0.041930653116363736
1681143720481936100,0.79493603515625,0.05329620838165283,-0.18921466171741486,0.03363834321498871,0.11415906995534897,-0.27920499444007874,-0.9534213542938232,0.02851060777902603,0.023406654596328735,-0.03806424140930176,0.9873940036020354,0.13867508394127492,0.06370670239902972,0.041998034888227134
1681143720491994400,0.804994384765625,0.09253000468015671,-0.16781280934810638,0.014934269711375237,0.11239241063594818,-0.27991706132888794,-0.9534224271774292,0.020648963749408722,0.04044562578201294,-0.043968260288238525,0.9873956495765256,0.13907514213433447,0.06282419270303252,0.04196384457690815
1681143720502053400,0.815053466796875,0.12062768638134003,-0.14172475039958954,-0.0011288526002317667,0.11090131103992462,-0.280935674905777,-0.95329749584198,0.013793513178825378,0.05858457088470459,-0.04146873950958252,0.9873690371039393,0.13963372641290878,0.062078085876868486,0.04184750948037417
1681143720512111000,0.825111083984375,0.13087840378284454,-0.11765021085739136,-0.024070706218481064,0.1096886694431305,-0.2821172773838043,-0.9530887603759766,0.009894460439682007,0.058713316917419434,-0.027090013027191162,0.9873241967427306,0.1402762500120897,0.061466902471835345,0.04165656633800529
1681143720522170400,0.83517041015625,0.16073642671108246,-0.09704985469579697,-0.04252241924405098,0.10876654088497162,-0.2834683954715729,-0.952793538570404,0.008237853646278381,0.05286228656768799,-0.014842569828033447,0.987262041681588,0.14100789451038667,0.060991883245920364,0.041357262258916935
1681143720532228400,0.845228271484375,0.18619266152381897,-0.08669333904981613,-0.06641842424869537,0.10804947465658188,-0.2850732207298279,-0.9523962140083313,0.009199060499668121,0.05423822999000549,-0.006588101387023926,0.9871778250077858,0.141872620837008,0.06061387490057808,0.04096586510423597
1681143720542287400,0.855287353515625,0.1854030340909958,-0.0741671547293663,-0.08128046244382858,0.10750280320644379,-0.2867875397205353,-0.9519432783126831,0.012583866715431213,0.055800020694732666,-0.0017004609107971191,0.987082890519442,0.14279663313356714,0.06031145912085357,0.04048421285697345
1681143720552345300,0.865345458984375,0.17246770858764648,-0.06712798029184341,-0.09287235885858536,0.10710269212722778,-0.28839632868766785,-0.95150226354599,0.015791594982147217,0.05731719732284546,0.00782245397567749,0.9869930919477407,0.14366713851602728,0.06007176946692721,0.03994703611165555
1681143720562404400,0.875404296875,0.18351450562477112,-0.05005604773759842,-0.08314888924360275,0.10684498399496078,-0.28987643122673035,-0.951081395149231,0.013134874403476715,0.05577605962753296,0.022751927375793457,0.9869087462380894,0.1444698468813257,0.0598979634183893,0.039394595490876795
1681143720572463400,0.88546337890625,0.20635193586349487,-0.03759663179516792,-0.07010243833065033,0.10669451951980591,-0.2915080189704895,-0.9505994915962219,0.007395446300506592,0.0554240345954895,0.034110844135284424,0.9868053837324795,0.14534460582328762,0.059793090561769034,0.03892050598764044
1681143720582521000,0.89552099609375,0.22885005176067352,-0.02338280901312828,-0.058676671236753464,0.10661209374666214,-0.29328233003616333,-0.9500628113746643,0.00102340430021286,0.05948713421821594,0.03873163461685181,0.9866857993240616,0.1462888637718313,0.059734097782467174,0.038504226441895
1681143720592580400,0.905580322265625,0.23959359526634216,-0.020052975043654442,-0.0353839211165905,0.1065838634967804,-0.29520830512046814,-0.949469268321991,-0.0030834972858428955,0.06908828020095825,0.04784274101257324,0.9865485035663342,0.1473063514926763,0.05971759215618543,0.03816786773639332
1681143720602638300,0.915638427734375,0.21463337540626526,-0.010032564401626587,-0.006721384357661009,0.10653333365917206,-0.29709193110466003,-0.948887288570404,-0.004070565104484558,0.07139915227890015,0.05327266454696655,0.9864086237980589,0.14829431817319863,0.05970898484121478,0.03797037815166293
1681143720612697300,0.925697265625,0.1680227369070053,0.00040432997047901154,0.0197999719530344,0.10651516914367676,-0.2986453175544739,-0.9484015107154846,-0.006615877151489258,0.06495696306228638,0.061011433601379395,0.9862869983441764,0.14910171476712608,0.05973197923708993,0.037929071331739776
1681143720622755300,0.93575537109375,0.13772128522396088,0.007605517283082008,0.05021673068404198,0.10647935420274734,-0.29988422989845276,-0.9480145573616028,-0.010181136429309845,0.05766621232032776,0.07063418626785278,0.9861842830036355,0.1497368571256388,0.059762848361527246,0.03805012635726042
1681143720632814300,0.945814453125,0.1170642152428627,0.01693377085030079,0.07563713937997818,0.10646367818117142,-0.3009551763534546,-0.9476768970489502,-0.007632501423358917,0.0568908154964447,0.0777885913848877,0.9860879083527699,0.15027526018040477,0.059823959436755475,0.0383286285656506
1681143720642873300,0.955873291015625,0.09861410409212112,0.01603921502828598,0.09450136870145798,0.10640260577201843,-0.3019121587276459,-0.9473792910575867,-0.0026428401470184326,0.060624927282333374,0.07021254301071167,0.9859969179331898,0.15074818915371888,0.059877678913061,0.038726198373522015
1681143720652931300,0.965931396484375,0.07164720445871353,0.013870070688426495,0.10622008144855499,0.10627208650112152,-0.3027191162109375,-0.947136402130127,0.003621712327003479,0.06683346629142761,0.06499528884887695,0.9859163925491824,0.15113956995218464,0.05990513107771356,0.039204864389800066
1681143720662990300,0.975990234375,0.042044565081596375,0.012816524133086205,0.12230797111988068,0.1060766652226448,-0.30327409505844116,-0.9469807744026184,0.013994745910167694,0.06636610627174377,0.05974322557449341,0.9858547480221772,0.1513968141261727,0.059905124102836486,0.03975920800101714
1681143720673048300,0.98604833984375,0.011593714356422424,0.0014339080080389977,0.1341923326253891,0.10577124357223511,-0.30358389019966125,-0.9469156861305237,0.019182972609996796,0.06333425641059875,0.04989725351333618,0.9858126105849108,0.15152414197410047,0.059854875160826757,0.040390046849598536
1681143720683107300,0.996107421875,-0.02476988546550274,-0.00953698344528675,0.13948829472064972,0.10532531887292862,-0.30357781052589417,-0.9469673037528992,0.022451773285865784,0.06580010056495667,0.041114091873168945,0.9857980067365667,0.15148777432307442,0.05973105651775451,0.04106005594197912
1681143720693165300,1.006165283203125,-0.048777591437101364,-0.029459726065397263,0.1414266973733902,0.10471881181001663,-0.3033134341239929,-0.9471192955970764,0.029299132525920868,0.06712260842323303,0.036551058292388916,0.9858074052979583,0.15131906446564486,0.059522278733058126,0.0417534713664534
1681143720703224300,1.016224365234375,-0.07110446691513062,-0.038084372878074646,0.14104826748371124,0.10395755618810654,-0.3028370440006256,-0.9473555684089661,0.03634700924158096,0.06446421146392822,0.030988991260528564,0.9858377534224277,0.15104356738960822,0.05922887901868032,0.04244661139898147
1681143720713282300,1.0262822265625,-0.07913831621408463,-0.04585983604192734,0.13239789009094238,0.10314976423978806,-0.3022330403327942,-0.9476367235183716,0.037429459393024445,0.0625174343585968,0.027730107307434082,0.9858803307150849,0.15070521423562314,0.05890319723745719,0.04310813917291299
1681143720723340300,1.03634033203125,-0.08808067440986633,-0.05202052742242813,0.12078703939914703,0.10229489207267761,-0.30153247714042664,-0.9479525089263916,0.03263857960700989,0.06564685702323914,0.0263674259185791,0.9859334293722699,0.15032122858714664,0.058543030792798254,0.04372026910632098
1681143720733398500,1.0463984375,-0.10174134373664856,-0.04452494531869888,0.1072455570101738,0.10150109976530075,-0.3006959557533264,-0.9483034610748291,0.02738989144563675,0.06004956364631653,0.0317690372467041,0.9859976782126468,0.14986959062111693,0.058201118237129916,0.044275936537281596
1681143720743457300,1.056457275390625,-0.11706410348415375,-0.040385063737630844,0.08511282503604889,0.10083457827568054,-0.2996927499771118,-0.9486920833587646,0.021357804536819458,0.05289706587791443,0.03629279136657715,0.9860746962349549,0.14933438782856673,0.057906840401238446,0.04475312172768714
1681143720753516500,1.0665166015625,-0.11824183166027069,-0.03079560026526451,0.07146364450454712,0.1002848669886589,-0.2985856533050537,-0.9490993618965149,0.011150069534778595,0.05024883151054382,0.03573876619338989,0.9861597202748521,0.1487482897129683,0.05765655018300692,0.04515099655054265
1681143720763574300,1.07657421875,-0.11851932853460312,-0.015767382457852364,0.05889592319726944,0.09988144785165787,-0.2974758744239807,-0.9494903087615967,0.007586203515529633,0.046011000871658325,0.03374934196472168,0.9862435293450309,0.14816215380431638,0.05747028674657662,0.04548377127114069
1681143720773633500,1.086633544921875,-0.13196450471878052,0.0004551960155367851,0.05108731985092163,0.09968694299459457,-0.2962653636932373,-0.9498891234397888,0.002165473997592926,0.03852912783622742,0.03179830312728882,0.9863307481828394,0.14752192761440455,0.05738219807199669,0.04578542021095196
1681143720783691500,1.09669140625,-0.1264112889766693,0.021830791607499123,0.04849419742822647,0.09968417137861252,-0.29500430822372437,-0.9502817988395691,-0.009718351066112518,0.03238525986671448,0.03451031446456909,0.986417123235977,0.14685319534727548,0.05738668426955455,0.04606725882435245
1681143720793750300,1.106750244140625,-0.11472238600254059,0.035059891641139984,0.04750712588429451,0.09985899180173874,-0.29383423924446106,-0.9506258964538574,-0.02187132090330124,0.030009746551513672,0.04240751266479492,0.9864907514004992,0.14622781798331463,0.05748453257320006,0.046355500187477104
1681143720803808500,1.11680859375,-0.11903245002031326,0.04997732490301132,0.045852504670619965,0.1001957356929779,-0.29269731044769287,-0.9509411454200745,-0.026572078466415405,0.02411210536956787,0.04322630167007446,0.9865572042566723,0.145616644265537,0.057664676185116344,0.04664051711229929
1681143720813867300,1.1268671875,-0.14339858293533325,0.05837664753198624,0.042682863771915436,0.10063530504703522,-0.29140377044677734,-0.9512919783592224,-0.024051442742347717,0.017111748456954956,0.04441636800765991,0.9866325586768315,0.14492234015957473,0.057892453362500804,0.0469280807659905
1681143720823926500,1.136926513671875,-0.15860895812511444,0.06410111486911774,0.04019227623939514,0.10114071518182755,-0.2899324595928192,-0.9516878128051758,-0.02451109141111374,0.013763636350631714,0.04470545053482056,0.9867188328367724,0.14413463440317725,0.058148882010185504,0.04722139350077287
1681143720833984300,1.146984375,-0.16228587925434113,0.06187861040234566,0.04063766077160835,0.10164747387170792,-0.2883792519569397,-0.9521056413650513,-0.025658711791038513,0.013003885746002197,0.03786003589630127,0.9868103419590335,0.14330441555756315,0.05840388866199371,0.04751997974447947
1681143720844043500,1.15704345703125,-0.1607969105243683,0.057824477553367615,0.03143404424190521,0.10213160514831543,-0.28680548071861267,-0.9525291323661804,-0.022297628223896027,0.01744207739830017,0.02802962064743042,0.9869049195814583,0.1424662213392434,0.058641355347030216,0.04778422471293189
1681143720854101500,1.1671015625,-0.16097868978977203,0.050287067890167236,0.029299892485141754,0.10256035625934601,-0.28526395559310913,-0.95294588804245,-0.014959655702114105,0.022736459970474243,0.02629488706588745,0.9869994155633239,0.14164820069601802,0.05884596202636246,0.04801155567617007
1681143720864160300,1.17716015625,-0.18567311763763428,0.03285108506679535,0.026491854339838028,0.10288222134113312,-0.28361114859580994,-0.953404426574707,-0.013068996369838715,0.02473050355911255,0.02093982696533203,0.9871046914571953,0.1407755867573956,0.05899180058386103,0.04823258775560343
1681143720874218500,1.187218505859375,-0.23101745545864105,0.017476540058851242,0.021031683310866356,0.10301985591650009,-0.28163233399391174,-0.9539759755134583,-0.013816975057125092,0.020935922861099243,0.013973534107208252,0.9872396352445374,0.1397402311006099,0.059031263779964746,0.04843326851024497
1681143720884277200,1.19727734375,-0.2798159122467041,0.008198353461921215,0.02761235460639,0.10302360355854034,-0.27921050786972046,-0.9546871781349182,-0.012645795941352844,0.012395292520523071,0.015661299228668213,0.9874094546646722,0.1384792749422991,0.05899063811889562,0.04864346447686301
1681143720894335200,1.207335205078125,-0.31890466809272766,-0.002937772311270237,0.027905194088816643,0.1029343232512474,-0.2763904333114624,-0.955517053604126,-0.016294918954372406,0.004555076360702515,0.019207239151000977,0.9876082009789087,0.13701476998195178,0.05889330470108218,0.04887320250867206
1681143720904394500,1.21739453125,-0.34470802545547485,-0.014430910348892212,0.022492052987217903,0.10274378210306168,-0.27326637506484985,-0.9564356803894043,-0.026480354368686676,0.00011876225471496582,0.019027233123779297,0.9878294900297764,0.1353971922387232,0.058734670626797096,0.04909960398608781
1681143720914453500,1.22745361328125,-0.3391322195529938,-0.021384770050644875,0.014805745333433151,0.1024576872587204,-0.27002474665641785,-0.9573865532875061,-0.0318247526884079,-0.009272158145904541,0.013981461524963379,0.9880610883113249,0.1337251493018215,0.058517487100614676,0.04928025647053867
1681143720924511500,1.237511474609375,-0.312705934047699,-0.022665219381451607,0.012693325988948345,0.10216987878084183,-0.26694419980049133,-0.9582808017730713,-0.03521431237459183,-0.011208295822143555,0.009336709976196289,0.9882799022027563,0.13213907414631054,0.058299735980345754,0.049429119301901386
1681143720934570200,1.2475703125,-0.28926557302474976,-0.023589320480823517,0.005545028951019049,0.10190396010875702,-0.26407480239868164,-0.9591037631034851,-0.047185949981212616,-0.006707698106765747,0.004483461380004883,0.9884825259186466,0.1306644410133551,0.05809398319240887,0.04953838720046455
1681143720944628500,1.25762841796875,-0.28357812762260437,-0.03797704726457596,-0.008337496779859066,0.10158605873584747,-0.2613229751586914,-0.9598909020423889,-0.05791541188955307,-0.011076927185058594,0.0015169382095336914,0.9886788796154226,0.12925535914262895,0.057858368967531076,0.04959422524183809
1681143720954687200,1.267687255859375,-0.2900746464729309,-0.06045515835285187,-0.015118704177439213,0.10110018402338028,-0.25856587290763855,-0.9606885313987732,-0.06066439300775528,-0.022943556308746338,-0.0027361512184143066,0.9888805633643335,0.1278514306775197,0.05753040312031283,0.049593544163858874
1681143720964745200,1.2777451171875,-0.3011523187160492,-0.06592928618192673,-0.025016341358423233,0.10048852860927582,-0.2557859420776367,-0.9614965319633484,-0.06112085282802582,-0.03016379475593567,-0.004705250263214111,0.9890870009090775,0.126441882155576,0.057132964585438865,0.04955011626353836
1681143720974804500,1.287804443359375,-0.3214985728263855,-0.0589892715215683,-0.03488372638821602,0.09989938139915466,-0.25291088223457336,-0.9623181223869324,-0.05947884917259216,-0.03766226768493652,0.0017011165618896484,0.9892990646212142,0.12498645180474946,0.05673900199622802,0.04946256025816869
1681143720984862200,1.2978623046875,-0.3327464461326599,-0.05113720893859863,-0.04194962605834007,0.09949179738759995,-0.24968858063220978,-0.9632014036178589,-0.06956931948661804,-0.04633192718029022,0.010213792324066162,0.9895287315216099,0.12335262024041257,0.056421785057790726,0.049330773820611296
1681143720994921500,1.30792138671875,-0.32796886563301086,-0.0353812500834465,-0.04889131709933281,0.09918785095214844,-0.24642081558704376,-0.9640739560127258,-0.08470726013183594,-0.051140859723091125,0.02184373140335083,0.9897570778417321,0.1216958439896045,0.05615296931426707,0.049170731249694004
1681143721004980200,1.317980224609375,-0.3342001438140869,-0.01701795496046543,-0.04954325780272484,0.0990763008594513,-0.24314795434474945,-0.9649160504341125,-0.0952310860157013,-0.05268946290016174,0.02379971742630005,0.989978544477904,0.1200342126316248,0.05598009237609862,0.04899387157655511
1681143721015038500,1.32803857421875,-0.35034283995628357,-0.007528046146035194,-0.04723184555768967,0.09910343587398529,-0.2397746443748474,-0.9657570123672485,-0.10304020345211029,-0.05348403751850128,0.016217827796936035,0.9901987678066069,0.11831809006785673,0.05587768080864339,0.04883692386079193
1681143721025097500,1.338097412109375,-0.3785233497619629,-0.007797824218869209,-0.0528511144220829,0.09915874898433685,-0.2361811101436615,-0.9666364789009094,-0.11591290682554245,-0.054819270968437195,0.012351810932159424,0.9904281998576264,0.11648963567218991,0.05578474872699358,0.048685981744119346
1681143721035155200,1.3481552734375,-0.3871762752532959,-0.00819726474583149,-0.06509345769882202,0.09923486411571503,-0.23239262402057648,-0.9675464630126953,-0.12049035727977753,-0.06483334302902222,0.0034046173095703125,0.9906668378329025,0.1145643318674162,0.05569377139568185,0.04850148552039079
1681143721045214500,1.35821435546875,-0.37110862135887146,-0.0036501847207546234,-0.09158658236265182,0.09936139732599258,-0.22859962284564972,-0.9684366583824158,-0.11439131200313568,-0.06755822896957397,-0.0028463006019592285,0.9909053530306535,0.1126426013884877,0.055617684382671076,0.04821586957745113
1681143721055272400,1.3682724609375,-0.33666685223579407,-0.0019961772486567497,-0.11794036626815796,0.09957573562860489,-0.22504568099975586,-0.9692466855049133,-0.11346123367547989,-0.06111767888069153,-0.00432509183883667,0.9911304107341699,0.11084991460150435,0.05557839314047019,0.04779046468432342
1681143721065331500,1.37833154296875,-0.2923387885093689,9.275972843170166e-7,-0.1479765772819519,0.09986996650695801,-0.22183194756507874,-0.9699569940567017,-0.11271786689758301,-0.05355869233608246,-0.00463712215423584,0.9913374297870249,0.1092387857089378,0.0555732837330312,0.04720752048671539
1681143721075389400,1.388389404296875,-0.2680386006832123,0.010758183896541595,-0.17132525146007538,0.10030051320791245,-0.21894827485084534,-0.9705675840377808,-0.10825034976005554,-0.04852305352687836,-0.0017987489700317383,0.9915252514905931,0.1078011550112133,0.05563372070691008,0.046492829007564795
1681143721085448400,1.398448486328125,-0.2699821889400482,0.015815792605280876,-0.18741926550865173,0.10083330422639847,-0.21616989374160767,-0.9711350202560425,-0.10547197610139847,-0.05642840266227722,0.0045365095138549805,0.9917062680491198,0.1064216263145197,0.0557398162953884,0.04567561415949305
1681143721095507500,1.408507568359375,-0.2932520806789398,0.016139283776283264,-0.1911718100309372,0.10140034556388855,-0.21322299540042877,-0.9717273116111755,-0.10469624400138855,-0.06633329391479492,0.013963639736175537,0.9918944808134413,0.10495868760894786,0.055857236866252,0.04482059301494936
1681143721105565200,1.418565185546875,-0.3045894503593445,0.01623169519007206,-0.20232859253883362,0.10198400914669037,-0.21007919311523438,-0.9723507761955261,-0.09908483922481537,-0.06879045069217682,0.020080268383026123,0.9920915881154468,0.10339829915801658,0.055976885690346624,0.04392908381125156
1681143721115624400,1.42862451171875,-0.29964935779571533,0.016924066469073296,-0.2079419493675232,0.10258998721837997,-0.20690374076366425,-0.9729676842689514,-0.09489955753087997,-0.06769344210624695,0.025106966495513916,0.9922876292579047,0.1018245890649188,0.05610620502125131,0.04300042044051282
1681143721125682400,1.438682373046875,-0.2949126660823822,0.02043437957763672,-0.2090703248977661,0.10321223735809326,-0.2037617266178131,-0.9735648036003113,-0.09248530864715576,-0.07388722896575928,0.02246922254562378,0.99247868496608,0.10026978269708639,0.056245693250103965,0.04205189180426672
1681143721135741400,1.448741455078125,-0.2862826883792877,0.02338942140340805,-0.2044747769832611,0.10385891050100327,-0.2007068395614624,-0.9741304516792297,-0.08887477964162827,-0.06714595854282379,0.028314411640167236,0.992660733218655,0.09875960104564882,0.056403252303873636,0.04110829013367522
1681143721145799400,1.45879931640625,-0.29085561633110046,0.02225331775844097,-0.20105314254760742,0.10448355972766876,-0.19767560064792633,-0.9746832847595215,-0.08670707792043686,-0.06245625019073486,0.03216320276260376,0.9928377012252956,0.09726173145948218,0.056555323878654,0.040185157490271184
1681143721155858200,1.468858154296875,-0.2990776300430298,0.028925402089953423,-0.20013122260570526,0.10515490919351578,-0.19458140432834625,-0.9752335548400879,-0.08046619594097137,-0.06724417209625244,0.039549410343170166,0.9930126772336031,0.0957312923221647,0.05673386885801769,0.03927657676338795
1681143721165916400,1.47891650390625,-0.3141133189201355,0.03147830814123154,-0.19952481985092163,0.10583778470754623,-0.19135448336601257,-0.9757980704307556,-0.07472512125968933,-0.06859426200389862,0.050154149532318115,0.9931894972734976,0.09413327645923825,0.05692015532310457,0.0383881947061332
1681143721175975400,1.488975341796875,-0.3362414240837097,0.03747925907373428,-0.19960902631282806,0.10656126588582993,-0.1879379004240036,-0.9763831496238708,-0.07500609010457993,-0.07426914572715759,0.05974191427230835,0.9933699936673394,0.09243853792703499,0.05712745130785341,0.03751750918364768
1681143721186034400,1.499034423828125,-0.33767634630203247,0.04449988529086113,-0.2048962116241455,0.10735362768173218,-0.18440936505794525,-0.9769690036773682,-0.07801097631454468,-0.07946088910102844,0.06490540504455566,0.9935506991194423,0.09068844422079286,0.057368269302801006,0.036625073442007695
1681143721196092400,1.509092529296875,-0.3214365839958191,0.046087414026260376,-0.21452970802783966,0.10819630324840546,-0.18094338476657867,-0.977523922920227,-0.07722096890211105,-0.07802879810333252,0.06877154111862183,0.9937241662850799,0.08897269537284017,0.05763583897271481,0.03569606367009918
1681143721206151400,1.5191513671875,-0.3052906394004822,0.0526433140039444,-0.22422654926776886,0.10907416045665741,-0.17762531340122223,-0.9780347943305969,-0.07051520049571991,-0.07121504843235016,0.07358533143997192,0.993887366851391,0.08733557362566856,0.057923190344412095,0.034717195025540715
1681143721216209400,1.52920947265625,-0.2874351441860199,0.050314079970121384,-0.24010798335075378,0.10999482125043869,-0.17446351051330566,-0.9785007238388062,-0.06769745796918869,-0.06496217846870422,0.07568395137786865,0.9940404764310764,0.08578208396578575,0.058233006478452275,0.033673179308446655
1681143721226268400,1.539268310546875,-0.26636582612991333,0.04415632039308548,-0.2527358829975128,0.11089601367712021,-0.17146074771881104,-0.9789296388626099,-0.0627087652683258,-0.057695746421813965,0.07658594846725464,0.9941859815712124,0.08431581888569166,0.058532141722560334,0.03254226434153149
1681143721236326400,1.549326416015625,-0.24751433730125427,0.03371128439903259,-0.26123762130737305,0.11172409355640411,-0.16865837574005127,-0.9793222546577454,-0.06252976506948471,-0.054150477051734924,0.08244121074676514,0.9943231071268117,0.08295696289974484,0.05879638116751347,0.03134820845461025
1681143721246385400,1.559385498046875,-0.24619527161121368,0.012772448360919952,-0.26855942606925964,0.11239827424287796,-0.16593772172927856,-0.979709804058075,-0.06228841096162796,-0.05325481295585632,0.08746737241744995,0.994459084218881,0.08164589169075018,0.05898344201674916,0.030099280057414055
1681143721256444400,1.5694443359375,-0.2568827271461487,-0.02152848243713379,-0.259101539850235,0.1128033846616745,-0.1631663292646408,-0.9801286458969116,-0.0611981600522995,-0.051128119230270386,0.08874070644378662,0.9946015614592539,0.0803137104846446,0.059037182872960815,0.02884664982932862
1681143721266502400,1.57950244140625,-0.28963613510131836,-0.06704163551330566,-0.24626590311527252,0.11277725547552109,-0.16020959615707397,-0.9806192517280579,-0.05831863731145859,-0.06473550200462341,0.09005534648895264,0.9947587570423467,0.07889023742483176,0.05887860468781165,0.02765080851431184
1681143721276561400,1.5895615234375,-0.3379702568054199,-0.11526089161634445,-0.23833633959293365,0.11224901676177979,-0.1568203717470169,-0.9812275767326355,-0.056569695472717285,-0.08890718221664429,0.0913655161857605,0.9949431547687103,0.0772518612538912,0.058466821189335196,0.026493273527136207
1681143721286619400,1.599619384765625,-0.3311629593372345,-0.1430366039276123,-0.23877708613872528,0.11134542524814606,-0.15321101248264313,-0.9819005131721497,-0.05241598188877106,-0.09041082859039307,0.08364611864089966,0.9951420816971599,0.07550555308573567,0.05786764378896159,0.02534669388747315
1681143721296678400,1.609678466796875,-0.29547417163848877,-0.15813800692558289,-0.24749842286109924,0.1102028638124466,-0.14986024796962738,-0.982546329498291,-0.051502302289009094,-0.08379760384559631,0.08410882949829102,0.9953340174896963,0.07389447694408513,0.057152913744571834,0.02415344416595222
1681143721306736400,1.619736328125,-0.25365084409713745,-0.1623021364212036,-0.25826212763786316,0.1090022400021553,-0.1468624621629715,-0.9831327199935913,-0.061272747814655304,-0.0988193154335022,0.07850015163421631,0.9955106500500652,0.07246394317594279,0.056414721702619096,0.022912578392355488
1681143721316795400,1.62979541015625,-0.20262357592582703,-0.17862802743911743,-0.27182435989379883,0.10769619792699814,-0.14432142674922943,-0.9836528301239014,-0.07304348796606064,-0.10996632277965546,0.06254076957702637,0.9956708401768009,0.07126829674957648,0.05562753489977161,0.021589077999743418
1681143721326853400,1.639853271484375,-0.1771128922700882,-0.18524998426437378,-0.28435611724853516,0.10628635436296463,-0.1421537548303604,-0.9841216802597046,-0.08065158873796463,-0.12949848175048828,0.053060948848724365,0.9958180367458606,0.07026499878415163,0.05479032368364397,0.020180988557634085
1681143721336912400,1.649912353515625,-0.15278436243534088,-0.18008333444595337,-0.28321000933647156,0.10488642752170563,-0.14022521674633026,-0.9845485091209412,-0.08041132986545563,-0.15976260602474213,0.05364030599594116,0.9959533495159136,0.06938228606056752,0.05396160422470109,0.018737170266862193
1681143721346971400,1.659971435546875,-0.13916468620300293,-0.1647251397371292,-0.2819676697254181,0.10355076938867569,-0.1384907364845276,-0.9849352836608887,-0.09312901645898819,-0.1866588145494461,0.05282163619995117,0.9960762882921531,0.06859417449266633,0.0531713055472288,0.017308915846531478
1681143721357029400,1.670029296875,-0.09126243740320206,-0.1384768784046173,-0.30551066994667053,0.10245253145694733,-0.13701525330543518,-0.9852564930915833,-0.11186720430850983,-0.2319117784500122,0.028621971607208252,0.9961816117831346,0.06793626055949094,0.05250174142925021,0.015823685470540836
1681143721367088400,1.68008837890625,0.027347829192876816,-0.10797036439180374,-0.35233303904533386,0.10167702287435532,-0.13633450865745544,-0.9854311943054199,-0.12374123930931091,-0.27890291810035706,-0.030437886714935303,0.9962506900011227,0.06768544626845084,0.0519910753751316,0.01414830052766525
1681143721377146400,1.690146484375,0.19593556225299835,-0.06688930839300156,-0.42552438378334045,0.1013089194893837,-0.13703231513500214,-0.9853723645210266,-0.1315670907497406,-0.31999897956848145,-0.11284846067428589,0.9962623521357178,0.06814299605009887,0.051675537094379324,0.012149926993743808
1681143721387205400,1.700205322265625,0.41128888726234436,-0.003984377719461918,-0.5077188611030579,0.10160868614912033,-0.1395392268896103,-0.984989583492279,-0.13627666234970093,-0.3755822777748108,-0.22066837549209595,0.9961928857699438,0.06953195101958737,0.05167703632026025,0.009721482328773129
1681143721397263400,1.710263427734375,0.68541020154953,0.04447891563177109,-0.5660858750343323,0.10259287059307098,-0.14439396560192108,-0.9841875433921814,-0.14453928172588348,-0.4443206787109375,-0.3409314751625061,0.9960152943794895,0.07212664294290279,0.051999847629592685,0.006879685223979994
1681143721407322400,1.720322265625,0.9597887992858887,0.06538020074367523,-0.5837692618370056,0.10401713848114014,-0.1519707888364792,-0.9828963875770569,-0.15556132793426514,-0.5142890214920044,-0.4636978507041931,0.9957076628844704,0.076112696847089,0.052522972657774676,0.003796437621993898
1681143721417380400,1.73038037109375,1.1614106893539429,0.051208436489105225,-0.5707661509513855,0.1055455133318901,-0.16190695762634277,-0.9811453819274902,-0.1543736457824707,-0.5835001468658447,-0.5914101004600525,0.9952749758025207,0.08130423889574587,0.05307470713489628,0.0006293980687668777
1681143721427439400,1.740439453125,1.2731845378875732,0.02205374836921692,-0.5251044034957886,0.10683552920818329,-0.1734696924686432,-0.979027271270752,-0.12452046573162079,-0.6296309232711792,-0.695533275604248,0.9947400540336326,0.08732471961737612,0.05348595017991395,-0.0024408604838032275
1681143721437498400,1.750498291015625,1.264666199684143,-0.0045631155371665955,-0.4362534284591675,0.10780862718820572,-0.1855314075946808,-0.9767063856124878,-0.07350687682628632,-0.6637423038482666,-0.7378779053688049,0.9941461271197105,0.09359197013400397,0.05373397031386572,-0.00518096666562528
1681143721447556600,1.760556640625,1.2098572254180908,-0.05120918154716492,-0.3265029489994049,0.10828917473554611,-0.19722993671894073,-0.9743581414222717,-0.03710692375898361,-0.680898129940033,-0.7383798956871033,0.9935410226318449,0.09965827287767179,0.05375085271037546,-0.00743451977860725
1681143721457615400,1.770615478515625,1.2315361499786377,-0.13329043984413147,-0.19492420554161072,0.10794063657522202,-0.20888322591781616,-0.9719653129577637,-0.007156342267990112,-0.6230564713478088,-0.728336751461029,0.9929247682344778,0.10567564709662267,0.05338529240615188,-0.009110332458837474
1681143721467673300,1.78067333984375,1.283532977104187,-0.21572671830654144,-0.08317557722330093,0.10654156655073166,-0.22099004685878754,-0.9694391489028931,0.039088308811187744,-0.5240966081619263,-0.7195408940315247,0.992277750038987,0.11189602067347647,0.05253283283654759,-0.010220393818417836
1681143721477732400,1.790732421875,1.3914393186569214,-0.33856213092803955,0.028216784819960594,0.10390069335699081,-0.23396356403827667,-0.9666776657104492,0.09325812011957169,-0.4075159430503845,-0.7253084182739258,0.9915748708332403,0.11853567490917609,0.05109271077645146,-0.010866761860220436
1681143721487790300,1.800790283203125,1.448109745979309,-0.47673171758651733,0.157260000705719,0.0997185930609703,-0.2478952556848526,-0.9636411070823669,0.1468329280614853,-0.2596883773803711,-0.7260866761207581,0.9908073666284032,0.12564157351858282,0.04892494710252117,-0.011016236571667254
1681143721497849300,1.810849365234375,1.3947265148162842,-0.6167789101600647,0.29719457030296326,0.09383293986320496,-0.2619371712207794,-0.9605125188827515,0.19558051228523254,-0.15735909342765808,-0.714460015296936,0.9900224162176766,0.13277982994332074,0.04597016895427466,-0.010581218767237215
1681143721507908400,1.820908447265625,1.2452406883239746,-0.703567624092102,0.4439619183540344,0.08642076700925827,-0.2750515639781952,-0.9575375318527222,0.21074414253234863,-0.10414460301399231,-0.6604892015457153,0.989281958950195,0.13942154689010255,0.042342392053866716,-0.009480740707390913
1681143721517966300,1.83096630859375,1.067553997039795,-0.7407282590866089,0.6083616614341736,0.077976293861866,-0.2866084575653076,-0.954869270324707,0.1928824782371521,-0.08779647946357727,-0.5618696212768555,0.9886235752094426,0.1452486517001724,0.03831710972225366,-0.007621067177128829
1681143721528025300,1.841025390625,0.8676971793174744,-0.7348357439041138,0.7739083170890808,0.0688411146402359,-0.29642605781555176,-0.9525715112686157,0.1683415025472641,-0.06204867362976074,-0.4634288549423218,0.9880595766471749,0.15017351368175952,0.03409044225642357,-0.004908785601214384
1681143721538083300,1.851083251953125,0.6584018468856812,-0.700412392616272,0.9355399012565613,0.05936381220817566,-0.30425870418548584,-0.9507378935813904,0.16910603642463684,-0.016114860773086548,-0.37665462493896484,0.987606830781517,0.15407852307334988,0.029847126422960942,-0.0013284161234576575
1681143721548142300,1.861142333984375,0.46908169984817505,-0.6049700379371643,1.0830247402191162,0.04994455724954605,-0.31017830967903137,-0.9493655562400818,0.18693289160728455,0.04769662022590637,-0.3086300492286682,0.9872553695400369,0.1570104003780999,0.025786784335038625,0.003094456128540695
1681143721558200300,1.871200439453125,0.27735140919685364,-0.5281486511230469,1.203027606010437,0.041010841727256775,-0.31426888704299927,-0.9484477639198303,0.20082570612430573,0.12962225079536438,-0.2749866843223572,0.9869929242934099,0.15901927592918916,0.022112928164796136,0.008300144914907624
1681143721568259600,1.881259521484375,0.08445119857788086,-0.5462890267372131,1.2463489770889282,0.032017383724451065,-0.31646937131881714,-0.9480622410774231,0.21679243445396423,0.23037928342819214,-0.2721220850944519,0.9868313921361822,0.16008476955429785,0.01848641098776394,0.0139568442625153
1681143721578317300,1.8913173828125,-0.11341136693954468,-0.5580352544784546,1.2097779512405396,0.022797606885433197,-0.31662580370903015,-0.9482765197753906,0.2646169364452362,0.32749006152153015,-0.2286643385887146,0.9867892017589086,0.16013922186601373,0.014736648373108346,0.019627685510705314
1681143721588376300,1.901376220703125,-0.18619902431964874,-0.5217912197113037,1.101339340209961,0.013937156647443771,-0.3153154253959656,-0.9488846063613892,0.3222750127315521,0.4089891314506531,-0.14523160457611084,0.9868227570300664,0.15948224765089417,0.011096112504724401,0.024964020289567342
1681143721598435300,1.911435302734375,-0.07659821957349777,-0.45265185832977295,0.9406282305717468,0.006016889587044716,-0.3140600323677063,-0.9493840336799622,0.34044918417930603,0.504260778427124,-0.059908509254455566,0.9868195990374184,0.1588923350286189,0.007822713365997182,0.029650027980330403
1681143721608493300,1.921493408203125,0.1597653180360794,-0.3516347110271454,0.7778638005256653,-0.0005477785016410053,-0.314455509185791,-0.9492720365524292,0.3238662779331207,0.5917534828186035,0.026557862758636475,0.9866650353722639,0.15917771228224442,0.005140995094041744,0.03358717306363959
1681143721618552300,1.93155224609375,0.3920914828777313,-0.24860766530036926,0.6339894533157349,-0.005674467422068119,-0.3171195685863495,-0.9483686089515686,0.30218327045440674,0.6341056823730469,0.0880323052406311,0.9863199928386972,0.1606423141271091,0.003123360258924642,0.03683877763195266
1681143721628610300,1.9416103515625,0.504683792591095,-0.1093754768371582,0.5223569273948669,-0.009281253442168236,-0.3214424252510071,-0.9468836188316345,0.2876320779323578,0.6196144223213196,0.1345973014831543,0.9858386261958629,0.16295653729087678,0.0018297064143992154,0.039546874714064394
1681143721638669600,1.951669677734375,0.4488649368286133,0.01216356735676527,0.4418119490146637,-0.011284735053777695,-0.32601451873779297,-0.9452974200248718,0.271721750497818,0.549708366394043,0.17005938291549683,0.9853399939397859,0.1653771475667043,0.001302525752444269,0.041878811409968596
1681143721648727300,1.961727294921875,0.31886059045791626,0.07928933948278427,0.3629613220691681,-0.012138030491769314,-0.329654335975647,-0.9440236687660217,0.24452939629554749,0.4695926904678345,0.18872886896133423,0.9849279302110688,0.16729162061564123,0.0012975245029818276,0.043917222890410335
1681143721658786300,1.971786376953125,0.13013513386249542,0.08106380701065063,0.30477312207221985,-0.012448614463210106,-0.33176520466804504,-0.9432798624038696,0.24129992723464966,0.42316535115242004,0.21387922763824463,0.9846614373582899,0.16839797234332773,0.0014819691946159198,0.045627300969001326
1681143721668844500,1.981844482421875,-0.03769274428486824,0.07193608582019806,0.23648381233215332,-0.01262694876641035,-0.33213427662849426,-0.943147599697113,0.2602770924568176,0.3775901794433594,0.21743959188461304,0.9845614101827418,0.1685927303265375,0.001642078196884833,0.04703762189970674
1681143721678903300,1.9919033203125,-0.14674508571624756,0.045774154365062714,0.18862052261829376,-0.012763540260493755,-0.33118537068367004,-0.9434793591499329,0.26358750462532043,0.34137824177742004,0.23193156719207764,0.9845929290518995,0.16809907369896177,0.0017354452102005956,0.04812921969875654
1681143721688962600,2.001962646484375,-0.1658727079629898,0.023174572736024857,0.15800029039382935,-0.013025698252022266,-0.3296273946762085,-0.9440212249755859,0.24807208776474,0.3118509352207184,0.2339535355567932,0.9846868765946046,0.16729148889396084,0.0017130776656786163,0.049014413794424574
1681143721699020300,2.012020263671875,-0.15297523140907288,0.015164283104240894,0.16164860129356384,-0.01335369423031807,-0.32808640599250793,-0.9445533156394958,0.23793254792690277,0.29303696751594543,0.26260751485824585,0.9847819757032965,0.1664951725660935,0.001641433411695843,0.0498110600737622
1681143721709079600,2.02207958984375,-0.1475631594657898,0.019005626440048218,0.19000115990638733,-0.01377425529062748,-0.3266414999961853,-0.945047914981842,0.22608505189418793,0.2722133696079254,0.3050333261489868,0.9848625055306566,0.16575181044299167,0.0015387060085027722,0.050693512430744915
1681143721719137300,2.03213720703125,-0.17532005906105042,0.0322783887386322,0.22765840590000153,-0.014194841496646404,-0.3251020610332489,-0.9455723762512207,0.20377004146575928,0.2389051616191864,0.352142870426178,0.9849409887092359,0.16495959330242757,0.001460363028779767,0.05174474657663171
1681143721729196300,2.0421962890625,-0.23841753602027893,0.041616495698690414,0.2761399447917938,-0.014677911065518856,-0.3230997622013092,-0.9462510943412781,0.17726030945777893,0.1930033266544342,0.3782426714897156,0.985045410042244,0.1639285827350805,0.001372891054393819,0.05301891467161528
1681143721739254300,2.052254150390625,-0.3003113865852356,0.07655023038387299,0.3132162094116211,-0.015080053359270096,-0.3204972743988037,-0.9471293687820435,0.1555982381105423,0.1483323574066162,0.41194266080856323,0.9851861304512618,0.1625838100551271,0.0013447723520938443,0.054524971924194025
1681143721749313300,2.062313232421875,-0.3438335657119751,0.11099262535572052,0.35156944394111633,-0.015250406228005886,-0.317353218793869,-0.9481847882270813,0.13442155718803406,0.11384671926498413,0.4385870099067688,0.9853568216614166,0.16095188543389527,0.0014499632241807238,0.05625242625549732
1681143721759372300,2.072372314453125,-0.3704998791217804,0.14820869266986847,0.38711869716644287,-0.015190190635621548,-0.3138846457004547,-0.9493396282196045,0.11034400016069412,0.08939731121063232,0.440748929977417,0.9855368869092133,0.15914565143342901,0.0016910677081070768,0.05819640577937255
1681143721769430300,2.08243017578125,-0.42364299297332764,0.184015154838562,0.4302557706832886,-0.014867591671645641,-0.31006088852882385,-0.9506004452705383,0.09494571387767792,0.08044663071632385,0.43828660249710083,0.9857268224909074,0.15714787209480505,0.0020806198948281123,0.0603553743229362
1681143721779489300,2.0924892578125,-0.5435937643051147,0.20224329829216003,0.4601163864135742,-0.014397026039659977,-0.30541855096817017,-0.9521093368530273,0.0847705602645874,0.07452255487442017,0.42626094818115234,0.9859619169487408,0.15472188673106546,0.0025413418632320114,0.0627201471375101
1681143721789547300,2.10254736328125,-0.6942194700241089,0.21513326466083527,0.4918324947357178,-0.013842716813087463,-0.299408495426178,-0.954024612903595,0.07866205275058746,0.06465202569961548,0.41921931505203247,0.9862836526176253,0.15158707664725704,0.0030101457946297224,0.0652444539449274
1681143721799606300,2.112606201171875,-0.8153319358825684,0.22482551634311676,0.5356569290161133,-0.01322370395064354,-0.29207372665405273,-0.9563043713569641,0.07364851236343384,0.03964754939079285,0.4091699719429016,0.9866777124334725,0.1477691369632677,0.003477535204979692,0.06796451915716556
1681143721809664300,2.122664306640625,-0.9020593762397766,0.22549103200435638,0.5690087676048279,-0.012659020721912384,-0.2837066054344177,-0.958827555179596,0.06879610568284988,0.012817323207855225,0.3938709497451782,0.9871107660603062,0.14342625080603388,0.003888898148631896,0.07089555339039233
1681143721819723300,2.13272314453125,-0.9283742308616638,0.23471693694591522,0.6005284786224365,-0.012075799517333508,-0.27474966645240784,-0.9614399671554565,0.07182921469211578,0.0038908720016479492,0.38717544078826904,0.9875460899188866,0.13878644941981821,0.0042825612162534455,0.0739778734790665
1681143721829781200,2.14278125,-0.8640322685241699,0.2460888922214508,0.621640682220459,-0.011397150345146656,-0.26597175002098083,-0.9639134407043457,0.07632330060005188,0.024242013692855835,0.3932347297668457,0.9879250088408331,0.13424222837040736,0.004722741600006754,0.07720588369686358
1681143721839840300,2.15284033203125,-0.766998827457428,0.2810097336769104,0.6404344439506531,-0.010484517551958561,-0.257986456155777,-0.9660916328430176,0.07763844728469849,0.05003967881202698,0.4025235176086426,0.9882097434688581,0.1301003473232576,0.0052989994029903195,0.08054383884146733
1681143721849899300,2.162899169921875,-0.6699625253677368,0.3115556538105011,0.6410586833953857,-0.009167498908936977,-0.2509731948375702,-0.9679506421089172,0.07246095687150955,0.0628628134727478,0.40348225831985474,0.9883972132403354,0.1264415737276766,0.006100699835396436,0.0839412522353444
1681143721859957200,2.172957275390625,-0.5520644187927246,0.35435962677001953,0.6199378967285156,-0.007474597077816725,-0.24496525526046753,-0.9695030450820923,0.06500022858381271,0.07496707141399384,0.4027000665664673,0.9884992005440102,0.1232800836855346,0.007106386031376973,0.08729678957765577
1681143721870016300,2.183016357421875,-0.44097304344177246,0.39494168758392334,0.6141929030418396,-0.005303561687469482,-0.24013058841228485,-0.9707261323928833,0.056344207376241684,0.08279719948768616,0.4008103609085083,0.9885094230271176,0.12069256169529845,0.008381777752421759,0.09062072291702358
1681143721880074200,2.19307421875,-0.4248485565185547,0.4376430809497833,0.5836076140403748,-0.0026725842617452145,-0.23592695593833923,-0.9717671275138855,0.03683701157569885,0.05968792736530304,0.3912312388420105,0.9884684830353084,0.11840001687018224,0.009893314388849227,0.09388108100819648
1681143721890133500,2.203133544921875,-0.4458944499492645,0.476331889629364,0.5495439171791077,0.0004670810012612492,-0.2316754162311554,-0.9727930426597595,0.010885456576943398,0.016129732131958008,0.363555371761322,0.9884283720714265,0.11605334520545506,0.011623399219366209,0.09698433986146815
1681143721900191200,2.213191162109375,-0.4667776823043823,0.4939848482608795,0.5260149836540222,0.003987828269600868,-0.22721980512142181,-0.9738353490829468,-0.009603062644600868,-0.01168707013130188,0.3259471654891968,0.9883948030833498,0.1135779645983592,0.013504731348184503,0.09996738524266818
1681143721910250200,2.223250244140625,-0.4771600067615509,0.5098516941070557,0.5228000283241272,0.007731091696768999,-0.22264888882637024,-0.9748680591583252,-0.012552871368825436,-0.02329230308532715,0.2748100757598877,0.9883564733402025,0.11102568602054098,0.015468559042628924,0.10288524231348052
1681143721920309200,2.233309326171875,-0.49973776936531067,0.5258616209030151,0.5412063598632812,0.011632661335170269,-0.21789473295211792,-0.9759029746055603,-0.005193454213440418,-0.024292781949043274,0.2207912802696228,0.9883044034565532,0.10836309134669724,0.01749192083901204,0.10585718444753674
1681143721930367200,2.2433671875,-0.476846307516098,0.5333222150802612,0.5700755715370178,0.015650983899831772,-0.21315133571624756,-0.9768938422203064,-0.004542585462331772,-0.01728692650794983,0.1849626898765564,0.988218371070756,0.10568840701451868,0.019571505812901933,0.10895641604361198
1681143721940426200,2.25342626953125,-0.43959665298461914,0.5532958507537842,0.590595006942749,0.019750773906707764,-0.20876845717430115,-0.9777656197547913,-0.008566085249185562,-0.012483999133110046,0.15704119205474854,0.9880784167646437,0.10317907851487802,0.021708536644892112,0.11217729328458764
1681143721950484200,2.263484130859375,-0.38305428624153137,0.5926070213317871,0.6177712678909302,0.024134673178195953,-0.2048596292734146,-0.9784937500953674,-0.008326571434736252,-0.027943745255470276,0.11936289072036743,0.9878783741422398,0.1008790360259588,0.024011184976226847,0.11551254363891711
1681143721960543200,2.273543212890625,-0.29907065629959106,0.6549815535545349,0.6602293848991394,0.028961876407265663,-0.20166073739528656,-0.9790271520614624,-0.014481287449598312,-0.009337827563285828,0.0696185827255249,0.9875947077042118,0.09889276307141646,0.026582817901648164,0.11903916965240947
1681143721970601200,2.283601318359375,-0.24694913625717163,0.7223944067955017,0.7151256799697876,0.034388720989227295,-0.19924969971179962,-0.9793452024459839,-0.03167266026139259,0.017776891589164734,0.016775012016296387,0.9872107050893072,0.0972429421127933,0.029516436619756066,0.12283238579251925
1681143721980660200,2.29366015625,-0.3148989677429199,0.726442813873291,0.7379999756813049,0.04010162502527237,-0.19682559370994568,-0.9796180725097656,-0.04525909945368767,0.000414431095123291,-0.055965423583984375,0.986770805302839,0.09554097202557806,0.032602029475700685,0.1268557077705557
1681143721990719200,2.30371923828125,-0.43202054500579834,0.6699201464653015,0.7300741672515869,0.04555993154644966,-0.1934385597705841,-0.9800539612770081,-0.03524499759078026,-0.032208412885665894,-0.15165984630584717,0.9863524709038874,0.0933482845095143,0.035483874371299094,0.13090375865104414
1681143722000777200,2.313777099609375,-0.5098395943641663,0.6033580303192139,0.7058869004249573,0.050456658005714417,-0.18909654021263123,-0.9806613326072693,0.017795898020267487,-0.03903762996196747,-0.2553310990333557,0.985975646797776,0.09069738586119869,0.03799109936731379,0.13484367882372522
1681143722010836500,2.32383642578125,-0.49974969029426575,0.5376487970352173,0.6843917369842529,0.05480019003152847,-0.184435173869133,-0.9813157320022583,0.08330710232257843,-0.022168830037117004,-0.3663099408149719,0.9856137459251567,0.0879132317067313,0.0401669950938601,0.1386486050422091
1681143722020894200,2.333894287109375,-0.40533894300460815,0.45807600021362305,0.6445678472518921,0.0585317499935627,-0.18032708764076233,-0.9818636178970337,0.1237039640545845,0.011122360825538635,-0.4640134572982788,0.9852394835915952,0.08544446031679788,0.04204085261183321,0.1422495207948443
1681143722030953200,2.343953125,-0.3017675578594208,0.3725224733352661,0.6183671355247498,0.061494868248701096,-0.17723971605300903,-0.982244610786438,0.1552104502916336,0.04973725974559784,-0.5235689878463745,0.98484391940254,0.08354097699855571,0.043572954779469465,0.1456186639716128
1681143722041011500,2.354011474609375,-0.2680109739303589,0.3019452691078186,0.6072408556938171,0.06374764442443848,-0.17489345371723175,-0.9825215339660645,0.19749808311462402,0.07531456649303436,-0.535834789276123,0.9844317087487239,0.08205817117912427,0.044785051700493045,0.14884564438741246
1681143722051070200,2.3640703125,-0.38065123558044434,0.24738135933876038,0.6250603795051575,0.0654199868440628,-0.1721845418214798,-0.9828900098800659,0.2438603937625885,0.06436590850353241,-0.4822894334793091,0.9840310718872771,0.08043104288857832,0.04567117843012164,0.15207888887331344
1681143722061128400,2.37412841796875,-0.6035284996032715,0.20106294751167297,0.6471996903419495,0.0665653720498085,-0.1678050309419632,-0.9835702776908875,0.2628871500492096,0.015034005045890808,-0.39408475160598755,0.9836809456253134,0.07800111493531656,0.046159276564687365,0.15542491311383624
1681143722071187200,2.384187255859375,-0.861349880695343,0.1744515746831894,0.6783663630485535,0.06739121675491333,-0.1610378921031952,-0.9846447110176086,0.25366896390914917,-0.0451694130897522,-0.30510443449020386,0.9833933316625691,0.07439759755482853,0.04628862388603295,0.15893411110614145
1681143722081246500,2.39424658203125,-1.0652263164520264,0.16481679677963257,0.7346930503845215,0.06797123700380325,-0.1519428938627243,-0.9860492944717407,0.21269892156124115,-0.09775196015834808,-0.230457603931427,0.9831322372978241,0.06964588976380029,0.046095432903086694,0.16271294905238315
1681143722091304200,2.40430419921875,-1.2479183673858643,0.2175508439540863,0.7894758582115173,0.06869589537382126,-0.14099843800067902,-0.9876235723495483,0.12446511536836624,-0.11174815893173218,-0.19304049015045166,0.9828449370153012,0.06395579764102853,0.04580253239590228,0.16681584346580972
1681143722101363200,2.41436328125,-1.3874574899673462,0.29345813393592834,0.8476966023445129,0.07013999670743942,-0.12842963635921478,-0.9892351627349854,0.01384437084197998,-0.1288946121931076,-0.20597052574157715,0.9824946824619067,0.05739439200270091,0.045697938101514284,0.17123596537828165
1681143722111421400,2.42442138671875,-1.5048741102218628,0.36032184958457947,0.8971570730209351,0.0723450556397438,-0.11463340371847153,-0.9907701015472412,-0.1176941841840744,-0.13290995359420776,-0.2453901767730713,0.9820471845728461,0.05015357776336747,0.04582109102385082,0.17597836253694565
1681143722121480200,2.434480224609375,-1.514467716217041,0.389119029045105,0.8911346793174744,0.0751643180847168,-0.1001679003238678,-0.9921273589134216,-0.2621607780456543,-0.09770810604095459,-0.30688387155532837,0.9815060624770613,0.04252806474390823,0.04612676583602238,0.18085800751758016
1681143722131538200,2.4445380859375,-1.4166700839996338,0.3557019531726837,0.7739010453224182,0.0781395211815834,-0.08613143861293793,-0.9932147860527039,-0.3593132495880127,-0.032993949949741364,-0.39121514558792114,0.9809320194425782,0.035119457473548825,0.04646757993083301,0.18541786332174123
1681143722141597200,2.45459716796875,-1.2023228406906128,0.2703888714313507,0.5401527881622314,0.0807538628578186,-0.0735262781381607,-0.9940184354782104,-0.3887525200843811,0.036416880786418915,-0.4935150742530823,0.9804434648209035,0.02849614468801714,0.04667696642634855,0.1890499548947976
1681143722151656200,2.46465625,-0.9197487235069275,0.15857180953025818,0.2294745296239853,0.08265161514282227,-0.06321300566196442,-0.9945716857910156,-0.36199426651000977,0.13917124271392822,-0.5966758728027344,0.980159656086686,0.02313907159817187,0.04667701375524202,0.19124014220770758
1681143722161714400,2.47471435546875,-0.6277904510498047,0.07792338728904724,-0.074647918343544,0.0837768167257309,-0.055549293756484985,-0.9949350357055664,-0.3139404058456421,0.2318493127822876,-0.6354055404663086,0.9801420432951011,0.01923741062457691,0.04650166877747267,0.19180499230068407
1681143722171773200,2.484773193359375,-0.47523608803749084,0.03550908714532852,-0.32149016857147217,0.0844445750117302,-0.04997657239437103,-0.9951741099357605,-0.2876763939857483,0.26161596179008484,-0.5777629017829895,0.98036795571173,0.01647469433919212,0.04627680679440629,0.19096011570977667
1681143722181831400,2.49483154296875,-0.48093706369400024,0.030143849551677704,-0.5421966314315796,0.08497399091720581,-0.044859595596790314,-0.9953728318214417,-0.3017556071281433,0.22210566699504852,-0.45730966329574585,0.980811179723935,0.014004580574442767,0.04601592282056655,0.18893348686422295
1681143722191890200,2.50489013671875,-0.5322271585464478,0.026650048792362213,-0.7111766338348389,0.08554022014141083,-0.03925346955657005,-0.9955611824989319,-0.3082727789878845,0.16497060656547546,-0.3117355704307556,0.9814292474129308,0.011334322946346773,0.04572690547346757,0.18594959056852023
1681143722201948200,2.5149482421875,-0.5783894062042236,0.0024776672944426537,-0.8350566029548645,0.0859794020652771,-0.033013783395290375,-0.9957497715950012,-0.2835654616355896,0.11441940069198608,-0.18019932508468628,0.9821731003666662,0.008396084615398949,0.04532784701008118,0.18223858605789553
1681143722212007200,2.525007080078125,-0.6081510186195374,-0.027926845476031303,-0.920188844203949,0.08611815422773361,-0.02631576918065548,-0.9959373474121094,-0.2418035864830017,0.07985883951187134,-0.10463333129882812,0.9829920776668908,0.005278929649819101,0.04476017078514553,0.17803191152363185
1681143722222066200,2.535066162109375,-0.6167905926704407,-0.06814977526664734,-1.009886384010315,0.08588303625583649,-0.01931595988571644,-0.9961179494857788,-0.21069994568824768,0.067457415163517,-0.06783163547515869,0.9838656235484254,0.002060109194610021,0.044008796177173196,0.17339962996113636
1681143722232124400,2.54512451171875,-0.569690465927124,-0.14114037156105042,-1.0782934427261353,0.08505190163850784,-0.012439824640750885,-0.9962988495826721,-0.19496095180511475,0.0642281323671341,-0.04944700002670288,0.9847860713333547,-0.0010363942684277396,0.04300574614216628,0.16836212526331798
1681143722242183200,2.55518310546875,-0.49473199248313904,-0.21437706053256989,-1.1575274467468262,0.08337047696113586,-0.00616036681458354,-0.9964995980262756,-0.17562511563301086,0.05761297792196274,-0.061041295528411865,0.9857477556044252,-0.0037627065230886993,0.041665957666488854,0.16294508334940827
1681143722252241400,2.565241455078125,-0.3895070254802704,-0.27748653292655945,-1.2165873050689697,0.08093763142824173,-0.000729713006876409,-0.9967188835144043,-0.14288832247257233,0.03347504884004593,-0.0698094367980957,0.9867437142350249,-0.00600951897334823,0.0400554061626526,0.15715011224645253
1681143722262300200,2.575300048828125,-0.24344609677791595,-0.30811017751693726,-1.250218152999878,0.0779547467827797,0.00345755647867918,-0.9969509243965149,-0.1367773860692978,0.0006012576632201672,-0.05436438322067261,0.9877501279487859,-0.007607892785830122,0.038297109286927394,0.15107977880189286
1681143722272358100,2.585358154296875,-0.056894849985837936,-0.31556063890457153,-1.2534294128417969,0.07477185130119324,0.005928036756813526,-0.9971830248832703,-0.14714430272579193,-0.02750398963689804,-0.01860976219177246,0.9887355018137359,-0.008359323960621862,0.036586860128983247,0.14489196439565355
1681143722282417400,2.59541748046875,0.12850821018218994,-0.3049567937850952,-1.2314732074737549,0.07158217579126358,0.0064816903322935104,-0.9974136352539062,-0.14386308193206787,-0.04598671942949295,0.040687620639801025,0.9896804566603705,-0.008182429011493157,0.03501749868631509,0.13870622198689217
1681143722292476200,2.60547607421875,0.27790355682373047,-0.2983713448047638,-1.1668646335601807,0.0684751570224762,0.005237010773271322,-0.9976390600204468,-0.1329587996006012,-0.06338828057050705,0.11557424068450928,0.9905612953272346,-0.00714536666962699,0.03360662830386389,0.13269460519469317
1681143722302534400,2.615534423828125,0.35787975788116455,-0.28965604305267334,-1.0844662189483643,0.06549084931612015,0.002774263499304652,-0.9978492856025696,-0.12860120832920074,-0.09010034054517746,0.19441306591033936,0.9913553118157544,-0.005541102297250569,0.03232088093978157,0.12704076561154692
1681143722312593200,2.62559326171875,0.4051663279533386,-0.28397953510284424,-0.996910035610199,0.06261484324932098,-0.00041385929216630757,-0.9980376958847046,-0.12793773412704468,-0.11569029092788696,0.2507995367050171,0.9920611094707461,-0.00361128473024146,0.031114609130369564,0.12179310268338772
1681143722322651100,2.635651123046875,0.41958633065223694,-0.29645678400993347,-0.9185537099838257,0.05971529334783554,-0.003953520208597183,-0.9982076287269592,-0.11591341346502304,-0.1407303363084793,0.28772789239883423,0.992685831555306,-0.001531091375838996,0.029897249562688657,0.11695566841668045
1681143722332710100,2.645710205078125,0.41360461711883545,-0.3182443678379059,-0.8335900902748108,0.05669063702225685,-0.007625835482031107,-0.99836266040802,-0.09361691027879715,-0.16080069541931152,0.3153640031814575,0.9932380596493564,0.000598367212872919,0.02860607570917821,0.1125144402862362
1681143722342768000,2.65576806640625,0.3752388656139374,-0.34995943307876587,-0.7554705142974854,0.0534043088555336,-0.011167770251631737,-0.9985105395317078,-0.0769486278295517,-0.1679399162530899,0.33177775144577026,0.9937218333572201,0.002653632431061586,0.027160591377029978,0.10849957363771925
1681143722352827400,2.665827392578125,0.31328919529914856,-0.39158517122268677,-0.6816021203994751,0.04977063462138176,-0.014245719648897648,-0.998659074306488,-0.06141309067606926,-0.16303092241287231,0.33764833211898804,0.9941504743905345,0.004474850615991824,0.02550371079576345,0.10485473513551492
1681143722362885000,2.675885009765625,0.256062775850296,-0.42191070318222046,-0.6251469850540161,0.04579094424843788,-0.016797443851828575,-0.998809814453125,-0.05210808664560318,-0.14830267429351807,0.34393310546875,0.9945318412536208,0.0060314649555055335,0.023637189778994542,0.1015449702373925
1681143722372944400,2.6859443359375,0.22825829684734344,-0.45842182636260986,-0.5927749276161194,0.04146863892674446,-0.018928715959191322,-0.9989604949951172,-0.05062391608953476,-0.12696059048175812,0.3483104705810547,0.9948797204956041,0.007378205035574782,0.021571238564907412,0.09846128446670761
1681143722383003100,2.696003173828125,0.2644994556903839,-0.4706045091152191,-0.5819776654243469,0.03688805550336838,-0.021130872890353203,-0.9990959763526917,-0.055366452783346176,-0.09771986305713654,0.34740835428237915,0.9952043973649041,0.008757705494629448,0.01937311303991183,0.09547920097652511
1681143722393061000,2.70606103515625,0.3526783287525177,-0.4585297107696533,-0.5822381377220154,0.03234686702489853,-0.024034572765231133,-0.999187707901001,-0.05863776057958603,-0.05909533426165581,0.3415796756744385,0.9955059091783569,0.010471012014044517,0.01721969894271796,0.09252960568112666
1681143722403120400,2.716120361328125,0.4431670904159546,-0.4376744031906128,-0.5872604250907898,0.02798168547451496,-0.027854569256305695,-0.9992202520370483,-0.06152050569653511,-0.027962103486061096,0.3399185538291931,0.9957873266344835,0.012620755545875377,0.015184906843021652,0.0895425980245774
1681143722413178000,2.72617822265625,0.5089559555053711,-0.42178863286972046,-0.577599823474884,0.023859186097979546,-0.03254534676671028,-0.9991854429244995,-0.0792485922574997,-0.01458907499909401,0.3349703550338745,0.9960418548367118,0.015181778778847129,0.013296413643565534,0.08656371884930647
1681143722423237400,2.7362373046875,0.538451611995697,-0.40189328789711,-0.5721809267997742,0.019919630140066147,-0.03770379349589348,-0.9990903735160828,-0.08830952644348145,-0.027176599949598312,0.31723618507385254,0.9962694396196344,0.01795688866482835,0.011504300429389198,0.08362069587579506
1681143722433295400,2.74629541015625,0.5041421055793762,-0.3770214915275574,-0.5665451884269714,0.01623660698533058,-0.04288838058710098,-0.9989479184150696,-0.07505923509597778,-0.05554609000682831,0.3004615902900696,0.9964747623358055,0.0207243718190622,0.009825339010256872,0.08069720826184301
1681143722443354400,2.756354248046875,0.45795920491218567,-0.3554157316684723,-0.5645782351493835,0.012812442146241665,-0.04764498397707939,-0.9987821578979492,-0.06754571944475174,-0.0620809942483902,0.2712278366088867,0.9966634537707123,0.02325875339621242,0.008243295431457178,0.07780169426502866
1681143722453413400,2.766413330078125,0.42758211493492126,-0.3607740104198456,-0.5618144273757935,0.009531830437481403,-0.05206760764122009,-0.9985980987548828,-0.08333859592676163,-0.036143478006124496,0.2181415557861328,0.9968374844648358,0.02561232597591966,0.006706186404158373,0.07492730645852808
1681143722463471000,2.77647119140625,0.3886425793170929,-0.39451369643211365,-0.592890739440918,0.006051365286111832,-0.05618056654930115,-0.9984022974967957,-0.09505587816238403,-0.020540650933980942,0.13060444593429565,0.9970052014570198,0.027810569108481637,0.005042727235907567,0.07198495812638966
1681143722473530400,2.7865302734375,0.4022044539451599,-0.4403744041919708,-0.6396436095237732,0.002237818669527769,-0.06016567349433899,-0.9981858730316162,-0.07717373222112656,-0.024383295327425003,0.014940083026885986,0.9971739404576259,0.029947973023747815,0.003189148189346825,0.06882689930801913
1681143722483588000,2.796588134765625,0.48159629106521606,-0.4854195713996887,-0.6593558192253113,-0.001995047787204385,-0.064579539000988,-0.9979105591773987,-0.04866413027048111,-0.008388005197048187,-0.09683120250701904,0.9973300194038611,0.03230262455312379,0.00112077495508486,0.0654840423230194
1681143722493647400,2.8066474609375,0.625667929649353,-0.5352808833122253,-0.6637862920761108,-0.0066703977063298225,-0.0702705830335617,-0.9975056648254395,-0.04151685908436775,0.034656547009944916,-0.21486616134643555,0.9974458523603483,0.035296639733357386,-0.0011467349952229955,0.06208502282765996
1681143722503705300,2.816705322265625,0.7107165455818176,-0.5785407423973083,-0.6891251802444458,-0.0117638623341918,-0.07706815004348755,-0.9969564080238342,-0.037796683609485626,0.06116846948862076,-0.3122628927230835,0.9975186250367665,0.03884229014564467,-0.0036144369784910806,0.058607842052601986
1681143722513764400,2.826764404296875,0.7879447340965271,-0.5928518176078796,-0.7434437870979309,-0.017090361565351486,-0.0846923366189003,-0.9962605834007263,-0.029509978368878365,0.07858879864215851,-0.3757029175758362,0.9975549698531474,0.04279179883664636,-0.006210960248380151,0.054903206317584684
1681143722523823400,2.8368232421875,0.8887983560562134,-0.5759601593017578,-0.7812132239341736,-0.022266535088419914,-0.09326312690973282,-0.9953925013542175,-0.017650457099080086,0.09333939850330353,-0.41776973009109497,0.9975460727203818,0.04719332648016588,-0.008749268634009771,0.050970522628092
1681143722533881000,2.846881103515625,0.9776126146316528,-0.5192379951477051,-0.7987775802612305,-0.026975179091095924,-0.10280127078294754,-0.9943360686302185,-0.008791420608758926,0.07721226662397385,-0.4448270797729492,0.9974803067330279,0.05205131229554037,-0.01107345291186055,0.04691597886088122
1681143722543940400,2.8569404296875,1.055023431777954,-0.4419171214103699,-0.8009148836135864,-0.030897343531250954,-0.1132003590464592,-0.9930916428565979,-0.015443598851561546,0.05224147439002991,-0.4907035231590271,0.9973523688557748,0.05730988245500814,-0.013028830111650626,0.042825716316544374
1681143722553998300,2.866998291015625,1.1389838457107544,-0.3663643002510071,-0.7863649129867554,-0.03395897522568703,-0.12439381331205368,-0.9916516542434692,-0.022483285516500473,0.02168688178062439,-0.5328539609909058,0.9971565692492212,0.06294140811415233,-0.01457947222415022,0.03878957364979432
1681143722564057300,2.877057373046875,1.1831061840057373,-0.3028903305530548,-0.7324044108390808,-0.03627588599920273,-0.13629361987113953,-0.9900041222572327,-0.0006808973848819733,-0.005735218524932861,-0.5439314246177673,0.9968854413919364,0.0689129039320195,-0.015778572220358094,0.03495011496006023
1681143722574115300,2.887115234375,1.156248688697815,-0.2767399549484253,-0.6388483643531799,-0.038147155195474625,-0.14821618795394897,-0.9882189631462097,0.028976626694202423,0.0030440539121627808,-0.5560620427131653,0.9965526208785165,0.07489463697807969,-0.016772074562734485,0.03150189490484152
1681143722584174000,2.897174072265625,1.0351393222808838,-0.3068998456001282,-0.4997604191303253,-0.04012126475572586,-0.15939739346504211,-0.9863988757133484,0.05568523332476616,0.03441263735294342,-0.5667780041694641,0.9961826826826464,0.08051625672048059,-0.017823934676716714,0.028624506074266278
1681143722594232300,2.907232421875,0.8309628367424011,-0.369038850069046,-0.36023715138435364,-0.04272935539484024,-0.1688666194677353,-0.9847123026847839,0.09402941167354584,0.0414404422044754,-0.5619948506355286,0.9958202353159055,0.0852969362530507,-0.01919098324294817,0.02642425180609117
1681143722604291300,2.917291259765625,0.5951937437057495,-0.4498124122619629,-0.24840287864208221,-0.0462585985660553,-0.176048144698143,-0.9832940697669983,0.1542450487613678,0.010246127843856812,-0.5519384741783142,0.9955057416787566,0.08894522138462513,-0.021017153309253748,0.02480854695185932
1681143722614350300,2.927350341796875,0.3870006203651428,-0.5023634433746338,-0.16211912035942078,-0.05062682181596756,-0.18097904324531555,-0.982183039188385,0.22857481241226196,-0.017369970679283142,-0.5120338797569275,0.995255673650182,0.0914728292305979,-0.023263839038100798,0.023612937819367654
1681143722624408300,2.937408203125,0.25786611437797546,-0.5118978023529053,-0.0565597265958786,-0.055443841964006424,-0.18414674699306488,-0.9813337922096252,0.2959834039211273,-0.023189693689346313,-0.44212812185287476,0.9950600404763978,0.09312126511495414,-0.025720577169062207,0.02285624179715355
1681143722634467300,2.94746728515625,0.20775316655635834,-0.5086718797683716,0.06804052740335464,-0.060489967465400696,-0.18640896677970886,-0.9806082844734192,0.3132670819759369,-0.0029221028089523315,-0.37020647525787354,0.9948820423636667,0.09432764770255697,-0.028251371940776412,0.022667817686845164
1681143722644525300,2.957525390625,0.18789608776569366,-0.49155208468437195,0.19683818519115448,-0.06566444784402847,-0.18827809393405914,-0.9799181222915649,0.27751749753952026,0.033172473311424255,-0.29547250270843506,0.994698053575107,0.09535664705958391,-0.03079035647137007,0.0231249473376934
1681143722654584000,2.967583984375,0.16118405759334564,-0.4141709804534912,0.2918214499950409,-0.0706334039568901,-0.18980219960212708,-0.9792783260345459,0.2344670295715332,0.07975578308105469,-0.2316133975982666,0.9945121189161276,0.09623136666085909,-0.033171661711761946,0.02418215700990004
1681143722664642300,2.977642333984375,0.21953672170639038,-0.3651331067085266,0.336132675409317,-0.0750851109623909,-0.1913657784461975,-0.9786425828933716,0.2087673544883728,0.15152506530284882,-0.19109612703323364,0.9943167445132746,0.09713756236531207,-0.035256039292773655,0.025601668254658608
1681143722674701300,2.987701416015625,0.35379651188850403,-0.2912543714046478,0.3229670822620392,-0.07898326218128204,-0.19387707114219666,-0.9778411388397217,0.18352124094963074,0.25704842805862427,-0.15944218635559082,0.9940735413660953,0.09852875056747185,-0.03703388899256021,0.02717199831532468
1681143722684760300,2.99776025390625,0.5891451239585876,-0.22070525586605072,0.20941060781478882,-0.08202805370092392,-0.19823646545410156,-0.9767157435417175,0.15971055626869202,0.36045265197753906,-0.1260826587677002,0.993753703092991,0.10084143317763362,-0.038381238613187124,0.028485619595284093
1681143722694818300,3.007818359375,0.8485966920852661,-0.18404631316661835,0.08988499641418457,-0.08430267125368118,-0.2051987648010254,-0.9750828146934509,0.15669037401676178,0.4355149269104004,-0.1435084342956543,0.9933201872014744,0.10444878506148479,-0.03935781490072078,0.029262410681980478
1681143722704877300,3.017877197265625,0.9923694729804993,-0.16687242686748505,0.03418370336294174,-0.08612323552370071,-0.21425442397594452,-0.9729737043380737,0.1832149177789688,0.4455623924732208,-0.149539053440094,0.9927779110217954,0.10910455244962582,-0.040116600073995846,0.02964810181980649
1681143722714935300,3.027935302734375,0.9534868001937866,-0.15309296548366547,0.043224070221185684,-0.08775355666875839,-0.22385276854038239,-0.9706643223762512,0.2270815670490265,0.3986269235610962,-0.133278489112854,0.9921873460329557,0.11403829883069079,-0.04078111663670882,0.029939688277848753
1681143722724994300,3.037994384765625,0.7598308324813843,-0.15412637591362,0.10729402303695679,-0.0893973782658577,-0.23222528398036957,-0.9685450792312622,0.2616385817527771,0.3125627636909485,-0.05911910533905029,0.9916395520301462,0.1183618183512497,-0.04144816361257777,0.030390294995509604
1681143722735052500,3.048052490234375,0.49228033423423767,-0.16157206892967224,0.20984677970409393,-0.09129262715578079,-0.23819173872470856,-0.9669179916381836,0.2834923267364502,0.22073565423488617,0.040495872497558594,0.9912040477112339,0.12148192546687157,-0.04222747223983251,0.03120030874583744
1681143722745111600,3.058111572265625,0.251716285943985,-0.17402206361293793,0.3219074606895447,-0.09355954080820084,-0.2415025532245636,-0.9658794403076172,0.3065264821052551,0.1627214252948761,0.13937193155288696,0.9909004455366783,0.123275857081221,-0.04316633866965737,0.032498046177793144
1681143722755170600,3.068170654296875,0.07285811007022858,-0.18169516324996948,0.45041751861572266,-0.09623443335294724,-0.24268481135368347,-0.9653201699256897,0.32087433338165283,0.13717027008533478,0.2188296914100647,0.9906969496669552,0.12401659651418814,-0.04426966391569331,0.03434536771859648
1681143722765228500,3.078228515625,-0.0603751540184021,-0.2051849365234375,0.5500007271766663,-0.09932246059179306,-0.24218933284282684,-0.9651318192481995,0.31373897194862366,0.12495602667331696,0.27451902627944946,0.9905637734880633,0.12393686165786026,-0.045538547557931366,0.03673157369834049
1681143722775287600,3.08828759765625,-0.10856984555721283,-0.2317049503326416,0.6325554847717285,-0.10286460071802139,-0.24074704945087433,-0.9651216268539429,0.2977346181869507,0.13469843566417694,0.30726945400238037,0.9904539704693953,0.12340917826466566,-0.047003887779817115,0.03951986000365916
1681143722785345500,3.098345458984375,-0.1655873954296112,-0.2570364773273468,0.7313585877418518,-0.1068895161151886,-0.23872044682502747,-0.965187668800354,0.2760637104511261,0.16468478739261627,0.324196457862854,0.9903366369928231,0.12262582129341928,-0.04867326784732936,0.042746608033396895
1681143722795404500,3.108404541015625,-0.248520627617836,-0.2674560844898224,0.7836859822273254,-0.11126163601875305,-0.23588305711746216,-0.9653911590576172,0.24775150418281555,0.18609361350536346,0.3321971893310547,0.9902270221483812,0.1214679485876057,-0.05049724577430806,0.04632563986380033
1681143722805462500,3.118462646484375,-0.3146115243434906,-0.283625990152359,0.8069990277290344,-0.115817591547966,-0.23221930861473083,-0.9657434821128845,0.221683070063591,0.19094426929950714,0.340789258480072,0.9901345815886665,0.11991664864016266,-0.05242379875798428,0.05005293720450785
1681143722815521500,3.128521484375,-0.37020233273506165,-0.30449745059013367,0.8210408091545105,-0.12059061229228973,-0.22789913415908813,-0.9661883115768433,0.19873088598251343,0.17823176085948944,0.34475892782211304,0.9900484119251836,0.11805752767669568,-0.05448167998326631,0.05383649644469765
1681143722825580500,3.13858056640625,-0.4047622084617615,-0.30190685391426086,0.8084686994552612,-0.1254030466079712,-0.22312277555465698,-0.9666903614997864,0.19293846189975739,0.17392843961715698,0.34878575801849365,0.989962677645775,0.11598564243690865,-0.056587442592160135,0.05761116841546459
1681143722835638500,3.148638427734375,-0.46687883138656616,-0.2849864661693573,0.7885716557502747,-0.13005277514457703,-0.21788230538368225,-0.9672712087631226,0.19299529492855072,0.16351522505283356,0.37306344509124756,0.9898887677304884,0.11368511935567446,-0.05865232118096928,0.0612843367986238
1681143722845697300,3.158697265625,-0.5523476600646973,-0.24949735403060913,0.7604773044586182,-0.13433492183685303,-0.21187739074230194,-0.9680196642875671,0.17940939962863922,0.11733391880989075,0.41142481565475464,0.9898514203816119,0.11099342974159086,-0.06058562923183943,0.06483890071301088
1681143722855755500,3.168755615234375,-0.6121542453765869,-0.206115260720253,0.7583217620849609,-0.1381535679101944,-0.2051447331905365,-0.968932032585144,0.1559758335351944,0.0662439614534378,0.44869887828826904,0.9898486923884191,0.1079260034937181,-0.06233756885688762,0.06830624986830836
1681143722865814500,3.178814453125,-0.6560443043708801,-0.14442110061645508,0.7658237218856812,-0.1414111703634262,-0.19788262248039246,-0.9699718356132507,0.1362842172384262,0.015448525547981262,0.49141043424606323,0.9898643938975433,0.10458497951372098,-0.06384408974429083,0.07179419526379922
1681143722875872500,3.18887255859375,-0.6898193359375,-0.07515787333250046,0.7921413779258728,-0.14400692284107208,-0.19016419351100922,-0.9711331725120544,0.11278744041919708,-0.03265993297100067,0.5352506041526794,0.9898903589349346,0.10100707656391018,-0.06504611885123036,0.0753901410787844
1681143722885931500,3.198931640625,-0.6810207962989807,0.022544536739587784,0.7979405522346497,-0.1457521915435791,-0.1822771281003952,-0.9723843336105347,0.0880892425775528,-0.053394898772239685,0.5748929381370544,0.9899146036662354,0.09732985024186794,-0.0658385899836367,0.07912801117124559
1681143722895990500,3.208990478515625,-0.6429426074028015,0.1255050003528595,0.7603622674942017,-0.14641155302524567,-0.17462405562400818,-0.9736889004707336,0.07208602130413055,-0.06077328324317932,0.6055248975753784,0.9899408282665352,0.09373084633191066,-0.06610652425183339,0.0828354017458869
1681143722906048500,3.219048583984375,-0.5976707935333252,0.21672001481056213,0.7077016234397888,-0.1459570676088333,-0.1674654483795166,-0.975013792514801,0.05239017307758331,-0.04055763781070709,0.592201292514801,0.98997426436797,0.09032404649952384,-0.06583827902264372,0.08635942157710437
1681143722916107500,3.229107421875,-0.5767050385475159,0.28446149826049805,0.6501251459121704,-0.14451459050178528,-0.16069696843624115,-0.9763667583465576,0.03852704167366028,0.002142876386642456,0.5518367290496826,0.9900231977135855,0.08705356456596715,-0.06510226281531666,0.08965219879232719
1681143722926165500,3.23916552734375,-0.5654265284538269,0.3157065212726593,0.6348931789398193,-0.14253602921962738,-0.15415999293327332,-0.9777106642723083,0.023807406425476074,0.02040143311023712,0.5027198791503906,0.9900737774135617,0.08386216983472866,-0.06412328443175845,0.09278597685813164
1681143722936224500,3.249224609375,-0.5932387113571167,0.32807186245918274,0.6272535920143127,-0.14030829071998596,-0.14757134020328522,-0.9790486693382263,0.001300722360610962,0.00453542172908783,0.4421071410179138,0.990116838405208,0.08062743690628214,-0.0630466917649153,0.09587997392902106
1681143722946282800,3.25928271484375,-0.6589807868003845,0.3179420530796051,0.6027101874351501,-0.1380138099193573,-0.1405622363090515,-0.9804052710533142,-0.0048694908618927,-0.019853442907333374,0.3965277075767517,0.9901643825904497,0.07716928120949501,-0.06198611159943605,0.09887954018248266
1681143722956341500,3.269341552734375,-0.7318320870399475,0.33393537998199463,0.5951271057128906,-0.13562455773353577,-0.13286760449409485,-0.9818106889724731,-0.0023454129695892334,-0.02841782569885254,0.36639320850372314,0.990228919210952,0.07335133374053686,-0.06094464428464323,0.10174497178661829
1681143722966400500,3.279400390625,-0.7660216093063354,0.3548882305622101,0.6145275831222534,-0.1329999566078186,-0.12465007603168488,-0.9832463264465332,0.009144395589828491,-0.012984216213226318,0.3453832268714905,0.9902887794136455,0.06925909534585051,-0.0598331535051053,0.1046487963952952
1681143722976458500,3.28945849609375,-0.8135305047035217,0.38597822189331055,0.6409362554550171,-0.13009843230247498,-0.11601786315441132,-0.9846899509429932,0.015153974294662476,-0.008448101580142975,0.33111023902893066,0.9903303023188695,0.06494845332913132,-0.05862367122413854,0.10766109447811804
1681143722986517500,3.299517578125,-0.8607856631278992,0.4398764669895172,0.6427478194236755,-0.12673349678516388,-0.10685399919748306,-0.9861646890640259,0.004861563444137573,-0.03645656257867813,0.30186909437179565,0.9903619761939209,0.0603473945681918,-0.05723490399961121,0.11075002144398094
1681143722996575500,3.309575439453125,-0.807670533657074,0.4961607754230499,0.6317920684814453,-0.1227327510714531,-0.09770885854959488,-0.9876181483268738,-0.007302634418010712,-0.056862689554691315,0.27933573722839355,0.9903802330874354,0.05571437812972989,-0.055559190475671455,0.11382435358198112
1681143723006634500,3.319634521484375,-0.6908324956893921,0.5385466814041138,0.6189460158348083,-0.1181861087679863,-0.08949031680822372,-0.9889507293701172,-0.007225878536701202,-0.06453192234039307,0.2575664520263672,0.9903615523792298,0.05150482200643316,-0.053590050552974555,0.11687313078929047
1681143723016692500,3.3296923828125,-0.5883666276931763,0.5887760519981384,0.5945224165916443,-0.11310891062021255,-0.08244603127241135,-0.9901560544967651,0.002146996557712555,-0.08425626158714294,0.20042216777801514,0.990307617859724,0.04783810280848757,-0.05131749683222896,0.11986986096548106
1681143723026751500,3.33975146484375,-0.5047184228897095,0.6139461994171143,0.576242983341217,-0.10754771530628204,-0.07634824514389038,-0.9912640452384949,0.01099010556936264,-0.08859927952289581,0.13033270835876465,0.9902305333742989,0.04459846722544373,-0.048774453459146744,0.12278231578920647
1681143723036810500,3.349810546875,-0.46240127086639404,0.6196778416633606,0.5663275122642517,-0.1018223762512207,-0.07096383720636368,-0.9922682642936707,0.008087635040283203,-0.09671501815319061,0.059193313121795654,0.9901258392850991,0.04168910911367329,-0.04612893967894538,0.1256379412988893
1681143723046868500,3.359868408203125,-0.4704996347427368,0.6338706612586975,0.5801529884338379,-0.09596247971057892,-0.06574739515781403,-0.9932112097740173,0.0053863078355789185,-0.12864959239959717,-0.010740816593170166,0.9899963094194025,0.038842391478268755,-0.04342430181481777,0.12850240641063496
1681143723056927500,3.369927490234375,-0.5008580684661865,0.6426482200622559,0.6283628344535828,-0.08995474874973297,-0.06035175174474716,-0.9941155910491943,-0.003856286406517029,-0.15655195713043213,-0.07166504859924316,0.9898293718477088,0.03588967421818595,-0.040671064249212636,0.13151309286008314
1681143723066985700,3.37998583984375,-0.5938587188720703,0.6360344886779785,0.6939405202865601,-0.08393920958042145,-0.05432722344994545,-0.9949887990951538,-0.031157828867435455,-0.19452838599681854,-0.11781936883926392,0.9896062582261774,0.03262096036603541,-0.03796657110577899,0.13481055747532536
1681143723077044500,3.39004443359375,-0.6950343251228333,0.6140748262405396,0.7182953953742981,-0.07801716029644012,-0.04727516695857048,-0.9958304762840271,-0.058915212750434875,-0.2490352839231491,-0.1472817063331604,0.9893358413537825,0.028840954876399993,-0.03539703093779636,0.13831123210614293
1681143723087102500,3.4001025390625,-0.7305718064308167,0.5724650621414185,0.6952750086784363,-0.07236162573099136,-0.039561036974191666,-0.9965935349464417,-0.07479413598775864,-0.268697053194046,-0.17982858419418335,0.9890338893928424,0.024736358830995914,-0.03303534068237177,0.14180506392377146
1681143723097161500,3.410161376953125,-0.6627975702285767,0.5077263116836548,0.6052047610282898,-0.06716810911893845,-0.0320393331348896,-0.997227132320404,-0.07869065552949905,-0.2369273602962494,-0.25307804346084595,0.9887299319614785,0.020737750560381046,-0.030925499623015343,0.1450055254092992
1681143723107220500,3.420220458984375,-0.5084957480430603,0.42453035712242126,0.47959503531455994,-0.06265746802091599,-0.02578161284327507,-0.9977020621299744,-0.06952942907810211,-0.15654568374156952,-0.34966427087783813,0.9884545393247914,0.017388494001694718,-0.029096785456891493,0.14767712188928206
1681143723117278500,3.430278564453125,-0.37800461053848267,0.3221443295478821,0.33577316999435425,-0.058988358825445175,-0.021121177822351456,-0.998035192489624,-0.05780241638422012,-0.07737433165311813,-0.4438135623931885,0.9882404658648132,0.014865128897219238,-0.027593942800063283,0.14966084931626258
1681143723127337500,3.44033740234375,-0.35358673334121704,0.2234984189271927,0.22298163175582886,-0.056319478899240494,-0.01739400066435337,-0.9982612729072571,-0.036606550216674805,-0.03660687804222107,-0.5151817202568054,0.9880919809025901,0.012857093388906126,-0.026534123666473976,0.15101274746069776
1681143723137395700,3.450395751953125,-0.48385605216026306,0.17880338430404663,0.1422625482082367,-0.05438864603638649,-0.013196160085499287,-0.9984326362609863,-0.009683012962341309,-0.06737026572227478,-0.5298266410827637,0.988004631383092,0.010657175920126202,-0.02588637809528719,0.15186593482612787
1681143723147454500,3.460454345703125,-0.7075517177581787,0.1919609159231186,0.11883089691400528,-0.05255722999572754,-0.00718707824125886,-0.9985920786857605,-0.01165175810456276,-0.15304549038410187,-0.476032555103302,0.9879599181751726,0.007560935942348663,-0.025432398694021925,0.1524182866933515
1681143723157512400,3.470512451171875,-0.9605181813240051,0.24673467874526978,0.1629975438117981,-0.05037243664264679,0.0012945726048201323,-0.9987296462059021,-0.07424609363079071,-0.1997656673192978,-0.3943977355957031,0.9879032989795618,0.0032163247748052248,-0.024996462928729552,0.15300981384157863
1681143723167571500,3.480571533203125,-1.0998945236206055,0.3131536841392517,0.20049774646759033,-0.0475129708647728,0.011798742227256298,-0.9988009333610535,-0.1647673100233078,-0.19838324189186096,-0.33869296312332153,0.9877986236197587,-0.0021749539858336962,-0.02438856615572201,0.15379971588838914
1681143723177630500,3.49063037109375,-1.1278753280639648,0.38092342019081116,0.20028069615364075,-0.04390665888786316,0.02311486378312111,-0.9987682104110718,-0.25255635380744934,-0.1617715060710907,-0.3333851099014282,0.9876563749353471,-0.008024467777480695,-0.023484253944061527,0.15465747110614558
1681143723187688700,3.500688720703125,-1.0280040502548218,0.3876938223838806,0.14903731644153595,-0.03992846980690956,0.034049227833747864,-0.9986222386360168,-0.31532666087150574,-0.06893084943294525,-0.40405720472335815,0.9875029048683608,-0.013718866649907843,-0.022375776847334987,0.15539989508452715
1681143723197747500,3.51074755859375,-0.9093185067176819,0.31541669368743896,0.039508696645498276,-0.0362958088517189,0.04382079839706421,-0.9983798861503601,-0.3247576653957367,0.0943475067615509,-0.5154598355293274,0.9873868112101745,-0.01882279977341263,-0.021348780610706483,0.1557473075868524
1681143723207805400,3.520805419921875,-0.7543089389801025,0.19745729863643646,-0.09779936075210571,-0.03371310606598854,0.0521698035299778,-0.9980689883232117,-0.26859402656555176,0.2540282905101776,-0.6357963681221008,0.9873489754564099,-0.023156268230179824,-0.0207191925469237,0.15548794948031325
1681143723217864400,3.530864501953125,-0.6663236618041992,0.059127382934093475,-0.21043910086154938,-0.032497771084308624,0.05917198210954666,-0.9977186918258667,-0.18524515628814697,0.37121739983558655,-0.6987687349319458,0.9873965123853709,-0.026731196345986568,-0.020642226393930672,0.15461995677763776
1681143723227922400,3.54092236328125,-0.710706353187561,-0.07019439339637756,-0.3060002326965332,-0.03272073715925217,0.06591571867465973,-0.9972885847091675,-0.11095602810382843,0.4105399250984192,-0.6752578020095825,0.9874994732057968,-0.030079232199502773,-0.02123581717529049,0.15326156168330873
1681143723237981400,3.5509814453125,-0.8143722414970398,-0.16929113864898682,-0.38066914677619934,-0.034202318638563156,0.07344244420528412,-0.9967128038406372,-0.055626172572374344,0.3760356903076172,-0.5720738172531128,0.9876277666758808,-0.03373177136810412,-0.022489261174437405,0.15148503800334004
1681143723248040400,3.56104052734375,-0.9183460474014282,-0.205232635140419,-0.4026135802268982,-0.0364249087870121,0.08197440207004547,-0.9959685802459717,-0.015317648649215698,0.28281745314598083,-0.4052765369415283,0.9877488746963871,-0.037839411477482744,-0.024163733575338096,0.14945387514999314
1681143723258098700,3.5710986328125,-1.0205565690994263,-0.19365240633487701,-0.39951393008232117,-0.03879375010728836,0.0915437787771225,-0.9950451254844666,-0.004754837602376938,0.17078529298305511,-0.22935062646865845,0.9878270871613393,-0.042461223715083866,-0.025970878982132507,0.1473782944047039
1681143723268157400,3.581157470703125,-1.0404034852981567,-0.14065934717655182,-0.3908795416355133,-0.04087119549512863,0.1017477810382843,-0.9939702749252319,-0.023078393191099167,0.10348290950059891,-0.07861578464508057,0.9878624380050364,-0.04743003658167046,-0.027663097310912342,0.14530323173240786
1681143723278215400,3.59121533203125,-1.0045546293258667,-0.07275646924972534,-0.3480108976364136,-0.042354512959718704,0.11181560158729553,-0.9928259253501892,-0.050479959696531296,0.08613663166761398,0.038144588470458984,0.9878591394027492,-0.05238130027756869,-0.029038324922707113,0.14334348856563997
1681143723288274400,3.6012744140625,-0.9732035398483276,-0.020273150876164436,-0.2963795065879822,-0.043186288326978683,0.12154122442007065,-0.9916464686393738,-0.08051671087741852,0.08567310124635696,0.11367100477218628,0.9878104180226587,-0.05721096458480208,-0.03006130732394943,0.14161145087191576
1681143723298333400,3.61133349609375,-0.9665469527244568,0.023004813119769096,-0.2547822892665863,-0.043511874973773956,0.13107675313949585,-0.9904168844223022,-0.10742806643247604,0.09113697707653046,0.15821778774261475,0.9877151624847393,-0.06198228958277615,-0.030818079314355724,0.1400972117391295
1681143723308391700,3.6213916015625,-0.9730719923973083,0.043700385838747025,-0.22923685610294342,-0.04348677024245262,0.14061729609966278,-0.9891085028648376,-0.11988908052444458,0.09679415822029114,0.17666959762573242,0.9875756818694397,-0.06678211464281218,-0.031398811460965334,0.138739507791227
1681143723318450400,3.631450439453125,-0.9750954508781433,0.03823824226856232,-0.21711014211177826,-0.0433959923684597,0.15021786093711853,-0.9877000451087952,-0.1144409254193306,0.10104858875274658,0.17561203241348267,0.9873974935493651,-0.07162013684719727,-0.0319457709614941,0.13746381820804543
1681143723328508700,3.6415087890625,-0.9210850596427917,0.035257283598184586,-0.23553889989852905,-0.043389420956373215,0.1595192402601242,-0.986240804195404,-0.08794297277927399,0.10418310761451721,0.16312074661254883,0.9872064272837385,-0.07630987749939193,-0.03250212930717856,0.1361763536749413
1681143723338567400,3.6515673828125,-0.8684548735618591,0.00817453395575285,-0.28338098526000977,-0.04359790310263634,0.16828475892543793,-0.9847738146781921,-0.05091504007577896,0.09434948861598969,0.14471644163131714,0.9870327523058096,-0.08072881387899743,-0.03310516929579246,0.13473422786973208
1681143723348625400,3.66162548828125,-0.7791832089424133,-0.019073814153671265,-0.3384310007095337,-0.04419426620006561,0.17630861699581146,-0.9833423495292664,-0.015208203345537186,0.07166193425655365,0.12306708097457886,0.9868975867608223,-0.0847650856747291,-0.03381886522124644,0.13305742810812718
1681143723358684400,3.671684326171875,-0.7004196643829346,-0.044296346604824066,-0.37501031160354614,-0.045161549001932144,0.18345659971237183,-0.981989860534668,0.025798141956329346,0.041717320680618286,0.12044811248779297,0.9868083950813049,-0.08835208386884832,-0.03462619080234742,0.13116432779666934
1681143723368743400,3.681743408203125,-0.6332184076309204,-0.061121150851249695,-0.3887024223804474,-0.04638008773326874,0.18987677991390228,-0.980711817741394,0.05222420021891594,-0.02091623842716217,0.13790786266326904,0.9867467856596949,-0.09156764227534092,-0.035488765824615694,0.1291764429915506
1681143723378801700,3.6918017578125,-0.5610457062721252,-0.06966111063957214,-0.39436590671539307,-0.047792740166187286,0.19558176398277283,-0.979522168636322,0.052950210869312286,-0.08840405941009521,0.17457526922225952,0.9867090043177908,-0.09441954598185141,-0.03638513364909026,0.12714706865109993
1681143723388860400,3.7018603515625,-0.4824342429637909,-0.07242128998041153,-0.3731297254562378,-0.04926051199436188,0.2005198895931244,-0.9784504175186157,0.04822291433811188,-0.13222157955169678,0.21564829349517822,0.9866888373462112,-0.09688606674773613,-0.03725443920036179,0.12518087409132908
1681143723398918700,3.711918701171875,-0.41858816146850586,-0.07636623084545135,-0.3440234959125519,-0.050732359290122986,0.20475006103515625,-0.9774986505508423,0.055035341531038284,-0.16374973952770233,0.26198357343673706,0.9866779176106187,-0.0989959833183895,-0.03808496688680322,0.1233526376276687
1681143723408977400,3.721977294921875,-0.3626222610473633,-0.06555188447237015,-0.31064721941947937,-0.05211368948221207,0.20843367278575897,-0.9766470789909363,0.06459537148475647,-0.19358690083026886,0.3087698817253113,0.9866691698614387,-0.1008341438456723,-0.03884484471333049,0.12168662140110012
1681143723419035400,3.732035400390625,-0.3008156418800354,-0.054210543632507324,-0.29048576951026917,-0.05333070456981659,0.21151918172836304,-0.9759177565574646,0.06207398697733879,-0.21228215098381042,0.3412436842918396,0.9866713645352688,-0.10237861761022946,-0.03949354730987381,0.12015985187317074
1681143723429094700,3.7420947265625,-0.24264557659626007,-0.058082833886146545,-0.2763000726699829,-0.05448630452156067,0.2140500396490097,-0.9753019213676453,0.05230429396033287,-0.2234494835138321,0.35941141843795776,0.9866873833704997,-0.103645363990493,-0.040083461195467414,0.11873848710484163
1681143723439153400,3.7521533203125,-0.18400943279266357,-0.05892705172300339,-0.2904718220233917,-0.055669501423835754,0.2159431278705597,-0.9748176336288452,0.052312567830085754,-0.22296221554279327,0.3682350516319275,0.9867326354820294,-0.10458996042030688,-0.04064614264234296,0.11733559792945895
1681143723449211600,3.762211669921875,-0.13918016850948334,-0.07891567796468735,-0.3137739598751068,-0.05698384344577789,0.21738113462924957,-0.974422037601471,0.057411085814237595,-0.20898883044719696,0.36405521631240845,0.9868093052182557,-0.1053031661646885,-0.04123386533515767,0.11583735237223469
1681143723459270400,3.7722705078125,-0.07885130494832993,-0.10121725499629974,-0.33058542013168335,-0.058557868003845215,0.2182442545890808,-0.9741357564926147,0.058786749839782715,-0.1944405883550644,0.35322511196136475,0.9869197561809049,-0.10571629698192446,-0.041907047663204855,0.1142677150951131
1681143723469328400,3.782328369140625,-0.0325784869492054,-0.12456600368022919,-0.3748255968093872,-0.06042812019586563,0.21857202053070068,-0.9739480018615723,0.06415126472711563,-0.20914211869239807,0.35479211807250977,0.9870677528928046,-0.10585037147422788,-0.042681313325088975,0.1125672762233875
1681143723479387600,3.7923876953125,0.029074223712086678,-0.14321745932102203,-0.40165987610816956,-0.06256967037916183,0.21835482120513916,-0.9738615155220032,0.06592660397291183,-0.22097936272621155,0.3483732342720032,0.9872572894157815,-0.10570454030024606,-0.04354082356759269,0.11069686103787456
1681143723489445400,3.8024453125,0.10456165671348572,-0.14241798222064972,-0.4114629626274109,-0.06485368311405182,0.21743445098400116,-0.9739180207252502,0.060916922986507416,-0.19674357771873474,0.35087114572525024,0.9874865752997604,-0.10520193225636533,-0.04442473541016107,0.10876215290460309
1681143723499504600,3.812504638671875,0.16812917590141296,-0.1361590176820755,-0.3965277075767517,-0.06710117310285568,0.21578937768936157,-0.9741315841674805,0.06206577271223068,-0.19000205397605896,0.35091686248779297,0.9877501384651659,-0.10433787262776457,-0.04525271671241225,0.10684318226061311
1681143723509563400,3.8225634765625,0.15125665068626404,-0.11482395976781845,-0.36613431572914124,-0.06915615499019623,0.21390797197818756,-0.9744027853012085,0.05009792745113373,-0.21161918342113495,0.342521071434021,0.9880104734217969,-0.10336191496210415,-0.045988230738984184,0.10505588145604335
1681143723519621600,3.83262158203125,0.1472342163324356,-0.09573894739151001,-0.33980390429496765,-0.07095751166343689,0.21223977208137512,-0.974638044834137,0.04086717963218689,-0.245610773563385,0.32975584268569946,0.9882460471886705,-0.10250442226577304,-0.046624297162177177,0.10338599255881722
1681143723529680400,3.842680419921875,0.1432567983865738,-0.056630611419677734,-0.31678709387779236,-0.07241473346948624,0.21053734421730042,-0.9749000668525696,0.03750262409448624,-0.2637295126914978,0.3143470883369446,0.9884728946627512,-0.10164352472876362,-0.04710163454777557,0.1018394560248391
1681143723539738400,3.85273828125,0.1372460424900055,-0.011023711413145065,-0.32447031140327454,-0.07340209186077118,0.20898140966892242,-0.9751609563827515,0.02269713580608368,-0.2605103850364685,0.27711713314056396,0.9886966766065781,-0.10088154284456975,-0.04735434405000136,0.10029622683020917
1681143723549797600,3.862797607421875,0.23709943890571594,-0.04778693616390228,-0.2849917411804199,-0.07428212463855743,0.2069215178489685,-0.9755335450172424,-0.001584574580192566,-0.1750764697790146,0.17382150888442993,0.9889407669211737,-0.09986848123778784,-0.04753447150389724,0.09880711037535844
1681143723559855400,3.87285546875,0.13164891302585602,-0.10806119441986084,-0.23158788681030273,-0.07558314502239227,0.20470713078975677,-0.9759007096290588,-0.016015365719795227,-0.07625867426395416,0.028558790683746338,0.9891508079312893,-0.09874343175981994,-0.047951882834323514,0.09762744842296682
1681143723569914600,3.88291455078125,-0.14252464473247528,-0.1681620478630066,-0.19568482041358948,-0.07735366374254227,0.20459957420825958,-0.9757845401763916,-0.017433926463127136,-0.027109384536743164,-0.1328732967376709,0.9892197238470888,-0.09865429492010058,-0.04873471868525903,0.09662542491845202
1681143723579973400,3.892973388671875,-0.3706139922142029,-0.2559494376182556,-0.08887366950511932,-0.07972487062215805,0.20706422626972198,-0.975073516368866,-0.05082932859659195,0.07754267752170563,-0.28849154710769653,0.9891064407820536,-0.09982388945950962,-0.04998436816283664,0.0959432147821216
1681143723590031600,3.903031494140625,-0.4209338128566742,-0.3148946762084961,-0.007361821364611387,-0.08262503892183304,0.21106062829494476,-0.9739745855331421,-0.11618173122406006,0.15185438096523285,-0.4604583978652954,0.9888462428052412,-0.10172071977917162,-0.05162940802214041,0.09576248078408203
1681143723600090600,3.913090576171875,-0.24053926765918732,-0.3780345022678375,0.044146377593278885,-0.08598987758159637,0.21442943811416626,-0.9729469418525696,-0.16701610386371613,0.20559921860694885,-0.6071617007255554,0.9885692022271846,-0.10326103952603015,-0.05351342674780632,0.0959392446831938
1681143723610148400,3.9231484375,0.05686039477586746,-0.4521472752094269,0.13421842455863953,-0.08984958380460739,0.21540986001491547,-0.9723814129829407,-0.184747576713562,0.32908472418785095,-0.730117917060852,0.988366023740601,-0.10354398933370355,-0.055569145400456994,0.09655668096905592
1681143723620207600,3.93320751953125,0.2205936759710312,-0.5315020084381104,0.25981736183166504,-0.09424158185720444,0.21411104500293732,-0.9722525477409363,-0.13740208745002747,0.448166161775589,-0.8139412999153137,0.9882084347974681,-0.10260695057717331,-0.05784070173136185,0.09782844728275208
1681143723630265600,3.943265625,0.23280306160449982,-0.6164547204971313,0.41263192892074585,-0.09911266714334488,0.21211129426956177,-0.9722064733505249,-0.06848986446857452,0.46658432483673096,-0.8443217873573303,0.9879940596633261,-0.10124080940227789,-0.06039079155843689,0.09985507832059343
1681143723640324600,3.95332470703125,0.047589268535375595,-0.7268190383911133,0.5804318785667419,-0.10461403429508209,0.21117956936359406,-0.9718328714370728,-0.026748880743980408,0.39099323749542236,-0.8238824605941772,0.9876072777064693,-0.10032194424051129,-0.06339622766971208,0.10270493343892749
1681143723650383400,3.96338330078125,-0.10228361189365387,-0.8625056147575378,0.7594112753868103,-0.11095115542411804,0.2122228443622589,-0.9709023237228394,0.019932471215724945,0.2936670184135437,-0.7804557085037231,0.9869786173992998,-0.10028526644525435,-0.0670202128248668,0.10641583501258996
1681143723660441300,3.97344140625,-0.21068385243415833,-0.9833217859268188,0.9150184988975525,-0.1181618869304657,0.2148108333349228,-0.969481348991394,0.0745064914226532,0.259371280670166,-0.744935154914856,0.9861118726221626,-0.10089457565942966,-0.07127141455277708,0.11101336411736876
1681143723670500600,3.98350048828125,-0.22066375613212585,-1.0747634172439575,1.0015337467193604,-0.12611249089241028,0.21813273429870605,-0.9677364230155945,0.12643292546272278,0.22594377398490906,-0.6920230984687805,0.9850669901015935,-0.10174950995684477,-0.07601862722896685,0.11623836406703421
1681143723680558300,3.993558349609375,-0.144178569316864,-1.1134599447250366,1.0294554233551025,-0.13453072309494019,0.2213231921195984,-0.965876579284668,0.16878670454025269,0.18451479077339172,-0.5937395095825195,0.9839265145829328,-0.10244007600766172,-0.0810416609302679,0.12176560917458995
1681143723690617600,4.00361767578125,0.013354357331991196,-1.1052879095077515,1.044661283493042,-0.14301061630249023,0.22343020141124725,-0.9641715884208679,0.18230201303958893,0.16652336716651917,-0.4642188549041748,0.9827752331859054,-0.10251536732454317,-0.08605109981674602,0.12743049812635154
1681143723700676400,4.01367626953125,0.1652136594057083,-1.0613734722137451,1.0830131769180298,-0.15113134682178497,0.22406144440174103,-0.9627854228019714,0.14281530678272247,0.15603496134281158,-0.34597617387771606,0.9816462563176113,-0.10179733876147871,-0.09079969428511721,0.13327956624449602
1681143723710734600,4.023734619140625,0.23871605098247528,-1.0051597356796265,1.0996540784835815,-0.15866798162460327,0.22376276552677155,-0.9616416692733765,0.07277625799179077,0.12993593513965607,-0.25079119205474854,0.9805189102983213,-0.1005799044859551,-0.095199000981335,0.1392964863985121
1681143723720792800,4.033792724609375,0.23925374448299408,-0.9545263648033142,1.0857704877853394,-0.16567787528038025,0.22321121394634247,-0.9605870842933655,0.022962436079978943,0.09688761830329895,-0.17440736293792725,0.9793783251106526,-0.09922303856982159,-0.09930373614148394,0.14529879285253344
1681143723730850800,4.043850830078125,0.3170984387397766,-0.9064248204231262,1.0392985343933105,-0.17224690318107605,0.2224097102880478,-0.9596170783042908,0.00424763560295105,0.06584404408931732,-0.12809044122695923,0.9782451516438139,-0.0977419821394405,-0.10314052863213966,0.15114559411548018
1681143723740909600,4.05390966796875,0.4540115296840668,-0.8721206784248352,0.953025221824646,-0.17860117554664612,0.22047431766986847,-0.9589018225669861,0.007565408945083618,0.06739796698093414,-0.10938125848770142,0.9771893081949468,-0.09569645182365855,-0.10672993562247515,0.15669088971888592
1681143723750967800,4.0639677734375,0.6044914722442627,-0.8277497291564941,0.8486735224723816,-0.18480734527111053,0.21701234579086304,-0.958515465259552,0.038002535700798035,0.10297968983650208,-0.0986897349357605,0.976256103227865,-0.09290520397999101,-0.1100494900477737,0.16180811907570164
1681143723761026600,4.074026611328125,0.72386634349823,-0.793315052986145,0.7445241808891296,-0.19091422855854034,0.21209445595741272,-0.9584193825721741,0.08666616678237915,0.1667507439851761,-0.06303447484970093,0.9754481760821692,-0.08941226641366123,-0.11311834505386195,0.16646454488284954
1681143723771085800,4.0840859375,0.8216193318367004,-0.7472505569458008,0.6711052656173706,-0.19686399400234222,0.20601509511470795,-0.958541750907898,0.14809691905975342,0.18567797541618347,0.006561219692230225,0.9747444940248469,-0.08537179688195028,-0.11593432271084637,0.17071613506024774
1681143723781143600,4.0941435546875,0.9021632075309753,-0.6782770752906799,0.6079534888267517,-0.20244143903255463,0.19897504150867462,-0.9588672518730164,0.20227359235286713,0.146483913064003,0.09811896085739136,0.9741308186289792,-0.08089939334561556,-0.11841310720536628,0.17465068352787888
1681143723791202800,4.104202880859375,0.9361481070518494,-0.6070979237556458,0.5687463879585266,-0.20749543607234955,0.19127406179904938,-0.9593538641929626,0.24017976224422455,0.09458407759666443,0.18083518743515015,0.9735872654827877,-0.07615646865390199,-0.12051244534882818,0.17833893127290545
1681143723801260800,4.1142607421875,0.8575582504272461,-0.536177933216095,0.5684382319450378,-0.21193848550319672,0.1837320774793625,-0.9598565697669983,0.2537170648574829,0.03260701894760132,0.2491326928138733,0.9730616346982653,-0.07155417447814806,-0.12227724621718955,0.18187695684259786
1681143723811319600,4.124319580078125,0.7368777394294739,-0.48195213079452515,0.5966774821281433,-0.21577167510986328,0.17730042338371277,-0.9602120518684387,0.2568178176879883,-0.023568138480186462,0.3048012852668762,0.9724898834306903,-0.0675544175721365,-0.1238159324804095,0.18538987761298942
1681143723821377800,4.134377685546875,0.5902166962623596,-0.4386552572250366,0.6258010268211365,-0.21915605664253235,0.1722264289855957,-0.9603690505027771,0.25432756543159485,-0.0640874058008194,0.3459281325340271,0.9718460178728752,-0.06425797905060508,-0.12524534408025828,0.18894395815369538
1681143723831436500,4.1444365234375,0.5351640582084656,-0.4010591208934784,0.6498147249221802,-0.22212158143520355,0.168258935213089,-0.9603910446166992,0.24700865149497986,-0.08367949724197388,0.3576841354370117,0.9711448424735445,-0.061536550790114525,-0.1265612067204604,0.19254371108566481
1681143723841495800,4.154495849609375,0.4876868426799774,-0.3539632558822632,0.6870715618133545,-0.22464941442012787,0.1648067981004715,-0.9604016542434692,0.23952673375606537,-0.06301544606685638,0.35876286029815674,0.9704052635955089,-0.05909081560644483,-0.12770059830665656,0.19625093532585097
1681143723851553800,4.1645537109375,0.4371095299720764,-0.3085485100746155,0.7289386987686157,-0.22668030858039856,0.16194723546504974,-0.9604108929634094,0.22552064061164856,-0.04109765589237213,0.3633344769477844,0.9696219821497928,-0.0569623851748897,-0.12864614060868437,0.20009646267439535
