,seconds_elapsed,rotationRateX,rotationRateY,rotationRateZ,gravityX,gravityY,gravityZ,accelerationX,accelerationY,accelerationZ,quaternionW,quaternionX,quaternionY,quaternionZ
0,0.0,-0.7724393694612056,-0.050029992677869395,-0.06081356906207465,0.08000419676284967,-0.3745658853013136,-0.9244977249623971,-0.1489372141995582,-0.023612054564594566,0.12345873466001496,0.9809469247117357,0.19120686924507732,0.03975030310903576,-0.005893323246187757
1,0.01,-0.7372770043909419,-0.03537860726366765,-0.05483388249888918,0.08147813905004907,-0.37275059232592705,-0.9250088547695061,-0.13950451833385777,-0.024911625504718867,0.11990446857842299,0.9810767882398701,0.1902392799912682,0.04056274511488313,-0.0055035228528778415
2,0.02,-0.7021146393206784,-0.02072722184946596,-0.048854195935703726,0.08295208133724846,-0.37093529935054054,-0.9255199845766151,-0.1300718224681574,-0.026211196444843165,0.11635020249683102,0.9812066517680046,0.18927169073745906,0.041375187120730496,-0.005113722459567928
3,0.03,-0.6669522742504148,-0.006075836435264215,-0.04287450937251826,0.08442602362444787,-0.369120006375154,-0.9260311143837241,-0.120639126602457,-0.027510767384967466,0.11279593641523905,0.981336515296139,0.18830410148364993,0.042187629126577864,-0.004723922066258013
4,0.04,-0.6317899091801512,0.00857554897893753,-0.036894822809332775,0.08589996591164728,-0.3673047133997675,-0.9265422441908331,-0.1112064307367566,-0.02881033832509177,0.10924167033364708,0.9814663788242733,0.1873365122298408,0.04300007113242524,-0.004334121672948099
5,0.05,-0.5966275441098876,0.023226934393139276,-0.03091513624614731,0.08737390819884668,-0.365489420424381,-0.9270533739979421,-0.1017737348710562,-0.03010990926521607,0.10568740425205511,0.9815962423524078,0.18636892297603164,0.043812513138272606,-0.003944321279638185
6,0.06,-0.5614651790396241,0.03787831980734099,-0.02493544968296185,0.08884785048604608,-0.3636741274489945,-0.9275645038050511,-0.09234103900535581,-0.031409480205340366,0.10213313817046316,0.9817261058805422,0.1854013337222225,0.044624955144119974,-0.003554520886328271
7,0.07,-0.5263028139693605,0.05252970522154274,-0.018955763119776373,0.09032179277324548,-0.361858834473608,-0.9280756336121601,-0.08290834313965542,-0.03270905114546467,0.09857887208887117,0.9818559694086766,0.18443374446841337,0.04543739714996735,-0.0031647204930183564
8,0.08,-0.4911404488990969,0.06718109063574446,-0.012976076556590905,0.09179573506044489,-0.3600435414982215,-0.928586763419269,-0.07347564727395503,-0.03400862208558897,0.09502460600727922,0.9819858329368111,0.18346615521460424,0.046249839155814716,-0.002774920099708442
9,0.09,-0.4559780838288333,0.08183247604994619,-0.006996389993405443,0.09326967734764428,-0.35822824852283497,-0.929097893226378,-0.06404295140825464,-0.035308193025713266,0.09147033992568723,0.9821156964649455,0.1824985659607951,0.047062281161662084,-0.002385119706398528
10,0.1,-0.4208157187585697,0.09648386146414793,-0.001016703430219968,0.09474361963484369,-0.35641295554744845,-0.929609023033487,-0.05461025554255423,-0.03660776396583757,0.08791607384409528,0.9822455599930798,0.18153097670698598,0.04787472316750945,-0.0019953193130886134
11,0.11,-0.38565335368830617,0.11113524687834965,0.004962983132965497,0.09621756192204309,-0.35459766257206193,-0.930120152840596,-0.045177559676853836,-0.03790733490596187,0.08436180776250331,0.9823754235212143,0.18056338745317682,0.04868716517335682,-0.0016055189197786987
12,0.12,-0.3504909886180426,0.12578663229255138,0.010942669696150962,0.0976915042092425,-0.3527823695966754,-0.930631282647705,-0.035744863811153445,-0.03920690584608617,0.08080754168091134,0.9825052870493487,0.1795957981993677,0.04949960717920419,-0.0012157185264687845
13,0.13,-0.315328623547779,0.14043801770675313,0.016922356259336434,0.09916544649644189,-0.3509670766212889,-0.931142412454814,-0.026312167945453047,-0.04050647678621047,0.07725327559931937,0.9826351505774831,0.17862820894555856,0.05031204918505156,-0.00082591813315887
14,0.14,-0.2801662584775154,0.15508940312095487,0.022902042822521906,0.1006393887836413,-0.3491517836459024,-0.931653542261923,-0.01687947207975264,-0.04180604772633477,0.0736990095177274,0.9827650141056176,0.17766061969174943,0.05112449119089893,-0.0004361177398489553
15,0.15,-0.24500389340725187,0.16974078853515656,0.028881729385707364,0.1021133310708407,-0.3473364906705159,-0.932164672069032,-0.007446776214052266,-0.04310561866645907,0.07014474343613543,0.9828948776337519,0.1766930304379403,0.0519369331967463,-4.6317346539041675e-05
16,0.16,-0.20984152833698827,0.1843921739493583,0.03486141594889284,0.1035872733580401,-0.3455211976951294,-0.932675801876141,0.0019859196516481374,-0.04440518960658337,0.06659047735454346,0.9830247411618863,0.17572544118413114,0.052749375202593665,0.00034348304677087304
17,0.17,-0.13626828838107125,0.19501484699168767,0.03412935676589703,0.10517230906625287,-0.3441380219375387,-0.9330097982486272,0.016885724212290336,-0.03418481725322525,0.057919071120400005,0.9831095313999157,0.1749847861956875,0.053621568833492,0.0007415564135560311
18,0.18,-0.06129498676519478,0.20966005792149542,0.031613677856009395,0.10686340062839643,-0.34342471660442075,-0.933080544825185,0.03491261094652333,-0.008843175802501196,0.04681733860957276,0.9831270902047979,0.17459737503800016,0.05454699570678689,0.001116533987887509
19,0.19,-0.017776305977020172,0.20853545241370017,0.027509078264266764,0.10864834534241688,-0.3432794987295974,-0.9329278036497004,0.05817860187791292,0.009961411328713601,0.045752368515466824,0.9830878663605455,0.17450930566549477,0.0555200155238863,0.0014720007130849025
20,0.2,-0.025963107909043256,0.19190787533695747,0.03923295907303149,0.11034488312691922,-0.343322036298935,-0.9327130346013975,0.07795707195471363,0.009607594206808715,0.05092615402860803,0.9830341581453249,0.17461096868176926,0.056164438451903914,0.0002241502502587482
21,0.21,-0.07199307302300303,0.20170502183895853,0.05604106453911298,0.11193689638076458,-0.3431225294223126,-0.9325967782506944,0.09001031645426141,-0.006443944872742132,0.06584759824449227,0.9830046579196114,0.1745056459154062,0.057002575351286396,0.00037451791136238394
22,0.22,-0.14526892247308326,0.22583682834342608,0.08787455253422935,0.1136575684537616,-0.3423800577750626,-0.9326614235363647,0.09896537769288653,-0.026734493922930327,0.08996135361827702,0.9830206865960809,0.17409127832721677,0.057977179913565324,0.000942164126288823
23,0.23,-0.21853885842179782,0.24452656914308232,0.14166617903532908,0.11542727654637057,-0.3409829899958036,-0.9329557345156532,0.09456964799284354,-0.04872310173164292,0.10643772647797475,0.9830944338551207,0.17331689946625162,0.059018138164232174,0.001770614485317905
24,0.24,-0.29686725537628433,0.27364236498505184,0.1969613104572549,0.11725130169076167,-0.33892275645834846,-0.9334786134446974,0.08095302958247777,-0.06615504784065282,0.11447730706301615,0.9832246772932909,0.1721745386069867,0.06013514155661758,0.0029094399125023443
25,0.25,-0.333343313934907,0.2990345016007214,0.25264857016990794,0.11917671638385331,-0.3363354045236137,-0.9341700807601132,0.0754947722611336,-0.07466497611517475,0.11435014214470202,0.9833950071979448,0.17073511159432303,0.06135091476381154,0.004358707448307218
26,0.26,-0.35072968358382756,0.31933815930805665,0.31332454199863075,0.12113422469513416,-0.3334747197063891,-0.9349434043421978,0.07658219126051932,-0.07220362662644031,0.10421504633184409,0.9835820834785395,0.16913023706815053,0.0626307261731352,0.006124462484379858
27,0.27,-0.35166982855995177,0.3393032010873425,0.3593401693606585,0.12312206823531961,-0.3305669996867011,-0.9357159953792432,0.07928607495073337,-0.06093702369202424,0.07958980903487288,0.9837633980627148,0.16747905422814058,0.06396926879446317,0.008181124794026861
28,0.28,-0.3526321717848531,0.3442568448957582,0.38081557844470315,0.1251244456473695,-0.3276993948251445,-0.9364587450590568,0.08544457739402493,-0.03899976747572506,0.050463845092532475,0.9839310237540554,0.1658340213805468,0.06533746843032202,0.010407763194418492
29,0.29,-0.3495738773092842,0.3420988769966632,0.3845803508101305,0.12711033743247552,-0.32486202680111553,-0.9371796148788882,0.09090362764592248,-0.021151740213000862,0.016454743604672604,0.9840873779845476,0.16419689885847977,0.06669965199544053,0.012690600160459246
30,0.3,-0.3560314933540468,0.340410787860239,0.36722759833355434,0.1291153890199186,-0.32202665510144507,-0.9378837590226619,0.0913518145892025,-0.010049085656187359,-0.014936807498679065,0.984234721068912,0.1625588853717224,0.06805859161749932,0.014939652129051895
31,0.31,-0.3632712607066681,0.3364994860677416,0.33116253424148506,0.13119435040058253,-0.3190569905038424,-0.9386097784600995,0.08590473098668887,-0.007004909694388553,-0.0426973087117195,0.9843847613940376,0.16085566667134138,0.06942436749152969,0.01705722574747186
32,0.32,-0.3511325558304387,0.3266686665200821,0.2898108038126706,0.13335240852981214,-0.31607501497532425,-0.9393142523128925,0.08314337388377561,-0.00534755562449598,-0.061719603789882116,0.9845285992361817,0.1591566039717855,0.07079004836994866,0.018969979978217585
33,0.33,-0.33729882739969175,0.31494492881042896,0.24808285756497672,0.13555791569681488,-0.3131660730645711,-0.9399726754757266,0.08816673613054404,-0.006357141213645372,-0.06966139884105817,0.9846616657912701,0.15750744536852557,0.07214063095831573,0.020669871192150687
34,0.34,-0.32765724915710287,0.2963330461821636,0.21340672776457068,0.13775399062114646,-0.3103025368079454,-0.9406028982577642,0.09374590392383596,-0.012396780307601392,-0.07051635171286011,0.9847893303084846,0.15589474578731954,0.07344811581404544,0.022158327896909864
35,0.35000000000000003,-0.3211441096054059,0.26928748775294165,0.19172535574852004,0.13983339924845997,-0.307487173865913,-0.9412204949155412,0.09385721983825916,-0.022137975357657366,-0.06602099279585776,0.9849153593085854,0.1543175174384956,0.07466696925680845,0.023486260592588508
36,0.36,-0.3289383791192146,0.23363024064960258,0.17594985150476722,0.1416852453427982,-0.30464888088382347,-0.941866317169625,0.09199340653903536,-0.03694059287877945,-0.05755790731876907,0.9850497653444319,0.15273724375438813,0.07574634926663414,0.02469385126243694
37,0.37,-0.3526897515611783,0.1975549754113311,0.16651292830686107,0.14326613007682582,-0.30160022228026684,-0.942607943415743,0.0879457976020115,-0.05947764072274349,-0.0476941233882192,0.9852091574609324,0.15105478669683334,0.07666666363737039,0.025818575221705064
38,0.38,-0.3637855788689215,0.1547554460023213,0.16701857131661715,0.14448836057510187,-0.2983830499070362,-0.9434448741014722,0.07904115724332117,-0.0814440501662134,-0.03710898107695343,0.9853923701808629,0.14928978559609998,0.07739136177077881,0.026907868857713173
39,0.39,-0.36153425947824536,0.11655988732538264,0.1726482197363465,0.14535418601807942,-0.29509668406686373,-0.9443451290587904,0.06496975526483824,-0.09725195141671254,-0.025928940045931603,0.9855910826134906,0.1474935376616283,0.07792571599907844,0.027975392856260512
40,0.4,-0.34093013050857024,0.08819333083484754,0.1770858510184735,0.1459140183975481,-0.29189813322518765,-0.9452525679513855,0.049191407824424146,-0.10808186217311032,-0.010716433157744443,0.9857905490202592,0.14574657273314237,0.07830101137931136,0.029035065697271913
41,0.41000000000000003,-0.31232706083382705,0.07508911631835387,0.18391663610752934,0.1462678519554042,-0.28893332931348564,-0.9461085603142368,0.032347559792185974,-0.11524802818731641,0.011750111000774409,0.9859758339294108,0.14412327851261156,0.07857280396944381,0.030094414913980558
42,0.42,-0.2896690950491364,0.0741701183496207,0.19213677412578503,0.14654034204700397,-0.2862388807724121,-0.9468852584151031,0.011225148099383953,-0.11901730975512594,0.0327119618644123,0.9861389664403682,0.14263916016601613,0.07880991785525017,0.031181390454150464
43,0.43,-0.2783213217860287,0.07743250175876523,0.19697586412568693,0.14680248185847566,-0.28372452225499933,-0.9476011901688807,-0.009776953250459049,-0.11919257896617776,0.04999192573491805,0.9862845494237479,0.14124665467752717,0.07904671297217605,0.03229549127245488
44,0.44,-0.272052071969594,0.08550054706599994,0.20461046698964408,0.14710450437288033,-0.2813090318902759,-0.9482743278018838,-0.026706439653366817,-0.12224609685128175,0.0658287369509617,0.9864170308053904,0.1399027634413505,0.07930747078959041,0.03343975801609481
45,0.45,-0.27695069234986486,0.09741653489781099,0.21605236379314002,0.147481914500175,-0.27891943352592385,-0.9489213640240048,-0.03885477589502229,-0.12862661689587154,0.07849800561238877,0.9865396522354813,0.13856730613049614,0.07961179395911323,0.034637205052011545
46,0.46,-0.29120527198483254,0.10792690151697207,0.22414811732068923,0.14793312872268097,-0.2764745537161517,-0.9495663099139398,-0.04580383795977105,-0.1340878290696251,0.08756664004039857,0.9866579870562513,0.13719727843759522,0.07995822957699648,0.035898994413063746
47,0.47000000000000003,-0.3071042104342523,0.11480141029757877,0.23722301461958062,0.14841714493786032,-0.2739046249341735,-0.9502352065562298,-0.05123617953372794,-0.13522756725085322,0.09361575933823474,0.986778362526643,0.13575729248818713,0.08032344523103736,0.03722302130198662
48,0.48,-0.3014309581056377,0.11912739502264369,0.24200699531214848,0.14891593933776787,-0.2713056217474761,-0.9509025452744485,-0.04995364975765185,-0.13046658052765467,0.09222093659222524,0.9868943408027694,0.13429739434920943,0.08069966376034551,0.0386048144219557
49,0.49,-0.27568195315960203,0.11815994718320834,0.23699173774827273,0.14944244471203422,-0.2688857271294135,-0.9515072643848003,-0.04059288740061154,-0.1204767066910235,0.08177061670773106,0.9869928320198655,0.13292984361591176,0.08109007942229544,0.039979817580145585
50,0.5,-0.24283211505080904,0.11486872311879792,0.23020077685142806,0.1499731652063408,-0.26674117293132976,-0.952027389618156,-0.029833161185466014,-0.11084581510291124,0.06098066692384005,0.9870694472655602,0.13170683812210673,0.0814817462430909,0.04131837039376273
51,0.51,-0.20367530380873958,0.10560045032120652,0.21872010568451702,0.15046382533939112,-0.26493140083301686,-0.9524553916027109,-0.02099033565239174,-0.09671019656379574,0.03887226750963058,0.9871236991051748,0.13066183098264636,0.08185077196036679,0.0425923990961112
52,0.52,-0.17093649719375464,0.09011552512247151,0.19947972335368913,0.15087670293170496,-0.2634475794551077,-0.9528017304976042,-0.010747738500633288,-0.07951836576262378,0.02527314267984036,0.9871602846490208,0.12979406966729917,0.08217342567998487,0.04376314664926459
53,0.53,-0.1530054779077417,0.06766740205324992,0.17542657429346925,0.15116399191404034,-0.2621784721663193,-0.953106243048958,0.002012170956305931,-0.0707362462245229,0.011874796063945625,0.9871908315906703,0.12904965269478355,0.08241925971748937,0.04480214722830135
54,0.54,-0.14641321146014857,0.044381026208886745,0.14442138003519775,0.15131307908793606,-0.2609797896091716,-0.9534115349179121,0.01520704103733346,-0.06387907645194481,-0.0024032613098298504,0.9872276749231415,0.1283568016948987,0.08257513137114177,0.04568552311902166
55,0.55,-0.15341520833233263,0.019686983479902342,0.10681082908686527,0.15132371076607923,-0.2597253549665253,-0.9537523326577007,0.02163940382684651,-0.05702715048941137,-0.01524055643324956,0.9872812550161268,0.12765302318388394,0.08263433085633386,0.046388065973093216
56,0.56,-0.15108372710551518,0.0018290591041792773,0.06300361162734806,0.15123131407790893,-0.258374849726671,-0.954133682653491,0.02190539171904484,-0.05460416437537853,-0.024660304700117132,0.9873546378377018,0.12691967273737526,0.08261014906855804,0.04687946035714174
57,0.5700000000000001,-0.117455688989754,-0.0132690326131339,0.007916415961798526,0.15110458454461784,-0.2571034179080359,-0.9544972077498904,0.021242935685192612,-0.0537560334804133,-0.02980132422763642,0.987435841865949,0.12624987269308574,0.08253656218004163,0.04710725649114696
58,0.58,-0.05117621629056659,-0.025313946204134675,-0.04752878786876719,0.15101567987698172,-0.25621219617256547,-0.9547509908109063,0.019848330943950457,-0.04818268543938679,-0.03501558811315872,0.9875038228449464,0.12580035010740384,0.08245450921021388,0.04702919297413943
59,0.59,0.033108076003551715,-0.03736805872720411,-0.0995138810249496,0.150963156593656,-0.25598104394610643,-0.9548213736177649,0.01925638365586403,-0.039484008390058556,-0.039581117297260465,0.9875395937801766,0.1257142568257779,0.0823725774883075,0.04665033011723003
60,0.6,0.11576809025217585,-0.05212863203519873,-0.14765578284921124,0.1509195759019328,-0.2564660300502002,-0.9546980332232163,0.01849831090291046,-0.03305440621732753,-0.0455397821044486,0.9875397006527186,0.12602001118347195,0.08227937962750566,0.04598038304497859
61,0.61,0.19312043277683533,-0.06915688163464191,-0.19445430902834437,0.15085859791519948,-0.2576320265590621,-0.9543934803432379,0.016423473246299718,-0.03086003849364142,-0.048469548002388084,0.9875063493028495,0.12669925562442166,0.08216080075315908,0.04502965216333247
62,0.62,0.265871348605473,-0.08787456630628149,-0.23268692162536503,0.15070817197361974,-0.25955219750893727,-0.9538964551088402,0.012596881592606723,-0.0323256612862852,-0.04754085822554149,0.9874344636330452,0.1277884428023128,0.08198477406532526,0.043829478672873
63,0.63,0.32164604348545894,-0.11114292680758611,-0.25335762197727213,0.15042364344055423,-0.2621188023877433,-0.9532389116846203,0.008367214637326507,-0.03930310104100599,-0.0479047242577809,0.9873285811043335,0.12922814122461884,0.08173141082823802,0.04244037559429148
64,0.64,0.34315974885932354,-0.13530469140432191,-0.25448534956478297,0.1499601877316296,-0.26505328256531147,-0.9524999804979077,0.009180231366593962,-0.050185745645327996,-0.04606725157130456,0.9872038073968074,0.1308673584397138,0.08138181443389729,0.0409649068229596
65,0.65,0.3291138530613708,-0.1543270761343301,-0.228807132194301,0.14929200415913507,-0.26793568163632053,-0.9517983988067403,0.012020972688358151,-0.06247485747444615,-0.039900382211296784,0.9870846608835592,0.13247967748941497,0.08092756451920168,0.039529852551198535
66,0.66,0.278127896430695,-0.1689382273222938,-0.1651563051321407,0.14835505240463767,-0.2705044957325698,-0.9512183119315616,0.013994775178988094,-0.07165206798714757,-0.03292232134647864,0.9869859389869305,0.13391657487954597,0.08035321434303686,0.03831002902643615
67,0.67,0.19831575025859904,-0.17954176493788895,-0.06373963255359888,0.147070351198823,-0.2725830103528693,-0.9508246037599019,0.016668064715109936,-0.0794683777264045,-0.025626877562715686,0.9869168151277825,0.1350705787503469,0.07964441409121195,0.03751662080821836
68,0.68,0.09446966524892955,-0.19503507744430026,0.05382730373008009,0.14534945769868038,-0.2739511168611585,-0.9506961425076023,0.016620725187495078,-0.09180683501079422,-0.022921188366251295,0.986892330223406,0.1358171312043815,0.07877397539586126,0.03730527890422479
69,0.6900000000000001,-0.018606053806467356,-0.2291303697478635,0.14936323336916396,0.14307790341215168,-0.2744468588819897,-0.9508974751912055,0.019234149311746766,-0.09963007843777093,-0.02987367987751375,0.9869298887505074,0.13607690437809294,0.07767864579923121,0.03765812417568245
70,0.7000000000000001,-0.10239889053955631,-0.26564155792786115,0.1983170603851278,0.1402600863282555,-0.27408035221530835,-0.9514223516470576,0.04106145429158998,-0.08668310021863404,-0.0489551813751395,0.9870348520627845,0.1358721108735261,0.07633492299233267,0.03838329707426211
71,0.71,-0.11707258222172401,-0.2896983256374055,0.2056504004406206,0.13707760240359335,-0.2732582781007661,-0.9521221442775513,0.07601397136996663,-0.050431758677533946,-0.07924303280993825,0.9871781655506413,0.13542992256134592,0.07481296246712876,0.03924513803488814
72,0.72,-0.06909657532541807,-0.30016142116443945,0.18699133501466964,0.13373987585988273,-0.2725868052877687,-0.9527891078060922,0.10000455476377434,-0.01160235724583197,-0.10848344039698238,0.9873143041776901,0.13507434947162575,0.0732099152713337,0.040061328940077856
73,0.73,0.022548014726002236,-0.29831573143813,0.14890366918618422,0.13043796432416424,-0.27255452403400343,-0.9532561526489147,0.09784068296693738,0.01578550580323379,-0.12340645691836845,0.9874064172656343,0.1350634371856104,0.07161824161689516,0.040701449919565647
74,0.74,0.1309261752896514,-0.2787337466466775,0.11037569646262434,0.1273474978684511,-0.2734570243665316,-0.9534155588126878,0.07757272088628953,0.04247815361590043,-0.12334590246376478,0.9874295931420993,0.1355490773509905,0.07012866899280958,0.0411166248256907
75,0.75,0.18547075739467964,-0.25257536630893335,0.0876758126249683,0.12456132652115802,-0.27513254598311515,-0.9533015746260596,0.06242541461447323,0.0667751826341037,-0.10511687874299215,0.987390403461807,0.13644127784394508,0.06879194157430171,0.04136439190133615
76,0.76,0.1545753081863836,-0.23895268936865152,0.07722841995756895,0.1220036135900281,-0.2768995442039949,-0.9531209629925412,0.05964454577605636,0.07029039349410025,-0.07401333511104263,0.9873370997167222,0.1373825102119162,0.06756494363153427,0.04154491570399833
77,0.77,0.0800181167130898,-0.22949429293595555,0.070302800830526,0.11957484835750257,-0.27810808556979294,-0.9530772259737611,0.05509377010534631,0.05103449206879269,-0.04712160640641169,0.9873188404474819,0.13803515069911065,0.06638751112709272,0.04171542053885494
78,0.78,0.030481901081299913,-0.2154790496104515,0.058357132459414235,0.1172746988872867,-0.2786715420347214,-0.9531986027112532,0.044013680074667855,0.027448699440364127,-0.03467281409632636,0.9873431836937744,0.13835493682897423,0.06525567427092259,0.04186606803836327
79,0.79,0.03733256991138882,-0.19842391532818662,0.041920223007683874,0.11515394654450481,-0.2790172261361358,-0.953356127513265,0.03320654842098354,0.02061307640908989,-0.0354263300050809,0.9873788757124106,0.1385632143557661,0.06420208922716931,0.041964968755617046
80,0.8,0.07304880924146914,-0.17843971033888134,0.024221612405698326,0.113269629735853,-0.2795634907969728,-0.9534218944465395,0.024552593738337555,0.03198507495443119,-0.04103667179807104,0.987394832282413,0.1388764967678105,0.06326239510724169,0.04198082147437291
81,0.81,0.10651201448354898,-0.15483083098245787,0.0069409150986165825,0.11165040745607163,-0.2804239453191543,-0.9533602586620485,0.017237544326840055,0.04947195439325727,-0.04272444507235615,0.9873824066386722,0.13935310566677478,0.06245291392392365,0.041905953734613144
82,0.8200000000000001,0.1256691900533442,-0.12988442013294993,-0.012412105735471884,0.11030491014195766,-0.28151681015694974,-0.9531948356498086,0.011875882643147484,0.05864789070626088,-0.03439700008682942,0.9873469837356887,0.13994973210868028,0.06177749390266275,0.0417535999015913
83,0.8300000000000001,0.1453896507585008,-0.10763826677235065,-0.03303839190488828,0.1092405073098603,-0.2827739319892351,-0.9529452801280192,0.009089335787644303,0.0558696676017537,-0.021137653974133454,0.9872939888671055,0.14063183531117945,0.061236039185206946,0.04151110207123474
84,0.84,0.1729600167070906,-0.0920768568437982,-0.05399681716142042,0.10842221959628537,-0.28423900142003516,-0.9526027510255118,0.008699406525705368,0.05352298789983064,-0.010878934255053601,0.9872216024689959,0.14142311931299903,0.06081037097348393,0.0411693209400369
85,0.85,0.18581808581937426,-0.08075129078654755,-0.07346853192608664,0.10779015002445352,-0.2858864425315214,-0.9521813548225772,0.01080471162065955,0.05497909692180223,-0.004269550513089318,0.9871327909178222,0.14231094471294237,0.060470417873862904,0.040737383642832435
86,0.86,0.1793422887103668,-0.07086900471801856,-0.08671175465447101,0.1073153342962513,-0.2875413251817848,-0.9517366443003166,0.014086822653399517,0.0565108819125699,0.0027614262209475667,0.987040816102491,0.14320450160770729,0.0601991544121361,0.04023252290321663
87,0.87,0.1775794094083251,-0.059228259553349635,-0.0883730033038744,0.10698344245994608,-0.2890812187366284,-0.9513075144868843,0.014562246717970281,0.05660406438526784,0.014730791403730414,0.9869540625320833,0.14403857695160924,0.05999134393562031,0.039691404441668174
88,0.88,0.1939482658017949,-0.044363701596626816,-0.0771883438335397,0.10677624113586857,-0.2906218563927058,-0.9508612273786897,0.010512695999265475,0.05561522959007877,0.02794148732629722,0.9868615229041348,0.14486949889636114,0.05985005004881937,0.039177997733269784
89,0.89,0.21650000823948695,-0.031185299264440147,-0.06494869514833185,0.10665734028598324,-0.292308345415347,-0.9503574148927318,0.0045212525814692876,0.0572567493539491,0.03619511272273185,0.9867514436053502,0.14577052584464498,0.05976648108936906,0.03873273759947065
90,0.9,0.2336337094835334,-0.021900171001236677,-0.048305368329088695,0.10659952397833626,-0.2941398874687933,-0.949798531083318,-0.0008052299375314446,0.06376212934476956,0.04278843528515035,0.9866246671741874,0.14674190917451127,0.05972674850644923,0.03835445975473304
91,0.91,0.22862571187086234,-0.015649860964023536,-0.022789185863740742,0.10656165995169993,-0.2960359977558345,-0.9492135379602507,-0.0035172292320749185,0.07010371097980626,0.050228728335820025,0.9864870383630454,0.14774047841188342,0.05971380997688265,0.038081087942413626
92,0.92,0.19442272380098163,-0.00550706458468839,0.004778434347967004,0.10652545741662149,-0.29776548875922965,-0.948676652387347,-0.005174227630145031,0.0686057805074672,0.056628241090183565,0.986355886273882,0.14864441016491028,0.059718955348782736,0.03795246726751135
93,0.93,0.15506014686714936,0.0034849097364219456,0.03281188893626867,0.10649984795044062,-0.2991753090868367,-0.9482359768082849,-0.00814105141995639,0.0618380691578181,0.06512792937772596,0.9862430579790691,0.14937342089185124,0.05974518467058383,0.037980857189542916
94,0.9400000000000001,0.12900462538484186,0.011541758643202074,0.060943375642722425,0.10647273939494384,-0.30033613696768874,-0.947872074904543,-0.009105689406993816,0.057339018271979805,0.0736531292163691,0.9861436158107821,0.14996404695890322,0.05978863539016458,0.03816764588046491
95,0.9500000000000001,0.109387005816676,0.016561540442965393,0.08348666602951219,0.1064382655605428,-0.3013533828490041,-0.9475530612897226,-0.005556271406573321,0.058444603328227304,0.07463614913040657,0.9860500466563723,0.15047204895539795,0.05984631245492931,0.0384940599092138
96,0.96,0.08754993824660713,0.01514924350596334,0.09930940311002576,0.10634905542404106,-0.30224324281765214,-0.9472796369107628,-7.25762878895698e-05,0.06317220955017931,0.06807197193693396,0.9859638794224398,0.15090876757103194,0.05988894217679034,0.038922588772889614
97,0.97,0.05967351485846941,0.013443931678578474,0.11272731868485115,0.10619304240981754,-0.3029435943181108,-0.9470734537531718,0.00781740186520468,0.06664442828924241,0.06287093180735848,0.9858914585416937,0.15124362019755516,0.05990512825651191,0.03942908555629918
98,0.98,0.02990502499930451,0.008278728918809361,0.12704579221232373,0.10595490578805261,-0.30339759802944455,-0.9469548263036601,0.016063085036290066,0.06515742861458934,0.055818029081157614,0.9858379495059952,0.15144757466246972,0.05988509185312604,0.04001069829785435
99,0.99,-0.0026915442892181483,-0.002875951927486775,0.1362728248945481,0.10559606428038094,-0.3035815018301744,-0.946935963855774,0.02046710463610261,0.0643029509759702,0.04644683231272091,0.9858068735359982,0.15150985512395948,0.0598062336250574,0.040653256576535846
100,1.0,-0.034061311152110224,-0.017247452856531294,0.1402384923538583,0.10509058943605046,-0.3034754919747396,-0.9470261274042224,0.02510182779768547,0.06631193553576416,0.0393481135880521,0.9858016441534376,0.15142248049180373,0.05965025565848806,0.04132842052017213
101,1.01,-0.05728902857931313,-0.03274760838874864,0.14128243257369144,0.10442860643034226,-0.3031318249868702,-0.9472093673668048,0.03198591956472656,0.06610917604034379,0.034430690667772795,0.9858189745904937,0.1512140396471091,0.0594104290822224,0.04201770976485439
102,1.02,-0.0741203049472282,-0.041003214974076316,0.1378009900999412,0.1036543180280282,-0.3026103062109076,-0.9474611116224756,0.03675335173234658,0.06373340805751632,0.029765634211845176,0.9858537365724372,0.15091655252138042,0.05910662087496554,0.04269494324411213
103,1.03,-0.08244367644043936,-0.048137009893625585,0.12810617606757568,0.10283377818801953,-0.3019740914446595,-0.9477534471504248,0.03565860844439995,0.06367416158654896,0.027226419939370444,0.9858999575501646,0.1505632817764018,0.058770069060864405,0.0433344005114715
104,1.04,-0.09305114465620024,-0.049293240279001185,0.11585993563171391,0.10200606866650304,-0.30122810664689215,-0.9480802037830613,0.030728830698349602,0.06361026719557587,0.028332816321234418,0.9859568064808008,0.15015689893253267,0.05841862501558892,0.04392245015370425
105,1.05,-0.10722765115140065,-0.0430426625322636,0.09932094202310308,0.10126245203794268,-0.30033675836465334,-0.9484426071133384,0.025230105370568735,0.05748861495382188,0.033388765427485353,0.9860252544817929,0.14967796149571458,0.05809575218691094,0.044446792485653225
106,1.06,-0.11747887943647835,-0.03700781682727209,0.08030581441321491,0.10064097925410512,-0.2993028492463826,-0.948835519974091,0.017762812846539123,0.051964402506195946,0.036097673067227026,0.9861046402643446,0.1491279739811418,0.05781869241791783,0.04489324651361182
107,1.07,-0.11833794112242654,-0.025590662609274645,0.0671108857995214,0.10014514506792069,-0.29820128770948257,-0.9492347641169,0.009915744834257976,0.048781083002057087,0.03504974044101972,0.9861887470690386,0.14854528487889104,0.05759203890251881,0.04526625117996032
108,1.08,-0.12309818716665372,-0.010242658016947523,0.05623664299544053,0.09981520771976662,-0.29706362564176114,-0.9496261281816485,0.005740132195584705,0.04346299120165445,0.03308490061416806,0.9862732323941323,0.14794411982871156,0.05744028746784188,0.04558650014824742
109,1.09,-0.13010579433045186,0.0076097967781549244,0.05021937885797197,0.09968601531022972,-0.29584327728235504,-0.9500205553665693,-0.0018121472807390475,0.03647272092718989,0.032706037290692894,0.9863596586765092,0.14729809701432575,0.05738369964196834,0.04587975408575297
110,1.1,-0.1225665276090957,0.02618216083775826,0.04816952585318294,0.09974167402112619,-0.29461944439015286,-0.9503949808222598,-0.013715755188186924,0.03160389639379863,0.03710789292163232,0.9864413413104316,0.14664749368866525,0.05741886893038807,0.04616206834239968
111,1.11,-0.1161149261646943,0.039879570617541674,0.04697253371032855,0.0999677905088987,-0.2934669085030891,-0.950727750357819,-0.02339009038611911,0.028104275501903583,0.042672055504409355,0.98651222167814,0.1460303536429826,0.05754273523875542,0.04644758641011131
112,1.12,-0.1267633745218944,0.05264227503422395,0.04484683608256491,0.10033520294045939,-0.2922868940668198,-0.9510524582399904,-0.02577232724833255,0.021891021253993115,0.04360388776631027,0.986581112824156,0.14539635438026663,0.05773694568178548,0.046731755755043194
113,1.1300000000000001,-0.14813560534717893,0.0601594391944883,0.041907211047179295,0.1007927067617078,-0.2909455547615604,-0.9514152545189796,-0.02419459279738266,0.016069033738406714,0.04450639802946717,0.9866594273519369,0.144677022093752,0.05797231386797589,0.04701942821672774
114,1.1400000000000001,-0.1597325535348733,0.06342196083527553,0.040328377068970855,0.10129557075740109,-0.28945782962150846,-0.9518154930668519,-0.024861781824563084,0.013531471378384142,0.04261362528336226,0.9867467962404218,0.14388093571037344,0.058226807071224254,0.04731263563544335
115,1.1500000000000001,-0.16183949942441475,0.06066321675760556,0.037878496862698556,0.10179261220306697,-0.28790744907514226,-0.9522326002710739,-0.024651088272244593,0.014334416868015305,0.034912963201915996,0.9868386955047884,0.14305313224644506,0.05847507910162214,0.047599198079762255
116,1.16,-0.16085034386831798,0.055608883810434606,0.03080671821213664,0.10225763495448513,-0.2863523550991688,-0.9526516361585884,-0.02014065829237564,0.018998341608917755,0.02751970211564524,0.9869326963264555,0.1422257671912396,0.058701498725027015,0.04785104781028639
117,1.17,-0.16809452103758282,0.045262796334850176,0.02849074129919403,0.10265310340135998,-0.2847876904311689,-0.9530780183690265,-0.014414852119765254,0.023311054278345872,0.024751797902931316,0.9870297513742958,0.14139675233001497,0.058887986185455196,0.048075247250127115
118,1.18,-0.1984754996744297,0.028510282922752934,0.024950246305444027,0.10292108066734655,-0.283052456116641,-0.9535657959588075,-0.01328017839101674,0.023659153218587498,0.018972985087478314,0.9871427910745249,0.14048326759917013,0.059002942502283245,0.048289247347777724
119,1.19,-0.24451132255376987,0.0149109134988448,0.02285138642656499,0.10302089222352567,-0.2809626447865402,-0.9541726389795464,-0.013493117780214421,0.018574247137932657,0.014440238993710804,0.9872865941206228,0.1393915484591295,0.05902002987407503,0.04849139240645325
120,1.2,-0.2903972119819968,0.005183811756878827,0.02769162605596209,0.10299943543981975,-0.2784471155966497,-0.9549118248624131,-0.013633611069667838,0.010272951315718808,0.016621182764213368,0.9874632551573383,0.1380828344413453,0.05896429002861096,0.04870565440648734
121,1.21,-0.32574018117707537,-0.005982395316406777,0.02647121027394999,0.10288384739675992,-0.27556284561731936,-0.9557604050921563,-0.01899312121020906,0.0033798617290772786,0.019159554133232174,0.9876668221955731,0.13658626086690331,0.05885128128237905,0.04893317804749183
122,1.22,-0.34326379943267793,-0.016232075116066173,0.020501172076553626,0.10266967880276529,-0.27242673964970526,-0.9566819722094263,-0.0278646419971528,-0.002313641573143162,0.017720294759074526,0.9878894778182499,0.1349641054414169,0.05867841649856491,0.04914639596982789
123,1.23,-0.332441777097955,-0.02170894624115176,0.014270936154051663,0.10238482169995947,-0.2692448329804872,-0.9576129535521962,-0.03268290030903316,-0.009762337429909968,0.01280553224240287,0.9881164862501949,0.13332359666760105,0.05846235822753149,0.04931794463548054
124,1.24,-0.30690686121192007,-0.022893839135969644,0.010924859405428124,0.10210409132363056,-0.26623431975591355,-0.9584843998614891,-0.03817605850027536,-0.010094861863918048,0.00813603128050969,0.9883300306835231,0.1317742544690159,0.05824883337683023,0.049456151842132236
125,1.25,-0.28789168456797626,-0.027064893492909185,0.0021914948941788646,0.10182716622402482,-0.26341005690879415,-0.9592939084192765,-0.04977781378314001,-0.007763151473122577,0.003766852840936646,0.9885299581238584,0.13032405597579338,0.05803706701283737,0.04955187572388188
126,1.26,-0.2851098182153587,-0.043276733464219376,-0.009936308669378517,0.1014715035804651,-0.2606729304688361,-0.9600789598945748,-0.05856354185198634,-0.013874733920514012,0.0005141831622511156,0.9887264307898339,0.12892435355756857,0.057781044139495814,0.049594064663417814
127,1.27,-0.29262188994112176,-0.06171390080800208,-0.017394605748317193,0.10095953757490553,-0.25792664469314214,-0.9608743262223822,-0.060769353171782274,-0.02460380629807134,-0.003188933587309811,0.9889280324242496,0.1275273135537395,0.05743901454248283,0.04958355818187622
128,1.28,-0.3057131031968653,-0.06437362335632978,-0.02722819894488938,0.10035646629263188,-0.25514147316249625,-0.9616806983869637,-0.0607527838582521,-0.03184464071308076,-0.003269209101243912,0.9891345367789244,0.12611563516578803,0.05704465454796699,0.04953048984639405
129,1.29,-0.3239539002687558,-0.05727522441113187,-0.03642615995700566,0.0998104088279501,-0.2522074776587533,-0.9625109361381696,-0.06168152411334115,-0.0395547901463225,0.003559370636925559,0.9893491992046853,0.12462979847421363,0.05666975588783742,0.04943379225484424
130,1.3,-0.3317311436023233,-0.047788847797495836,-0.04342483228024512,0.09942720452830148,-0.24899413495638148,-0.9633868331787893,-0.07278634313327428,-0.04735389245733418,0.012685316681578355,0.9895772583013535,0.1230005321657541,0.05636465796079799,0.049296762540795874
131,1.31,-0.3292565310400078,-0.03158655833623009,-0.049026037692247525,0.0991647996308401,-0.24574449363813727,-0.9642479710100241,-0.08688196107538657,-0.051460871554104407,0.022247927053926992,0.9898028429188022,0.12135247539704996,0.05611724507816676,0.049134183999454815
132,1.32,-0.33744169155030374,-0.015112325803889175,-0.04907911271417467,0.0990817497289685,-0.24247057398646402,-0.9650849205055422,-0.0967992024396779,-0.05284901812765564,0.02227722967407956,0.9900227666094693,0.11968960519042346,0.05595952753477823,0.048962355557901516
133,1.33,-0.35583790599300213,-0.007580651593406506,-0.0483275763908378,0.09911422166871263,-0.2390739222075857,-0.9659285041788898,-0.10555031968477836,-0.05374440172171922,0.015463972805755753,0.9902435059706778,0.11796155011458401,0.05585955949255936,0.048807490862433904
134,1.34,-0.3801601740053292,-0.007873384090379664,-0.05516692822298186,0.09917314724680325,-0.23546446397143525,-0.9668086153716026,-0.11677879685126895,-0.05671357549469253,0.010659321675639707,0.9904733416335161,0.1161254370035829,0.055767539067481595,0.048651081652570954
135,1.35,-0.3842296417688466,-0.007363379578376364,-0.06995200946718057,0.09925806893433683,-0.23169702873690695,-0.9677097151901043,-0.11937185851490421,-0.06533305756149174,0.002258266750385801,0.9907105789336793,0.1142119073370831,0.05567981786259337,0.04844910665371307
136,1.36,-0.36499407455159444,-0.0033565439942405836,-0.09626524578041185,0.0993994494242814,-0.2279686812790477,-0.9685804648384074,-0.11422619250975061,-0.06641481949945187,-0.0031088346838690417,0.9909453081751636,0.1123243405224263,0.0556107088948935,0.04814034621737692
137,1.37,-0.3290539844398572,-0.0016531959882839288,-0.12309876219878288,0.09962626661484886,-0.22449375687510711,-0.9693686733528928,-0.1133335684330062,-0.05981950430689278,-0.004378679686799436,0.9911659640281363,0.11057322055646278,0.05557751565474034,0.047690350293219205
138,1.3800000000000001,-0.28830773082060585,0.0017854043686300791,-0.15184979230569906,0.09994138811907351,-0.22135358702112956,-0.9700582823041637,-0.1119767689506969,-0.05272335103399477,-0.004166276162031201,0.9913685867528763,0.1090003030964114,0.055583309372749815,0.04708896327214833
139,1.3900000000000001,-0.2683497955701194,0.011567975767119537,-0.17390212177410055,0.10038582028885393,-0.21850341828617265,-0.9706584382859209,-0.10780549438832203,-0.049788807331213804,-0.0007843880113839678,0.9915542347010344,0.10758027372360375,0.05565070805211635,0.046361981807119826
140,1.4000000000000001,-0.27357133902986586,0.015865687911132954,-0.18799805829635924,0.10092076473073677,-0.21571536388970253,-0.9712263753252592,-0.10535232711601994,-0.0579561339352677,0.005990550884731351,0.9917352980019682,0.1061959825235894,0.055757927254269965,0.04554373562511176
141,1.41,-0.2949344124795104,0.016152996538990525,-0.1928273448272952,0.10148695434827695,-0.21275649226009002,-0.9718198263942647,-0.10386357778624167,-0.06669790696897816,0.014871275208507619,0.9919237292098185,0.10472714438629167,0.05587499133905737,0.04468830357514436
142,1.42,-0.3038848190461768,0.016330451737087744,-0.2031292550654022,0.10207044297741426,-0.20962626169106188,-0.9724387690297255,-0.09848787054497994,-0.06863397860374855,0.02079725269987411,0.9921195504918326,0.10317383263331843,0.05599533118479426,0.043796623683837695
143,1.43,-0.2990015795324214,0.017404128222444724,-0.20809626321895386,0.10267508461108192,-0.2064740466670619,-0.9730493448343538,-0.09456939081459226,-0.06854048910400141,0.0247462351458117,0.992313757564817,0.10161195758504482,0.05612528108701714,0.04287070200624306
144,1.44,-0.2937822357716303,0.020821456921787166,-0.20846835965106492,0.10329694428863748,-0.2033615706680261,-0.9736388971560105,-0.09201236983246633,-0.07300419813054289,0.023234876774623523,0.9925025312458516,0.1000719658344872,0.05626633171943051,0.04192829056606996
145,1.45,-0.2868549010062167,0.023247260219588665,-0.20404662625588305,0.10393707315273659,-0.20032753920951255,-0.9741996279427659,-0.08860353410499347,-0.06655913312944367,0.028796012684810236,0.9926828773086186,0.09857217191933648,0.05642228109160069,0.040992778111519516
146,1.46,-0.29183704550600553,0.02304973800897793,-0.2009430966197349,0.1045636960513753,-0.19730625870234988,-0.9747489683171107,-0.0859621285848622,-0.0630277654435523,0.03304486507374234,0.9928585874175933,0.09707904900815018,0.05657663608487497,0.04007670381160283
147,1.47,-0.30078451411493007,0.029215213532023037,-0.20006238244734886,0.10523243070566697,-0.19421507724902792,-0.9752976398765586,-0.07981445666855318,-0.06739743723613592,0.04075328337862344,0.9930327502287387,0.09554988208912732,0.05675501650231021,0.03917572570191117
148,1.48,-0.3164968661815113,0.032124705564557335,-0.19953389022003742,0.10591571508470266,-0.19098646329133867,-0.9758610927229098,-0.07475538605262211,-0.06920553682644717,0.05118690358964869,0.9932089395927586,0.0939507262879822,0.05694248438260101,0.03829440809054641
149,1.49,-0.3363875909821685,0.038194408052746924,-0.20014760008962526,0.10664197901765364,-0.1875784697426933,-0.9764428270536686,-0.07531217979496439,-0.07479799740766176,0.06026788803016283,0.9933884010451967,0.09226026640416954,0.05715198198900468,0.03742660212069767
150,1.5,-0.336117332274141,0.04465228774118645,-0.20582102540822747,0.10743452437249847,-0.18407663162301258,-0.977022275816926,-0.07793513575635791,-0.07932340864333902,0.06527655335692346,0.993567351933659,0.09052373266456062,0.057393955939154924,0.03653588868430339
151,1.51,-0.31997995731052353,0.046678862782772265,-0.21540452074813313,0.10827550023981514,-0.18064404078791232,-0.9775700118266212,-0.07661599957693556,-0.07741408711265171,0.06920582326285268,0.9937388896292944,0.08882500037674204,0.05766176273788065,0.03560775380500303
152,1.52,-0.30378411720606824,0.05244678947601662,-0.22556651394742439,0.109151839395421,-0.17735854251820854,-0.9780741062139536,-0.07027745902714808,-0.07068747486097209,0.0737623983583691,0.9939002851702168,0.08720450099938198,0.05794933046970749,0.03462910825840106
153,1.53,-0.28577929962240056,0.04983013964074959,-0.24110041409409025,0.11006564625656941,-0.17422752240795442,-0.978534432410129,-0.06730539498612036,-0.06439110720907863,0.07575483962270324,0.9940519117273984,0.08566684971590474,0.05825651561464846,0.03358430033310931
154,1.54,-0.26499445101414315,0.04339648319530446,-0.2533543525764888,0.11095625338288781,-0.1712568856667613,-0.9789582001893253,-0.06269574367514344,-0.057437841370546174,0.07701189683978954,0.9941959569411365,0.08421696720867129,0.05855136415123462,0.032455401253684825
155,1.55,-0.2474260090104231,0.03230916196252086,-0.2617279096268246,0.11176923856184028,-0.16847619321454946,-0.9793482060386373,-0.06251360333016193,-0.05409050090396224,0.08277777644865868,0.9943322125293896,0.08286916994149966,0.05880890727991186,0.03126457675110395
156,1.56,-0.24684817628783381,0.010676978765067981,-0.26798163670460134,0.11242302274228595,-0.16576841528444725,-0.9797353914202349,-0.062221806715644076,-0.05312489164066251,0.08754516134840519,0.9944677882603853,0.08156450774143412,0.05898672508597278,0.03002275593702637
157,1.57,-0.25869220227858136,-0.024042874796019117,-0.2583924299611925,0.11280194114432693,-0.16300298336064495,-0.9801557496124242,-0.06103907966591779,-0.05187986453815967,0.08881333425928244,0.9946102457921614,0.08023507014569285,0.05902842215764939,0.02878058509723049
158,1.58,-0.29202691564675254,-0.06942673439049639,-0.24587367821214812,0.11275112687742855,-0.1600419528546202,-0.9806493416838691,-0.05823212831996887,-0.06593112076759873,0.0901201522227057,0.9947678780210937,0.07880919741132805,0.05885823638603267,0.027593552645570858
159,1.59,-0.33767348989877954,-0.11647178511128443,-0.2383555541181719,0.1122096243215902,-0.15666302025931594,-0.9812569136708924,-0.0563886126366668,-0.08897273429294231,0.09102898590465817,0.9949518270692055,0.07717573023779761,0.05844069980644141,0.02644328792059118
160,1.6,-0.3298125680935485,-0.14360801034656864,-0.23910708380753212,0.11130219304392641,-0.15308422635877067,-0.9819249495502975,-0.05238141010837129,-0.09016059759730675,0.08366362667999172,0.9951493441577338,0.07544459323658184,0.05784059985567661,0.02530154374146438
161,1.61,-0.29413714898217974,-0.15827112726312517,-0.24784252071266602,0.11016448185361091,-0.14976441371209967,-0.9825650754332452,-0.0518146472839668,-0.08427782313732318,0.08392952933694463,0.9953396641407148,0.07384874514388985,0.05712931496506718,0.024113775738061165
162,1.62,-0.2523133010258045,-0.1627300758974271,-0.2586176252068263,0.10896800560962167,-0.14679585573010795,-0.9831463532866531,-0.06158128621967271,-0.09911150435476462,0.07808181920807732,0.9955148490048945,0.07243260250945863,0.05639408771040804,0.02287788637682164
163,1.6300000000000001,-0.20210465578835277,-0.17876272656331502,-0.2720792719666021,0.10766751989445542,-0.14427733351263416,-0.9836623671390676,-0.0731982465272874,-0.1103636320307555,0.06234793782300724,0.9956738343444556,0.07124788837772829,0.055610504946155666,0.021560435648298185
164,1.6400000000000001,-0.1767580200204232,-0.18517462004562524,-0.28433939935000707,0.10626593409133707,-0.14212562388068556,-0.9841279062716847,-0.0806480841609446,-0.1299399345607606,0.05306939974056153,0.9958200105086585,0.0702521229444624,0.054778235425917934,0.020159928055892465
165,1.6500000000000001,-0.1526656918910125,-0.17994951589587144,-0.28319918462115745,0.10487478970631416,-0.14021010392622468,-0.9845518791529746,-0.08052214122138694,-0.15999695724216792,0.053633172787437615,0.99595442070228,0.06937541911107774,0.05395471821855535,0.01872472564434622
166,1.6600000000000001,-0.13902864321177572,-0.16465059434363188,-0.28203453214321283,0.10354765037908722,-0.138486546093675,-0.9849361958997264,-0.09318223314899945,-0.18678733353811944,0.0527529088470527,0.9960765874121971,0.06859230600879171,0.053169403976682315,0.017304697773516592
167,1.67,-0.09140196867625516,-0.13855333521846053,-0.30544209310790676,0.1024557304411405,-0.13701955114220699,-0.9852555574620062,-0.11181262308798548,-0.23177996410265528,0.028692461199924333,0.996181304993346,0.06793817695320842,0.05250369175801582,0.01582801169927393
168,1.68,0.02630572161295859,-0.10823839405232116,-0.3519216585877415,0.10168383647823129,-0.13634048966717746,-0.9854296593838286,-0.12363691426027709,-0.2784900548278598,-0.029918987906318712,0.9962500830811938,0.06768764991811238,0.05199556207751476,0.014163020428381697
169,1.69,0.19348028190356062,-0.06748760524234604,-0.4244584386684603,0.10131428047853325,-0.13702215241141047,-0.9853732213070511,-0.13145311650671276,-0.319400464182276,-0.1116482484218551,0.9962621822905613,0.06813633238028499,0.051680132535139804,0.012179030933749469
170,1.7,0.4068930680751174,-0.0052684010853139215,-0.5060410970821382,0.10160256727431535,-0.13948805549120669,-0.9849973968668374,-0.13618052998117663,-0.37444770449281417,-0.21846754181422845,0.9961943037261491,0.06950359949585388,0.05167700571787274,0.009771052047062492
171,1.71,0.6782308021098533,0.043209633299474096,-0.564557208399257,0.10256709422006681,-0.1442668171221263,-0.9842085492970313,-0.1443228788347989,-0.4425203793126642,-0.33778171341328667,0.9960199456030999,0.07205868642595391,0.051991393010369105,0.006954113571862592
172,1.72,0.9509982420418435,0.06471056417301654,-0.5832027204768561,0.1039715077048907,-0.151728042139321,-0.982937753701082,-0.1552082029859614,-0.5120473717147905,-0.459764654526552,0.995717518799944,0.0759849914235914,0.05250621274813163,0.003895218885424803
173,1.73,1.1537858797824583,0.05174437533828768,-0.5712578944039753,0.10548771421500414,-0.16153119785706732,-0.9812116003556184,-0.15441856079758057,-0.5808827641450223,-0.5865803590862084,0.9952913388898958,0.08110790843038808,0.053053841988157144,0.0007491671746439692
174,1.74,1.268301451450979,0.023327435049858715,-0.5270992373732722,0.10677917202704326,-0.17296454896308175,-0.9791198055938948,-0.1258246675687047,-0.6276155988323264,-0.690984425663479,0.9947634232677475,0.08706170167409821,0.05346798412290133,-0.0023067294854384
175,1.75,1.2650881779922716,-0.00324457911249397,-0.44065489541506075,0.10776042221800532,-0.18493389878246155,-0.9768213567934911,-0.07603396925015456,-0.6620525068103831,-0.7357802526577186,0.9941755488529527,0.09328150538061349,0.05372168398359713,-0.0050452282923551545
176,1.76,1.2128904170326102,-0.04862773465518244,-0.332576666642266,0.10826258068209975,-0.19658252667492726,-0.9744880959540246,-0.039121338987349374,-0.6799487068110923,-0.7383521149660731,0.9935745098095029,0.09932255671330943,0.05374991841915372,-0.007309805559873773
177,1.77,1.2302096635143012,-0.12826806533461388,-0.20297522401827542,0.1079619628707531,-0.20817018637823304,-0.9721117249516236,-0.008988953513804191,-0.6265956772241463,-0.728951269715293,0.992962475507014,0.10530745699429563,0.05340766024981937,-0.009007793108655127
178,1.78,1.2800519651564177,-0.21020788790628625,-0.09065677043887185,0.10663522956327,-0.22017953608967333,-0.9696082670538103,0.0359923856207524,-0.5307216367481496,-0.7201297469768986,0.9923210657217592,0.11147958767289476,0.05258990212540272,-0.010146078959818327
179,1.79,1.3835824421786387,-0.32961823893579417,0.0201060842197522,0.10409298061443516,-0.23301893631296067,-0.9668787348230489,0.08931390785013928,-0.4160044143705783,-0.7248884733021477,0.9916260488735598,0.11805222840883382,0.05119756894305225,-0.010819698510737176
180,1.8,1.443656941812924,-0.4658752243463905,0.14712060002551874,0.10004719608202084,-0.2468005913680342,-0.9638797006760533,0.14262335810959612,-0.27130373359742194,-0.7260255255357593,0.9908676722601496,0.1250832368970169,0.049095276277279276,-0.01100449179314077
181,1.81,1.3992340693334469,-0.6049536545180257,0.2853788242802281,0.09432991058003957,-0.2607515048902741,-0.9607766895139457,0.19146438089563034,-0.16599953755346328,-0.7154417431986415,0.9900886955846714,0.13217709235529926,0.046219663473418035,-0.010617950647767556
182,1.82,1.2587409252148491,-0.6957296355347244,0.43070719037728655,0.08709016886328305,-0.27386718808745353,-0.9578062063524732,0.2093746976474034,-0.10895046483694325,-0.6653633677990105,0.9893488304975058,0.138821725795035,0.04267002075748342,-0.009580126146463945
183,1.83,1.0846252382491721,-0.7371580526806025,0.5925669632010224,0.0787875962556659,-0.2854981295118623,-0.9551256234360472,0.1945985368647313,-0.08936712472931346,-0.5713444932020953,0.9886868293989685,0.14468881285660964,0.03870383854883134,-0.00779973523142345
184,1.84,0.8880699436112879,-0.7354364080409634,0.7570330208959208,0.06977232557006563,-0.29542528307036886,-0.9528057374720907,0.17084313105795593,-0.06467332254248397,-0.47346359157173346,0.988117068855357,0.14967148901493108,0.03452129520910748,-0.0051852669035501175
185,1.85,0.6809433763659793,-0.7041198569865939,0.9181318536086477,0.06038453679712748,-0.30341511237192176,-0.950935377904963,0.16902369458387406,-0.021062025072551463,-0.38600038454585084,0.9876555924244989,0.15365794568493593,0.030304140097574903,-0.0017140291383083428
186,1.86,0.4905813592819003,-0.6158087054179534,1.0662760008009888,0.051014230904985566,-0.3095060647854753,-0.9495214022286256,0.1849084302850284,0.040450032206047086,-0.3163550865993887,0.9872952823391457,0.15667744921289134,0.026247886723985387,0.002592183926533506
187,1.87,0.30023450641352517,-0.5373173185089629,1.1887052095082802,0.04207708472990468,-0.313780674777874,-0.9485573028498434,0.19916759240567408,0.11984438960040392,-0.2790020351948343,0.9870242472527203,0.15877951572032692,0.022551404566298124,0.007678843595363846
188,1.8800000000000001,0.1086046908011517,-0.5440176273441382,1.240924605616817,0.03314347590047331,-0.3161938434711654,-0.948110513305567,0.21479320258530002,0.2177632567461689,-0.27248076834809887,0.9868516179601504,0.15995135657405568,0.018940495792295422,0.013248555540261381
189,1.8900000000000001,-0.08749524674797796,-0.5564967287389169,1.214568039243984,0.024005217046933647,-0.3166053141302358,-0.9482484534634206,0.2583528635092241,0.3147704518753999,-0.2343564520956434,0.9867947278718724,0.16013208967983464,0.015227793822259465,0.018884916392195902
190,1.9000000000000001,-0.17624043048329457,-0.5267500222642131,1.1161755929800234,0.015149417466150616,-0.3154947075141361,-0.9488014097378782,0.3143864038136631,0.39783866769515097,-0.15664662658113554,0.9868181660962658,0.1595721329364607,0.011594199946535981,0.024233918613674882
191,1.9100000000000001,-0.09223685680233423,-0.46251716354704286,0.9635596565598764,0.007147010698837296,-0.3142391609443078,-0.9493127717702031,0.33785596166725973,0.4906667292893495,-0.07208302693311028,0.9868200496426992,0.15897650803736496,0.00828978568133555,0.028981394437929738
192,1.92,0.1246705134446474,-0.36663354325322883,0.8020307508288815,0.00042693082159050034,-0.3143967895465798,-0.9492886656710543,0.3263284760375898,0.5787627339287862,0.013719501731302666,0.9866879846887296,0.15913534001513369,0.005539171478078584,0.03300259331523904
193,1.93,0.356239689084783,-0.2645064531145208,0.6561916595622037,-0.00488333399918816,-0.3167084598834357,-0.9485080228659463,0.30552931937432776,0.6275700331226122,0.0785457756588119,0.9863732386441004,0.160416301687371,0.0034347148930760738,0.036337000931257586
194,1.94,0.48665721666824935,-0.13166722680325843,0.5402298372685038,-0.00870378947332064,-0.32075031489224975,-0.9471213729660848,0.2899617945660643,0.6219345434752882,0.12714201930402663,0.9859156953345621,0.16258601891648444,0.0020368266813658017,0.03911329521133092
195,1.95,0.4581299212850755,-0.008009855045541539,0.4551810509524404,-0.01095219104625881,-0.3252556286726004,-0.9455607021557713,0.2743625953228263,0.561311587433449,0.16417327814361632,0.9854227584472081,0.16497536726729928,0.0013900288116173247,0.04149174942265474
196,1.96,0.34118753362163745,0.06776116107246347,0.37650312675018976,-0.011991485554790196,-0.32902923385510574,-0.9442424227750604,0.24919941051976965,0.48335175462886737,0.1855225718991365,0.984998698025436,0.16696282906254797,0.0012983834174382152,0.04356714615421928
197,1.97,0.1636505983037528,0.08074868204338205,0.315106675282687,-0.012393458331977823,-0.3313903387338118,-0.9434119538351561,0.2418734436930397,0.4314103111488009,0.2094128140068929,0.9847087634153694,0.16820149703651052,0.00144921394465991,0.04532361082529346
198,1.98,-0.006916016788305973,0.07360995187179933,0.2490068895467321,-0.012594245342441236,-0.3320665952201444,-0.9431718543878637,0.25679700887864676,0.3859478769593059,0.2167866827171458,0.984579753435115,0.16855701508397353,0.0016127169775988742,0.04677899345581429
199,1.99,-0.1261103425352795,0.05072448124121236,0.19767715247216283,-0.012737694594420687,-0.3313649214408324,-0.9434165840548092,0.2629611127109094,0.348230217847022,0.22918941434391862,0.9845869650921909,0.16819248276836732,0.0017177784245445882,0.047922668973254874
200,2.0,-0.1621407720544013,0.02758391275291311,0.1639745167087211,-0.012974549352818313,-0.3299313669385191,-0.9439155030773644,0.25109925656658,0.31761192392079707,0.23355903506692718,0.9846685467570733,0.16744905446557945,0.0017174417335962654,0.04884170609510465
201,2.0100000000000002,-0.15556593483862077,0.01677330210373128,0.1609157686715786,-0.0132878100007715,-0.3283959428737008,-0.9444464351111956,0.2399692673209725,0.29681611070356045,0.2568518182197491,0.9847628732388721,0.1666551278436229,0.0016558245225247068,0.049651038519205465
202,2.02,-0.14868201073421405,0.018211495854061552,0.18413976403074633,-0.013687311643035828,-0.32694020905321214,-0.9449456652136673,0.22853431459852172,0.27651828446802096,0.2962625312900072,0.9848458573965534,0.16590548756758403,0.0015599431033841125,0.05051108083166768
203,2.0300000000000002,-0.16942181896354375,0.029457975078039152,0.21965637824129527,-0.014105468459276512,-0.32542918620757516,-0.9454609301411097,0.20851189992994124,0.2459830345372704,0.3421322637992607,0.9849243113195553,0.1651279365602316,0.0014770106267138457,0.05152136314831118
204,2.04,-0.2246409013247501,0.03957762355139956,0.26555453816419006,-0.014572438179698312,-0.32353694195695526,-0.9461029037695059,0.18304841559689286,0.20302548352407354,0.3725440692284766,0.9850226108016309,0.16415369246431338,0.0013919895904254368,0.05274071419148145
205,2.05,-0.28643984442764514,0.06872094251465197,0.3049067414592248,-0.014989925927704477,-0.32108053943947495,-0.9469325314416647,0.16045310387137535,0.1583439373533383,0.4043898778054094,0.9851545924379002,0.16288519816965025,0.0013510742667559334,0.054187436991721724
206,2.06,-0.3338250067287738,0.10307209498442155,0.3427495590528349,-0.01521123110467995,-0.3180762401728496,-0.9479420791536932,0.13929144340085786,0.1217771940330043,0.4324597537613025,0.9853175687315535,0.16132717026924717,0.0014257730510574683,0.0558551729719407
207,2.07,-0.3642109473368404,0.13943172732615688,0.3787348300340094,-0.015204391764479281,-0.31470266727097823,-0.9490672729890974,0.11602240464675495,0.09516341232378588,0.4402390669288638,0.9854944206693986,0.15957163016704703,0.001634206092886573,0.05773794140789789
208,2.08,-0.410802578494645,0.17536361408493517,0.41983301102150083,-0.014945537883442965,-0.3109847829601274,-0.9502958072404635,0.09866624065538353,0.08260928997889981,0.43888154891890496,0.9856809303439019,0.15763057461044114,0.0019864964764573037,0.05983372534649053
209,2.09,-0.5139103007718175,0.19773249418913377,0.4527269675022108,-0.01451347395926881,-0.3065673610688552,-0.9517359409359587,0.08728854158197664,0.07598854869229424,0.42923686127773525,0.9859037396007463,0.15532223008256993,0.002427329893185735,0.0621349516708484
210,2.1,-0.6560712926011305,0.21186869091718874,0.4837999233916423,-0.013983103785029169,-0.3009306304697515,-0.953539541047883,0.0802091222054413,0.06715188252300255,0.42100271230600667,0.9862021683230201,0.15238101345036528,0.0028914142974647106,0.06460513608414313
211,2.11,-0.7839522224523323,0.22231429606427972,0.5243022085980832,-0.013384087492465037,-0.2939741333588036,-0.9557136958517647,0.07494749888397623,0.04612610050840408,0.4117737130581653,0.9865756132481572,0.14875834853887485,0.003356436640491224,0.06725976208474871
212,2.12,-0.8790860145081817,0.22531474256285167,0.5601741490670674,-0.012808600509162745,-0.2859229847215161,-0.9581591852330844,0.07008146696507746,0.019924422055721803,0.3979235306773536,0.9869960538356924,0.14457664443276072,0.0037799316016130947,0.07011914733701094
213,2.13,-0.9212502317244451,0.23221928534235814,0.5919954125150501,-0.012233690085908834,-0.2771745031652387,-0.9607327308461739,0.07100808661538567,0.006307455015507816,0.3889880595816325,0.9874282383541526,0.14004254380252376,0.004175988126856259,0.07314342290094766
214,2.14,-0.8818239971262553,0.24294433873587143,0.6158027720454828,-0.01158480924532508,-0.2683990043533953,-0.9632294800589515,0.07508060370546452,0.01861455104548857,0.3915592256150921,0.9878202308331917,0.13549878854796174,0.004601023678463967,0.07631327987140735
215,2.15,-0.7943976686149081,0.2711493125931566,0.635127744664961,-0.010742213050137,-0.26024122312892833,-0.9654765877641062,0.07726709597822835,0.042755322809977445,0.3999006896451586,0.988129344394482,0.13126986929069948,0.005136284406633052,0.07960131735823053
216,2.16,-0.6979304408871431,0.3027516732860871,0.6408787643787065,-0.009547091549549533,-0.25299456514784674,-0.9674148363024427,0.0739532191626339,0.059166914730094534,0.40320592896023616,0.9883431804853952,0.12749610969640365,0.0058696328070518885,0.0829620458070468
217,2.17,-0.5867287171796185,0.34177444000224694,0.6261478119888637,-0.007972342596539958,-0.24673170441084985,-0.9690466089149466,0.06719382540280584,0.07140818805940556,0.40293004590305603,0.9884692143260041,0.12420962222819369,0.006810695053855833,0.08631019741717653
218,2.18,-0.4742853569814304,0.38277258508026396,0.6159156203128187,-0.005954577226708767,-0.24158033135945475,-0.9703593724364534,0.05893983724905212,0.08044922530316917,0.40137701576516777,0.9885063576715817,0.12146846660742325,0.007999333581907932,0.08962399469004693
219,2.19,-0.42977705954880363,0.4245912581164962,0.5929561092974678,-0.0034767512580002793,-0.23721181017801504,-0.9714489438946011,0.042799450819343846,0.0667513532109971,0.3941591293452351,0.9884809964799005,0.1191007408170197,0.00943130819116743,0.0928845417193149
220,2.2,-0.43933851853205835,0.4642800764263839,0.5601549782478245,-0.0005109449592437358,-0.23299979824561312,-0.9724734634811247,0.0189695331832343,0.02969839062332881,0.37217658269209447,0.9884408668951389,0.11678434855027872,0.011084466646502951,0.09601765473218771
221,2.21,-0.4601516814762984,0.4883837748005305,0.5334804339430403,0.0028707371067581283,-0.22863351744337848,-0.9735046376726769,-0.0031022995912751913,-0.0028611301763773606,0.3378798012835202,0.988405454123333,0.11436337337385559,0.012907807077483851,0.09902090048255388
222,2.22,-0.47380531802075476,0.5047248721384585,0.5238388298460652,0.006521585701771377,-0.2241258221945567,-0.9745343746470512,-0.011599742793862987,-0.019542473797502825,0.2913332560804129,0.9883688582698301,0.11185036649009321,0.014834016105486581,0.10194243780923981
223,2.23,-0.4923099364422978,0.5205945329529341,0.5351508813910411,0.010349088293848622,-0.2194587973877155,-0.9755624989275041,-0.007614620650536839,-0.02396363552416887,0.2385628635148674,0.9883215338694668,0.10923905539708195,0.01682625729962134,0.10487944852143764
224,2.24,-0.4845099490876767,0.5308245449855317,0.5604106889629431,0.014305723205805214,-0.21473933811149767,-0.9765621179165325,-0.0047604843825271225,-0.019632358414242886,0.19695744480291394,0.9882471731355889,0.10658384227216856,0.018875298905605537,0.10791885014869074
225,2.25,-0.4522844266775168,0.5464925401610407,0.5836057890289578,0.018354325846989792,-0.21026132930326755,-0.9774686796567629,-0.007195622747153905,-0.014119945999245168,0.16655166000366478,0.9881260872352999,0.10403379227061695,0.0209806328854593,0.11108021568641634
226,2.2600000000000002,-0.4026410550788383,0.5789892890862685,0.6083571741464473,0.02261605224697754,-0.20621368133967055,-0.9782415193967641,-0.008409541108401895,-0.022588354403898885,0.1324149828227755,0.9879476706508283,0.10167579079837823,0.02321352751727409,0.11435718383585784
227,2.27,-0.32865306543864775,0.6330107369400801,0.6452739300149066,0.027261541460819053,-0.20278751565428546,-0.9788392664555711,-0.01231334915719268,-0.01589157940704776,0.0871405268527316,0.9876946264221163,0.09959240821944985,0.025676985450635032,0.11779695026175324
228,2.2800000000000002,-0.26561131748309696,0.6982571428953748,0.6954699867665478,0.0324456318968317,-0.20011297503752204,-0.9792313240727115,-0.02551726581635251,0.008068429474067655,0.03569572446670104,0.9873481977484765,0.09783366275361682,0.028466050442980274,0.12147421958826765
229,2.29,-0.29017374569407817,0.7249697011112168,0.7296765990325085,0.038022843993054944,-0.19770766446501936,-0.9795187820071998,-0.04031533846801041,0.006732190560346558,-0.029497022076268562,0.9869308736894978,0.09616027581790176,0.03147926041435935,0.12539172284070635
230,2.3000000000000003,-0.38871609114378797,0.6908187998144896,0.7330046503742099,0.043541780933770396,-0.19469087944031443,-0.9798927960549273,-0.0389476049345868,-0.02014646431027381,-0.11627785427282095,0.9865071455855443,0.09415900732927333,0.03441834296166979,0.129407035018372
231,2.31,-0.48061565784880655,0.6283545713026857,0.7149701153453344,0.04861775577857934,-0.19072712944439776,-0.9804332421674199,-0.0021229236414674613,-0.03647300590226746,-0.21639870223389862,0.9861171582123366,0.09169289652916207,0.037049543479425205,0.1333640928103857
232,2.32,-0.5035977778741608,0.5627089842018006,0.6925895623442323,0.05314365380228194,-0.18621292574937792,-0.981066157163221,0.05832243944835751,-0.028602252895139506,-0.3239848305133839,0.9857517676787266,0.08897505240870203,0.03933715198906311,0.1371974822939321
233,2.33,-0.44189368801073087,0.48888566310415327,0.6599871949014988,0.05708693330898844,-0.18191769092325222,-0.9816514828408994,0.10806276830035018,-0.0017676016826583194,-0.42618379029764436,0.9853843936210304,0.08640033993038197,0.04131531674103709,0.140855288031044
234,2.34,-0.34247112981813366,0.4061450239339021,0.6286640196849862,0.06033036227100141,-0.1784530536115368,-0.9820948805161718,0.14282839584755905,0.03456159790938946,-0.5001636542225596,0.9849993761960446,0.08428904626602438,0.04297083836728605,0.14429459013072937
235,2.35,-0.2814737868757805,0.330092895085663,0.6116782426183069,0.06284919141966784,-0.17582919090597796,-0.9824110913639518,0.18063291418055843,0.06511381581541745,-0.5309429379376877,0.9845961067499582,0.08264954432942104,0.044301642770437924,0.14755865889718195
236,2.36,-0.3350713117380541,0.26946066575534694,0.6178497025559893,0.06474327286090756,-0.1732807040293383,-0.9827409059641845,0.22509986748597136,0.06879628703805789,-0.5039565816515507,0.9841931897425245,0.08108946095755679,0.04531260691883865,0.15077055528750372
237,2.37,-0.5120470069428038,0.22007465545856436,0.638112459256699,0.06609524088253924,-0.1696026310432454,-0.9832910571296712,0.25507748820138304,0.03528262117940956,-0.4302889646861818,0.9838246573367996,0.07899849543169148,0.045958933357359136,0.1540515146501428
238,2.38,-0.7540249490890671,0.1855292586078836,0.6653924157271056,0.06704743717341644,-0.16385489164747108,-0.9841974498834956,0.25750627636487056,-0.020108156701693032,-0.34214483202552637,0.9835130585399514,0.07589765645128127,0.04623477966117432,0.15747331513599439
239,2.39,-0.9791591193170682,0.1688841541772605,0.7109145294146453,0.06772637929419005,-0.15578238126399963,-0.9854563443321593,0.22999457762025374,-0.07555404195551962,-0.26197004163594706,0.9832424592569138,0.07165184091583147,0.046176989196496494,0.16111769853089372
240,2.4,-1.1697345423066394,0.19498308854856936,0.7660313271407825,0.06838577480232352,-0.14568216352859117,-0.9869498535665173,0.16222514069073918,-0.10575842729820514,-0.20905330003390232,0.9829678883693375,0.06639089629440434,0.04592788038943704,0.1650599926912511
241,2.41,-1.3269302534551333,0.2605321816385773,0.8224424608187404,0.06951359558529911,-0.13388154701734406,-0.9885361106654613,0.06182781694109017,-0.12145707487241206,-0.20036192431240885,0.9826466107512681,0.060240502423753006,0.045743307482352565,0.16931866964458672
242,2.42,-1.4532595902740657,0.33092960019390266,0.8754150194273134,0.07137574603092703,-0.12069801299862747,-0.9900953663200468,-0.059871881365444815,-0.13114487196951902,-0.22806191131891387,0.9822438976844264,0.053336527078245134,0.04576695491473104,0.1738936785099684
243,2.43,-1.5101947067362638,0.3762927131721873,0.8938170643773564,0.07390861348706876,-0.10661086172758033,-0.9915228340250263,-0.19781509556334248,-0.11338707267889338,-0.2794944685566354,0.9817470792382987,0.045924482049801,0.045990617721215404,0.17868460480794637
244,2.44,-1.4607961705510122,0.3707796677226887,0.8267966151139094,0.07679711578399243,-0.09246466069907913,-0.9927241412080556,-0.3154782581801595,-0.062192841456973645,-0.3531650516073446,0.9811910264558309,0.03846220553630672,0.0463138053260234,0.18336046594601615
245,2.45,-1.3002830996952421,0.3093783702224106,0.6469796335174612,0.07955906518383415,-0.07928704634698666,-0.9936511543102505,-0.3752982833131904,0.004694975472068728,-0.4467623035923152,0.9806667424172857,0.031523108907024866,0.04658127331168036,0.18739002857275863
246,2.46,-1.0505494992684772,0.21033082619395616,0.3732844356198487,0.08177316430112545,-0.0679869179153992,-0.9943155916702006,-0.37438039854657157,0.09160726060913955,-0.548923755188565,0.9802910283545128,0.025618807969453095,0.04667699184716334,0.19022632607179615
247,2.47,-0.7646348182799336,0.11572427649429332,0.06789794481128852,0.083249421158811,-0.05914136805365477,-0.994764729213747,-0.33646383051258966,0.1884099824016876,-0.6172524776335596,0.9801502986231633,0.021066166229220692,0.04658385508556345,0.1915402402424439
248,2.48,-0.5476273006598479,0.05563583120760466,-0.20435677777498182,0.08412770546367136,-0.05262098091238484,-0.9950606626826713,-0.30013938507510973,0.24749087369146,-0.6051159084793698,0.9802607540987228,0.01778567868655158,0.046383509947993035,0.19136103273190788
249,2.49,-0.478198591686371,0.03272104928900975,-0.43617995869677384,0.08471968521150028,-0.04731754289706739,-0.9952773754725586,-0.29499263647138024,0.24108449497615778,-0.5151695528479778,0.9805982764204194,0.015191103339664858,0.04614123881955403,0.18990698099887435
250,2.5,-0.5072917070926968,0.028348612608116823,-0.6290244627635444,0.08526493928313832,-0.041978972095055786,-0.9954696129826667,-0.3051043578143258,0.19274767599276585,-0.38250860635516815,0.9811287645049068,0.012632508875734168,0.04586741560604985,0.18740025665596985
251,2.5100000000000002,-0.5556791669807721,0.014369648172150473,-0.7741119159767454,0.08576333965368135,-0.03608349452487936,-0.9956569922416556,-0.2957206125675836,0.13928885650643888,-0.24491063681520703,0.9818071502801011,0.009841596885209252,0.04552417005818817,0.1840642727276692
252,2.52,-0.5933363075924832,-0.012792112037288658,-0.8778117869534591,0.08604908629006655,-0.029649901204828213,-0.9958439760756596,-0.2625917784566044,0.0970623673204914,-0.14224850973027708,0.9825844078178505,0.0068305844928829755,0.04504274819096584,0.18012590652431654
253,2.5300000000000002,-0.6124393524119511,-0.047891874774316306,-0.9647110612463281,0.08600145121226664,-0.02284134803870097,-0.9960269909490399,-0.2263650019993952,0.0737032759628152,-0.08636646363973602,0.9834256703765473,0.003681237859869938,0.044387218935535176,0.1757326350265054
254,2.54,-0.5936869624523357,-0.10395324041176313,-1.043441524901794,0.08547534676139251,-0.01594306692313204,-0.9962066848933886,-0.2029796289964774,0.0658733821522278,-0.05881357441110723,0.9843171230820461,0.0005412073162991097,0.04351677845447461,0.17092862502319572
255,2.5500000000000003,-0.5333574388718706,-0.17663883463778102,-1.116698856810923,0.08423690040532526,-0.00939611656335842,-0.9963961541073993,-0.18558870305858727,0.06102170920523899,-0.05506685636575955,0.985252208102609,-0.0023578616404078064,0.04235633896111574,0.1657364377142698
256,2.56,-0.44434026940814647,-0.24459987881295103,-1.1858109246151214,0.08220539911060543,-0.0035596532141062534,-0.9966046127761672,-0.15994762518286743,0.04605344150636468,-0.06524031558353122,0.9862247153311596,-0.004838694038407474,0.040894672412703795,0.16016989997453704
257,2.57,-0.32040815263227185,-0.2919740440117789,-1.232497471501526,0.07952648083055483,0.0012512110111566276,-0.9968286580006475,-0.13999734525324653,0.017923032727727942,-0.06250265186417463,0.9872198309751927,-0.006765681691287136,0.039223586638265195,0.15427834357732845
258,2.58,-0.15627443669746774,-0.3115916288537338,-1.2517187103865661,0.07646744349339618,0.004611962416694671,-0.9970593803038533,-0.14162163852218795,-0.012531761312812112,-0.037656965156024805,0.9882105734139579,-0.007959021518921878,0.03749794412018178,0.1481883371024289
259,2.59,0.02865883258520232,-0.3106675265764256,-1.2432977881381937,0.07329998516352626,0.006183518528301033,-0.9972894393428219,-0.14563019329320023,-0.03603278951910543,0.00875283615729586,0.9891715483758567,-0.008277696320212512,0.03586268302757191,0.14203757222960306
260,2.6,0.19657011931961055,-0.30195657831517236,-1.2020386702806045,0.07016667233761938,0.005914636076884597,-0.9975163348380802,-0.13889528146212535,-0.053914566580386986,0.07480465603395586,0.9900817513636967,-0.007709961531958423,0.0343747307960575,0.13596743443374704
261,2.61,0.3138743086767901,-0.294451479238458,-1.1298044470809725,0.06713291032234327,0.004129345369096404,-0.9977336128017458,-0.13099889362572198,-0.07540251565705344,0.15103343705904707,0.9909184186926627,-0.006423819573334909,0.03302834002850653,0.13015168795214604
262,2.62,0.3788724195444777,-0.28713598269223717,-1.0455960422672537,0.06421405926326153,0.0013589106200347682,-0.9979329295061286,-0.12830666191936507,-0.10146088476619525,0.21944558787110455,0.9916686475335149,-0.004684368404428367,0.031785361955631704,0.12471108908381788
263,2.63,0.4114842891814645,-0.2894463007113339,-0.9625790970089421,0.06134443822658116,-0.001964721722478536,-0.9981121500391987,-0.12266941391077932,-0.12666130384435348,0.2669792784404194,0.992334824392374,-0.0026998715194016904,0.03058123679265949,0.11967363552524359
264,2.64,0.4170002362109359,-0.30587628380915877,-0.8818211009387134,0.05840763344958943,-0.005541184690070846,-0.9982746540979299,-0.10627389083854247,-0.1494074225383046,0.2996759056353489,0.992924578194773,-0.0006104553426190529,0.02933903200401229,0.11503557723936851
265,2.65,0.39724117755545557,-0.3317712123010257,-0.8002711818713452,0.055288979808928336,-0.009136511886542392,-0.9984257325754671,-0.08650769380877042,-0.1638456561997159,0.32236465785903684,0.9934443947664977,0.001474961750067152,0.027989559817240012,0.11080205293081974
266,2.66,0.3491767928222327,-0.36747127796837975,-0.7243942640286171,0.05187563110937937,-0.01246265593598017,-0.9985730277433924,-0.07041286584575245,-0.16587471470887377,0.3342474901878415,0.9939021615777737,0.0034198144085287605,0.026463545822199546,0.10696619911166011
267,2.67,0.28954764915873776,-0.40416633606200125,-0.6581805571848606,0.04811957898093151,-0.015304354427815286,-0.9987216119277661,-0.05755272015745817,-0.15692060858124082,0.34025569840019937,0.9943086922043273,0.005120643791946486,0.024729346520163877,0.10348161172853822
268,2.68,0.2446887377075688,-0.43684638702090917,-0.6119044777580479,0.04402280949618321,-0.01766928792555133,-0.9988714536671452,-0.05150095379793341,-0.13957222207772713,0.3457237636482005,0.9946741489647979,0.006582378822203737,0.022792066663846578,0.10028352025402001
269,2.69,0.24287051816965527,-0.4633338121368954,-0.5884215352341452,0.03962177472856665,-0.019816612635011315,-0.999015120278776,-0.05253607889037916,-0.11517090178542062,0.34794674261441316,0.9950106282928131,0.007934411477792511,0.020684967328257177,0.09725892600601707
270,2.7,0.2995402676645635,-0.46580618584616384,-0.5820811727667536,0.03508346301893901,-0.02228475474222661,-0.9991324289384957,-0.056666415885811,-0.08237112016540041,0.3450921347156485,0.9953242131257126,0.009438544901123714,0.018517382229776027,0.09430708105077877
271,2.71,0.38811132345382365,-0.45036332646559185,-0.5842047320090287,0.030637577916486736,-0.025530381890464623,-0.9992004513199508,-0.059766566970306516,-0.04690438832729537,0.3409292244973109,0.9956161047766664,0.011312794460530401,0.016422928422695073,0.09135997285024619
272,2.72,0.4685439590019198,-0.43154675369746226,-0.5835340221906181,0.02639150566548682,-0.02966395210985916,-0.9992068250494641,-0.06835879546375875,-0.022803698852558285,0.33800987535609034,0.9958855062995468,0.013608624084729062,0.01445645463940096,0.08839354908960069
273,2.73,0.5201623291449896,-0.41422973451038725,-0.5755410057341878,0.02236241873316283,-0.0345052109747252,-0.9991493229177194,-0.08269114028301686,-0.019371491279255026,0.3282325584086091,0.9961283218089916,0.01623613463912451,0.012615530670537068,0.08544556726376813
274,2.74,0.5256165687196068,-0.3925888525932708,-0.5700726205761313,0.01854182653647398,-0.03964332590643989,-0.9990370816568465,-0.08335264770549078,-0.03778950787624649,0.3109608791170663,0.9963462499915366,0.018992192572130962,0.01087620796393766,0.08252703135066683
275,2.75,0.48713331126069526,-0.36906426233162115,-0.5658207752080175,0.01497551435970644,-0.044640199713809836,-0.9988868701374359,-0.07229206715122617,-0.057952843167224016,0.2896950317512408,0.9965442558877406,0.021657764359332546,0.009242684966308656,0.07963081352900488
276,2.7600000000000002,0.44694951886222384,-0.35735775333232994,-0.5635765376229764,0.011623437373489797,-0.04924789255376534,-0.9987154486318114,-0.0732695926670679,-0.052680360054764036,0.25198757080804585,0.9967265283873656,0.024111767796794175,0.007686195069711196,0.07675991879018572
277,2.77,0.41369613494216584,-0.372805705135632,-0.5728963532575024,0.008290683908880455,-0.05353430374332992,-0.9985282753142789,-0.08751702137821527,-0.030579453137399234,0.18692550411165654,0.9968972929540989,0.02639622747021457,0.006112990816111267,0.07387805434435835
278,2.7800000000000002,0.39340019632292017,-0.41060200937714125,-0.6092920302563551,0.004713541811617578,-0.05757857479607507,-0.9983263740168746,-0.08878267449666495,-0.021888682147583285,0.0900284374525755,0.9970643964843185,0.02856038795686906,0.004392476482570514,0.07087708515515687
279,2.79,0.42959277807434887,-0.4559139317390268,-0.6464438601312992,0.0007775788927703385,-0.06168835370358945,-0.9980908962008728,-0.06733858735808895,-0.018865294906692705,-0.023618392347723904,0.9972277840380783,0.0307602726459409,0.0024756078731749793,0.06767369195139569
280,2.8000000000000003,0.5304616928372566,-0.5023312485585782,-0.6608585218947753,-0.0035808064727315993,-0.06650979505892603,-0.9977732294060562,-0.04623995934055031,0.006211602042540034,-0.13686563082002795,0.9973693069694974,0.03331811765177589,0.00035169378246262945,0.06433118215634098
281,2.81,0.6540167801478018,-0.5497004863162391,-0.6722323831101078,-0.008368178036688823,-0.07253638370303522,-0.9973225836690534,-0.040276830693439215,0.04349363998946221,-0.2473309504151571,0.9974701093303359,0.036478494515538744,-0.0019692823562986426,0.06092599070388642
282,2.82,0.7360112983609531,-0.5832280867001735,-0.7069162971680839,-0.013508464710884547,-0.07956532003123541,-0.9967285027452352,-0.03508251713159644,0.06687419595643729,-0.33304157180147403,0.997530529150573,0.04013588316989257,-0.0044648831104057455,0.05739445291508296
283,2.83,0.8203860110517407,-0.5874183294029565,-0.7555929666418919,-0.018755365514314493,-0.0874492765893963,-0.9959813500966226,-0.02569516233556259,0.08333357910767533,-0.38923442084674553,0.9975521079395885,0.04420762480833546,-0.007027450164516841,0.053638191950534125
284,2.84,0.9168501834364476,-0.5580445635066158,-0.7867608949909894,-0.02375375201593439,-0.09627573287808627,-0.9950588289362096,-0.014852346003319453,0.08824567226076598,-0.4263157464044249,0.9975253006489336,0.04872771275658513,-0.009483358150804411,0.049689902109633324
285,2.85,1.0016138569937134,-0.4952646397610963,-0.7994402516765727,-0.028191247113399598,-0.10602551058505802,-0.9939502341216147,-0.01085393006321129,0.06947006652231548,-0.45905108201203704,0.9974406395636009,0.05368173323059843,-0.011679718080108398,0.045647791981190323
286,2.86,1.0805639300522407,-0.4189341868576336,-0.7964888275440805,-0.0318286824247303,-0.11660537321876349,-0.9926536027735888,-0.017585049765099104,0.04294686180704942,-0.5035255559990172,0.9972928072209634,0.059022975145262016,-0.01350053064697705,0.041597934198921466
287,2.87,1.1521502975659272,-0.3474231697855845,-0.7702626758646333,-0.03465035957499956,-0.1279448089346924,-0.991160017775075,-0.015977281874001117,0.013503911942829237,-0.5361595630318811,0.9970756625698047,0.06472334930828556,-0.01493729306909402,0.0376438490589909
288,2.88,1.1752484907041283,-0.29523951915507446,-0.7050327326029338,-0.03682336294224867,-0.13978180379477714,-0.9894818385286807,0.007995999906794643,-0.003166668128440076,-0.5474804777018227,0.9967880681451404,0.07066297865600818,-0.016069241048978108,0.033941269744982634
289,2.89,1.1215158357674853,-0.28538948452150686,-0.598959449988157,-0.03871330840932691,-0.15142283644109925,-0.9876969818082156,0.03663636543711526,0.012040223469607394,-0.5591352642506918,0.9964465266156975,0.07650685655712408,-0.01707373663663589,0.03067669099177922
290,2.9,0.9777752401403516,-0.3243580114956033,-0.4605608797201571,-0.040854016743583445,-0.16205780490661026,-0.9859250272508704,0.06645816141494054,0.036387123169503946,-0.5654341608199823,0.9960808518549559,0.08185940499081465,-0.018208011648345318,0.028006337110113546
291,2.91,0.7660935753491415,-0.3912628033958822,-0.3294671866794559,-0.04370038766563211,-0.1708425368001279,-0.9843220915647622,0.11059707901238719,0.0328576712136742,-0.5592279497467397,0.9957337058658747,0.08630072160417156,-0.019693433762878246,0.025979708464240827
292,2.92,0.5391308656060473,-0.46396351391224827,-0.22516812551975587,-0.04743488702190147,-0.17737595207110735,-0.982994888070243,0.17426079381516701,0.002809580755991546,-0.541192843502491,0.9954384025986868,0.08962586332072206,-0.02162214768238016,0.024486589684615118
293,2.93,0.3529812307620443,-0.5048751893267951,-0.13431039398332967,-0.051895824890625136,-0.18181354791250792,-0.9819593122796179,0.24633303373045934,-0.018903127312732658,-0.49361780114603954,0.9952041357509398,0.09190709567361363,-0.023911045847706435,0.023413592674597583
294,2.94,0.244954142772852,-0.5110666195424249,-0.024455549700196845,-0.05674401351691164,-0.18472962465082446,-0.9811468597760646,0.30043667138945074,-0.017967599014663858,-0.42359697772752775,0.9950141779463082,0.09343209851017742,-0.026372655157910273,0.02280769293168498
295,2.95,0.2027529885046474,-0.5043609725835219,0.10047285183392969,-0.06179294478099584,-0.18687962858608856,-0.9804344958799303,0.30426503845577957,0.006166812494529451,-0.3513878376728453,0.9948357124522021,0.09458675832272777,-0.028890709421245886,0.02278292674548632
296,2.96,0.18132440966309832,-0.4725148304978616,0.22020591266814996,-0.06688690753237712,-0.18865305352268863,-0.9797607199891099,0.2669262464879783,0.044632872045040344,-0.2797619228687097,0.9946523100386163,0.09557184506634421,-0.03137620379944313,0.02338504144539938
297,2.97,0.1752003677965719,-0.4023920829418964,0.30246500655465886,-0.07170270400122221,-0.19017777124806312,-0.9791256205289497,0.22829396749179903,0.0969947650191335,-0.2218811490118546,0.9944651899836138,0.09644903487346775,-0.03367232921683952,0.02452312361778203
298,2.98,0.25100477650442415,-0.3478172738162031,0.33304689964544015,-0.07599876676358572,-0.19195437981421998,-0.9784547389725401,0.20285012429460508,0.17625782376439095,-0.18367701861315744,0.9942597421155194,0.09746363159661768,-0.035672734951985245,0.02596972508189637
299,2.99,0.4075769342724289,-0.27513291991570415,0.297017852706422,-0.07967903927789208,-0.19487325321172377,-0.9775839704037441,0.1780801692214915,0.2806777275464205,-0.15181907157099755,0.994000453884207,0.09905723062316646,-0.03734177706999045,0.02747217899906575
300,3.0,0.6469199840487464,-0.21254201638052658,0.1827945594874612,-0.08253456715859167,-0.19978683523439875,-0.9763521217820691,0.15903801993248123,0.3771675728531672,-0.12996304288084803,0.9936571674653204,0.10164472086593043,-0.03859870331685801,0.028658595988054363
301,3.0100000000000002,0.8797792743060858,-0.1803215043520488,0.07780405773051229,-0.08469752968713896,-0.2071628280613125,-0.9746253740940563,0.16244322766252559,0.43769410101465456,-0.14481640285648342,0.9932025740381626,0.1054585648576167,-0.03952238625356134,0.02934606243819053
302,3.02,0.9841631318988823,-0.1639642173249755,0.03609170835911694,-0.08646732121611964,-0.21628019236246285,-0.9724863001884051,0.19247314670763369,0.43565647708434496,-0.14610719735908653,0.99265326995723,0.11014583903594935,-0.04025684890920113,0.02970964228906893
303,3.0300000000000002,0.9137375521246667,-0.1533050802355252,0.05637487821504528,-0.0880909626016419,-0.22557128616273014,-0.9702293328301813,0.2341746371269265,0.38096165003015403,-0.11805675452290464,0.9920749074648821,0.11492573159088121,-0.04091803271541672,0.030032178472772696
304,3.04,0.7064804916128875,-0.15561106857168275,0.12774333844111566,-0.08977529635971462,-0.2334150122614692,-0.9682206332732753,0.2659962815207483,0.29425217326953096,-0.039255591505180876,0.9915527112131196,0.11898397670735518,-0.04160356000009404,0.03055181407310907
305,3.0500000000000003,0.44570542492858345,-0.16398247637563168,0.23154252389663413,-0.09173151774860039,-0.238832735940022,-0.9667169207201717,0.2879519029069511,0.2095036872368153,0.05963898018855515,0.9911452681727061,0.12182924337589698,-0.04240924345265502,0.03145155993497171
306,3.06,0.21813859577400363,-0.1754625622705866,0.34603311716396423,-0.0940617080290545,-0.24172450280537866,-0.9657744464625561,0.30922005595174173,0.15792461481126335,0.15428882326919435,0.9908622425234191,0.12341491876545965,-0.04337346989576499,0.03284485051054671
307,3.0700000000000003,0.048625354097314,-0.18596753432403074,0.46852992927055637,-0.09679609046634556,-0.24259469264402372,-0.965285912294638,0.3195765383184761,0.13494871691674828,0.22895858880978603,0.9906727272937621,0.12400209416502518,-0.044500451233490466,0.03477937605430586
308,3.08,-0.06886262263171183,-0.20985532194646483,0.5645392767885719,-0.09994625964902107,-0.24193533526280625,-0.965130024286481,0.31092047792176347,0.12667174240647733,0.28028663716138646,0.9905444363028912,0.12384393241410942,-0.0457966056291415,0.03722261310010224
309,3.09,-0.11827737510560118,-0.23601777239106433,0.6493772184958435,-0.10354986315450279,-0.2404020099864063,-0.9651328708331677,0.29404503528384957,0.139803765446036,0.31015136300248586,0.9904339938447702,0.12327580773292005,-0.04728810827629814,0.04006923036267984
310,3.1,-0.17922844476070224,-0.2587503183481734,0.7399655182895938,-0.10760865248202653,-0.23825374642096522,-0.9652211393472564,0.27140685345679705,0.1682061604950406,0.3255124366299041,0.9903186072903625,0.12243537171992039,-0.048973279944099724,0.043335295444557546
311,3.11,-0.2590042435725459,-0.2700210229214131,0.7873839955375265,-0.11198432084285626,-0.2353018979236821,-0.9654470460221827,0.2436164195435338,0.18686304492472183,0.33356009946962517,0.9902123588380813,0.12122187486663526,-0.05080284370984671,0.04691687944148666
312,3.12,-0.32310780648328674,-0.28681590268789636,0.8091451187859561,-0.11654708140566382,-0.23155903001597875,-0.9658114681116357,0.21817514784911676,0.18900133913648204,0.3413959672455591,0.9901214117536878,0.11963250784972178,-0.05273831729092277,0.05063120162856247
313,3.13,-0.37528205234578077,-0.30411667651438284,0.8191929207913573,-0.12129795907680893,-0.22719708989646906,-0.9662621044590659,0.19787949720902756,0.17759924512133204,0.34535080403368706,0.9900358104302052,0.1177529954449557,-0.05479119161763983,0.05439130964441994
314,3.14,-0.4135285275064694,-0.2995189340572597,0.805660693724242,-0.12605924782922098,-0.22238320486810087,-0.966772334604358,0.19294648256216973,0.17245885616503712,0.35221198984704905,0.989952246977341,0.1156609770196623,-0.0568788522607121,0.05812955084573101
315,3.15,-0.4784479597460207,-0.28018263183529313,0.7847687821027042,-0.13063240991321903,-0.2170694753806489,-0.9673725202958482,0.19115629737782136,0.15726408685432217,0.3782560706011297,0.9898837123637574,0.11332077011711847,-0.05891401529032824,0.061765485386049694
316,3.16,-0.5600936718422721,-0.2438786047914502,0.7601981235536002,-0.13482950411912573,-0.21100539237592827,-0.9681378321371721,0.17637433788746473,0.11071686469561395,0.4162524667679484,0.9898510670581897,0.11059614372837076,-0.06081253643442342,0.06528798382407347
317,3.17,-0.6175839104501021,-0.19848303980209478,0.7592498339546794,-0.1385565678301993,-0.204246333193216,-0.9690606672307658,0.15353977207395267,0.05996002813118607,0.4539827500563538,0.9898506348313697,0.107512683447456,-0.06252394144403581,0.06873774564949846
318,3.18,-0.6600253605699069,-0.13625705790343787,0.7689257787265756,-0.1417171311875305,-0.19697285280527893,-0.9701087221606703,0.13351465686573394,0.009777991187862434,0.49657786628321365,0.9898674543912946,0.10416325281037896,-0.06398577267412472,0.07221804867604173
319,3.19,-0.6888331785652685,-0.06420719788681988,0.7927913606198667,-0.14420253593917837,-0.1892801959364687,-0.9712734050724345,0.11001921854567825,-0.034983948117598515,0.5396937937633745,0.9898930763313996,0.10059492591211669,-0.06513494055137721,0.07580908880188003
320,3.2,-0.6769764732337713,0.03348007201231672,0.7939493244968712,-0.14582222299533446,-0.18146428751019902,-0.9725228929799732,0.08638952421410286,-0.054178564470762317,0.5781463896188659,0.9899173890076327,0.09694759638613687,-0.06586704755402646,0.07952177688456877
321,3.21,-0.6383987229824342,0.1346601555735648,0.7550767739468206,-0.14636593680123317,-0.17390555373178096,-0.9738218784939925,0.07010916969927647,-0.058744260138580126,0.6041876213259126,0.9899441842129266,0.0933889094100474,-0.06607960075985071,0.08318910391594575
322,3.22,-0.5956877458602173,0.223127348637519,0.7022557475405347,-0.1458206307921015,-0.16682525114306726,-0.9751417629001401,0.051078927644678786,-0.036518806136060684,0.5883834069337812,0.9899788927325209,0.09001470769476001,-0.06576866286866798,0.08667086918293246
323,3.23,-0.575704159065441,0.28723424946522724,0.6487734280799722,-0.14433900867627017,-0.1601168630321233,-0.9764860194773053,0.037220789271423464,0.0037631803669678316,0.5474779931102737,0.990027686266018,0.08677035326596698,-0.06501538614726747,0.08993029706429609
324,3.24,-0.567733747549101,0.31673231458792445,0.6342594206729538,-0.14235122240947784,-0.15361341715949753,-0.9778216613432105,0.021940316329516093,0.01908523421453324,0.49769161986839244,0.9900773496301882,0.08359382564878048,-0.06403397338532203,0.09304264600012238
325,3.25,-0.5983068416451837,0.3272909440993222,0.6253615134439111,-0.14013140662311724,-0.14703100052737658,-0.9791532512850957,0.000825053706922176,0.002655256816100276,0.4385933714026629,0.9901205036397419,0.08036084380727258,-0.06296493045112429,0.09611121385379873
326,3.2600000000000002,-0.6641757364400498,0.31908252040902,0.6021694458487808,-0.13784343485753978,-0.14001354020283216,-0.9805054899277709,-0.004689501520673115,-0.020464160041419484,0.39437884812488005,0.9901689846290175,0.07689702738886443,-0.06191184565999614,0.09908387109806598
327,3.27,-0.7340701186788021,0.3353069447016577,0.5963970527426484,-0.13545275245608956,-0.13232968856333777,-0.9819046651931362,-0.0015932949703962216,-0.027407548162318565,0.36501790400960565,0.990232837634453,0.07308345754941355,-0.0608718865692379,0.10193505491493067
328,3.2800000000000002,-0.7688538304601658,0.35674164623066945,0.6161019240914576,-0.13282698355830347,-0.12413547059388234,-0.9833323874631676,0.009502653886325162,-0.012713797806049887,0.3445323492040957,0.9902912547827225,0.06900211838597227,-0.059761050769971194,0.10482837317308571
329,3.29,-0.8160743603752197,0.38887969045365767,0.6410337761793141,-0.1299172899555646,-0.11552455093033302,-0.9847693395443342,0.01459990975249281,-0.009955862526086557,0.32953611983933917,0.9903320073976246,0.06470076757766857,-0.05854891063717664,0.10782737863933071
330,3.3000000000000003,-0.8582380141283511,0.44257612457295026,0.6422223305807536,-0.1265416023867781,-0.10641535565741377,-0.9862344037399341,0.004278111858448939,-0.037435335472447394,0.30078828961136705,0.9903628518795674,0.06012517352096983,-0.05715452897416503,0.11089748073239243
331,3.31,-0.8027391869257077,0.4979497441745924,0.6312498791325667,-0.12254085235377611,-0.0973619811143188,-0.9876743921605274,-0.007299394806399682,-0.05718638247771281,0.27841692777821353,0.9903794446365939,0.055536706703624,-0.05547607959936517,0.1139530323733871
332,3.3200000000000003,-0.6871091322311195,0.5403718960503092,0.6180585209185027,-0.11800161558578313,-0.0892343443964675,-0.9889945279893029,-0.00688529077505961,-0.06524865743888095,0.25548996603175955,0.9903595925283742,0.051371582240447015,-0.05350747141080495,0.11698202476394295
333,3.33,-0.5858085786166172,0.5895457812770063,0.5939634125167076,-0.11293884348522988,-0.08225955463239534,-0.9901899380056867,0.002417428025958732,-0.0843890755912944,0.1982787592330835,0.9903052605360106,0.04773903138392957,-0.051239727921737074,0.11995892686223103
334,3.34,-0.5036728702281946,0.614087814188404,0.5759979964581446,-0.10740625627133096,-0.07621520967764103,-0.9912888570194318,0.010918392667110213,-0.0887997994473082,0.12857502901428533,0.9902279466410624,0.044526584147977014,-0.04870908932565209,0.12285287126633997
335,3.35,-0.4625538142644094,0.6199451821980106,0.5665879333994702,-0.10171199734703988,-0.07086557861885301,-0.9922860259193413,0.008036751968436947,-0.09731654810962448,0.05787601126343693,0.9901233994187065,0.041635487420708335,-0.04607799424644869,0.12569189728905156
336,3.36,-0.4708967804098623,0.6339854883106636,0.5807836642991985,-0.09588388723963358,-0.06567680994836696,-0.9932230407896796,0.005265397241518439,-0.1290146080442233,-0.011537820647614152,0.9899941255605814,0.03880376435814877,-0.04338828426596429,0.12854179187726877
337,3.37,-0.5015285020488122,0.6426005422491746,0.6288355782748509,-0.08991138325218956,-0.060308321445381605,-0.9941218859298869,-0.004053100846452576,-0.15682572589601707,-0.07199777107093679,0.9898277634410583,0.03586611034493436,-0.040651567793871426,0.13153686399507977
338,3.38,-0.5940011505507706,0.6360035745900816,0.6939748062757607,-0.08393087271492466,-0.05431729579760333,-0.9949899839805167,-0.031196904796202112,-0.19460511900846114,-0.11786084494544398,0.9896058775422308,0.032615638999084054,-0.03796295379195024,0.13481548560951423
339,3.39,-0.6945873843379419,0.6141718325163549,0.7181878083047364,-0.07804332080541286,-0.047306319246954436,-0.9958267581954744,-0.05879259518085531,-0.24879450102454398,-0.1471515571723872,0.9893370359137527,0.028857652958902556,-0.035408381819120816,0.13829576796092918
340,3.4,-0.7302095135488963,0.5728892599403804,0.6955096939158814,-0.07241928203754716,-0.03963967998097445,-0.9965857558154593,-0.07463225561104911,-0.26849660795170954,-0.17949677952644139,0.9890369676933326,0.024778203831701515,-0.03305941733432758,0.14176944546259843
341,3.41,-0.6638848926268117,0.5087649348736887,0.6066497850252013,-0.06725143026358459,-0.03216000608549223,-0.9972169673277052,-0.07862814249784708,-0.23743705100777204,-0.2519028804168599,0.9887348084417127,0.02080190143212869,-0.030959348435913886,0.14495417944580477
342,3.42,-0.5118774903233758,0.42635371392473215,0.48234794979248646,-0.06275632508881347,-0.02591875961826965,-0.99769165337268,-0.06973021028983002,-0.15830736166809967,-0.34754744734117554,0.9884605749432306,0.017461897687741364,-0.029136864309665788,0.14761857008059734
343,3.43,-0.3816186303426642,0.3249799637403795,0.3397563912267028,-0.05908997670961498,-0.021250250989953517,-0.9980259662713522,-0.05812720208944159,-0.07956702335496996,-0.44120604888236326,0.9882463947404342,0.01493501480391869,-0.027635564807719892,0.14960590895522108
344,3.44,-0.3544057791480327,0.22680728639346187,0.2267649842435257,-0.056409000805456605,-0.017519020902511406,-0.9982536895200295,-0.03731752050971477,-0.03797433564980929,-0.5127878270462646,0.9880969615151429,0.012924448673304246,-0.026569673047377763,0.15096740090999242
345,3.45,-0.47873052567162094,0.18056193793700087,0.14543849020757113,-0.054464615843194446,-0.013361326705521991,-0.9984258938644138,-0.010742336098564318,-0.06615986130883404,-0.5292504276635335,0.9880080682036728,0.010743733026291166,-0.025911864043268684,0.15183236564436706
346,3.46,-0.6974474062611425,0.19136659149731514,0.11988930232804845,-0.05263995488047671,-0.007458507884757244,-0.9985848766869132,-0.011562830077628828,-0.1491755488041085,-0.4784624287442685,0.9879619378664333,0.0077007928015390475,-0.02545290489950139,0.1523933370131354
347,3.47,-0.9476297739492718,0.24394400618437817,0.16074729399776835,-0.050483749843484436,0.0008624403380618545,-0.9987226372679735,-0.07105697012310941,-0.1973853175113726,-0.3985569541535535,0.9879061836752165,0.003437678695885513,-0.025018673452816786,0.15297967608042204
348,3.48,-1.0919754901436778,0.3093799136517188,0.19836707382021346,-0.047675438933944284,0.011201920201963108,-0.9987968829938333,-0.15962410902396534,-0.19846178802859288,-0.3418579762867082,0.9878045710256443,-0.0018686343028411,-0.02442310540977789,0.1537548355259896
349,3.49,-1.1261218163270479,0.3766764004950506,0.20029429834559276,-0.0441326606238495,0.022405700756562834,-0.998770261105396,-0.24705475649062378,-0.16406590431116197,-0.3337177444738639,0.9876652894302175,-0.0076578882136344745,-0.023540925727040217,0.15460371697463787
350,3.5,-1.0348424898941233,0.3872302357777337,0.15254608059037061,-0.040200866500940166,0.03330052420048445,-0.9986322336936015,-0.31102861877757876,-0.07528788461283299,-0.39921810718476114,0.9875134133530077,-0.013328956719591131,-0.022451677084958765,0.15534905943213226
351,3.5100000000000002,-0.9181390483140195,0.3207882275839097,0.04764870863101914,-0.03656578307187844,0.043094589104453025,-0.9983978974440442,-0.3240567664890792,0.0822128904496284,-0.5071805496982102,0.9873954391265203,-0.01844348268828916,-0.021425105517299838,0.15572148838144184
352,3.52,-0.7667218953595999,0.20690332733447664,-0.08680391736169898,-0.03391992540939027,0.05150122649928442,-0.9980938846004105,-0.27309153474577685,0.24124126947499075,-0.6261599814671632,0.9873520052923609,-0.02280924994149685,-0.020769609106926094,0.15550871852644452
353,3.5300000000000002,-0.6738853303270815,0.07101579202835775,-0.20075856788432866,-0.03260221992587279,0.05857019786727081,-0.9977487971580618,-0.19240836073580042,0.36114588301307365,-0.6933567367067721,0.9873924269461822,-0.02642395833671344,-0.02064884105214497,0.15469455417970976
354,3.54,-0.7066362071078379,-0.05833484850290104,-0.2972367315660482,-0.03270028989777343,0.06529727954698053,-0.9973280279862725,-0.11776876510604635,0.40693382512893134,-0.6774138887290206,0.9874900311109945,-0.02977219820541126,-0.02118138151317963,0.1533861342654476
355,3.5500000000000003,-0.8042577598941086,-0.1596224595577932,-0.3733838442520461,-0.034057763579419656,0.07270807605244929,-0.996768981674031,-0.06102460030006647,0.3794022022210917,-0.5821412804520079,0.9876152493284284,-0.03337540013714996,-0.022366965051031515,0.15165837000648238
356,3.56,-0.9075908325874736,-0.20151478993760114,-0.4003436133474533,-0.03619500054923989,0.0810918428637055,-0.9960455639108535,-0.01948722607168351,0.2924600949299462,-0.4225303112410298,0.9877363470913341,-0.03741451069241951,-0.023990523503675476,0.14966398184580798
357,3.5700000000000003,-1.0093922565687012,-0.1949172985535507,-0.3998525005384256,-0.038535004878363616,0.09049852912466774,-0.9951459931583044,-0.005908598700264096,0.1830224093657188,-0.24856676795920704,0.9878185441230294,-0.041956389619516116,-0.025773487013333717,0.14760500719061093
358,3.58,-1.038119700203179,-0.14675725969007364,-0.3918731009089852,-0.040632143807457166,0.10057360626776497,-0.994093958003345,-0.02096990123590069,0.11122739628709236,-0.09596084629614637,0.9878583701826542,-0.04685827517295492,-0.02746837370962241,0.1455420092409478
359,3.59,-1.0088863914694717,-0.08096144840645535,-0.35319088913646357,-0.04217527771592107,0.11059906614313725,-0.9929642017340172,-0.047168917677353414,0.08823265251992392,0.024035960721611488,0.9878595379861942,-0.05178301907558336,-0.02887215061264773,0.1435802922524174
360,3.6,-0.9771754996335986,-0.02692241357967292,-0.3029208361659828,-0.04308090831103044,0.12030905726345004,-0.9917958974057068,-0.07671126839491245,0.08573182724992374,0.10410234565139173,0.9878165906745706,-0.056599080509180534,-0.02993170273838355,0.14183088771384667
361,3.61,-0.967429392384439,0.017267610087250182,-0.2602966817963061,-0.04346871313054308,0.12981266261317398,-0.9905798859512001,-0.10386052543830687,0.09041265083546408,0.15231238197142558,0.9877277901666022,-0.0613497722986894,-0.03071775679089567,0.14029794893983044
362,3.62,-0.9721692125017977,0.04083702440134333,-0.232771225951789,-0.0434902436384556,0.13929730253509784,-0.9892895256056878,-0.1181650215816752,0.09601145195980683,0.17411667475729814,0.9875949798816539,-0.06611802893859828,-0.031318463550006656,0.13892735459211644
363,3.63,-0.9748036772116146,0.03902585895142122,-0.2188587600536126,-0.04340908213204291,0.1488335024094291,-0.9879031384203325,-0.11522652502806545,0.10043511889052666,0.17576452858896321,0.9874231875084818,-0.07092251567498646,-0.031866901846845375,0.13764776694263153
364,3.64,-0.9291868149726414,0.03570443825200949,-0.2327745191338958,-0.0433904066921118,0.15812399949660622,-0.986459695645312,-0.09191776215075273,0.10371291837289134,0.16499448496177507,0.987235087919229,-0.07560639932684975,-0.032418673529700175,0.13636947804239158
365,3.65,-0.8766559850822377,0.012394709992267806,-0.27592598069640006,-0.043565416321592394,0.16691886985186227,-0.985002408675777,-0.056684926676663534,0.09588181468323595,0.14758429692208197,0.9870598152513994,-0.08004023204508798,-0.033011200443197705,0.13495894747335926
366,3.66,-0.7936103836362387,-0.014670214422797647,-0.3295343794448389,-0.04409788808698526,0.17501188300308015,-0.9835736883069145,-0.020978777619771977,0.07532846508147498,0.12656582953646411,0.9869194308357416,-0.08411278465001966,-0.03370352497483463,0.13332841536024526
367,3.67,-0.7136084145083152,-0.04007289932489165,-0.3688852013912266,-0.04499958001938128,0.18225968864803968,-0.9822163312895946,0.018931736377883167,0.04673146812996083,0.12088665193077572,0.9868233299954329,-0.08775145037594213,-0.03449100623925389,0.13148132250671873
368,3.68,-0.6448655163748186,-0.05820512912600045,-0.3863293491544427,-0.046168894463998425,0.18876405463796597,-0.9809333240660086,0.047644119590472725,-0.010060788556072758,0.1348817941228325,0.9867574636093019,-0.09101033188796256,-0.03533926705673984,0.1295209768829479
369,3.69,-0.5739740427858264,-0.06813134284817357,-0.3933514035868728,-0.047539690942785186,0.19455982698361576,-0.9797352711484081,0.05282016017390879,-0.07631492814831436,0.1680070160994802,0.9867157721107773,-0.09390868286978435,-0.03622456677745197,0.12751059161603906
370,3.7,-0.4969735475853793,-0.07191079079164465,-0.37705738810659567,-0.04898904545720915,0.1996065760700449,-0.978648639448638,0.04909723471596965,-0.12411746538958583,0.2080517778408188,0.9866925672569742,-0.09642988014006525,-0.03709365987267509,0.12554452463854873
371,3.71,-0.43076725208894473,-0.07561370553516832,-0.34957571460678805,-0.05045159403132082,0.20394312597937986,-0.9776802068167646,0.05373582296725727,-0.15773552051142917,0.25314479179007754,0.9866800006272459,-0.09859350184241276,-0.03792653786940608,0.1237013866353608
372,3.72,-0.37362390734616796,-0.06767774348391305,-0.3172082500825217,-0.051842150811684626,0.20770955697099855,-0.9768144789439382,0.06271608307225277,-0.187721581184894,0.29957273825858566,0.9866708894735895,-0.1004728025323116,-0.03869546970078082,0.12201412298893935
373,3.73,-0.31332308845506285,-0.05650562491271339,-0.29456572503949563,-0.05308442429443036,0.21089478520293728,-0.9760653453027399,0.06258422491700422,-0.20849890178409036,0.3346721494601213,0.9866709204118715,-0.10206607142412542,-0.03936227313279282,0.12046881535572682
374,3.74,-0.25475875185375996,-0.057276478757242705,-0.2792540633718651,-0.05424566554901093,0.2135230207193408,-0.9754301612028186,0.05433870810701889,-0.22112402873851034,0.3556282191812607,0.9866840476520742,-0.10338158018973428,-0.03996061914177245,0.11903446821573797
375,3.75,-0.19656212183022945,-0.05874632353559852,-0.2874379669433659,-0.055416205387960306,0.21553785995516964,-0.9749213088195301,0.05231079657932792,-0.22306652873465152,0.3663461087976845,0.9867229480154349,-0.10438774341761366,-0.040525685109298194,0.11763592517525684
376,3.7600000000000002,-0.14903740546041155,-0.07452049931657936,-0.30865019311381,-0.0566948406938476,0.21706493998309376,-0.9745090228295586,0.056290003399168516,-0.21206135394487877,0.36497429512887286,0.9867924467716799,-0.10514634364864799,-0.0411046345316379,0.11616679256502796
377,3.77,-0.09246889750964382,-0.09618328333556371,-0.3267906923244419,-0.0582025749675105,0.21804942884149142,-0.9742003766307755,0.05847623127378747,-0.1977244565004207,0.35566971210370835,0.9868948248939788,-0.1056230439880579,-0.04175509514625524,0.11462201782264955
378,3.7800000000000002,-0.04329052581751079,-0.11916082815291892,-0.3645841092016684,-0.05999516160287836,0.2184961435545803,-0.9739914665778442,0.06290939326850246,-0.20573875206795622,0.3544293601706725,0.9870334920329995,-0.10581933357260638,-0.04250207280715343,0.11296092346759568
379,3.79,0.014440252635527694,-0.13879032449668977,-0.3952904551547899,-0.06206134912117967,0.21840637593183357,-0.9738820440369411,0.06550520704006983,-0.21816965841704225,0.3498968292424897,0.9872123007694521,-0.10573915498562186,-0.043336809049919454,0.11114082532480307
380,3.8000000000000003,0.08620836685665527,-0.14261235940866138,-0.409079534270854,-0.06429837018190651,0.21765822096494386,-0.9739042825925256,0.06213492873366306,-0.20263603384638978,0.3502638275119353,0.9874308289308428,-0.10532413155162476,-0.04420982956942004,0.10923253926888223
381,3.81,0.1523017075289897,-0.1377174167598425,-0.40024638780791727,-0.06654157793271899,0.216198979100174,-0.9740784097055761,0.06177972438234699,-0.19168060388932037,0.3509054796208433,0.9876845147359741,-0.10455301200426174,-0.045046560360209806,0.10732098047522594
382,3.8200000000000003,0.1555565830849688,-0.12026116051779208,-0.3738800164257229,-0.06863244658950027,0.21438744480572383,-0.9743336701849699,0.05314791107389767,-0.20611009725397236,0.34466072353141164,0.9879441275310509,-0.10361063600017194,-0.04580078632552317,0.10551137181909226
383,3.83,0.14828263858816176,-0.10071333602437534,-0.34666676069528163,-0.07048799935805168,0.212674577909133,-0.9745767259141751,0.04327311608735077,-0.23675107904065434,0.33308301940057555,0.988184646365604,-0.10272792235250543,-0.046458510443107094,0.10382123861392697
384,3.84,0.144316677312513,-0.0670519706253956,-0.32292047805706436,-0.07202642157878894,0.21099099717523048,-0.9748302447671743,0.03839919105277406,-0.25890133772274543,0.31845312251075086,0.9884124456829223,-0.10187293163779074,-0.0469744364905321,0.10225156797859136
385,3.85,0.1388824878169932,-0.023440319187334517,-0.322378533658152,-0.07313328074062517,0.20940501725915003,-0.9750899284688131,0.02672797195052927,-0.26138680166337847,0.28725309395039517,0.9886357513381856,-0.10108899457195565,-0.047285543171855696,0.10071637535187258
386,3.86,0.20932912923099045,-0.03756268568653505,-0.29597115860594053,-0.07403737800358777,0.20749439604630496,-0.9754299240876346,0.005168431737705689,-0.19883656576559905,0.20254913935675303,0.9888728827643173,-0.10015022462909703,-0.04748437611049882,0.09922124976948347
387,3.87,0.16158675681765705,-0.09094908129119403,-0.24674946364145267,-0.0752137799130558,0.20533580450494326,-0.9757964700655031,-0.01191840397091078,-0.10431345826143293,0.06979948180385646,0.9890911764131128,-0.0990628379955728,-0.04783337801793721,0.09796235936782133
388,3.88,-0.0630847162698025,-0.150748233281086,-0.20608749034815504,-0.0768406679539603,0.20463073799812198,-0.9758181994872489,-0.017022908110768075,-0.04135005782356072,-0.0860994445063004,0.9891997559279874,-0.09868012171473596,-0.04850789730793585,0.09691575443150714
389,3.89,-0.3031908674604368,-0.22999951844568306,-0.12044700527158704,-0.0790239427663574,0.20633567605354874,-0.9752836947371545,-0.04095766037049395,0.046607567601804935,-0.24249085122030267,0.9891399272131854,-0.0994781577565057,-0.049614972250421434,0.09614487584011455
390,3.9,-0.40576751320820675,-0.29712869175354656,-0.0319293396509524,-0.08175093363087071,0.20985612021330988,-0.9743058012277676,-0.09648463953452979,0.12945697279837345,-0.4086279112917459,0.9889246659878734,-0.10114901867525289,-0.05113359609114921,0.09581695367241778
391,3.91,-0.2959641146970704,-0.35863527266526585,0.028320876631968795,-0.08495605658761685,0.21339439701175558,-0.9732626775292932,-0.15139763089528324,0.1890865274825751,-0.5620882307263337,0.9886543208301073,-0.1027877880412604,-0.052934576375295174,0.09588493532445257
392,3.92,-0.03623536575918723,-0.4289475684381867,0.10602294630378245,-0.08864137030721787,0.21510295609394878,-0.9725584419001613,-0.17919704939672768,0.290429747369845,-0.6916286249798739,0.9884296252106833,-0.10345541684736331,-0.0549256386464558,0.09636340334344048
393,3.93,0.1683843694242146,-0.5061983220840891,0.2197678778771746,-0.09284111415138872,0.21452519556910804,-0.9722936387450006,-0.15249904968351805,0.41019490001578096,-0.7872127041204044,0.9882586848711266,-0.10290574226649161,-0.05711637507063109,0.09742292168134094
394,3.94,0.22883896766223857,-0.5888726175673417,0.36301671339126473,-0.09753114287548192,0.21276056524896925,-0.9722214325972394,-0.09086400628613653,0.46060439015286675,-0.8344579735793698,0.9880636621147626,-0.1016843625930978,-0.05956283870812962,0.09919707995265888
395,3.95,0.10880574914347979,-0.690341651830264,0.5249709855450688,-0.10279573377878787,0.2114875211564552,-0.971956353570401,-0.040545024532181756,0.4159774476651677,-0.8306380246896239,0.9877351160805402,-0.10062564565726127,-0.06240287712936585,0.10176300520725251
396,3.96,-0.051872486238666485,-0.8168661833185596,0.6992099044855361,-0.10881960628319129,0.21187192919401865,-0.9712153220292434,0.004230767927919248,0.32640358987074436,-0.795062697107352,0.9871900730919394,-0.10029760335997931,-0.06580125199282469,0.10516763904152644
397,3.97,-0.1735944356989068,-0.9419842270938144,0.861777093426235,-0.11569471689033091,0.21392534635597554,-0.9699675390932061,0.05583385224510014,0.2711056541647685,-0.7570886022518298,0.9864084315419773,-0.10068609896922584,-0.06981685511890594,0.10944030789471325
398,3.98,-0.2171908213420317,-1.0429423864729965,0.9714270620130577,-0.1233457378317248,0.21697673662823555,-0.9683436447194198,0.1083628994623704,0.23757630616425016,-0.7104361139855959,0.985430601712193,-0.1014519989632925,-0.07436663132218535,0.114420101621563
399,3.99,-0.17123810272542178,-1.0997695816394555,1.0195770720924884,-0.13155245442605976,0.2201944467561131,-0.9665345694873102,0.15380245010291613,0.1991718636259736,-0.6285110538215938,0.9843300010184616,-0.10219576209668135,-0.07926457239963562,0.11981013675080616
400,4.0,-0.043299840349795476,-1.1082268512801887,1.0391927390782183,-0.13996095832735556,0.2226724492164155,-0.9647847611175111,0.17744144848498952,0.17299369493407557,-0.5107988869655209,0.9831892731281706,-0.10248829000654323,-0.08424953523601572,0.12539321141210252
401,4.01,0.1097112960409964,-1.077423559514065,1.0689961183939158,-0.14816333808004836,0.2238307342815746,-0.9632920461488003,0.15724712287048748,0.15986832092760267,-0.3891921518120969,0.982058880921562,-0.1020597677445521,-0.08906415216121583,0.13114181702791775
402,4.0200000000000005,0.21142494964628522,-1.0260316385841224,1.0934753879510875,-0.15586966364167398,0.22387366362503622,-0.9620663397199143,0.09878143601443141,0.13962638402991134,-0.286132939838573,0.980937488711804,-0.10103193225635444,-0.09356555855477035,0.13706243150407352
403,4.03,0.23905099025874624,-0.9736192677734462,1.0910057317655615,-0.16303457468465968,0.22341919379492645,-0.9609847486864057,0.0417463023696042,0.10934952427088954,-0.2032102850538017,0.9798084185834044,-0.09973468748499056,-0.09775591681256231,0.14303543466128094
404,4.04,0.2872949443344097,-0.9248409003179937,1.0570907117041632,-0.1697318957273724,0.2227165726891906,-0.9599884532367069,0.011412754004916592,0.07772933696948528,-0.14582326335781848,0.9786789966142603,-0.09830901702162897,-0.10167158043186007,0.14890709719037537
405,4.05,0.4007961650477254,-0.8854540084401417,0.9865579231540946,-0.17613139768537472,0.22122656585286216,-0.9591798280857161,0.0062758571793276145,0.06679398840792976,-0.11665314150962998,0.9775996933067198,-0.09649150831444595,-0.10533480532119033,0.15453554485364132
406,4.0600000000000005,0.5451293666447724,-0.845253410585421,0.8898387202458815,-0.18235910335737743,0.21837804235325886,-0.9586678774873402,0.025995540603128982,0.08894322787600464,-0.10290738241297075,0.9766242387471866,-0.09400630985783155,-0.10873997505869798,0.15978944798713052
407,4.07,0.6760798880337638,-0.8070994541918804,0.7862157682470187,-0.18846960764983495,0.21406311586914026,-0.9584578450309231,0.06718583214418028,0.1412228200009532,-0.07730748289803266,0.9757715940189658,-0.09081050964274474,-0.11188986454087903,0.16460055054200143
408,4.08,0.7819136304840644,-0.765961218929909,0.7009268554527752,-0.1944472943817449,0.2084844343148513,-0.9584920468458957,0.12314472941059797,0.17799003654694223,-0.021707438994122148,0.975030318428685,-0.08701297102176322,-0.11479051759793482,0.16898920708876655
409,4.09,0.8689806010089012,-0.7066928906769024,0.6339708680793609,-0.2001436334919008,0.201875415083818,-0.9587331514171471,0.17995379190790126,0.16263115129687192,0.060398842810608575,0.9743836416899236,-0.08274194196243945,-0.11739189324185043,0.17302972138124706
410,4.1,0.9219488971581066,-0.6368372411275772,0.585127482574126,-0.2053838286884193,0.19449160337857524,-0.9591505529998972,0.22434220879715122,0.1162683158213153,0.1462755718601626,0.9738143670873234,-0.07813810709207035,-0.11963532217479468,0.17679794675889823
411,4.11,0.8908507274962651,-0.566221277995959,0.5685687739443923,-0.21005630722159527,0.18692703610128047,-0.9596436120837187,0.24798235103835647,0.058861931381596275,0.2202002932733897,0.9732843040298059,-0.07350381250895717,-0.12152963583889402,0.18037816755594432
412,4.12,0.7887017311064587,-0.5052383889495402,0.5845506635196228,-0.21412558342008028,0.18006237712062018,-0.9600593967187875,0.2554862572930918,0.0005552337770351745,0.28089544787771287,0.9727354113347996,-0.0692720384778926,-0.12315517240043207,0.18388131939375843
413,4.13,0.6540493863208474,-0.4574997700648471,0.6131253076141344,-0.21768303986350684,0.17443483214964828,-0.9603007184839335,0.2554114217646545,-0.0464518171235466,0.32802810101921337,0.9721262536444463,-0.06569271955086187,-0.12462320758341641,0.18739708165057867
414,4.14,0.5594454236781257,-0.417641169616013,0.6392233091339174,-0.22081361520786855,0.17000882712915896,-0.960381343953167,0.25023671159197214,-0.0750382631537552,0.3524990650563642,0.9714541009710721,-0.06273685647079309,-0.12598083595524215,0.19095601393560152
415,4.15,0.5089059996335251,-0.37501197452365936,0.6704202342073329,-0.22351964123814164,0.16634967373886786,-0.9603969124461008,0.24287065325615262,-0.07225090228096093,0.358280742046622,0.9707358061540367,-0.06018389653276748,-0.12719136606483433,0.19459405271091942
416,4.16,0.4600084798137561,-0.32911010045265665,0.709983293314591,-0.2257608183777778,0.1632419064914808,-0.9604067101198935,0.23186191908652865,-0.05102096638426324,0.3612646710456836,0.969976613931852,-0.05792603506224465,-0.12821804499450315,0.1983553947300051
417,4.17,0.37807953948795375,-0.2865849739515363,0.7635039961180075,-0.22752882148980988,0.16086330824766645,-0.9603915944602164,0.2188511198614124,-0.03744437339933599,0.37227071662197064,0.969161806111059,-0.056048536026715556,-0.12908096501862001,0.20227918359017857
418,4.18,0.24981247812193136,-0.24045379684616128,0.8318666801000523,-0.22879177174803592,0.15965628954986788,-0.9602936177851188,0.20831173635728814,-0.051076867111336216,0.3928995229351934,0.9682630810817493,-0.054768064692033915,-0.12982027405656665,0.20641836166094277
419,4.19,0.10189580647907434,-0.18039191147366607,0.9055180473466539,-0.22942996383436673,0.15997010810716636,-0.9600891037184057,0.1974308255242488,-0.08568335898148285,0.41729089843995415,0.9672657829788723,-0.05426768075165459,-0.13042386082199084,0.2107985099139319
420,4.2,-0.02087345095180005,-0.10544837927903743,0.980541374842046,-0.22928016007950508,0.1617852434079439,-0.9598200138360554,0.18301342410769025,-0.11799880023274992,0.4412016683483182,0.966177259942829,-0.05455698053702517,-0.1308181937330056,0.21541933644257266
421,4.21,-0.0933395918586761,-0.027194868734629396,1.0471764210098327,-0.22824620822389755,0.16469774661304104,-0.9595702337890543,0.16382362479232718,-0.13277306175578316,0.4574154843151693,0.9650120558376194,-0.05544819746553573,-0.13092009966706017,0.22029544016631572
422,4.22,-0.13571095664835386,0.03601193118334006,1.0955639808521602,-0.22639652643782843,0.16825255805279002,-0.9593908537537358,0.14219841150564191,-0.12646015127550056,0.4541276714131893,0.9637878490613072,-0.05671850947695,-0.13071743117523127,0.22539124017556297
423,4.23,-0.1701578297796317,0.07284764599400015,1.1279669055499373,-0.22395983975881775,0.1722296735642461,-0.959256368066172,0.12441125250327317,-0.10947375720745359,0.42332309095585846,0.9625118560491511,-0.05824801154518573,-0.13030059845854705,0.23063309773734086
424,4.24,-0.19903337938258958,0.08038185682545579,1.1408204445908372,-0.22122059001216604,0.1765301683371507,-0.9591097580634275,0.11510997534666238,-0.09286853903416278,0.3741510560500966,0.9611828087360604,-0.05996703463171391,-0.12980057612551235,0.23595508385613728
425,4.25,-0.20448321598729646,0.06270746386082507,1.137532288740149,-0.21845954743080423,0.18097726031210126,-0.9589138598016039,0.11432833019512442,-0.0762311749299726,0.3181364374654531,0.9598090781910977,-0.06176684476406611,-0.12933313488550388,0.24127963723826848
426,4.26,-0.2029063960530078,0.02806595166211644,1.1268293685936237,-0.2158801646649982,0.1853803363417102,-0.9586571491791785,0.11867255730030007,-0.06181164442552545,0.2682089918779526,0.9583963125123929,-0.06353318618287059,-0.12897354607048356,0.24657161258948462
427,4.2700000000000005,-0.22403496653228736,-0.00658043551108628,1.1097539626484134,-0.2135811749552532,0.18982991592830795,-0.9583012595705114,0.1280080220118389,-0.06615764813738871,0.2383535144366844,0.9569435972843785,-0.0653006935189582,-0.12878033314946583,0.25179828115947045
428,4.28,-0.2481977443720188,-0.025995731658489032,1.0938222883997553,-0.21156499461891212,0.19445243770433604,-0.9578214745636362,0.13927567290246454,-0.09143042385063169,0.2383192501153075,0.9554549548042656,-0.06713352689131631,-0.12876910352228005,0.25692324627915764
429,4.29,-0.2604656283078454,-0.0337954386506351,1.0741477736726337,-0.20970264477084982,0.1991780427050605,-0.9572597821402129,0.1457784772986176,-0.12798852267363575,0.2688462742743349,0.9539433748223575,-0.0690122111391923,-0.12886627406996198,0.26194478022387047
430,4.3,-0.2628605405604866,-0.034768129409439706,1.0456900270079312,-0.20788175256706645,0.2039140000016318,-0.9566596676116488,0.14606236065772052,-0.17100121115959707,0.3089422811130328,0.9524279491533338,-0.07090790453604823,-0.1290012509253245,0.26684138593188667
431,4.3100000000000005,-0.2513411356606048,-0.02991954624950849,1.0075106414853718,-0.20606762347286522,0.2085116937680951,-0.9560612548378751,0.14249176635558092,-0.21305769028176216,0.345483335918376,0.95093290453115,-0.07275802528061436,-0.12913106697800558,0.2715720105864778
432,4.32,-0.20959761423046708,-0.02038167089547126,0.9568286525451455,-0.20423129052075636,0.21274861582713978,-0.9555222046015928,0.13424884952475596,-0.24702372343689255,0.36861016456261847,0.9494867917969618,-0.07446335913190921,-0.12920315168661195,0.27609906753013685
433,4.33,-0.1117077985454308,-0.00916060395992735,0.9053052723527828,-0.2023636128162126,0.21621610229961916,-0.95514221175144,0.11667372098196938,-0.25559553548624553,0.36697913300867485,0.948120373949166,-0.07582753757091905,-0.12914634475312198,0.28041781838926705
434,4.34,0.01647237778571061,0.0008467373557770295,0.8570050205839645,-0.20048270610858238,0.2184441970662231,-0.9550326774225237,0.09578769576262285,-0.23846359332080977,0.34513755058387674,0.946856075171902,-0.07661606238543135,-0.12889360699226496,0.2845619831442948
435,4.3500000000000005,0.12251748033492912,0.02007085180683393,0.8129171336117034,-0.19855287652208162,0.21943092328504032,-0.9552097886943278,0.07992413005953371,-0.2263995306030808,0.3171575367573689,0.9456942368946099,-0.076832284459493,-0.12842043019818775,0.288553682641836
436,4.36,0.20933012927390549,0.061449562401538274,0.7859229606179655,-0.19641873353779302,0.21942774746396124,-0.9556514134997739,0.06524181892292175,-0.22609541343119902,0.29728126076695777,0.9446223021106466,-0.07661980628907536,-0.1276849346884819,0.2924217544773039
437,4.37,0.28961929859118624,0.12725828826300395,0.7849881903295958,-0.19381254111475918,0.21857064939129447,-0.9563789505991777,0.04474427162180052,-0.22986368058427925,0.2895959168987245,0.9436207474893704,-0.07607610643489397,-0.12657945235308685,0.296252386795091
438,4.38,0.36620223926243883,0.20312453493772847,0.8090582584522323,-0.19049312991875003,0.2169474590538902,-0.9574138732307272,0.01743781924636889,-0.23275512088062958,0.2843555039750271,0.9426638328440076,-0.07527135092174321,-0.12500492832139676,0.30014612191177986
