,seconds_elapsed,rotationRateX,rotationRateY,rotationRateZ,gravityX,gravityY,gravityZ,accelerationX,accelerationY,accelerationZ,quaternionX,quaternionY,quaternionZ
0,4.0,0.6810085883174916,-0.5493929241943974,-0.7476294236243092,0.5642743594944475,0.7555726528167725,-0.3326749463034505,-0.05489998098491948,-0.44651025768398583,0.2752537710250186,-0.5693192133862341,-0.0976404750826342,0.5919669494203257
1,4.01,0.713404974044533,-0.5065991637296979,-0.658429746523326,0.5571795044175816,0.7571734371740604,-0.3408973744531976,-0.06647093401115833,-0.4589061956430667,0.29089879144157726,-0.565449999213654,-0.09906356150890429,0.5918229470567888
2,4.02,0.755129727249484,-0.471494944004993,-0.5715568781294881,0.5508415290485453,0.7580446469013771,-0.34916404763776954,-0.0762016263010791,-0.4645752563567705,0.2972817166704135,-0.561615861644606,-0.10000900277745886,0.5918213417105384
3,4.029999999999999,0.783730632398817,-0.4422719485286854,-0.48767557272490664,0.5452240623646148,0.7582196721027556,-0.3575041219690318,-0.07355920124132027,-0.45921465161780617,0.2966866274353606,-0.5578007270535431,-0.10051202321885372,0.5919758393421386
4,4.039999999999999,0.7822504013704757,-0.4212268392640301,-0.40669659860406354,0.5402781148461033,0.7578117895157193,-0.36578459423013954,-0.055389942186559925,-0.4438277299578601,0.2903680222683345,-0.554048415770983,-0.10067080573039362,0.5922827480443491
5,4.049999999999999,0.7618660740040489,-0.4149251439568819,-0.3212671667747164,0.5359706166939668,0.7569170218388456,-0.37388747032942593,-0.032649866610686834,-0.4341637357207563,0.27692793044437236,-0.5503941226209128,-0.10059488136843736,0.592771856090179
6,4.059999999999999,0.723982152459289,-0.4164784289670024,-0.22727585481392912,0.5323288174818247,0.7555726828736019,-0.3817301292440492,-0.016557898930556918,-0.43428920146872446,0.26899257147091854,-0.5468657285672996,-0.10034837089517736,0.593490789369971
7,4.0699999999999985,0.6551550639226202,-0.4192313019318771,-0.12108063456030747,0.5294103539022913,0.7538260377146964,-0.3891728219510615,-0.004648540987658621,-0.43172957210086377,0.27330729745963306,-0.5435200843146438,-0.09998425518458556,0.5944728145934021
8,4.079999999999998,0.540147461372375,-0.4261515321402043,-0.009610616400550234,0.5272611714236537,0.7518114047818686,-0.3959335136000591,0.007692751707569457,-0.42847301636161034,0.28378642252048325,-0.5404711946618288,-0.09960949341002659,0.5957302374767514
9,4.089999999999998,0.3846733734823653,-0.43490662595854185,0.10265884857595445,0.5258961226672454,0.7497141107183038,-0.4016889296114622,0.02351471443026177,-0.43246423956437263,0.29967947364385666,-0.5378496179776547,-0.09935744751077023,0.5972570685574027
10,4.099999999999998,0.20206849867253732,-0.43711138981423175,0.2222835720480028,0.5253413175032511,0.7476725458912561,-0.4061990243648012,0.0404957277400913,-0.44224601290641924,0.3157439287896034,-0.5357565400566658,-0.09932068302840098,0.5990496364013093
11,4.109999999999998,-0.003564173273833335,-0.43097357791675145,0.3521162996216924,0.5257048646003611,0.7457600817185819,-0.4092360527118594,0.05531941808414381,-0.452462509823465,0.3284808040354967,-0.5342991045018028,-0.09952942658741114,0.6011022284604534
12,4.119999999999997,-0.22360728571908933,-0.420672866959572,0.49002939729679357,0.527094667877688,0.7440125305235691,-0.41062755544525376,0.07199656702583948,-0.45297816777228916,0.34001739549670357,-0.533560661427182,-0.09999558468482717,0.6034127573438635
13,4.129999999999997,-0.44007667724499283,-0.41269162006203586,0.6445425771555304,0.5295929691137781,0.7423862158916014,-0.4103544546383232,0.09707396080601484,-0.4429072146304096,0.3505082422670797,-0.5335543350919137,-0.10070917698672671,0.606009714540085
14,4.139999999999997,-0.639768536477693,-0.40201331790701605,0.8159246294296715,0.5333285762044793,0.7407281168160076,-0.40850381276438846,0.12912128015506602,-0.4297692121604635,0.3580812194836244,-0.5342530463876675,-0.10159371148258013,0.608937896607897
15,4.149999999999997,-0.8108446404216216,-0.38380556608592326,0.9881725770897639,0.5383960292070321,0.7388505118122395,-0.4052363227737356,0.1558432479197332,-0.4151085194801247,0.3576068071672461,-0.5356005824579688,-0.10253266737312458,0.6122096590416254
16,4.159999999999997,-0.9575534626491835,-0.35696007951629505,1.1634783030894444,0.544839467038398,0.7365818587786643,-0.40071943132716287,0.1705718458397283,-0.39918588900036955,0.34791733216844056,-0.5375349356062198,-0.10341696850539651,0.6158116484575847
17,4.169999999999996,-1.0912222848273385,-0.3244444655465594,1.3323421540116602,0.5526668967868289,0.7338007107900931,-0.3950512179253586,0.17670889911823806,-0.37950336391077916,0.33537048644575757,-0.540017376977448,-0.10418062493054145,0.6197162540017316
18,4.179999999999996,-1.1939852177403905,-0.28275355102728744,1.483298326566432,0.5617870120736297,0.730438269416508,-0.3883494905776083,0.18046537342422678,-0.35795979723720583,0.3262731901629833,-0.5429958657603781,-0.10477645798541034,0.6238538489370141
19,4.189999999999996,-1.257829887466485,-0.22481255890818677,1.6400181147560275,0.5721728007600133,0.7263159026915691,-0.3808308786654411,0.18034842268389384,-0.3409645588661134,0.317725860354407,-0.5463889891116211,-0.10507340612185376,0.6281749321258496
20,4.199999999999996,-1.304191602850567,-0.15402294104587436,1.808332379687657,0.5839365760460052,0.7211735583586264,-0.37264096651854467,0.1719031805626761,-0.3256498593763884,0.3066963181367145,-0.5501555024651674,-0.10490224823953906,0.6326710212299084
21,4.2099999999999955,-1.3392888383825183,-0.07105070995295697,1.9731978893616926,0.5971033192943401,0.7148666543729978,-0.363802413686322,0.15912771563753048,-0.3009592313101762,0.2969861069978915,-0.554292831611579,-0.10417927896266412,0.6373026210061699
22,4.219999999999995,-1.3422042243150931,0.020480007309146397,2.123376681665424,0.6115777589654788,0.7073058512192198,-0.35439208994773974,0.14246675255348332,-0.27334621772820406,0.2900709600593108,-0.5587673023543885,-0.10284459941475753,0.6420022864587971
23,4.229999999999995,-1.2787996349648627,0.1071878830165432,2.253601126531193,0.6271780312443955,0.6983459479187356,-0.3447446921602655,0.12715596256028674,-0.25540851841635054,0.27825120876024767,-0.5634394783912124,-0.1007795596332991,0.646724217844769
24,4.239999999999995,-1.1486694547820686,0.18315728517793167,2.3767455998017235,0.6437098046030741,0.6877771057857034,-0.33537259181698015,0.12389735248631602,-0.220592269157166,0.2547630851349139,-0.5680990326026388,-0.09782084429605913,0.6514753727520064
25,4.249999999999995,-0.9904818289209605,0.24846434809662615,2.4853305240147154,0.6610062166933033,0.675451049693457,-0.3266460940228397,0.13563093522460173,-0.15029922609917679,0.21921740865412115,-0.5725889238349681,-0.09385655797175288,0.6562736787490718
26,4.2599999999999945,-0.8559862171727306,0.3020236340223882,2.5542057844953208,0.6787663356976786,0.6615122428472685,-0.3186367557949056,0.15494047371059178,-0.08079245387281123,0.17990280754566293,-0.5768485981616647,-0.08897207933947938,0.6610721831647338
27,4.269999999999994,-0.8093464744475409,0.3448733338000593,2.5848802071494914,0.6966054979128213,0.6464251095177261,-0.31100107959906986,0.16483303794445447,-0.039616053649079025,0.14816883013333085,-0.5809587641622348,-0.08351225398112362,0.6657697942212896
28,4.279999999999994,-0.8485802213389345,0.37909867763968386,2.594140892315647,0.7142558017587394,0.6306875780490829,-0.3031751980782711,0.16004056942736816,-0.01972139491103407,0.13013017306145472,-0.5850917162050401,-0.0778965383274839,0.6702765534165649
29,4.289999999999994,-0.9037687459501388,0.40865362482526885,2.5953492776016738,0.7315868075833514,0.6145554901074626,-0.29486235190542626,0.15100570393306484,-0.01827480434779998,0.12327746870465006,-0.5893397784341826,-0.07235537591319062,0.6745512838305483
30,4.299999999999994,-0.9309993930642435,0.42944240512952586,2.597655543166702,0.7485459354926528,0.5980151921306351,-0.28617589244421426,0.1469590171703395,-0.027164679844710903,0.11820095674996298,-0.5936553004526494,-0.06688275413674694,0.6786090317937805
31,4.309999999999993,-0.9335656442351524,0.4417681721017879,2.601466211584262,0.7650990731146937,0.5809678659416152,-0.27737812973762677,0.15203947853321326,-0.02254964112392654,0.10826028079845279,-0.5979377150072082,-0.06139485727743304,0.6824909086948584
32,4.319999999999993,-0.9459441762202457,0.45063948575844637,2.5977638687333995,0.7811905089985312,0.5634275922502174,-0.2685695349543026,0.16372832099526835,-0.0031184293001542823,0.10274594931981716,-0.6021457153918574,-0.0558916468402865,0.6862092136659955
33,4.329999999999993,-1.0240551438976462,0.45285505907876383,2.5858536239900145,0.796753782730587,0.5455620111914996,-0.2595870473831682,0.1768414328403414,0.013835129468020114,0.10570008911758873,-0.6063350478833273,-0.050527481257862425,0.6897465975943611
34,4.339999999999993,-1.2108805108608185,0.4449249027954711,2.5748187021083577,0.8117359628399953,0.5276487876074546,-0.2500261758863977,0.19355320914763,0.023805681872273853,0.1062591707131075,-0.6106493240220195,-0.045654730123372546,0.6930960205634181
35,4.3499999999999925,-1.494730566651936,0.4273921353034393,2.5717490087254293,0.8261517660086477,0.5098714179797349,-0.23946831403318486,0.22830038509288217,0.03105922020295099,0.11092846706617443,-0.6152424063747421,-0.04163970081148836,0.6962737388976851
36,4.359999999999992,-1.8504994277295195,0.3961852899704642,2.557705777386302,0.8399785529481756,0.4923683661930269,-0.22770758612549083,0.28416259442193026,0.033836157869562816,0.12950960633552494,-0.6201887965272211,-0.038785259829714265,0.6992940846901746
37,4.369999999999992,-2.2503170535906842,0.34964811374608196,2.519821576001652,0.8530910566610219,0.47538609874718135,-0.2146794999762872,0.3387655795095969,0.048064579272109886,0.14939318608411092,-0.6255024145565135,-0.037407722409005,0.7021388262410351
38,4.379999999999992,-2.6612150229907017,0.29289095074823024,2.4837162709800404,0.8654499680866793,0.458972252909202,-0.20046219442744628,0.3877995661184196,0.10383157230050775,0.15706846697080895,-0.6311435123005473,-0.03765783217946918,0.7047953551724376
39,4.389999999999992,-3.037499697331525,0.22551236465521188,2.4461240169359777,0.8770795155723953,0.4429726326860093,-0.1853451179999082,0.45929876611036646,0.1737052237556303,0.1543284614912458,-0.6369897249240478,-0.03951009882492878,0.7072803277673914
40,4.3999999999999915,-3.2872803796474637,0.16150743527527484,2.382540256727266,0.8879424883941403,0.4272712129635013,-0.16985163123172764,0.551051654550702,0.23210674678185206,0.15507686998404288,-0.6428345780302089,-0.042730721543058736,0.7095714515324397
41,4.409999999999991,-3.3699665123131055,0.11398033974550309,2.28915156484591,0.89797942498698,0.41180201888784235,-0.15464400849306378,0.6096386565826621,0.30046497463474675,0.15419661602937532,-0.648437134691749,-0.04685086743511798,0.711611902214287
42,4.419999999999991,-3.3386098624207743,0.07834842083832834,2.1598558927887557,0.9071301922318447,0.39665180254961796,-0.14021096549696627,0.5956740865950031,0.37646428213331695,0.1342084976262691,-0.653632927224082,-0.05144615851980454,0.7133424021613355
43,4.429999999999991,-3.2271515903530164,0.05138315466613166,1.9836795872312027,0.9153042308869702,0.38214015716222466,-0.1268149915282382,0.5278366613086134,0.4405925362952486,0.09872782600872654,-0.658340005939686,-0.056301510970585514,0.7147210082051889
44,4.439999999999991,-3.015319246566173,0.035326944841660754,1.7648142693333608,0.922410121653223,0.36867925070693025,-0.11467643476063262,0.45122021775466303,0.4818911987764046,0.0508594752871936,-0.6624961387662073,-0.06124428560573012,0.7157392053731993
45,4.44999999999999,-2.6948243191934917,0.03529453882801315,1.5185734066649008,0.928414797852742,0.35660972854240014,-0.10397830764560274,0.3760887860554102,0.4995611338701492,-0.004901905939860639,-0.6660686651706269,-0.06599601525549154,0.7164036087310197
46,4.45999999999999,-2.3140647247437602,0.046952969570686495,1.2556719673800172,0.9333370511070781,0.34619691770059074,-0.09478605652985535,0.2814246322378685,0.5039789492846456,-0.05975018693565384,-0.6690723919277058,-0.07030767299013363,0.7167403504318494
47,4.46999999999999,-1.952709492016912,0.05946132142998065,0.999668662832362,0.9372460184153135,0.3375970367749764,-0.08699233764783258,0.1649634333794306,0.4936619488755462,-0.1027395190321519,-0.6715699173915857,-0.07411623246895431,0.7167988831899373
48,4.47999999999999,-1.6628429272680254,0.0677807235653669,0.7680091881544664,0.9402591265388739,0.33081159244175656,-0.08035358408233759,0.053886543994402396,0.460318034881538,-0.12434999843388882,-0.6736511001011152,-0.07754868891690572,0.7166421405589922
49,4.4899999999999896,-1.4420129464785285,0.07228438911371733,0.5643956078799071,0.9425024677912996,0.32574913562502794,-0.07459094396761701,-0.02204626747406713,0.40785044840561374,-0.11903750675579568,-0.6754059978621427,-0.08079637643789525,0.7163200905854243
50,4.499999999999989,-1.2491035006087314,0.060209897950491226,0.40363595189795565,0.9441173252522918,0.32217025502389796,-0.06957555267774872,-0.06750038067757681,0.3436633991268583,-0.09289298669824342,-0.6768783045840671,-0.08393557440872663,0.7159020723507933
51,4.509999999999989,-1.0586843332936482,0.021362970777268658,0.29149945665881416,0.9452620900988943,0.31967059245933055,-0.06546657363528507,-0.10734704205308931,0.2886456945887269,-0.06728366363816529,-0.678027401286814,-0.08685291128377028,0.7155196403173325
52,4.519999999999989,-0.9257729014134296,-0.04229706480433228,0.2099004532382211,0.9460590541873539,0.31792392248290724,-0.062405376143181666,-0.13860104887385258,0.25996402219616643,-0.05798062349959578,-0.6788073910865156,-0.0895324443646214,0.7152938223415658
53,4.529999999999989,-0.8992716796940162,-0.12399498521631626,0.15000384035331785,0.9465819671995622,0.3167730427539782,-0.06030200298549524,-0.15532427624720388,0.24236108454242578,-0.06490309696577494,-0.6792227129347,-0.09221485271820079,0.715283561525208
54,4.5399999999999885,-0.9745413652488604,-0.21999575510049177,0.11981611544595167,0.9469054439253001,0.3160543762169807,-0.058984648435217564,-0.166724879698175,0.21033151605197317,-0.0713327241728919,-0.6792953319024122,-0.0951995113454159,0.7155208868268715
55,4.549999999999988,-1.1156714025095642,-0.32017386896806976,0.11549017531197572,0.9471163430608215,0.31555675547301293,-0.058260814104397,-0.17957359614807722,0.16328951014388918,-0.0698448510945673,-0.6790603010860475,-0.0987067918157422,0.7160116058416105
56,4.559999999999988,-1.284017255327044,-0.41316236680387675,0.13217954832770837,0.9472953417375742,0.3150749074699404,-0.05795790889084883,-0.1984150640642756,0.12244963894928233,-0.05471823954157407,-0.678561679939972,-0.1028112052211316,0.7167311504837163
57,4.569999999999988,-1.4802626887159192,-0.4993090326482088,0.16101293989992155,0.94749633501342,0.31447288903800735,-0.05794156615966115,-0.22101364661791148,0.0980263656514777,-0.030686671377068764,-0.6778340149595933,-0.10753469599718321,0.7176424382286611
58,4.579999999999988,-1.7119165467357205,-0.5749831475360283,0.18821625604138295,0.9477334231938581,0.3137403956388889,-0.058034410747313685,-0.2394759380127485,0.08649702928524546,-0.008699794502200086,-0.6769131435480122,-0.11297179017359317,0.7186842676814458
59,4.589999999999987,-2.0222272372159513,-0.6400987048690818,0.20439767102069764,0.9479996216483411,0.31294623946450983,-0.057973352207773395,-0.24791725521499347,0.07577746835961206,0.016835647398838447,-0.6758436845862855,-0.1193168594375395,0.7197650104773463
60,4.599999999999987,-2.475756452871069,-0.707562329969211,0.1828984118839906,0.9482290193088199,0.3123628600250628,-0.05736487912386361,-0.24939577308431868,0.059064105809018747,0.043850430856513245,-0.6746525620077441,-0.12705303834894516,0.7207568860601354
61,4.609999999999987,-3.0030610269860216,-0.7795082032504987,0.12371631787181861,0.9482938961707987,0.31243746656691584,-0.055860856301663056,-0.24613789484138485,0.041866763899472734,0.06458142757180887,-0.6733073299252589,-0.13673794942905634,0.7215211928855501
62,4.619999999999987,-3.4828173104202103,-0.854301019158341,0.06607688354967511,0.9481418904848399,0.31331582180282397,-0.05345668799091444,-0.23390948693852515,0.01528422746928727,0.0781188866479931,-0.6717078594922459,-0.148455955396165,0.7219868221015346
63,4.629999999999987,-3.904124897415197,-0.9207075744459148,0.0044413970969948355,0.9477940984303138,0.3148880291701035,-0.05027555743618485,-0.21179788141747788,-0.012664130952882713,0.07027636112110615,-0.6697541061647946,-0.16198373709815667,0.7221072283150843
64,4.639999999999986,-4.241197727839212,-0.9415019799892335,-0.07056830513776838,0.9472393646520545,0.3171641024228044,-0.04623298550958487,-0.18911240435757432,-0.0074256037859499885,0.04279038487279797,-0.667431491346156,-0.1770725065574852,0.721759151691999
65,4.649999999999986,-4.438039353862236,-0.9113248912152585,-0.1211794200003695,0.9465243482496599,0.31997771044261336,-0.04117738955538568,-0.18107611075974506,0.009289067960339268,0.030891691782738536,-0.6648239224701828,-0.1932612061203978,0.7208069128726845
66,4.659999999999986,-4.458083811402439,-0.8464183819481378,-0.1446284963865494,0.9457610937766742,0.3229334279661957,-0.035172666714069996,-0.18725525517946726,0.010426897811705202,0.051278633176064535,-0.6620414784087095,-0.20986570823246492,0.7192183567426362
67,4.669999999999986,-4.308326445147699,-0.7552638041788262,-0.15557015902595278,0.9450165007729093,0.3257560153491757,-0.02851112970093757,-0.18567210827024525,0.034310440253396524,0.08477486693296138,-0.6591876264185935,-0.22616458438131187,0.717077779398071
68,4.6799999999999855,-4.1591613568366705,-0.6518967359793961,-0.17190389442253132,0.9443096682429324,0.3283423204207757,-0.02133036920860079,-0.17590085170232767,0.09392829348788824,0.10039799669757353,-0.656353598382636,-0.24181410617906238,0.7144536925114684
69,4.689999999999985,-4.073151585087319,-0.5327345002444575,-0.2014639659202239,0.9435888669919233,0.3308194781187885,-0.013374435535673673,-0.17243211385793952,0.15743679429861598,0.1007891561370345,-0.6535952342981202,-0.2570353500469623,0.7112878290672591
70,4.699999999999985,-3.9065092368055003,-0.4050097066910887,-0.2072107411222791,0.9428527028299879,0.33314520709681933,-0.00452461747478548,-0.1688553146086744,0.17127657812093333,0.1025873267091754,-0.6509957964776375,-0.27182415999401033,0.7075689718479893
71,4.709999999999985,-3.5734548352665096,-0.2997715732549689,-0.1851397077436957,0.942190657556058,0.3350121382856718,0.004701371907808524,-0.1621383413672535,0.13914456923962842,0.09932949095966,-0.6486360696318056,-0.2856182085140852,0.7035317580921008
72,4.719999999999985,-3.111805167608723,-0.22578789452099982,-0.15649387285816488,0.9416407419368633,0.33632359642069626,0.01347772603911463,-0.1543586078100054,0.16289547868060344,0.08273882167417315,-0.6465288240942261,-0.2978362914369274,0.6995501250832996
73,4.729999999999984,-2.6522736012942256,-0.1725536827697219,-0.13359901251972214,0.9411915940698242,0.3371808309340839,0.021305416955135416,-0.1474528940860245,0.23798827663984753,0.0522649241611965,-0.6446679684369749,-0.3082732465718509,0.6958819409003163
74,4.739999999999984,-2.292166430131069,-0.12633807046811787,-0.1203283564886258,0.9408044448122388,0.33775588811840784,0.028231288808445842,-0.14608133393339598,0.27085203535389574,0.014894015993980034,-0.6430363823566733,-0.3171786441700116,0.6925550516113785
75,4.749999999999984,-2.0507371432092754,-0.07674387756948756,-0.1040013285779814,0.9404565837863559,0.3381339362212524,0.03459839139539905,-0.1517846312410734,0.2502956961929173,-0.01543203192778588,-0.6416183634166173,-0.32497872682175033,0.6894519068561089
76,4.759999999999984,-1.885982265897203,-0.04023392810718167,-0.07882593107222095,0.9401631704712258,0.3382715989643729,0.04069612339657866,-0.16396918351176287,0.2051161732622323,-0.038311880258476684,-0.6403957490611353,-0.3320087039314221,0.6864541115044652
77,4.769999999999984,-1.7502746229897495,-0.025198688170307744,-0.044871013514028515,0.9399653996770838,0.3380692666085223,0.046538735193871576,-0.17433830242276532,0.16362808277295526,-0.05909637498052697,-0.6393230366115166,-0.3384167169731862,0.6835420888107226
78,4.779999999999983,-1.6366937820523277,-0.020221222303957575,-0.012232031871958912,0.9398833121153555,0.3374968184456207,0.05203752469690076,-0.17361014307700529,0.14292601374677416,-0.07772260062228682,-0.638353220856906,-0.34426141679284766,0.680743093715276
79,4.789999999999983,-1.5442100847133169,-0.022209099202087693,0.009047533891592281,0.9398907002219115,0.33664186352538683,0.057193216992416085,-0.1573071199147844,0.14311017834478437,-0.09538723543441899,-0.6374412329119385,-0.34965458828722595,0.6780552944681163
80,4.799999999999983,-1.452898533444553,-0.019851834772465906,0.02421321065864869,0.9399598221469203,0.3355887212092076,0.06204635964349221,-0.13569148636891779,0.1466247647447809,-0.11202010961203268,-0.6365742143926642,-0.35466949662186653,0.6754685070243743
81,4.809999999999983,-1.342811505275522,-0.009815334916651038,0.034195226144937745,0.9400667708832768,0.334414992138047,0.0666023731246165,-0.12862697411909843,0.14078477159784133,-0.12457614677257983,-0.6357750333799773,-0.35928583754677884,0.672999459831284
82,4.8199999999999825,-1.2136888695766785,0.0048947991313223575,0.03618123298838673,0.9401881593686993,0.33320031584589954,0.0708458657063529,-0.14016043323205252,0.14250080017952976,-0.13337596848140043,-0.6350688047467282,-0.3634646325480291,0.6706770638465398
83,4.829999999999982,-1.0869535874344598,0.019373489796250316,0.026845062441346254,0.9402884852082933,0.3320550025440771,0.07478695728204235,-0.15758010162969074,0.1542258291505068,-0.14354145607210297,-0.6344617836152322,-0.36721723760630415,0.6685179870485827
84,4.839999999999982,-0.9843508534833499,0.02956178555794701,0.0074031088156224015,0.9403292705246713,0.3310936696390869,0.07845052215051791,-0.17312401080268564,0.1607035528169927,-0.15916091576215313,-0.6339211972734008,-0.3706297758728567,0.6665199949787849
85,4.849999999999982,-0.9226566404745127,0.03168256919944622,-0.018091525390052012,0.9402894990984352,0.3303730060870304,0.08189205108646394,-0.18059514836059015,0.16007716901950014,-0.1791395096922835,-0.6333979653060943,-0.37383221602095434,0.6646528029054686
86,4.859999999999982,-0.9029201659315832,0.0298788872236382,-0.04597398395485064,0.9401618792035155,0.329902546148515,0.085188791098329,-0.17207359753086585,0.15416273891752985,-0.197421744116554,-0.6328380910392628,-0.3769718528313432,0.6628665832423256
87,4.8699999999999815,-0.909088391135413,0.029298353582639203,-0.06877757154467092,0.9399478847102732,0.329653216179577,0.08845186393081643,-0.15511247854450144,0.14186086804259568,-0.20915098307740024,-0.6322149857189516,-0.3801676063489208,0.6610985790726392
88,4.879999999999981,-0.9216465716773984,0.02624300532261988,-0.07611252542993438,0.9396810055885002,0.3295170460245574,0.09173447406355376,-0.14234288747540377,0.12398827229630346,-0.2179038021960706,-0.6315361659662345,-0.38344028989020396,0.6593124110732743
89,4.889999999999981,-0.9245543088705765,0.01931645379119877,-0.055534753457757394,0.939437486714451,0.32929084429342825,0.09498451681137632,-0.13060005653536041,0.10905947433786282,-0.2282062612008085,-0.6308313261390972,-0.38670579418149204,0.6575129336260257
90,4.899999999999981,-0.9277016454550756,0.011207414560897732,-0.008114623425103187,0.9393128626630642,0.32871185085969207,0.0981694171023202,-0.10845206661039163,0.10857943006556751,-0.23418795787729255,-0.6301518566677294,-0.3898600641337837,0.6556931460090525
91,4.909999999999981,-0.9272127927227312,0.003925250972926345,0.06713300096796375,0.9393984173921611,0.3275188657378846,0.10128789517714384,-0.07558875774406568,0.11827403841973087,-0.22918318820719455,-0.6295561313924741,-0.39281161882597576,0.6538322598315931
92,4.91999999999998,-0.889274974655939,-0.015967084698346175,0.17111399094058888,0.9397887742419544,0.32547341996561496,0.10421436415977726,-0.03292431334957491,0.12484366262783231,-0.21952592540640548,-0.6290944716027502,-0.3954059891160583,0.651965603270367
93,4.92999999999998,-0.7777163554645034,-0.05230677658423925,0.2916442176659806,0.940569624825377,0.32242199399398125,0.1066219128015052,0.023570935022988775,0.13740912265129518,-0.2131569690689754,-0.6288040071910083,-0.3973862595995222,0.6502305550882923
94,4.93999999999998,-0.63410465739604,-0.10206344269361378,0.4119993424793004,0.9417798535066895,0.3183446105009969,0.10817184524848453,0.0837200158362616,0.17638132797835548,-0.2125346588045138,-0.6287072759343536,-0.39851345954602846,0.6487875001040454
95,4.94999999999998,-0.5268911111621102,-0.15881823968642084,0.5157643646329523,0.9433920615081822,0.3133259696514563,0.10876546761027313,0.12682625242943962,0.2348647850451253,-0.2178131935630298,-0.6287529055247056,-0.3988138851003525,0.6476747586266727
96,4.9599999999999795,-0.43260889264465896,-0.20891833031671114,0.5914484907826919,0.9453149247220675,0.30756315626058833,0.10850940965348438,0.1497357371280275,0.28671303426008155,-0.22223542965685567,-0.6288682317234703,-0.3984712645020895,0.6468456672564205
97,4.969999999999979,-0.32595958971091366,-0.24593650911987028,0.6531433704657068,0.9474595934152558,0.301246195682338,0.10750989826192657,0.16590797953537048,0.3046893927967294,-0.21689240504931742,-0.62905452096138,-0.3975487016490885,0.6462838457589436
98,4.979999999999979,-0.20135976761259486,-0.27838247007450007,0.696995248435952,0.9497609580866945,0.2945233115169827,0.10580987106368828,0.17229457193753606,0.3052146006375407,-0.209710563896811,-0.6293275753871981,-0.3960440747294414,0.6460045209025286
99,4.989999999999979,-0.04123683333128898,-0.30703772924603323,0.686221538402699,0.9520948301651467,0.28777528784122774,0.10337542125490153,0.16053748916605884,0.33100306038968075,-0.2082285670330758,-0.6296450719535729,-0.3939967452097825,0.6460797865067427
100,4.999999999999979,0.13310431163299621,-0.319499235425601,0.6131200955135162,0.9542760413605677,0.2815938617859624,0.10024900749704832,0.13484644773423082,0.36805435729905417,-0.20605037768837908,-0.6299528562988156,-0.39151258701081176,0.6465818660953003
101,5.0099999999999785,0.30731643745055204,-0.3154893665924005,0.4985584857643506,0.9561470981570857,0.27648185237195366,0.09659738761548314,0.10477682092465898,0.3802012203377776,-0.2033192737726526,-0.6302116830399642,-0.3887542631197394,0.647514736187846
102,5.019999999999978,0.4775684888296559,-0.29446440175531313,0.36358679970757185,0.9576259581954191,0.272712847043301,0.09259179189394649,0.07640532811644113,0.37648316676496135,-0.19701722951142675,-0.6304174491752171,-0.38583350627995,0.6488514634797461
103,5.029999999999978,0.5693701381730415,-0.2616135370345622,0.19646856143266223,0.9586482100656946,0.2704795989969192,0.08848577457234486,0.045197075038204984,0.370013656120979,-0.18717889348258276,-0.6305342659270688,-0.38297201550454496,0.6504902587707513
104,5.039999999999978,0.5710938384611306,-0.2176865787384736,0.0030452308562217284,0.9591281325236192,0.270012971437244,0.08463463938897696,0.010480917929168877,0.35285038011648673,-0.18254860215820545,-0.6304613098211725,-0.38057165814506616,0.6522508040287613
105,5.049999999999978,0.5626209825254517,-0.18198924102263808,-0.18651073263350557,0.9590369976257015,0.2714111240747366,0.08112070485323214,-0.013521659024578428,0.3122315377826756,-0.18742406930096542,-0.6839014712504464,-0.18475783179016392,0.652850370233266
106,5.059999999999977,0.606104637402857,-0.16926092645155116,-0.3548604972074941,0.958417695434766,0.27454954191342984,0.07779613283347145,-0.015546609670870203,0.25509251550551304,-0.20479966700071794,-0.7340964679811941,0.00026963641610339747,0.6527180629040766
107,5.069999999999977,0.7045446723929772,-0.17216470627460634,-0.5018663845254598,0.9573568769730657,0.2791584019083407,0.07435307015258254,-0.00903179931921491,0.23257156568577717,-0.228054755506983,-0.7329227083040196,0.0006642483626090172,0.6529355382573595
108,5.079999999999977,0.7978655618380869,-0.1949126318853071,-0.6421302796105397,0.9558730194810817,0.28517517715225316,0.07047237845837159,-0.0016877323622073292,0.2391525936778494,-0.2506078014615417,-0.7315975415948178,0.0008548350135725651,0.6530491567729229
109,5.089999999999977,0.8537827346161289,-0.24044642111509842,-0.7777024988733482,0.9539646836780384,0.2925281818839911,0.06600285377567337,0.013490738440064485,0.2387158349294751,-0.2601870769588853,-0.7300686133693542,0.0007489717210049323,0.6531334333467695
110,5.0999999999999766,0.8910800221477072,-0.31106413419503764,-0.8880163096974325,0.9516573290536128,0.30103892757160544,0.06078416880137171,0.04159207174637958,0.23281705548722056,-0.2514228949844375,-0.7282794681034539,0.0002697525799665226,0.6532848356745211
111,5.109999999999976,0.943674128552929,-0.3955292065290176,-0.9621828905933842,0.9490208545028421,0.3103861762740522,0.05462620840447311,0.07745272211903453,0.2210154648880725,-0.23473661378797425,-0.7261620960221493,-0.00048595558893432377,0.6535946835402461
112,5.119999999999976,1.0210712483923603,-0.4870113889607831,-1.0110585120621374,0.9461258000069865,0.3202532255380996,0.04734454947097026,0.11180603549719742,0.20637516176627024,-0.21264308685937888,-0.723649396284584,-0.0013451230374179374,0.6541301313878652
113,5.129999999999976,1.1094803680893282,-0.5784807815782239,-1.0472929406617573,0.9429983997409661,0.3304489894610829,0.03883521414306043,0.13209509994923008,0.20060427725153543,-0.18333416062649752,-0.7207011971496327,-0.0021800077502953535,0.6549134068900356
114,5.139999999999976,1.2090830084649866,-0.662969694117934,-1.0719320732809716,0.9396428923664465,0.3408351533434973,0.029091677693805353,0.13309419647401857,0.19292635307200032,-0.14785882021053037,-0.7173102615534406,-0.0029146440473428407,0.6559344120383493
115,5.1499999999999755,1.3287426646805796,-0.7470339305676595,-1.090791205080496,0.9360606901367918,0.35128262954027073,0.01808780163206282,0.12077041838554378,0.17663291112844673,-0.11354108651486576,-0.7134617781383266,-0.0034674407662217584,0.6571833766127609
116,5.159999999999975,1.4622220071662944,-0.8417390059529976,-1.1017974108411646,0.9322413689517934,0.3616916825303621,0.005696491119440578,0.10782926706904467,0.16364907620826125,-0.09410755556779471,-0.7091042117541496,-0.00376389328250733,0.6586756961863426
117,5.169999999999975,1.5856995883023928,-0.9496312674465291,-1.1055823060555081,0.9281722536578193,0.3719477008190003,-0.008241337415445136,0.11388751597903503,0.1546560825532923,-0.0895586926439597,-0.7041720235372549,-0.0037849673491371564,0.6604559958301957
118,5.179999999999975,1.6676337092633982,-1.0534008237601369,-1.114861284448703,0.9238170301514742,0.38197902368249936,-0.02367789436213433,0.14066182331465873,0.13979005351373291,-0.08073961096107839,-0.6986699441007784,-0.003620871948656425,0.6625282766902799
119,5.189999999999975,1.6929620856515142,-1.1384186179332334,-1.127925795591266,0.9191183551217281,0.39178432213256176,-0.04030952430994754,0.15837288258197368,0.10988664126341299,-0.06385055380224068,-0.6926932248507414,-0.0034427001756643003,0.6648322405895574
120,5.199999999999974,1.666580457135693,-1.2076782275455304,-1.1360315288067686,0.9140456280438364,0.40134594198604956,-0.0577507955305465,0.15164895580969293,0.06222934661796519,-0.043091979356601307,-0.6863691101925066,-0.0034157735010091157,0.6673005166708768
121,5.209999999999974,1.6039038983059204,-1.2670344251905057,-1.1380242107668892,0.9085979865456613,0.4106221582769411,-0.07569053826295946,0.13599214188292785,0.010653446984486246,-0.017781762231676504,-0.6798016762990846,-0.003650735568267259,0.6698920874056498
122,5.219999999999974,1.5083673839809526,-1.31639602752391,-1.1397922495263544,0.902770333777896,0.4196188454428689,-0.09388483128491112,0.1282915331015864,-0.02968184147603489,0.008535785123172763,-0.6730736076891533,-0.0042313466498855815,0.6725752252004734
123,5.229999999999974,1.3734829915691438,-1.3605488773317789,-1.1450752055737938,0.8965409379510841,0.4284190210571751,-0.11207469340074397,0.13007454418692493,-0.05637563293561518,0.027826613511534887,-0.6662753094227071,-0.005282143883197947,0.6753183505210458
124,5.239999999999974,1.194733373205092,-1.3997683166560362,-1.1519241324044533,0.8898934309644089,0.43713168430146837,-0.12998955646399118,0.13889583788416737,-0.07657190238617656,0.04335124734644561,-0.6595033443763911,-0.00694826391935622,0.6780988643919486
125,5.249999999999973,0.9772652470103456,-1.4304511436903489,-1.1600125226677154,0.8828243632887903,0.4458812741519607,-0.14733293484786836,0.15425118914055766,-0.09970356247758666,0.06260495230403328,-0.6528653251337365,-0.009368332119201673,0.6808898633476804
126,5.259999999999973,0.7365679021858706,-1.4522250897716267,-1.1693872089992254,0.8753329971747216,0.454802457550225,-0.16385270507303357,0.16865582708848323,-0.12409238846005956,0.08264501915540914,-0.6464522298190096,-0.012645639163202625,0.6836637886671892
127,5.269999999999973,0.48946242781888427,-1.4653355568676227,-1.1812570833135017,0.8674240136242808,0.4640073332564244,-0.1793839255503873,0.1758134455128946,-0.1469425458089352,0.10215843625041181,-0.6403210000211007,-0.016818882556757113,0.6863950377483368
128,5.279999999999973,0.23733283707512556,-1.4728205227554856,-1.19416959834049,0.8591075338452586,0.4735945296029702,-0.19378643881096533,0.17957679331010495,-0.16931807589929526,0.1223917268361568,-0.6345167270928038,-0.02190452003174738,0.6890561134062095
129,5.2899999999999725,-0.02081850324576799,-1.4709487528598635,-1.2062147874326579,0.8504076803408924,0.4836495472838294,-0.20689511490487542,0.18163626619352644,-0.19008356295229545,0.1443012652870767,-0.6290915747610796,-0.027912299353863343,0.691610739894705
130,5.299999999999972,-0.2754379917773141,-1.4542046263261672,-1.2182366551801926,0.8413658076475515,0.49423016937504743,-0.2185414196319164,0.18224115767079388,-0.21145426726064187,0.1682831888221003,-0.6240973130296108,-0.03482495940356144,0.6940133644269704
131,5.309999999999972,-0.51501011648151,-1.4213768953022052,-1.2302534467685862,0.8320287215116233,0.5053666189145268,-0.22859741658064314,0.17879078535627033,-0.2360512136131723,0.19224811408887804,-0.6195694510029767,-0.04258945567236174,0.6962136022577164
132,5.319999999999972,-0.7265082116859025,-1.377268488315299,-1.2375342182320224,0.8224524217861743,0.5170362045376926,-0.23700762025507754,0.1674957929543286,-0.25947067213558983,0.21197623107031954,-0.6155177451379888,-0.05109847958626706,0.6981625138286672
133,5.329999999999972,-0.898664579135523,-1.330732998962177,-1.236238120205249,0.8127176069174585,0.529121270991129,-0.24382489889538295,0.1575232214774747,-0.27721904254718,0.2209271984331219,-0.6119141211562443,-0.06020010329013872,0.6998453935698941
134,5.339999999999971,-1.021581706515002,-1.2813947344287624,-1.2209565339639772,0.802915122603036,0.5414317835194754,-0.24922151267745443,0.15598463600326193,-0.2889278017056967,0.21867104420636607,-0.608691114337572,-0.06970557314590754,0.7012812410086888
135,5.349999999999971,-1.0904232985222384,-1.2299739968556977,-1.1876649691928207,0.7931539559475194,0.5537190987568112,-0.2534520635941481,0.15746993242500773,-0.2959900451096316,0.21367038836762067,-0.6057621706232966,-0.07937763558747166,0.7025039767997615
136,5.359999999999971,-1.1100630424966804,-1.1758099204440422,-1.1373338436208347,0.7835645392457717,0.56571040170759,-0.256786523409338,0.15747913161817734,-0.29945622803180116,0.2089844859698092,-0.6030475312321937,-0.08897293131122493,0.7035588836399624
137,5.369999999999971,-1.0860823602499081,-1.1149553560990713,-1.0710486984386591,0.7742913168161597,0.5771554070438264,-0.25944561213316086,0.15850422854028237,-0.30027454286193106,0.20637768837760814,-0.6004989669027659,-0.09826511919113026,0.7044813292406159
138,5.379999999999971,-1.0265585271768316,-1.0493344839840624,-0.9896764609044691,0.7654615163649114,0.5878529826231271,-0.26163327895613386,0.15896707162946405,-0.3007377492794493,0.20798719727112888,-0.5980811861198384,-0.10706414391891993,0.7053046496695844
139,5.38999999999997,-0.9419192907310203,-0.9837209851345414,-0.8972856661199523,0.757191657960382,0.5976341328322383,-0.2635455933758208,0.1541423638806481,-0.30335424289417845,0.20823641944970103,-0.5957645036425362,-0.11521867347571225,0.7060715810873602
140,5.39999999999997,-0.8369218076378118,-0.9169846724370434,-0.7892283920059715,0.7496040662115385,0.6063397682610152,-0.2653592412335333,0.14464126472705313,-0.3073839181122908,0.20659491879935266,-0.5935286653691529,-0.12259983263075103,0.7068314561329833
141,5.40999999999997,-0.7293284431207354,-0.8520793805398137,-0.6675924889188452,0.7428098644820709,0.6138566218096073,-0.2671902889179268,0.13171916951552234,-0.310487881865608,0.206286105354887,-0.5913704704219284,-0.12913308248719765,0.7076316830150448
142,5.41999999999997,-0.6336151198497282,-0.7898016955394601,-0.5428842682440722,0.7368769887738998,0.6201633198113412,-0.26906024011370244,0.1189859912682722,-0.3148217036733863,0.2031550349993868,-0.5893081310236082,-0.13482498910145116,0.7085014799100459
143,5.4299999999999695,-0.5478811699142838,-0.7326182618855221,-0.41280737660458666,0.7318480761314416,0.6252691048139103,-0.27097231312654324,0.11019110464260179,-0.3217646472621473,0.19203159275644044,-0.5873582104585259,-0.1397076211287883,0.7094649403226053
144,5.439999999999969,-0.4734911810375982,-0.6858935637284433,-0.27483991976667155,0.7277645286813025,0.6291665010212352,-0.2729495146049823,0.10724830010440069,-0.33165254868796185,0.17782922818154862,-0.585523678260477,-0.1438157312666444,0.7105596084214743
145,5.449999999999969,-0.41218058068986935,-0.6407257948246045,-0.12555712263582225,0.724684777713203,0.63183192343326,-0.27498477248819964,0.10737715735629576,-0.34034558671201276,0.17259944983124326,-0.5838186179845157,-0.1471751049403288,0.7118163567962835
146,5.459999999999969,-0.368434039964735,-0.5867615061333719,0.0401248545751605,0.7227145248980422,0.6332206436360114,-0.276972770991409,0.10000291924374913,-0.3445727053447543,0.1799336596602717,-0.582299771772179,-0.14979586006538845,0.7132400885744881
147,5.469999999999969,-0.3532061593949016,-0.5286007980774204,0.21600298248448532,0.7219703573297015,0.6332997999037633,-0.2787286486083707,0.08694586222267664,-0.3521545596813294,0.1914863413526859,-0.5810494033292201,-0.1517113155741902,0.7148206818791083
148,5.4799999999999685,-0.3588812172034204,-0.4716359823543809,0.3955777431861561,0.7225053594025631,0.6320879245293384,-0.2800884556629134,0.0819766688582553,-0.3632422471535061,0.1994525493937372,-0.580128469875811,-0.15299129351181004,0.7165459805921677
149,5.489999999999968,-0.36015193285786357,-0.42197804827897184,0.5792006116747427,0.7243294671134132,0.6295757254498412,-0.2810290131659688,0.09111653887661761,-0.3710885610765948,0.19892469174084904,-0.579544437416321,-0.15366734639548071,0.7184242029746878
150,5.499999999999968,-0.33939162091129804,-0.38683011222610486,0.764924503953945,0.7274168953503133,0.6256839810681558,-0.2817371154895205,0.10998993878013097,-0.3709809197855227,0.1837750827144934,-0.57923201725157,-0.1536934504077064,0.7204983097771507
151,5.509999999999968,-0.30022056745816095,-0.36405721655252354,0.9420074803399975,0.7316751606718599,0.6203589734184982,-0.2824743584424114,0.13245687336158668,-0.3543006860215382,0.15490270076999813,-0.579090645061275,-0.15302481695187295,0.7228151986438439
152,5.519999999999968,-0.2582024381675581,-0.3536689064567439,1.1155190160579556,0.737008935835892,0.6135868370722408,-0.28338459265141536,0.1529171883841037,-0.32317231202043817,0.11692165244544397,-0.5790548949130562,-0.15166552237944603,0.7253994159466182
153,5.529999999999967,-0.22379950302806448,-0.3626416746928991,1.2796455563570577,0.7432984740848423,0.6053897175585695,-0.28456929969625355,0.16395996001568094,-0.2914354280096626,0.07865923719950325,-0.5790623328453821,-0.1496692107458607,0.7282751340640506
154,5.539999999999967,-0.19401359461890805,-0.3799813617333213,1.4238196206274614,0.7503657014821995,0.5958726015015022,-0.28609022538875606,0.16524749344535553,-0.26810975932318476,0.05714499159879274,-0.5790570038442487,-0.1471256304288239,0.7314383412052958
155,5.549999999999967,-0.16942058149295147,-0.39767974642375337,1.5668955267751357,0.7580797079135401,0.5851094774916792,-0.2879467430939191,0.15976900964599836,-0.2517081008336871,0.05710031284977064,-0.5790173822751398,-0.144093215600094,0.7348642791970478
156,5.559999999999967,-0.15690440496111702,-0.41052036521794033,1.7189711929090046,0.7664159560954144,0.5730595892091936,-0.2900860193985788,0.15614808291138357,-0.23751128346343692,0.06516289672433326,-0.5789555698578362,-0.14058438513107657,0.7385370332353692
157,5.5699999999999665,-0.155500819237195,-0.4178427206533985,1.8826884050207486,0.7754035166726366,0.559626756017726,-0.2923958254868841,0.16593196771276267,-0.22211074062221295,0.07410357511977363,-0.5789126333300273,-0.13659363809018474,0.7424340768104049
158,5.579999999999966,-0.17058699612416958,-0.4242071324588154,2.0570563129434447,0.7850491399003323,0.544720160462073,-0.29477370983658246,0.19247205796989214,-0.20700281734029935,0.08477138994927165,-0.5789213444509624,-0.13212784873099423,0.7465336921497794
159,5.589999999999966,-0.21552874630449095,-0.4431651069898038,2.226406120403586,0.7952574641821787,0.5283513126269674,-0.2971700373927807,0.2369935138702218,-0.19314684931309978,0.09201107459374408,-0.5789727294606996,-0.1272766269924368,0.7508261755370643
160,5.599999999999966,-0.30627282043093396,-0.4824261271349547,2.3829716578178983,0.8058437052022416,0.5106637217978175,-0.2995427050373029,0.3072212302283157,-0.17565028364340568,0.09200584646169944,-0.5790342551883271,-0.12223569556300065,0.7553042057826908
161,5.609999999999966,-0.4335455064374862,-0.5293928579095708,2.51360877023109,0.8166029195876654,0.4918905315072933,-0.3017972992805488,0.39682253976678533,-0.153233601175136,0.09091869706261387,-0.5790946894068686,-0.11723756281239862,0.7599293527044341
162,5.6199999999999655,-0.5903952878729841,-0.584897208793033,2.6014889231915825,0.8272604466951051,0.4723754923243238,-0.30393405582608923,0.4758044074137082,-0.13161922680133786,0.09152341033619381,-0.5791133819765187,-0.11249643352225049,0.7646446757103914
163,5.629999999999965,-0.8246879133680678,-0.6572725006765134,2.6530764200027197,0.8375221053418387,0.452637348108846,-0.305865997406947,0.5282499598449532,-0.11346353169751802,0.08998974422558163,-0.5790682932528143,-0.10836712868010459,0.7693813543730181
164,5.639999999999965,-1.133947542832697,-0.7260742952211567,2.670332252442331,0.8471944221908964,0.4331969489805664,-0.30738924477590074,0.5524239367169017,-0.0910664384198851,0.0881986027328707,-0.5789856918886752,-0.1052583202817131,0.7740632496575196
165,5.649999999999965,-1.4892884913275966,-0.7674539584837724,2.6359079610052434,0.8561540807741719,0.4146010857475819,-0.3082316709199513,0.5333289564997676,-0.06270914954004986,0.09175713776247384,-0.5789406045940418,-0.10349713449051516,0.7785520490926602
166,5.659999999999965,-1.8683351365424183,-0.7926834482337004,2.551769015577647,0.8642951026045671,0.39743435044824355,-0.30815330328178353,0.46414629768236493,-0.04174037592082105,0.10424332658926791,-0.5789991862883475,-0.10335944856116724,0.7826903120826046
167,5.669999999999964,-2.23169131751991,-0.8100956160038211,2.4210150720918078,0.8715383251819253,0.3821344325274558,-0.3071337120238328,0.3750735616418728,-0.026339518204371866,0.12652200367289929,-0.5791459219736675,-0.10498398003936456,0.7863799264928483
168,5.679999999999964,-2.53772008675612,-0.809648373349704,2.250598890028224,0.8778413421630697,0.3689917172473502,-0.3052764089421476,0.2955453893516645,-0.007628503064006207,0.14234693067508203,-0.5793252938858706,-0.1083498352672981,0.7895543395241732
169,5.689999999999964,-2.759800244960285,-0.7914508265662297,2.04853987484317,0.8832285531607162,0.3581138135385468,-0.302703939592185,0.2237723025685039,0.013720210995881728,0.14341965674394827,-0.5794916668894325,-0.11326819121524892,0.7921618827787028
170,5.699999999999964,-2.8898895392948014,-0.7666436644097303,1.8230913213928235,0.8877406120285593,0.3494812991972414,-0.2995970446536495,0.15916157466002406,0.028440311500860828,0.13411930128136837,-0.5795876076667692,-0.11945075596883738,0.794193062971908
171,5.7099999999999635,-2.9124322068529445,-0.7594014492394909,1.6036705111015543,0.8914045256897105,0.34290383416666637,-0.2963137897764801,0.10698043640894528,0.033441528720132306,0.11183679579855155,-0.5794974767917166,-0.1265387913740295,0.795731865634811
172,5.719999999999963,-2.823251678061715,-0.7662528704182278,1.4178349959961156,0.8942985221597971,0.33789685159501254,-0.2933391919963569,0.06780380658613702,0.038859453159936795,0.07831492609707316,-0.5790922095180419,-0.13404561854701685,0.7969388622856192
173,5.729999999999963,-2.6549741645932774,-0.7679201522900319,1.261518120699289,0.8965574363304695,0.33391223038053297,-0.2910026285724671,0.039716026367473956,0.05106262852926771,0.04659533686218126,-0.578329825693327,-0.14149109334587212,0.7979493381330395
174,5.739999999999963,-2.438978494646435,-0.7628524780361047,1.1222523713081833,0.8982976826329776,0.3306110046513025,-0.28940408464696254,0.017833568540010843,0.06937313380759978,0.027221118772333578,-0.5772496511128618,-0.14855569294670765,0.7988369900292153
175,5.749999999999963,-2.1767825458907986,-0.7641013954882159,1.0120517262406583,0.8996004773915005,0.3276999283916771,-0.2886689423881773,-0.006038016328137287,0.09370246600727651,0.023696935366006856,-0.5758753121012381,-0.1549946691217967,0.7996905490635514
176,5.7599999999999625,-1.8951828232860375,-0.7779306058945866,0.9384019202060149,0.9005509060967567,0.3248099362608738,-0.28897118164749974,-0.025859687586439112,0.12547835897990273,0.0381759727321921,-0.5742118908222845,-0.1605855078843271,0.8006185314274762
177,5.769999999999962,-1.6362118959086718,-0.7947442993797577,0.8918562525841028,0.9012276912981158,0.32167699616112577,-0.29036034842937825,-0.033300693606716725,0.15471233707203425,0.06544903604287579,-0.5722849807908116,-0.16524000440972433,0.8016882715388417
178,5.779999999999962,-1.4294371322822679,-0.8086264742872571,0.8664786444555516,0.9016994341989616,0.3182049447619785,-0.29270930210476626,-0.03760398400624966,0.17201218549667077,0.0955086238157288,-0.570146477863602,-0.1690389733705487,0.8029051854590938
179,5.789999999999962,-1.30182538312492,-0.8177742677107906,0.8596551557933443,0.9020306214378416,0.3144218943242544,-0.29575871659160974,-0.04594169133874233,0.17423116548949183,0.12428651958792812,-0.5678597872477118,-0.1721987572464968,0.8042244943292974
180,5.799999999999962,-1.261362701991307,-0.8189406736614712,0.8660690042106084,0.9022857381340538,0.31043582080774773,-0.29917068059419627,-0.05573744932007486,0.16116406311667014,0.14986661341811752,-0.5654933905540969,-0.17501038294680035,0.805566159931779
181,5.809999999999961,-1.291353294135475,-0.8089195888106905,0.8833936641142006,0.9025303668050179,0.3063633151563752,-0.3026115956484796,-0.06336983720310756,0.13919613191848568,0.17052486647512644,-0.56311180373865,-0.1777526170352161,0.806839398164051
182,5.819999999999961,-1.3750915972835793,-0.7917803649936228,0.8982999141815722,0.9028068712935337,0.30235438435474654,-0.30580357007165543,-0.06833535444163122,0.11561579548679754,0.1874090485500631,-0.5607620183982304,-0.18066686792003311,0.8079598425544683
183,5.829999999999961,-1.498987437123473,-0.7722536705566089,0.9065880991489064,0.9031163823005033,0.2986061843934434,-0.3085623081729765,-0.07253260949217394,0.0952955084329709,0.19572988251165158,-0.5584566713867768,-0.18395821761770573,0.8088648067572782
184,5.839999999999961,-1.646717594953338,-0.7475226975541988,0.9102968239079946,0.9034574257282643,0.2952683449199081,-0.310770441014021,-0.07495480087381733,0.08210541701340737,0.19265706481385922,-0.5561923974679341,-0.187774836407334,0.8095081829143568
185,5.849999999999961,-1.7996514472406004,-0.7136946425279959,0.9093555640938631,0.9038514747269785,0.2924159416536089,-0.3123197793342067,-0.07810070132689093,0.07747118992192885,0.18591793421803796,-0.5539844536244807,-0.1921839814179088,0.8098445599478657
186,5.85999999999996,-1.9457154803991066,-0.6712199670497279,0.9082978491846038,0.9043329216496183,0.29005156768253915,-0.31313109260372407,-0.08978261550066688,0.07794257861605083,0.18232274104230442,-0.5518569440366233,-0.1971810896555192,0.8098371996375362
187,5.86999999999996,-2.065977254061323,-0.6171581254765157,0.9138271134942912,0.9049458424691665,0.2880967882862095,-0.3131655795994461,-0.11355476197047265,0.0809167763749262,0.17826870752981241,-0.5498373249336953,-0.20269919103319942,0.809463167228767
188,5.87999999999996,-2.13168225052054,-0.552890845621275,0.9212847680915555,0.9057492625346604,0.28636267672555504,-0.31243200659446735,-0.13802621766218243,0.08834470470169824,0.17188837811047822,-0.5479731954653169,-0.20856578726332883,0.8087187483967403
189,5.88999999999996,-2.1392021554406457,-0.4877988869974447,0.9230024585776868,0.9067609997422507,0.28466234194421086,-0.3110471352898524,-0.15177046712048076,0.10137740969724428,0.1671162364371546,-0.5462918597155714,-0.21455084449642972,0.807643360662925
190,5.8999999999999595,-2.08726573233177,-0.42247245175267123,0.9190738066580074,0.9079641509713785,0.28286089401591047,-0.30917410772891263,-0.16046167884629478,0.12083558376971086,0.16253114649882733,-0.5448048845027981,-0.22043537599677213,0.806300768872679
191,5.909999999999959,-1.9852037962443618,-0.3497632090412925,0.9109231038747034,0.9093532884391546,0.28082810366905475,-0.30693530663339574,-0.16891957687327222,0.1393322695082448,0.1581246608184435,-0.543543527942452,-0.22602030661656808,0.8047496959503612
192,5.919999999999959,-1.8414906403056661,-0.27505938844399386,0.9040536925968096,0.910935478049207,0.2784220803550959,-0.3044239726325139,-0.17170371253306024,0.15172650975141766,0.1513029693735415,-0.5425503378906181,-0.23113004671544135,0.8030433500723846
193,5.929999999999959,-1.6525366089373614,-0.21196791152456218,0.8922402975630407,0.9126897599999135,0.2755265348714731,-0.30179105173448256,-0.16138256643760648,0.1625769787976872,0.13602927360342665,-0.5418418768181934,-0.23560032381047166,0.8012577803762412
194,5.939999999999959,-1.4400527868370556,-0.15854543158478465,0.875087419011174,0.9145562271354641,0.27209873925677736,-0.29923856528913456,-0.13852229330234267,0.17598416948160803,0.11689867796820494,-0.5413949057323335,-0.23931042245811956,0.7994874721100845
195,5.949999999999958,-1.2336678551257454,-0.10556420877101054,0.8577485797246448,0.9165063933538055,0.2681398279569459,-0.29683425946567726,-0.11334323281912106,0.1912082318009381,0.10032197844854802,-0.5412078197367185,-0.24222994700015862,0.7977780496989704
196,5.959999999999958,-1.058893195788708,-0.04195483724306282,0.8378606478374104,0.9185473879178278,0.2637314200401497,-0.2944639265537362,-0.09574141899749893,0.2023116111755053,0.09155173897744619,-0.5413058488759638,-0.2444485339970855,0.7961077506380971
197,5.969999999999958,-0.9240927210271768,0.03130141547063195,0.8127415555763315,0.9206938841438294,0.25902900043149396,-0.2919219108967921,-0.09872220690005971,0.2053318252859795,0.08777079880384844,-0.541713415146787,-0.24614019039276008,0.7944170916469361
198,5.979999999999958,-0.8213326492816267,0.1052737040256553,0.7828062694084527,0.9229411649241132,0.2541998150278437,-0.28905516280430144,-0.11994278865884746,0.19873174604659063,0.08453976538149728,-0.542428763915484,-0.24747306550186954,0.792660424400507
199,5.989999999999958,-0.7449533311041729,0.18368649258701736,0.75211213892193,0.9252872969547651,0.2493551526906435,-0.2857539818447698,-0.14489947043901816,0.18764212037535788,0.08171771213530042,-0.5434455504554195,-0.24857463696254367,0.7908028488265912
200,5.999999999999957,-0.6962846855401584,0.2639310036942661,0.7226067024910069,0.9277425728709098,0.24456506497265038,-0.2819053516330488,-0.17117246352852003,0.17998480211428897,0.07588465567026821,-0.5447632130751474,-0.24955883371420756,0.7888031320579183
201,6.009999999999957,-0.668729378870672,0.34139828259364696,0.6912825877382519,0.9302999304900204,0.23990262270256557,-0.27744664419331216,-0.19636673079785322,0.17115196620074877,0.06272707135711446,-0.54636399481547,-0.2505236181480092,0.7866357778165154
202,6.019999999999957,-0.6513322866980197,0.4049616780341453,0.6601935066561408,0.9329301012429839,0.23542394501875988,-0.2724037712984515,-0.21318137210458094,0.16037669474313926,0.043269930823645726,-0.5482037085982191,-0.25153448406396756,0.784303549258335
203,6.029999999999957,-0.6360561434354887,0.4516414563649961,0.6339865402072179,0.9355939892993659,0.2311208295148572,-0.26689524294199785,-0.22057702621821723,0.1540256264477802,0.019514002067556907,-0.550222231804382,-0.252599465493808,0.7818383753591036
204,6.0399999999999565,-0.6122104184913303,0.4890294621157481,0.6124003179072615,0.9382643281588253,0.22693626407778783,-0.26104661105258486,-0.21822670862406188,0.15248074289718164,-0.00675520236023377,-0.5523790958909803,-0.25367797293029853,0.779278599574109
205,6.049999999999956,-0.5736104945724521,0.5213063958332361,0.5930129604625527,0.9409237448345599,0.22281256460226495,-0.2549546477615118,-0.20908513931424566,0.155326548884002,-0.031615575032771834,-0.5546572147741339,-0.25470855863739006,0.7766600992757278
206,6.059999999999956,-0.533768014406634,0.5511748804098693,0.5742925702151165,0.9435597339899077,0.21872046532881037,-0.24867794633739596,-0.20099605728942976,0.16096177811123297,-0.04945284975889523,-0.5570458086603174,-0.25565467626720906,0.7740060203399054
207,6.069999999999956,-0.5001438151379727,0.5770295638246143,0.5559975297865494,0.9461668263288081,0.2146570501708129,-0.24222832977795006,-0.19788899455247985,0.16672300339071564,-0.0579230974114317,-0.5595341382483808,-0.2565260482414354,0.7713179985688773
208,6.079999999999956,-0.46939366584412107,0.6029869682235962,0.54281599582935,0.9487466080925739,0.21061361790805297,-0.23559516012160786,-0.19722883860061,0.168734252943994,-0.06127673788295982,-0.5621200947454914,-0.25733547162984166,0.7685893025316715
209,6.0899999999999554,-0.4396858823689541,0.6270871494514123,0.5305517278965186,0.9512956899865955,0.206574805759689,-0.22879302644276342,-0.19422823587046706,0.16833388932851664,-0.0678454406988978,-0.5647982191187445,-0.25807846437178966,0.7658234427314802
210,6.099999999999955,-0.4107871702873449,0.6460768134565237,0.5128339873627715,0.953795373556193,0.20256868423895824,-0.22186252987015387,-0.18385321111425096,0.16952315249362945,-0.07890768532519571,-0.5675462743999203,-0.2587623155299744,0.7630349121492445
211,6.109999999999955,-0.39179561246424516,0.6621052441186541,0.49651978345361,0.9562310306355248,0.19863344833722235,-0.21482423640557965,-0.16673878114679003,0.1720208962214982,-0.09383299353058817,-0.5703420923910076,-0.25941415689325914,0.7602287055402636
212,6.119999999999955,-0.38898472744038026,0.6747630112803981,0.4824817832560012,0.9586000617127759,0.19478149461794497,-0.20767370707475108,-0.14953347004491518,0.1739494458015491,-0.11449803167477936,-0.5731693417604673,-0.26007293616619304,0.7573946382833324
213,6.129999999999955,-0.390574275865225,0.6877800691872163,0.46630572015427474,0.9608989746775375,0.19103135226761722,-0.20040523697392593,-0.13358394219547312,0.17272781473003873,-0.1345988999818599,-0.5760130668776858,-0.26077610072791957,0.7545234323415492
214,6.139999999999954,-0.388963397766938,0.701630562194564,0.44961561763200775,0.9631264570634712,0.18740195725696854,-0.19300238532017594,-0.11465522879744407,0.17434691693049023,-0.14924326099566174,-0.5788743070444097,-0.2615361104372078,0.7516104810779994
215,6.149999999999954,-0.38498259789778705,0.7088979446561902,0.430417403637067,0.9652763757621772,0.18389228094021512,-0.1854918279277973,-0.09510462218903794,0.18378730706166288,-0.16365232586387496,-0.5817474037892157,-0.2623391354042433,0.7486671564697315
216,6.159999999999954,-0.37516494514426785,0.7097303129266967,0.40377072274000564,0.967326746555036,0.18054454255617783,-0.17794691625753162,-0.07218878087600218,0.19610012145125308,-0.1799974669701596,-0.5846039234750605,-0.2631778867873551,0.7457238420285848
217,6.169999999999954,-0.3598703690805322,0.7066432876745488,0.3680147127599441,0.9692511758766982,0.17744586817572325,-0.17043631116397395,-0.03742875275221101,0.20654272087263462,-0.19943358461013133,-0.5874119164215283,-0.2640586311133518,0.7428143418123718
218,6.1799999999999535,-0.32458889001305796,0.6975024172571134,0.3173326138060532,0.9710260005667727,0.1746861341234882,-0.1630270193564116,0.0011738825122071112,0.2158107238355581,-0.2201915740442017,-0.590152744369307,-0.26496075555638576,0.739981227063482
219,6.189999999999953,-0.29490217170683125,0.6832672784804178,0.25488241028536657,0.9726251462707226,0.17238919486409082,-0.15578237152661756,0.028565484331828563,0.22317097932679805,-0.24017818990968867,-0.5928001904026728,-0.265885035022684,0.7372664101187617
220,6.199999999999953,-0.2861676978064096,0.6604588133051486,0.188181576173841,0.974028929369518,0.17067564543686542,-0.14874417101967605,0.044421362574153356,0.22656951629323138,-0.2643947778559391,-0.5952984280122148,-0.26691934719870725,0.734678425012001
221,6.209999999999953,-0.26701713260277193,0.6363473265665586,0.11371903629370639,0.9752285752911068,0.169603698974246,-0.14196044171697786,0.0617305681806912,0.23206446217950905,-0.2813993695890169,-0.597617173374395,-0.26808931748005604,0.7322349722669875
222,6.219999999999953,-0.23953990804159955,0.62095957458956,0.033328420287418385,0.9762247698381501,0.16923402633983647,-0.13540602536525845,0.07836253277485902,0.23421181354207843,-0.28986805665768084,-0.599775462923402,-0.26937861800713786,0.7299469318240623
223,6.2299999999999525,-0.21319407927985512,0.6085020437951869,-0.03890181070842002,0.9770314593273186,0.1695681880110539,-0.12902045629154987,0.07884617036889169,0.22399344207697242,-0.2986156277191711,-0.601798705866283,-0.2707888407440321,0.7277981566512112
224,6.239999999999952,-0.19247215048801808,0.5957055611883888,-0.10206407380182288,0.9776699264774382,0.17051471730627152,-0.12278684375894233,0.07145651400989612,0.20939636909775217,-0.3008540791021078,-0.6037030969732147,-0.27230073911570296,0.7257727368992646
225,6.249999999999952,-0.1722287361147488,0.5801493095758788,-0.1643764264383838,0.9781454333162383,0.17203825069445017,-0.11672630360993158,0.07719079715308848,0.19374284393278918,-0.2982431471289702,-0.6054822348165296,-0.27391001334305837,0.7238711285926254
226,6.259999999999952,-0.1440145545829772,0.5537390578248745,-0.22036967566358281,0.9784557842183846,0.17410912833437373,-0.11091145320390745,0.10286581638485251,0.1792925961665441,-0.2942707216309186,-0.6071189290338441,-0.2755894561875805,0.7221160607573812
227,6.269999999999952,-0.1156892528554975,0.5244881103340381,-0.26013845973633265,0.9786157788767009,0.17661484863636878,-0.10540349112273227,0.13809890776156863,0.1722376556601518,-0.2912844585778691,-0.6086125497021371,-0.27728648699818487,0.7205191823743308
228,6.279999999999951,-0.10151578926017601,0.49746583788087445,-0.28980646709373575,0.9786499345325866,0.17942752705856424,-0.10020981530181157,0.17389132242515798,0.17310370041084508,-0.2885901197791317,-0.6099698058049327,-0.27898171217344564,0.7190641691235641
229,6.289999999999951,-0.10331610480931235,0.4679979200243579,-0.3106030540685659,0.9785767233814119,0.18247143938495636,-0.09531006968902658,0.21116085036755367,0.17293028170826938,-0.2804766525107524,-0.6111889136313204,-0.28069911910875495,0.7177239853532777
230,6.299999999999951,-0.12151703135882494,0.4361607831613377,-0.32134983300634895,0.9784138141898449,0.18567425139043048,-0.09068697532131785,0.24636032198307106,0.16597809615782455,-0.26822079530108583,-0.6122615812699784,-0.2824733711140844,0.7164705495585703
231,6.309999999999951,-0.16059001659572295,0.3984946907820126,-0.324459028558346,0.9781782876991215,0.18895697052210578,-0.08634703310092165,0.27765511751625743,0.1608410889311989,-0.2601632892911036,-0.6131705760902603,-0.28433650645167036,0.7152827883128579
232,6.3199999999999505,-0.21165944247305682,0.35491628614567633,-0.3233054951502761,0.9778797416831384,0.19227429323216885,-0.08231553616062319,0.30908533244494196,0.1599609435317714,-0.25749264128390653,-0.6138885429794221,-0.2863248877095369,0.7141504717723637
233,6.32999999999995,-0.26445024457763133,0.31757434220941544,-0.32730715986104203,0.9775183378718812,0.1956479785090608,-0.078575337955426,0.33637349767948305,0.1598585206127596,-0.2562642852193712,-0.6144064270738044,-0.2884714785146834,0.7130645089582468
234,6.33999999999995,-0.3053420162263425,0.2937408615923219,-0.3336598981753698,0.9770967629039681,0.19910971277420755,-0.07504423936335923,0.3478848445927645,0.16109907822682404,-0.2555198442889415,-0.6147578841206096,-0.2907734643151535,0.7120088634300583
235,6.34999999999995,-0.3327534974405953,0.2786271581688823,-0.33561188816384097,0.9766303129959876,0.20262388751287347,-0.07163293006671521,0.33901847469396545,0.16617840810209403,-0.2534263224224722,-0.6149998192555817,-0.2931846758975313,0.7109652097308107
236,6.35999999999995,-0.3535349894634265,0.2703524744924151,-0.33591265349823096,0.9761312302958712,0.20615465421431542,-0.06828398809886346,0.3165916763596626,0.17352935593367963,-0.24664795442372853,-0.6151691017599413,-0.2956744682537962,0.7099196577016466
237,6.3699999999999495,-0.36176330766667575,0.2685369288254334,-0.3395765413094344,0.9756018848941173,0.20970422080565662,-0.06495801812519131,0.2914340736613231,0.17759998732886573,-0.23313084550587965,-0.6152926923922628,-0.29821847527916184,0.7088681695478255
238,6.379999999999949,-0.3429622002589313,0.26923827839236036,-0.3545104324909635,0.9750243613710134,0.21334710625779163,-0.061682805668361956,0.26966045261565685,0.17867603752714314,-0.21778856884657222,-0.6153813172204794,-0.30077037444559557,0.707845290054191
239,6.389999999999949,-0.27878907072963627,0.26308095384599145,-0.38469726841557883,0.9743712149327656,0.21718380733398396,-0.0585328350276697,0.2579642837896484,0.18388170417597297,-0.21286175500716345,-0.61544717719523,-0.3032439724464445,0.7069144348975571
240,6.399999999999949,-0.1552128812744371,0.2535536619616685,-0.42988790481804773,0.9736159137784894,0.22129879650672235,-0.05561284030128769,0.2673061614622191,0.19817952780239873,-0.21300446822280164,-0.6155205696798026,-0.30549451598857186,0.7061604478425112
241,6.409999999999949,0.0286204832768006,0.25206219980535083,-0.48639762938006326,0.9727261207343013,0.22579657915045878,-0.05303814525797267,0.2779708772519317,0.21778386463400723,-0.21211219588003327,-0.6156414233944957,-0.30735304036618005,0.7056797718943371
242,6.419999999999948,0.26077544513261175,0.2557094610776204,-0.5522993144560997,0.9716710497770752,0.23077165493738924,-0.05091265979782359,0.2556231317796519,0.23956034311292426,-0.2140290654598921,-0.6158496413323936,-0.30866262092361874,0.7055568511336736
243,6.429999999999948,0.5285621072640618,0.2552991329964623,-0.6253297290701737,0.9704217043567768,0.23629593198256063,-0.04936603421019526,0.20678012143028066,0.26219508136336667,-0.21374355559646588,-0.6161596575267035,-0.30929630821649723,0.7058661136685291
244,6.439999999999948,0.8228143738574545,0.2495345229565784,-0.7079310726827854,0.9689481378355477,0.24243164406350026,-0.048535542781289,0.15691859434738933,0.28328457588855144,-0.20353691549427838,-0.6165596245191473,-0.30917042170768994,0.7066642298110641
245,6.449999999999948,1.126739168072977,0.22901643154983356,-0.80788504573942,0.9672002367883319,0.24929127991217537,-0.04861877693179148,0.11791493325060926,0.29858553261355736,-0.1847944175430658,-0.6169899076883801,-0.30824275334587803,0.7080155283659094
246,6.459999999999948,1.4059646668904469,0.1813596515245797,-0.931111906828196,0.9650999767330898,0.2570564476451892,-0.04985314284392751,0.09365704848973609,0.3011749379213584,-0.17039429765004688,-0.617320326680391,-0.30657470266703174,0.7099740875151687
247,6.469999999999947,1.6213285808439308,0.11165213880060587,-1.066367028143545,0.9625599440014099,0.26590383889067204,-0.05241684246601131,0.08786917188563151,0.28907248419720233,-0.16803159920152844,-0.61737591434976,-0.30436344904404333,0.7125384661458981
248,6.479999999999947,1.7643106485815232,0.034951505410765686,-1.1935340246904944,0.9595281848864338,0.2758584103362613,-0.05633102201065021,0.10354717381211893,0.2609200013225371,-0.15382223324744518,-0.6170259577712442,-0.3018471209816569,0.715630455025439
249,6.489999999999947,1.84509225929968,-0.036528655488961025,-1.2953552251974139,0.9560141777203132,0.2867371912867418,-0.06144945863007874,0.11722231851184509,0.2148397483078023,-0.11601110520956037,-0.6162393290160055,-0.2992028340095538,0.7191137886486539
250,6.499999999999947,1.859437095270447,-0.10073120117201048,-1.3615792837704628,0.9520727913252545,0.29823882706561083,-0.06754448436384103,0.10399694101583684,0.16396447797061908,-0.06976209526868524,-0.6150375506976233,-0.29657109300477735,0.7228328904210755
251,6.5099999999999465,1.82027653041326,-0.15727943691280563,-1.389151783043007,0.9477863174106698,0.3100245046807049,-0.07438873352435411,0.07758462064680437,0.12100789166309228,-0.02101493376057621,-0.6134576584936935,-0.29406308999381425,0.7266496725483216
252,6.519999999999946,1.761492619500823,-0.20280938613265376,-1.3805524463533763,0.943261801707583,0.32174161267751644,-0.08177245370821318,0.057585940254001836,0.08588110315339617,0.024566322180684382,-0.6115740958813152,-0.29169946690776605,0.7304607194162923
253,6.529999999999946,1.6948798528992692,-0.23801062549011048,-1.3534811898601926,0.93859277091108,0.33313499299686894,-0.08951478621816332,0.042075203068174125,0.05647029023108206,0.057040391075729995,-0.6094717882219871,-0.2894552757548649,0.7341988445110519
254,6.539999999999946,1.6223061957749794,-0.27517473749153176,-1.3221282280051978,0.9338197157311049,0.34411957831465373,-0.09752837635383138,0.020850622601714663,0.03527915953317941,0.07172075678751162,-0.6071840341279517,-0.2873341305043898,0.7378429508821116
255,6.549999999999946,1.551570580748749,-0.33241651598616745,-1.2935249659816248,0.9289393962070149,0.35469328409229783,-0.10589342290836476,-0.002496868831688667,0.020608083461485065,0.07253406019519663,-0.6046759776328935,-0.28533768864216275,0.7414334754493541
256,6.559999999999945,1.4786232529445098,-0.41003127881803747,-1.2670391642839294,0.9239213752153141,0.36488945368322645,-0.11477315020596959,-0.017126139765556426,0.009056544952963121,0.06343014631937181,-0.6018747208074632,-0.2834735788519575,0.7450395042326498
257,6.569999999999945,1.3959038150501575,-0.49481920579809113,-1.2427578583593717,0.91873644562441,0.374739936349162,-0.1242567903914653,-0.022628968750345892,0.003746727225378023,0.03922586560820538,-0.5987254312681084,-0.28177308333000445,0.7487034232415559
258,6.579999999999945,1.2982226141512885,-0.5787358865443303,-1.2191829380471617,0.9133675700213801,0.38427712111981205,-0.13429649188650217,-0.01839253768333656,-0.00035502528064491846,0.014360488403762403,-0.5952165782037442,-0.2802947712988957,0.7524212967443569
259,6.589999999999945,1.1857562003751032,-0.6486926791938847,-1.1927320171411022,0.9078179167045475,0.393527866915924,-0.1447283686487352,-0.019646942375340468,-0.007372417924447983,0.016740929090774834,-0.5913833426133003,-0.2791009770707514,0.7561520503716431
260,6.599999999999945,1.0618048587006252,-0.6974463093499766,-1.1661221412448495,0.9021066798334099,0.4025256749598572,-0.1553090829827263,-0.049181290573070774,-0.020203717088491207,0.04612966021319933,-0.587298651294232,-0.27824679304346545,0.7598301396010345
261,6.609999999999944,0.9335682445810756,-0.7260585811856052,-1.1453341293325383,0.8962524934856575,0.41132981207275743,-0.16578627594626125,-0.09990917682390005,-0.04299389177424662,0.09115125197574864,-0.5830446163231621,-0.2777790149907336,0.7633879886859223
262,6.619999999999944,0.8143352018172313,-0.7359522847975956,-1.1348067929260113,0.8902591873809295,0.4200258291317819,-0.1759672431511928,-0.14967377650835306,-0.06889584763759744,0.14572929278795785,-0.578692586117548,-0.27771655206478174,0.7667773306602846
263,6.629999999999944,0.7151269157146549,-0.7289850605837541,-1.1270604259555574,0.8841302564817061,0.4286793312240162,-0.18573422066970427,-0.18956683285804926,-0.09230772381551025,0.19430548361934669,-0.5743068110904694,-0.2780282894777726,0.7699723959705119
264,6.639999999999944,0.6387141175077072,-0.7081687558734853,-1.117874332360274,0.877894890883216,0.43728707148615914,-0.19501903408049112,-0.22337734971060833,-0.11037154085780604,0.2257346135038973,-0.5699517868150353,-0.27864071704192206,0.7729606198522825
265,6.6499999999999435,0.5829041408013743,-0.6798047497317291,-1.1035722273897766,0.8715970191188165,0.4458006509411892,-0.20380102330632027,-0.25309590790696285,-0.12233181682817136,0.24157849859833874,-0.5656795460811153,-0.27946644513958147,0.7757422712609846
266,6.659999999999943,0.5420179160890897,-0.6470316491975577,-1.0872010378119026,0.8652826603518309,0.4541566393687453,-0.21209614918934863,-0.2756595597499182,-0.13286810508049576,0.24478719168160373,-0.5615259485222999,-0.28042132964953115,0.7783276902797658
267,6.669999999999943,0.5172085359703248,-0.6075942821169997,-1.0703616902593056,0.8589833411678691,0.46231654682691753,-0.21993339046126184,-0.2887025186769485,-0.1436974591243027,0.2359083203052598,-0.5575151578935296,-0.2814356537290624,0.7807297804512384
268,6.679999999999943,0.5124129135250622,-0.562273707385792,-1.0436994361007357,0.8527434193537388,0.4702142906567172,-0.22735410864219122,-0.29446580968139474,-0.15059877274707165,0.22132544053133277,-0.5536729280583281,-0.2824278526093258,0.782964233434338
269,6.689999999999943,0.5261402168658214,-0.5179191172345106,-1.0070787902568759,0.8466208844424917,0.47773991432002605,-0.23444286469841866,-0.2934177924694627,-0.15286531666506084,0.21097528085544634,-0.5500145932765195,-0.283300513664494,0.7850598551576192
270,6.6999999999999424,0.5642517683293983,-0.4704825189969435,-0.95896408387895,0.840670138914034,0.4847721410921005,-0.24132673699243773,-0.28748637900295476,-0.15463429646040203,0.21142589260684538,-0.5465438916489663,-0.28394276793032636,0.7870578940519495
271,6.709999999999942,0.6334250099425205,-0.40928106177815826,-0.8999712156026618,0.8350021526618309,0.4911386888977819,-0.24804653798801576,-0.28511314117093617,-0.15615005803373783,0.22316484339703319,-0.5433240570536321,-0.2842065071922183,0.7889702874476388
272,6.719999999999942,0.7316872190015806,-0.3385795708940439,-0.8313607944232617,0.8297535668706961,0.4966538307927493,-0.25459992984250235,-0.28267532460450034,-0.15310827017026218,0.23248777645295107,-0.5404417216925878,-0.2839381537442542,0.7907941106570143
273,6.729999999999942,0.8502271573216845,-0.27169734047024774,-0.7551111073555669,0.8249946785058971,0.5011915043234451,-0.2610964835968796,-0.2707521931428962,-0.14368970903562592,0.23713877194616062,-0.5379110511404689,-0.28302239287446035,0.7925614383831083
274,6.739999999999942,0.9841608684232063,-0.21455554508092575,-0.6698990359948841,0.8207600958200458,0.5046371570898547,-0.2677258071652156,-0.24501049539705386,-0.13348027342786858,0.24449191153918948,-0.5356966103345705,-0.28136122769995986,0.794329940203771
275,6.749999999999941,1.1203366849206449,-0.16860340149975067,-0.5773110375134268,0.8170819541142261,0.5068880706855904,-0.27463758815477696,-0.20358354873609497,-0.12541006905698088,0.25055614931530423,-0.5337579699705812,-0.2788920689628151,0.7961463989484069
276,6.759999999999941,1.2391496921415113,-0.1315559474363227,-0.4834935732483087,0.81397181600785,0.507924840837851,-0.2818632796464517,-0.14955086863095102,-0.11878263538135748,0.24633685555091883,-0.5320585555269877,-0.27564142852524204,0.7980235183839042
277,6.769999999999941,1.3335211102787636,-0.1076673496546352,-0.3927774399917053,0.8114052842502271,0.5078051323522269,-0.28937808432524464,-0.09046196706075149,-0.11451744870138947,0.23717445561783104,-0.5305535165973463,-0.2716963844991532,0.799958431210486
278,6.779999999999941,1.3977285679397813,-0.10413226659544199,-0.3051485380628699,0.8093243812851253,0.5066209536555205,-0.2971740679807664,-0.03018234230294147,-0.11613567281743872,0.23227433818685103,-0.5291709943195276,-0.2671796236669823,0.801957289077737
279,6.7899999999999405,1.4145336575253793,-0.10973475494699163,-0.22128798962414983,0.8076717681571696,0.5044990733731688,-0.3051704861215942,0.03243819025627213,-0.11712856781670797,0.23175684534507196,-0.5278532712187691,-0.2622572374936151,0.8040080593674861
280,6.79999999999994,1.3813508601949682,-0.11610022060644992,-0.1416462359670872,0.8063996464130534,0.5016395640632442,-0.31314410476256693,0.09628240866112081,-0.11753290239719466,0.24040116390451824,-0.5265891032324446,-0.2571476074256363,0.8060571033104132
281,6.80999999999994,1.3143393633600886,-0.12059383461090697,-0.0673353155425177,0.8054996710328894,0.4982008385515877,-0.320856221404347,0.15735786676924585,-0.12393527483431244,0.25916704029428217,-0.5254031824659186,-0.2520249474548045,0.808046423812635
282,6.81999999999994,1.213577280406748,-0.12735697995187922,0.008751885502043949,0.8049496246720106,0.4943273567332897,-0.3281467193293366,0.2153925256581885,-0.13348249762487577,0.2800897882806273,-0.5243045309790899,-0.2470327121870041,0.8099417503047984
283,6.82999999999994,1.1100651695165593,-0.1385782812815931,0.08969084737742669,0.8047491233402981,0.49008992725360195,-0.33492601829562463,0.2726567604037159,-0.14044339970421035,0.29725413973419745,-0.5232963248073847,-0.24226498188692355,0.8117320036839012
284,6.8399999999999395,0.9765998217158904,-0.13273751147315185,0.15578825560150117,0.8048884236471178,0.4855517419578584,-0.3411454878136454,0.33288327758984787,-0.14607604524111228,0.3112429808449274,-0.5223975693929186,-0.23774576742335615,0.8134072619695369
285,6.849999999999939,0.7865665964813855,-0.12625696665610758,0.20925844167970276,0.8053185430251361,0.48103969905581145,-0.34648593488689117,0.3942883871078259,-0.15593131826541504,0.3169630040788914,-0.5216565483643216,-0.23372632200777965,0.8148820581019849
286,6.859999999999939,0.5544855856984426,-0.12361496224998132,0.279637820858282,0.8060498043511625,0.476736397880508,-0.3507111653830501,0.4506038674621837,-0.16000097840950028,0.3152568647601955,-0.5211059049687299,-0.2304143782178553,0.8161056611600508
287,6.869999999999939,0.3073314828017323,-0.11567973644628977,0.34985085731802673,0.8071186627870361,0.4726692148869942,-0.3537482691606687,0.5097274941471669,-0.16108522375563297,0.3128397354524281,-0.5207621092446004,-0.22788493578201938,0.817070966319311
288,6.879999999999939,0.06124777907884313,-0.10614090305630948,0.3963495192071993,0.8084737068173177,0.46900184228248953,-0.3555333434155802,0.5680943914559475,-0.16547750927260454,0.3029720383032654,-0.5206344908103815,-0.22621373165368738,0.8177539986583722
289,6.889999999999938,-0.1907883457797611,-0.09307765270479282,0.43163594471839056,0.8100429414160403,0.46588531100139147,-0.35606009058720733,0.6110072401535992,-0.16903361738140793,0.2887987682457237,-0.5207149353762694,-0.22544594972887624,0.8181411093911227
290,6.899999999999938,-0.43638906741343814,-0.06979600182128327,0.46324059268424284,0.8118249835520622,0.4633714615339819,-0.35528100690746145,0.6389467595009782,-0.17097425780819364,0.2792976498305938,-0.5210205954828622,-0.22560342905670241,0.818210154270178
291,6.909999999999938,-0.6524137921619151,-0.030047594578280597,0.48742568786826057,0.8138358274125362,0.4614471487410004,-0.35317755253637967,0.6507496009813475,-0.1713804028637237,0.2717057617090677,-0.5215860613473892,-0.2266243368133302,0.8179379983297577
292,6.919999999999938,-0.8112027088754371,0.024392462983795816,0.5130940838540353,0.8161148511222412,0.4599658805294976,-0.3498322535888534,0.6417341686437159,-0.17094881319790683,0.2633348245756309,-0.5224441397476742,-0.22833040319160805,0.8173264659067423
293,6.9299999999999375,-0.8976249063865387,0.07854481974047486,0.5497383772618543,0.8187198559377016,0.4586088541556094,-0.3454970007263352,0.6225827468106022,-0.16718881598957275,0.24881112083263987,-0.5235974763689792,-0.23042473419798795,0.8164298767399318
294,6.939999999999937,-0.9120994534024446,0.12961494154899803,0.5960000602423436,0.8216909731272412,0.4570254843893163,-0.340502644427066,0.6107826138250274,-0.15592176119399223,0.22570914352416288,-0.5250236031034592,-0.23258797462142325,0.8153294285701144
295,6.949999999999937,-0.8561025471213898,0.178041238563036,0.652138945704408,0.8250525385155701,0.4548907701355501,-0.33518819534950783,0.6145208217712205,-0.13690998253892017,0.20014744097731932,-0.5266964416245344,-0.23451059490796458,0.8141117687717532
296,6.959999999999937,-0.7405654719777541,0.21329218778174036,0.7242368671645009,0.8288210932514379,0.4518703104004311,-0.3299324459694942,0.6287647705975221,-0.11756737465122422,0.17141271883176365,-0.5285721273988727,-0.2358899152402916,0.8128821074802541
297,6.969999999999937,-0.5996721114797726,0.23758650130171485,0.8039917926575596,0.8329967770696108,0.44771970085278806,-0.3250352135110302,0.6418940044967981,-0.10228673390528964,0.13947822799329698,-0.5306033110519957,-0.23651937603839196,0.8117290169515122
298,6.9799999999999365,-0.46106101939307015,0.2487794794978822,0.8785952627436032,0.8375318872130878,0.4423981139844188,-0.3206339346252469,0.646443342571731,-0.08835451752029075,0.1119521193615261,-0.5327444861907393,-0.23635798317820111,0.8106956900695244
299,6.989999999999936,-0.3340484747248804,0.24733558537267017,0.944889922109331,0.8423368337025436,0.43599484160226726,-0.3167908484793088,0.6370640432870653,-0.0775473131980611,0.0927214459662604,-0.534938983406519,-0.23546396099940864,0.8098038469738649
300,6.999999999999936,-0.2266625149683726,0.23396092878660665,0.9980568840543829,0.8473074063803911,0.4286481116324054,-0.3135407997651973,0.6063846610343709,-0.07284438814532511,0.07979543618428232,-0.5371277209729755,-0.23392607776283814,0.8090662538502896
301,7.009999999999936,-0.15453493052005868,0.20941488136868092,1.0251064048642775,0.8523053402095365,0.42061725930403404,-0.31085736906244815,0.552860959804499,-0.06856709742355176,0.07038233472126891,-0.5392464275399657,-0.23191020133521797,0.8084762267542236
302,7.019999999999936,-0.12225612334097959,0.17739069139224617,1.020127047142615,0.8571686085872355,0.4122836137889969,-0.3086427830086314,0.48469138286924146,-0.0632386775719449,0.06367500308028237,-0.5412347527600235,-0.22965474700978994,0.8080043567574191
303,7.029999999999935,-0.12793366093699846,0.14318655160943614,0.9962007506276653,0.8617817734122953,0.40398505239732485,-0.3067671962911149,0.4106510690887622,-0.06070152687824464,0.059972172051743426,-0.5430568714330253,-0.22738434870425697,0.8076118890830707
304,7.039999999999935,-0.18313315829630544,0.11291936261890347,0.9531920109045907,0.866079881474051,0.3960122168603026,-0.3050581885696523,0.3321705917574486,-0.06349684264384095,0.057423622957120495,-0.5447014184925374,-0.22532144020176428,0.8072480615074492
305,7.049999999999935,-0.2852561605169257,0.08448563037352662,0.8925221446088043,0.8700061342516259,0.38870020763551827,-0.3032912320675962,0.2508035086517378,-0.07594962760518914,0.053888747297855796,-0.5461685088734257,-0.22372623965976166,0.806845228962947
306,7.059999999999935,-0.4157122185136343,0.05215101502472397,0.8256520366598099,0.8735254438549338,0.38227683044179983,-0.301339067391944,0.1753286551707377,-0.09860530260036399,0.05324651102385887,-0.5474448966639661,-0.22278713680544704,0.8063647564923139
307,7.069999999999935,-0.5563723737903117,0.013068043118737247,0.7602234629365301,0.8766304275311805,0.37680627366502095,-0.29921017401212874,0.11431752787646615,-0.12374112461823522,0.05387434527947956,-0.5485021605181838,-0.2225759734597038,0.80580869705546
308,7.079999999999934,-0.6894039352405538,-0.031792761458706305,0.7052764113170622,0.8793430417657346,0.37224154526951253,-0.29695974992303314,0.06861778156574894,-0.13965022370392685,0.05146977160481162,-0.5493220825074691,-0.22308088716174201,0.8051921330451507
309,7.089999999999934,-0.7985598598124173,-0.08071235921554806,0.6683859518039497,0.8817151850338264,0.368411368962741,-0.2946966314339809,0.034978428667502975,-0.14496027652837987,0.04867105619098845,-0.5498959300842162,-0.22419997842508976,0.8045457311675719
310,7.099999999999934,-0.8772561407731039,-0.13407018893193923,0.6524056635302674,0.8838166856526963,0.3650572693819625,-0.29256956825558045,0.007505373531778636,-0.14097461742791706,0.04792740943812272,-0.5502218282780922,-0.22576625007287351,0.8039120827336348
311,7.109999999999934,-0.9333093243909816,-0.1902504340188787,0.6517989297891911,0.8857149964343869,0.361932418556555,-0.29070647466870697,-0.0175062411870626,-0.12671073681279793,0.049709942526513215,-0.5503053957020516,-0.22761763274549038,0.8033270393820715
312,7.1199999999999335,-0.9785299762964226,-0.2520401267337683,0.6611224847641098,0.8874435180128675,0.3588823403668558,-0.28921345634736045,-0.037707207471135394,-0.10742146628630968,0.052272909268489584,-0.5501404993888128,-0.22964667298214325,0.8028193461006566
313,7.129999999999933,-1.0295420516860512,-0.31965130368289385,0.6773603796841281,0.8890084355603805,0.3558381875191319,-0.2881674826698199,-0.0503699935506445,-0.09005799363522829,0.05347217550442783,-0.5497054621952682,-0.23181639322831704,0.8024079555697077
314,7.139999999999933,-1.1009053597394902,-0.38809951063945153,0.696764447620592,0.8904240040641201,0.35278743698128495,-0.2875475919205379,-0.06222948766620315,-0.07850595110480599,0.049283550884754876,-0.5489915346482446,-0.2341641074456577,0.8020792434478744
315,7.149999999999933,-1.1865000872921407,-0.4574021011944916,0.7139154491469335,0.8916870455022257,0.3497835884703042,-0.28730370986319376,-0.07925708595090018,-0.07281761503423227,0.038428828103222686,-0.5479888218841942,-0.23675773023895194,0.8018088157528869
316,7.159999999999933,-1.2824397656462372,-0.5220746970658122,0.7308701542429581,0.8927939085962763,0.34687873621150567,-0.2873885255370519,-0.09806786087370546,-0.07381759865642383,0.03325387411375426,-0.5466919776975558,-0.23964727054110277,0.8015718233624831
317,7.169999999999932,-1.3939713694507525,-0.5760573298947211,0.7444950656608662,0.8937680345950736,0.3441182399467704,-0.2876795756912594,-0.1216660781893637,-0.07667954345562308,0.039699679098038045,-0.5451286784592604,-0.24288134266515096,0.801318893786905
318,7.179999999999932,-1.521978116171913,-0.6151309845350085,0.7520070570843237,0.8946233640986293,0.3416115964049385,-0.28800890357075465,-0.15456954584394456,-0.07813181934992082,0.05167350124385329,-0.5433297855990276,-0.24654337394917783,0.8009860203086918
319,7.189999999999932,-1.6564611657408395,-0.6392723269743522,0.7537380438603292,0.8953786046044084,0.3394469277917777,-0.2882219947411229,-0.19285910088017336,-0.08000165860008163,0.06746181328610598,-0.5413269282778501,-0.2506956028645323,0.8005134078329229
320,7.199999999999932,-1.7784131084577774,-0.6502181715335887,0.751422746853902,0.8960664443740233,0.3376487127550668,-0.2881972681675427,-0.22985304363199185,-0.08134745311938514,0.0853476973376571,-0.5391655335861127,-0.2553327033079308,0.7998544750522568
321,7.209999999999932,-1.8780747139924252,-0.6475876198127186,0.7448178734999867,0.8967188435937383,0.3362031116204591,-0.28785826295535266,-0.2669118299399868,-0.07623940213738464,0.09914995208763033,-0.5368926376043492,-0.26040151677322015,0.7989808522230942
322,7.219999999999931,-1.9513729263106347,-0.641191398578564,0.7345355635468709,0.8973458152910859,0.33507651578027114,-0.28721776517343567,-0.3012999501523339,-0.06467866722390901,0.1031093371040875,-0.5345312441352768,-0.2658163762669702,0.7978968427691668
323,7.229999999999931,-1.9991141634934364,-0.6362161991457421,0.726275879712689,0.8979549476252748,0.33419022133462156,-0.2863454001972194,-0.325301206204334,-0.053381244632647,0.09781492031119195,-0.5320923541849106,-0.2714687977915421,0.796626243960525
324,7.239999999999931,-2.0191149848160395,-0.6260925103426933,0.7178556737567884,0.8985624257694733,0.33344507617939395,-0.2853062220134487,-0.34553804629170487,-0.04152221709280117,0.08900537246108295,-0.5295961235718321,-0.27724510265905705,0.7951940056619045
325,7.249999999999931,-2.0094752206000392,-0.6086662314642068,0.7100505333483986,0.8991831424745059,0.33275990881428813,-0.2841481133499174,-0.3680955866105142,-0.0290706038567517,0.08099288345930701,-0.5270739648060321,-0.28303550094169144,0.7936250796684687
326,7.2599999999999305,-1.9732148289139613,-0.5848178370651372,0.7009789012439709,0.8998384824057755,0.3320547588629273,-0.2828955518827232,-0.3911185764271834,-0.01873872116480389,0.07819669598340442,-0.5245704432733647,-0.2887362651445203,0.7919404751068114
327,7.26999999999993,-1.908928515535378,-0.5537993431224657,0.6944937336085586,0.9005491563387098,0.33124830523472537,-0.28157656229155814,-0.4149040810035534,-0.008629771748861155,0.08214671337438469,-0.5221340710936568,-0.29424320708377827,0.7901662468145517
328,7.27999999999993,-1.8180033193942935,-0.5155229962887262,0.6948164041472519,0.9013462039612213,0.33022123624834626,-0.2802291979660953,-0.4361491109793933,0.0024147376993237336,0.08838736489107207,-0.5198223255711445,-0.29943718528607594,0.7883330372965165
329,7.28999999999993,-1.704913267700525,-0.47340116786371533,0.6978282513237767,0.9022644736659007,0.32884279102796055,-0.2788910103121975,-0.44801726039094614,0.013688240670853264,0.09349640017852351,-0.5176901464242343,-0.3042124124963807,0.7864689647999364
330,7.29999999999993,-1.5699731598368398,-0.43130828940271043,0.7013214170625489,0.9033064019875238,0.3270590371373987,-0.2776120369098694,-0.45126614477424465,0.024716943760653254,0.0972522121895668,-0.5157709510159529,-0.30849542299097144,0.7846109714247246
331,7.309999999999929,-1.4106175567392865,-0.39016694205657976,0.7042451272971368,0.9044632906356173,0.3248289490512551,-0.2764605234647571,-0.45032299339928633,0.03708501553863928,0.09843590323302816,-0.5140928004883504,-0.3122095385506562,0.78280549135688
332,7.319999999999929,-1.2339171584311057,-0.3487404842681094,0.7118200739017266,0.9057327710184199,0.32207353186200866,-0.27552522623480463,-0.446243592443594,0.05205471194941238,0.09356532285917436,-0.5126813332307444,-0.3152665070530061,0.7811026087059267
333,7.329999999999929,-1.0513838717140371,-0.31006082512429367,0.7231859509848274,0.9071226573683551,0.31872010284788677,-0.2748494921742604,-0.4383258263391063,0.0681334900533569,0.08419916878615526,-0.5115632748955884,-0.3176114512674356,0.779531711521429
334,7.339999999999929,-0.871658673949008,-0.27462134688878326,0.7327792997552766,0.9086259479500359,0.3147505640790339,-0.2744561158957951,-0.42692943437927067,0.08163613462021625,0.07504461476965316,-0.5107441745935988,-0.31923627384065334,0.7781109837144353
335,7.349999999999929,-0.7195941841588349,-0.24196058249384644,0.7410514765447591,0.9102215260325349,0.31022009056472355,-0.2743250710074791,-0.4152770992980407,0.08892031210995782,0.0722617782113804,-0.5102025406686392,-0.3202041057685397,0.7768355915256289
336,7.359999999999928,-0.6126400731160889,-0.2077783692245206,0.7506388348148123,0.9119028268119896,0.3052375899278929,-0.27432842462731033,-0.4038222292730052,0.09174485021065704,0.07180088817551367,-0.5099110393521407,-0.32066570384264037,0.7756513265139473
337,7.369999999999928,-0.5394156999919604,-0.17163040911134636,0.7598442788846466,0.913665266483427,0.2999199307000192,-0.27432784941047444,-0.3869500501257492,0.0928298065031387,0.06843856128837694,-0.5098384334654074,-0.32078161825631496,0.774496445972786
338,7.379999999999928,-0.4900074736741813,-0.13969072215061898,0.7682563790119535,0.9155030352150654,0.29434436030428063,-0.274238705188328,-0.3566677007739636,0.08924062706797116,0.06827404007342483,-0.5099548842346073,-0.3206659383872504,0.7733284617952378
339,7.389999999999928,-0.4609742985348497,-0.11393528909363068,0.7761475887309492,0.9174052232434491,0.28857059719749273,-0.2740171771504194,-0.3203634464694355,0.08738120443103577,0.06933654206140236,-0.5102277065156716,-0.3204044996725721,0.7721196328248713
340,7.3999999999999275,-0.4539760091248004,-0.0897665324528223,0.7830118293867537,0.9193522661568417,0.2826656501030042,-0.2736455559251792,-0.28393325660256225,0.09440546719759149,0.06677780470734314,-0.5106170482585278,-0.3200740086879339,0.7708519701590558
341,7.409999999999927,-0.45980117929468645,-0.0639028781334549,0.7892172569257401,0.9213382644403004,0.2766819415255068,-0.2730804700040211,-0.24597250305578236,0.10402259311441395,0.06153866928796046,-0.5111011055053102,-0.31974260235212454,0.7695005632354597
342,7.419999999999927,-0.46828132276837886,-0.04182289873109556,0.7941214601090836,0.9233613842958295,0.27064288960136496,-0.27229750507258477,-0.2119780087421443,0.11120524927021662,0.05150533318616714,-0.5116710606410009,-0.31944305773230636,0.7680519784800849
343,7.429999999999927,-0.4853225547823557,-0.02066952714706098,0.796471501817212,0.9254057235776643,0.26458732434788185,-0.271306955095831,-0.18363518762157263,0.11706373362013485,0.032921340283417436,-0.5123056504913521,-0.3192010777823155,0.7665068412654068
344,7.439999999999927,-0.514093731907508,0.0040318544551716205,0.7914529872996678,0.9274617191790954,0.25858160726858304,-0.2700741633490272,-0.15946966404315177,0.12448448241558131,0.010126935272846667,-0.5129895340646975,-0.3190682201740703,0.764850820836557
345,7.4499999999999265,-0.5352686061799259,0.029148259042841705,0.7740709666050881,0.9295094739991625,0.25272597346597947,-0.26857373017195657,-0.13387443463701743,0.13092447361895,-0.008520602404221691,-0.513708834217109,-0.3190865539538144,0.7630839783283119
346,7.459999999999926,-0.5478191603488919,0.05818091373943744,0.746601828391862,0.9315224120287244,0.2470991760088905,-0.26683076125820865,-0.10189789312882964,0.13657213555006176,-0.021241996804042033,-0.5144609488732194,-0.31924032902356675,0.7612388375661177
347,7.469999999999926,-0.5721274066305384,0.0798422064390207,0.7104938863410069,0.9334868747581774,0.2417902623653466,-0.2648233147251564,-0.06926283061720531,0.14450756351776056,-0.033257994435371904,-0.5152306402042729,-0.31957085242934036,0.7593154573884864
348,7.479999999999926,-0.5897211176700496,0.09618597015952196,0.6689707282008297,0.9353712665248449,0.23687855304367872,-0.26260592860475107,-0.03832829380876994,0.15784024904185776,-0.04764049679918002,-0.515973444351982,-0.32010656389810127,0.7573343195556529
349,7.489999999999926,-0.5824860955603746,0.12327762000087869,0.6115467043640208,0.9371618553706744,0.23240948018533833,-0.26020594125036134,-0.011570063689808553,0.17368489934284778,-0.06566330977419357,-0.5167024084592869,-0.320804256831921,0.755335185283446
350,7.499999999999925,-0.5642124696584812,0.15431785395022304,0.5375933656853288,0.9388467279660656,0.22849636334447357,-0.25758685703309764,0.001270841399905719,0.1842556327392431,-0.0871857739074705,-0.5174434757063504,-0.3216496234458105,0.7533496365689021
351,7.509999999999925,-0.5504458358220974,0.19037583648428524,0.4582217496229297,0.9404161215061208,0.2252419070573743,-0.2547136849651222,-0.004903702784099261,0.1929678908315652,-0.10583292479411649,-0.5181982227960039,-0.3226659388362735,0.7513901561743968
352,7.519999999999925,-0.5494394409864132,0.23329068581463167,0.37488214042636503,0.9418856612567639,0.22270624251553833,-0.2514935129985194,-0.020416742574041694,0.1992908013975476,-0.11643334695459517,-0.5189741105233904,-0.32391124021308476,0.7494290978066669
353,7.529999999999925,-0.5471293664560818,0.2797050087677729,0.2919707879793654,0.9432649069423235,0.22093440774011508,-0.24786055238334664,-0.03069914624965091,0.19525349911263293,-0.12125712048674839,-0.5197763228552976,-0.3254250473528332,0.7474490775172615
354,7.5399999999999245,-0.521692572629001,0.332635891386611,0.21387189555956965,0.9445701671448071,0.2198763382078097,-0.24379658062662754,-0.03541087469069392,0.1837622815027514,-0.1240120188766904,-0.5206403176737243,-0.327161035237892,0.7454585894677401
355,7.549999999999924,-0.47615435379660415,0.3885679671889061,0.1402776472192453,0.9458242370725449,0.2194273254159427,-0.23929590565366599,-0.04018786217554034,0.17483403737524122,-0.1266141072671758,-0.5216213755659984,-0.32903191354242856,0.7434734261117394
356,7.559999999999924,-0.41433141810946905,0.43835201581650746,0.06980260628782381,0.9470308826964409,0.21950264442744122,-0.23440291938076102,-0.04530851340861172,0.17050363396115556,-0.13234271081740995,-0.5227477292597082,-0.33095629055955056,0.741521822704078
357,7.569999999999924,-0.34038072484667914,0.4768222859206623,0.009799689714239654,0.9481774953217821,0.22000796800195138,-0.2292355478163926,-0.050090941930142845,0.1676582484239207,-0.1445181736366547,-0.5240154767428059,-0.3328493701520542,0.7396452704673994
358,7.579999999999924,-0.25277901533701486,0.5057796405451757,-0.03761259155375027,0.9492605939449196,0.22081740143038794,-0.2239118820689736,-0.051147678488648936,0.16984954161302707,-0.16272326496603384,-0.5254223352889082,-0.33462540718679745,0.7378761342190938
359,7.5899999999999235,-0.1455444267057592,0.5214716072513884,-0.07289528623892919,0.9502724483463606,0.22179992141172192,-0.21858615795285408,-0.045700106755312137,0.17713579566400928,-0.18669828405452055,-0.526961597576541,-0.3361803862736868,0.7362611269489355
360,7.599999999999923,-0.017016490318549057,0.5199744635029455,-0.0977191732034182,0.9512039900000604,0.22280227030932268,-0.2134567572029866,-0.0367484271701689,0.19068777923152516,-0.21447573666206146,-0.5286232037837195,-0.33738425967678787,0.7348619709440448
361,7.609999999999923,0.1187328263575922,0.5047344607302653,-0.11631353318795552,0.95204696945438,0.22371060971635667,-0.2086982650653576,-0.022077079367739068,0.2141461022072358,-0.23830847461052337,-0.5303920435843602,-0.338133498276955,0.7337324752962889
362,7.619999999999923,0.2320938469849182,0.4871852357392751,-0.12522990329850958,0.9528007584303794,0.2244880597645478,-0.20438139496039617,0.0003372689095946721,0.2413249171620699,-0.25250033258627985,-0.5322347010821235,-0.3384296926062161,0.7328739423690287
363,7.629999999999923,0.29981666682040076,0.4796527327664134,-0.12592814557510107,0.9534909747365734,0.22515045819182283,-0.20039597867493408,0.021455909948375547,0.2626005024962929,-0.2497624785603243,-0.5341270332539384,-0.3383923895311336,0.7322066413891819
364,7.639999999999922,0.316962741750505,0.48419313849873824,-0.11653000458040132,0.9541670112026569,0.22570748257421264,-0.196513682314647,0.03213354292380254,0.26445198093578787,-0.22827056797418302,-0.5360680899716898,-0.3381910531175713,0.731601300769766
365,7.649999999999922,0.3059907840312436,0.4992067152433783,-0.08969622387929105,0.9548850154046088,0.2260971284310165,-0.19253752012312478,0.03662610719132052,0.2516050809902738,-0.1949821130890887,-0.5380749683071964,-0.3379430652075888,0.7309426286332896
366,7.659999999999922,0.30351196956919124,0.5207022189501406,-0.05147216891840102,0.955689759932959,0.22621064576834712,-0.18836480373614736,0.051167671486905736,0.24069847337852662,-0.15863326909758332,-0.5401866293924864,-0.33766078585833903,0.7301736537034952
367,7.669999999999922,0.34280990888224594,0.5402625002630156,-0.009008557333413918,0.9566052622236105,0.22592074236577356,-0.18401412493839567,0.08445675352991658,0.24276217005834833,-0.13559791936589605,-0.5424614991954894,-0.3372343330106975,0.7293157797459614
368,7.679999999999922,0.4349836443555501,0.5336309577619296,0.03709671303536711,0.95761595180422,0.22508977627870624,-0.17972643734685292,0.14273420740206996,0.2745281570100501,-0.1395392196242387,-0.5449182957046703,-0.33645055853314315,0.7284835470436974
369,7.689999999999921,0.5448364562578263,0.48168693762519643,0.06966572546653943,0.9586472354665336,0.22368964977406747,-0.17593954263317335,0.2405020331511456,0.33763778824024326,-0.16894993042080292,-0.5474604627961616,-0.335134342931695,0.7278461969999437
370,7.699999999999921,0.6252259168139781,0.40348190269565576,0.06280000951968787,0.959576439426459,0.2219970318752228,-0.17299748513227392,0.3633844918370715,0.40651099648073263,-0.20869085566150938,-0.549895101457114,-0.3333381185945081,0.7275285005903935
371,7.709999999999921,0.6410589675606578,0.32315839465317114,0.00708158236871901,0.960283247721185,0.22054372114275406,-0.17092656610865223,0.4609922524835539,0.45727145710813644,-0.23680038561050976,-0.552033234469662,-0.33135189087310263,0.7275431080212812
372,7.719999999999921,0.5821883311424028,0.25444561405354355,-0.07950511037045585,0.9606943740057989,0.21983334890053507,-0.16952793552476775,0.49285798560179206,0.4820352936144538,-0.23701216531996006,-0.5537453418999133,-0.3295465168674695,0.7278094966479991
373,7.7299999999999205,0.46658446185908875,0.20884080984587064,-0.1952114734923373,0.9607816366479488,0.2202477527070952,-0.1684913895179361,0.4595366397389238,0.4819392959321351,-0.2064197054467166,-0.554971661773266,-0.3282686197984951,0.7282025038077204
374,7.73999999999992,0.32240354081438505,0.18873940460622352,-0.3448666753180518,0.9605113512204736,0.22217016943696025,-0.16750058123081427,0.39454537091147607,0.4653594458303683,-0.1570657458819925,-0.5556944463982426,-0.3278007568241516,0.728622957263672
375,7.74999999999992,0.19119294225771916,0.19125530242083497,-0.5178704120899259,0.9598430968616841,0.22590141321129165,-0.16632513030183974,0.3251226903739428,0.4442421432097125,-0.10416065896993637,-0.5559390896310584,-0.3282818090851496,0.7290306934668077
376,7.75999999999992,0.10540719771173113,0.21769823902764895,-0.7119113411388808,0.9587585766683435,0.23157311634999325,-0.16475444100944137,0.2643744565114255,0.425380983633069,-0.06257148747198171,-0.5558108570958414,-0.3296911014579292,0.7294129793138608
377,7.76999999999992,0.07741172766893827,0.25887548486142575,-0.9146629937145001,0.957222976430009,0.2392304263424106,-0.1627051135694984,0.21680640536456508,0.40684117017131916,-0.040668933237117566,-0.5554219509444859,-0.3318919165766458,0.7298106102660729
378,7.779999999999919,0.10423879200770023,0.31029068661053594,-1.119787986622999,0.9551866714884888,0.2488328977283069,-0.16022031415769986,0.18312523256836663,0.3786132859871134,-0.03499975768100214,-0.5548515292028613,-0.3347046257597152,0.7302871598758848
379,7.789999999999919,0.16604122595215481,0.37701561669531797,-1.3132167444156573,0.9526232389731195,0.2602410160211292,-0.15729695362385904,0.159448670713621,0.33547146249760995,-0.03590337720336889,-0.5541964286597594,-0.3379568232650519,0.730863635312468
380,7.799999999999919,0.23692345068623472,0.4449303088022217,-1.4774116127364936,0.9495270599020831,0.27322482630478995,-0.15392995024739597,0.1359630961551868,0.2877985689148778,-0.044931689130692294,-0.5535284921847421,-0.3415226559310009,0.7315177544776479
381,7.809999999999919,0.36271581503111605,0.5070510724297819,-1.6066774480015316,0.9459144604861539,0.28741514256594675,-0.15025973598759104,0.11899006488831018,0.2522514751473958,-0.06266942564890324,-0.552911796576525,-0.3451887819846774,0.7322623771787113
382,7.819999999999919,0.5643791008233701,0.5606217026933732,-1.7074278738076725,0.9418115658350185,0.3023897272325771,-0.14658072908200398,0.11701576419614472,0.238849248393787,-0.0777621014652887,-0.552433240816126,-0.34860369590131496,0.7331846393803001
383,7.829999999999918,0.8207699982681514,0.5964008450619469,-1.7864335268601559,0.9372242089172075,0.3178230651969016,-0.1432864764715233,0.12071874007140514,0.24358005031471486,-0.09207266271420629,-0.55212968617483,-0.3514370567858968,0.7344030558963026
384,7.839999999999918,1.1160501306035102,0.6160019833996068,-1.8384526747455752,0.9321730424090459,0.3334171026212622,-0.14077727535660234,0.117182285877832,0.2663141780661289,-0.09745343804082517,-0.5519996415954902,-0.3534220858803894,0.7360154888763591
385,7.849999999999918,1.4296017228146856,0.6149686370899671,-1.8678468180113112,0.926704966705331,0.34888274492562626,-0.13939970431304236,0.11028174635533244,0.29542331322968673,-0.08499439029307194,-0.5520217753305148,-0.3543614853149079,0.7380812645442173
386,7.859999999999918,1.734338138829896,0.5833764704878729,-1.8813404345697549,0.9208520045009945,0.36401254391943727,-0.1395060404327834,0.10316762830838958,0.30301562378950436,-0.06246380419820885,-0.5521116299054166,-0.35414626480972694,0.7406494840140866
387,7.8699999999999175,1.996318302027083,0.515913830264985,-1.882837790926463,0.9146316423381508,0.37867012038378817,-0.14140111604072533,0.09906623429794816,0.2905568624043862,-0.04787417064228812,-0.5521205186780092,-0.3527910210717299,0.7437396412503767
388,7.879999999999917,2.188025521985169,0.4218543379272596,-1.8779758892209821,0.9080452391512857,0.39280893993198557,-0.14522461052156554,0.11730597774451532,0.27535653415038563,-0.03829320480720906,-0.5518724139024328,-0.3504605976551794,0.7473131136962172
389,7.889999999999917,2.310868630461639,0.33133866444666776,-1.8625952638994114,0.9011231629032216,0.40639734811559247,-0.1508373725015452,0.15154856465205124,0.2483007214185699,-0.011075689542789202,-0.5512732634020125,-0.3473846856975288,0.751255360955134
390,7.899999999999917,2.3673415490161696,0.25207122837769624,-1.8390252769618132,0.8939296052612721,0.41939028198471506,-0.15790471108073756,0.16203794491252047,0.19937446718442917,0.029047247754305127,-0.550316603419425,-0.34379559893720796,0.7554097511111129
391,7.909999999999917,2.3583155971573886,0.1748962139618068,-1.8169432493432578,0.8864951955338836,0.4318245709019975,-0.1660855233749322,0.1351598084524965,0.13787961837330576,0.06782117799737325,-0.5489899083982892,-0.33994549366852606,0.759638797051932
392,7.919999999999916,2.2978356701989084,0.10308490150808064,-1.8053864796223267,0.8788042655142334,0.4438269696596667,-0.17506966597400248,0.09690969063524565,0.08015890497126596,0.10390550516953231,-0.5472743781531006,-0.33608242135604316,0.7638361133655122
393,7.929999999999916,2.2091515135084356,0.038344823222233745,-1.812297457593382,0.8707932361399188,0.4555984670420609,-0.184594607207104,0.064413952491853,0.03546137751550245,0.13265141264923355,-0.5451613399022357,-0.3324114494327275,0.7679285483240224
394,7.939999999999916,2.0918479909631102,-0.022808088580322957,-1.8261264311404546,0.862407217722242,0.46729237339534496,-0.19446108204322737,0.03187397949054149,0.015106410399364398,0.1448556934203098,-0.5426549435881609,-0.3290756713202344,0.7718686781837057
395,7.949999999999916,1.927525200052273,-0.07913988357225865,-1.8479996713782985,0.8536114205735343,0.47904343437441227,-0.20441609454969933,0.0018184688223186352,0.02100571029306473,0.14485025825480097,-0.539766563197982,-0.32625154840943343,0.775591208612339
396,7.959999999999916,1.7230062075346217,-0.1203360236348539,-1.8813515843586301,0.84435621861589,0.4910516268401113,-0.21412473546025632,-0.01958379870850854,0.01644823842038115,0.14649284582714067,-0.5365211535629595,-0.324159027788245,0.7790096011187347
397,7.969999999999915,1.5044711221799432,-0.13213403123095724,-1.9189337513696727,0.8346260638970193,0.50347783371189,-0.22321790863735222,-0.04990214530653281,-0.02118274030987266,0.15203464759156368,-0.5330077787187505,-0.32294016903019274,0.7820313703016897
398,7.979999999999915,1.3058410713435418,-0.11546057375003352,-1.962971787841118,0.8244416199392588,0.5163954877308038,-0.23140245113493454,-0.10504129300622914,-0.07706517360588272,0.15952048948630942,-0.5293587356080006,-0.3226061404572282,0.7845874284204095
399,7.989999999999915,1.175624539092672,-0.07665222916535801,-2.0008749888508914,0.8138390746463311,0.5297372178959209,-0.23865985656042157,-0.1711411771169783,-0.13132517320149104,0.16854733945684988,-0.5256812760913127,-0.32299504415307706,0.7866889049710882
400,7.999999999999915,1.1703698191000458,-0.027324949892828677,-2.023878567665664,0.8029131262505902,0.5431887483979831,-0.2453384322557567,-0.22609670522321723,-0.16215478203072534,0.1766271910203909,-0.5220689575565864,-0.3236842741914286,0.7884494378847479
401,8.009999999999915,1.2770079356868003,0.008454908134879608,-2.031849929405149,0.791733790443782,0.5563369215799682,-0.252114183240278,-0.2611759638848184,-0.1598992274478929,0.1803740398667228,-0.518518482156844,-0.32415791508490166,0.790071461321489
402,8.019999999999914,1.4372823739680525,0.0290680776360771,-2.0198042156432576,0.7803739143392606,0.5688047273387774,-0.259603074343676,-0.2803560599978923,-0.12908118421418088,0.18033650060142234,-0.5149737919963273,-0.3240328223828095,0.7917314395309027
403,8.029999999999914,1.5946813601733876,0.042795737104174815,-1.9970219191142156,0.7689258399938852,0.5803601563613312,-0.2680526953617297,-0.28170800274980196,-0.08252924451683284,0.1833031642979576,-0.5114074528018034,-0.32316018036552085,0.793492322467098
404,8.039999999999914,1.7107968685209123,0.05796278057797629,-1.980722632038028,0.7574183505771631,0.5910160547383406,-0.277371874450826,-0.2710131366301649,-0.06121142264597938,0.1914728472124858,-0.5078026941943868,-0.32163087345133734,0.795316853849676
405,8.049999999999914,1.7924364176019685,0.07601303898103752,-1.9746992207481742,0.7458167801335648,0.6009265212894286,-0.28733624364531607,-0.2688629104726166,-0.08242120024338057,0.2022249286680478,-0.5041515967026723,-0.31962241311174766,0.7971280447292305
406,8.059999999999913,1.8580527359498076,0.0828111247714499,-1.9567183075417236,0.7341297259802663,0.6101455969094928,-0.29781488926009675,-0.2760006560506786,-0.10222273145914484,0.21380780059397606,-0.5004450638306112,-0.3172415703785535,0.798884795565319
407,8.069999999999913,1.9151300792344839,0.08137241537188815,-1.9165924630743145,0.722466769952835,0.6185403334587356,-0.3088184000486698,-0.2670911644543821,-0.09176359496944146,0.22936645144565723,-0.4966734032683725,-0.31448460812762485,0.8006020518256035
408,8.079999999999913,1.9398484018020188,0.08856249918868613,-1.8708061750458183,0.710942620577506,0.6260456927294694,-0.32023319674689465,-0.23396309260751355,-0.08444361241411555,0.24947570505882993,-0.49286513568791807,-0.3113858329070006,0.802260964007251
409,8.089999999999913,1.9151058212799712,0.1098599903686952,-1.818686758738988,0.6996396504067036,0.6327719379652437,-0.3317082558102734,-0.212457993251189,-0.10809964283656762,0.27302580349401573,-0.48909623254953577,-0.30809822599362124,0.8037749444215475
410,8.099999999999913,1.8456979422038229,0.13634593195528943,-1.7445735241102571,0.6886899734709093,0.6388142791185388,-0.34286425393159387,-0.21746032762575657,-0.1446481195853784,0.29970449784149533,-0.48545933325614243,-0.3047806613469056,0.8050653106176366
411,8.109999999999912,1.7331752556218525,0.1548191069488221,-1.651981593133781,0.6782440587659757,0.6442189923178866,-0.35342421498723525,-0.21829644818702304,-0.17833633192588422,0.32370201349443806,-0.4820205374384741,-0.3015606974738923,0.8061011366038932
412,8.119999999999912,1.5904695725861207,0.1579327761105774,-1.542642182146409,0.6684269630882732,0.6490449229936919,-0.3631763765224004,-0.19181300437697002,-0.20647652911164943,0.3368601132895042,-0.4788197171966199,-0.2985616771521434,0.8068819876755389
413,8.129999999999912,1.429585549353892,0.1504864428789031,-1.4073737623130647,0.6593723176356505,0.6532979425207042,-0.37200821302002546,-0.14013998063258193,-0.21763745710832277,0.3418078656258665,-0.4758863199408421,-0.29584537037423353,0.8074403586935652
414,8.139999999999912,1.2517554109834526,0.14177989833858765,-1.2411745093887778,0.6512405409614079,0.6569436482350588,-0.37984244022075875,-0.07778351716373907,-0.2127045954508165,0.3453310451475727,-0.4732584587820609,-0.29343211516097756,0.8078218925289881
415,8.149999999999912,1.0521795215349647,0.1254855350456166,-1.0581250462108576,0.6441751610854701,0.6599887932176961,-0.38656350906599735,-0.019198438734709375,-0.21124415082627485,0.3468611663997432,-0.47098162556559775,-0.29136326555435443,0.8080601006675476
416,8.159999999999911,0.8340168222009986,0.10109230575104686,-0.8715570652177721,0.638230532277566,0.6625121807998888,-0.3920776287880098,0.038054353126405455,-0.2223555581791552,0.35101028805929363,-0.46907398116788757,-0.28970590913502625,0.8081831655937363
417,8.169999999999911,0.6195516365540457,0.08094488590336968,-0.676440490801517,0.6334418471233598,0.6645809980545725,-0.39632699911013713,0.09620670163371432,-0.23353647796897012,0.36164390399487434,-0.467555769844072,-0.2884916133531593,0.8082129608850266
418,8.179999999999911,0.40234141976613413,0.0704990342386866,-0.4779872603811756,0.629886658634482,0.6662089622075018,-0.39925513771348264,0.14476202882640082,-0.23536713654426383,0.37449758799775346,-0.46647667524865766,-0.2877006630528205,0.8081576491104873
419,8.18999999999991,0.1849250336640162,0.07146828339258135,-0.27622946774466106,0.6276495419253622,0.6674102218224927,-0.4007727402647941,0.1867480375058071,-0.23191870463637687,0.38583136846418725,-0.46589852538390353,-0.28731891892329003,0.8080083369013588
420,8.19999999999991,-0.020351878003380952,0.07683294412468862,-0.07666116663912687,0.6267777180706637,0.6681795949480096,-0.4008562454408145,0.2365997531970061,-0.2287846843144682,0.3986689801806726,-0.4658559067589557,-0.2873153930011522,0.8077634706923634
421,8.20999999999991,-0.20318708234022215,0.08275016596428555,0.1137201831134122,0.6272297411342057,0.6685015019262199,-0.3996093283225657,0.2968546443496679,-0.2299216110680952,0.4119099882153803,-0.46632630297906297,-0.28763681510045214,0.8074404883575755
422,8.21999999999991,-0.32781526041501335,0.09913459997147546,0.29539736013525775,0.6289537525793795,0.6682813515450153,-0.3972580154935966,0.3546062615447939,-0.23352103435751487,0.41754869740907036,-0.46727125397947333,-0.28814606873673815,0.8070709269852742
423,8.22999999999991,-0.4308860338639058,0.13436042054523056,0.4567679939130631,0.6319249282416102,0.6674119201605315,-0.39398667035933294,0.39899291334552917,-0.24717620917779157,0.411978549941803,-0.4686915635029186,-0.28867653540656285,0.8066584356476376
424,8.23999999999991,-0.5599909493395954,0.17749336074665517,0.6220197139247933,0.6361212775081665,0.6659364734383573,-0.3897004062011981,0.42534386478640324,-0.27830726060748706,0.39402559507456303,-0.4706255116399067,-0.28924063744788836,0.806151290730388
425,8.24999999999991,-0.6986501389141637,0.22725774043049984,0.8056274282467254,0.6416411017387315,0.6638078499294575,-0.38423427909516233,0.43928201446823273,-0.3062256361996478,0.3728946848483092,-0.4731295220519236,-0.28987804787900967,0.80551348828916
426,8.25999999999991,-0.8393770170224993,0.28786354313939877,0.9851789880557407,0.6485566281188995,0.6609470025185435,-0.3774828721325986,0.457869132939734,-0.3214065246763119,0.3540136607947635,-0.4762541613436962,-0.29058128878109146,0.8047073936316949
427,8.269999999999909,-0.9631600462275522,0.3434912542300793,1.1564203623509457,0.6567925134055067,0.6573237817207022,-0.36946943927061665,0.4863186813971749,-0.340030849078674,0.32931299076949955,-0.47998409284728183,-0.29133558040922164,0.8037074625115632
428,8.279999999999909,-1.0560605964965202,0.39100777411688864,1.3356811946386289,0.6662877989422656,0.6527699734521326,-0.36041376799557406,0.5218015836926577,-0.35903053689822245,0.3069777351332605,-0.48425382667146816,-0.2920379766179789,0.8025492100268697
429,8.289999999999909,-1.1395775091680973,0.4376761115966722,1.5393686701465368,0.6770856608752038,0.6470212872780982,-0.35049910665484674,0.5639146740427757,-0.3615170113452048,0.2951394987067784,-0.4890327165322056,-0.29255962822251114,0.801271229228489
430,8.299999999999908,-1.2282284374776937,0.4937036468365005,1.7663067239635122,0.6893090447569821,0.6398160125115105,-0.3397058266419789,0.6021554002375268,-0.34929546035142434,0.2917202524113167,-0.4943607161818078,-0.29282546303803014,0.7998611292291934
431,8.309999999999908,-1.3039299729332685,0.5560118316739919,2.0032881405939245,0.7030261898106381,0.6309209737272783,-0.327995689481143,0.6313664837243159,-0.3394214919783241,0.2978109463000605,-0.5002820575498478,-0.29276342136431516,0.7982833284113924
432,8.319999999999908,-1.3442225128031926,0.6078041614247497,2.2413845819340987,0.7181705500114185,0.6200959695838897,-0.3155556617298579,0.6580754865642364,-0.3353305331096979,0.30446907674265233,-0.5067572238239524,-0.2922463192583367,0.7965486295534726
433,8.329999999999908,-1.3439905654902717,0.6395660138381464,2.4736871837384515,0.7345679792326594,0.6071157596177202,-0.3027519371369004,0.6852126368566344,-0.3203916511471576,0.3015997674193219,-0.5136706268405827,-0.2911245344096375,0.794714558900307
434,8.339999999999907,-1.3098237449424046,0.6502318481041434,2.692066183893865,0.7519728687619311,0.5918285963418076,-0.28998267491345214,0.7138108345517126,-0.2885100969669896,0.2823627843560598,-0.5208794715296574,-0.2892726924474747,0.7928461339695135
435,8.349999999999907,-1.2616021820469563,0.6279959226456658,2.8814586973194265,0.7700483604065906,0.5742405132932562,-0.2776093029348937,0.7464117340898726,-0.24998703862772068,0.24328041688991292,-0.5282115391682559,-0.2866570921393109,0.7910003615624387
436,8.359999999999907,-1.2324181977801605,0.5750718376278462,3.019677748766062,0.7883518854243706,0.55460794841752,-0.26587810910074977,0.7828511648908483,-0.20924639773476167,0.19210081421477704,-0.5354691882187084,-0.28340395908125704,0.789203928445141
437,8.369999999999907,-1.2353252064752724,0.5188057817263927,3.103057841088267,0.80644491701598,0.5333757260449118,-0.25481249345948287,0.8098642088191256,-0.16842718132168003,0.14744021288174555,-0.5425115086335752,-0.2797490241564173,0.7874169749901662
438,8.379999999999907,-1.2661916171338206,0.4683537179623475,3.137281226249096,0.8239871976135964,0.5110274056903714,-0.24426774610521998,0.7993589342029395,-0.1383054857769921,0.11812588310559291,-0.5492790563422867,-0.2759421112525583,0.7855532837709683
439,8.389999999999906,-1.3105229798112,0.4243584910909531,3.125213221372056,0.8407293085635542,0.48799415923492856,-0.23411542712195005,0.7364583706569475,-0.1177961168098292,0.09599744407310032,-0.5557377291199931,-0.272184775582957,0.783540850172975
440,8.399999999999906,-1.3555406441442108,0.38364687315373386,3.0624803690597453,0.8564361276438313,0.46473528576119927,-0.2243291632349605,0.6458966845538894,-0.0936142060966586,0.07829219233476652,-0.5618335424915515,-0.2686389654147288,0.7813470066967773
441,8.409999999999906,-1.4033124858392372,0.3360135374210085,2.959443352186273,0.8709024724156339,0.4417254896581981,-0.2149646686831099,0.5610396477793979,-0.07004995920960833,0.06688747643064667,-0.5674907101352129,-0.2654474888110308,0.77897806692861
442,8.419999999999906,-1.4534191879060727,0.28342503125217633,2.835465422803613,0.8840468613196848,0.41928770257093584,-0.20610684299398516,0.48237590550054654,-0.056411476372968776,0.0701826163930101,-0.5726474075459398,-0.2627050403019371,0.7764657152909828
443,8.429999999999906,-1.5170006431719423,0.23225599055196397,2.7022745336302174,0.8958928812861664,0.39762966685904755,-0.19775384145221706,0.4051039959674887,-0.055520932914021284,0.08381601043207439,-0.577290210809137,-0.2604866765104495,0.7738218150975382
444,8.439999999999905,-1.607438212579768,0.18157273820227737,2.565196895041885,0.9065055767495286,0.37691370621924725,-0.18984754241144378,0.34138026326450716,-0.06758596040874164,0.09488005374433445,-0.58141866590358,-0.2588907113245972,0.7710404904620045
445,8.449999999999905,-1.7240369937487017,0.12410877947845712,2.4289114843135233,0.9159680047886534,0.3572445265201153,-0.18235906036904956,0.30219364335814297,-0.08209802537373985,0.10764797880058963,-0.585013760897558,-0.25802428134789324,0.7681206606660061
446,8.459999999999905,-1.8771268858237506,0.0613524347842533,2.301011653472675,0.9243723725011633,0.3386931260176319,-0.17525579624277496,0.2853884293436646,-0.09020701415643155,0.12640559144690977,-0.5880523382045588,-0.2580011570147155,0.765051354902591
447,8.469999999999905,-2.043744283697673,0.0045631184876079554,2.1997100293236755,0.9318544575943863,0.3211868312866317,-0.16849541553899117,0.2734245499670202,-0.08672920527543539,0.14608119178392842,-0.5905420549214786,-0.2588642959612346,0.7618082862609651
448,8.479999999999905,-2.2000061878337656,-0.04395271052273256,2.1350550283973635,0.9385993130780954,0.3044435129378814,-0.1620432933596627,0.24696504843485437,-0.06288935140435001,0.15714250726155307,-0.5925419765874282,-0.2605198169900148,0.7583605934489973
449,8.489999999999904,-2.3472598941866716,-0.09304951285180424,2.0999713094499737,0.9447652382877436,0.2881240284115582,-0.15595117087474336,0.2056736329400154,-0.024814039294529907,0.155348045447752,-0.5940979845788423,-0.262811562440913,0.7546988417326252
450,8.499999999999904,-2.489904512970027,-0.14947346660516242,2.0791447983940112,0.9504387890191923,0.2720101958658864,-0.15032647144658473,0.1584962113634114,0.022374927203999577,0.14613515291977297,-0.5952077308880331,-0.26563506679734594,0.7508275388320598
451,8.509999999999904,-2.63131997109233,-0.2055201792672355,2.054948598097969,0.9556419186414915,0.2560794847637121,-0.14525084538816013,0.118643421274167,0.07703412642272256,0.13031003789681683,-0.5958436140477411,-0.2689642305736581,0.7467463478961446
452,8.519999999999904,-2.7613620715321496,-0.2549936530807344,2.020034477675667,0.9603738316447646,0.24040560125963106,-0.14077646180328204,0.09532529839632037,0.12817435795230253,0.11536299100080184,-0.595984872367328,-0.2727814804439942,0.7424555882796675
453,8.529999999999903,-2.8660578831616728,-0.2941382261965785,1.9779359526626659,0.964646394396398,0.22506521659030615,-0.13688865905696726,0.07694286219507493,0.17054351844590782,0.11116803381862381,-0.5956488997142564,-0.2770433721471961,0.7379467004490606
454,8.539999999999903,-2.929977058333693,-0.31760896839021374,1.9342874626092952,0.9684890766556932,0.21007645782356854,-0.13355334971817356,0.05268397912031934,0.20480790371281554,0.11524947657268929,-0.5948934190558438,-0.28163699004624687,0.7332229056512639
455,8.549999999999903,-2.9559617542905556,-0.32227024219318695,1.888197971201642,0.9719428640722592,0.195418620484275,-0.13069861708310418,0.01972461591707003,0.22874896209596177,0.12483822672447871,-0.5938042094602229,-0.28642799862549545,0.7282881529336321
456,8.559999999999903,-2.94184780034157,-0.30756756848518246,1.8376551934843222,0.9750437840106027,0.18109898585730877,-0.1282179607486114,-0.02767331928134827,0.2425391837971728,0.13570479838480928,-0.5924760556968854,-0.29130173442542256,0.7231501308359559
457,8.569999999999903,-2.8859884224198824,-0.2821826245543839,1.7839189978671026,0.9778220942665681,0.16712685859833862,-0.12602647081587043,-0.08403532453611379,0.2536722716950586,0.14543187306034722,-0.5910012070021999,-0.2961385463884356,0.7178387049967666
458,8.579999999999902,-2.7849588766939304,-0.2524464077646761,1.7234132393298813,0.9803024450971631,0.15349478716829715,-0.12409397317134739,-0.13067232470165957,0.27097001639318874,0.1459294026718294,-0.5894617811880195,-0.30080237371057483,0.7124151139082084
459,8.589999999999902,-2.649810333306901,-0.2277892625444995,1.644672737492667,0.9824851243436369,0.140297332747777,-0.12246000272681694,-0.15776167089625928,0.2952340218541541,0.13544471328617838,-0.5878948774283453,-0.3051958072457522,0.7069804091102967
460,8.599999999999902,-2.498533706030967,-0.2085205036573975,1.5542482347440225,0.9843661222999629,0.12768728108852198,-0.1211640248444493,-0.17528765615117162,0.32154026930412993,0.11839478154599627,-0.5863069787282593,-0.3092856402589507,0.7016340989848873
