time,seconds_elapsed,rotationRateX,rotationRateY,rotationRateZ,gravityX,gravityY,gravityZ,accelerationX,accelerationY,accelerationZ,quaternionW,quaternionX,quaternionY,quaternionZ
1681568951659060500,0.065060546875,-0.9866939783096313,0.07600947469472885,0.8278225064277649,0.2446044385433197,0.036153193563222885,-0.9689487218856812,0.0854278951883316,-0.032277464866638184,0.10774266719818115,0.992206863940498,-0.01821857591633721,0.12326282591769976,-2.3943798312809004e-17
1681568951669060400,0.075060302734375,-0.9812510013580322,0.09223278611898422,0.8532371520996094,0.24576950073242188,0.043628036975860596,-0.9683459997177124,0.08264540135860443,-0.023913681507110596,0.1026080846786499,0.9920434682367724,-0.02258436570213755,0.12376167705227134,0.004772512960690477
1681568951679060500,0.085060546875,-0.9751446843147278,0.10952309519052505,0.8764961361885071,0.2471548169851303,0.05098970606923103,-0.9676334857940674,0.0818856954574585,-0.022211626172065735,0.09716534614562988,0.9918283616164226,-0.026916160505292826,0.12433334072969106,0.009662401407483735
1681568951689060400,0.095060302734375,-0.9624140858650208,0.1283469796180725,0.9055963754653931,0.2487770915031433,0.05813290551304817,-0.9668146371841431,0.086077019572258,-0.01888730376958847,0.08812201023101807,0.9915605106318939,-0.031162432833750753,0.12498635828431151,0.01466548211786585
1681568951699059000,0.105058837890625,-0.9544520378112793,0.15096333622932434,0.9419304132461548,0.2507016062736511,0.0650922954082489,-0.9658735394477844,0.09002718329429626,-0.014478884637355804,0.0818251371383667,0.9914316529975629,-0.032827423782786774,0.12643413091983216,-9.912591662423112e-18
1681568951709059000,0.11505908203125,-0.9631413817405701,0.15828557312488556,0.9828452467918396,0.25286996364593506,0.07194486260414124,-0.9648215770721436,0.09612911939620972,-0.014800690114498138,0.07535630464553833,0.9911518497168825,-0.03698173171902796,0.1273638682340849,0.005355360193243797
1681568951719059000,0.125058837890625,-0.950526773929596,0.1638113558292389,1.0246845483779907,0.2551776170730591,0.07862228900194168,-0.9636923670768738,0.1089887022972107,-0.019540242850780487,0.07738560438156128,0.9908214847141578,-0.04108779458659334,0.12831844675217557,0.010906666630544673
1681568951729059000,0.13505908203125,-0.9538276195526123,0.17285579442977905,1.065669298171997,0.25764480233192444,0.08508402109146118,-0.9624862670898438,0.12307730317115784,-0.024628691375255585,0.07599645853042603,0.9904369623694362,-0.045128572891356154,0.1293068715051794,0.016665755479766144
1681568951739059000,0.145058837890625,-1.005179524421692,0.1763426661491394,1.1008405685424805,0.26028886437416077,0.0916956439614296,-0.9611667990684509,0.13511216640472412,-0.0170343816280365,0.0689702033996582,0.9899856277587862,-0.04928977988282192,0.13033464927848673,0.02262141016420527
1681568951749059000,0.15505908203125,-1.069277286529541,0.17344090342521667,1.1386784315109253,0.2630298137664795,0.09872380644083023,-0.9597233533859253,0.1430523693561554,-0.01162663847208023,0.07195180654525757,0.9894606893892577,-0.05371057549824684,0.1313525511969815,0.028797294344174742
1681568951759059000,0.165058837890625,-1.1233540773391724,0.18381735682487488,1.183611273765564,0.2659171521663666,0.10614698380231857,-0.9581340551376343,0.1387307047843933,-0.020178966224193573,0.09116023778915405,0.9888516400777623,-0.05838494652157929,0.1323788769640052,0.035206194175931724
1681568951769058800,0.175058837890625,-1.1936566829681396,0.19140830636024475,1.2255423069000244,0.26903635263442993,0.11402136832475662,-0.956356942653656,0.13046932220458984,-0.028038084506988525,0.104489266872406,0.9881420844953017,-0.06335019979425012,0.13344770809445314,0.04187643451377637
1681568951779059000,0.185058837890625,-1.2456910610198975,0.18942025303840637,1.2656716108322144,0.2723263204097748,0.1223292425274849,-0.9543971419334412,0.1252720057964325,-0.027892589569091797,0.12062644958496094,0.9873292996895633,-0.06859576885898379,0.13452152120060065,0.04878023906523319
1681568951789058800,0.195058837890625,-1.3369487524032593,0.2012474238872528,1.3048770427703857,0.27579954266548157,0.13106033205986023,-0.9522383213043213,0.1182587742805481,-0.03528091311454773,0.1352217197418213,0.9864031463882382,-0.07412183246871222,0.13559791722543452,0.05592891956977732
1681568951799059000,0.205058837890625,-1.5168415307998657,0.22349520027637482,1.3241678476333618,0.27960583567619324,0.14088492095470428,-0.9497220516204834,0.11814507842063904,-0.030823275446891785,0.12158185243606567,0.9853196403620156,-0.08027507039671879,0.1367292220430512,0.06329402286765387
1681568951809058800,0.215058837890625,-1.7208693027496338,0.21359989047050476,1.3413946628570557,0.2836379110813141,0.1525568664073944,-0.9467185139656067,0.12351241707801819,-0.022643551230430603,0.09953534603118896,0.984040734537953,-0.08744191554967377,0.13782108582975333,0.07087432236047486
1681568951819059000,0.225058837890625,-1.8657492399215698,0.2029011845588684,1.378214955329895,0.2877573072910309,0.16565778851509094,-0.9432673454284668,0.11188572645187378,-0.04360273480415344,0.1032557487487793,0.9825681020580134,-0.0954148647086266,0.138788834760638,0.07870020337804783
1681568951829059000,0.23505908203125,-1.9225528240203857,0.1823921650648117,1.4250738620758057,0.2919751703739166,0.17946413159370422,-0.9394376873970032,0.10560792684555054,-0.05100040137767792,0.09826642274856567,0.9809095048624875,-0.10383594461379955,0.13963977117967621,0.08680618496198488
1681568951839060000,0.24506005859375,-1.9518786668777466,0.17364288866519928,1.474654197692871,0.2963425815105438,0.19334904849529266,-0.9353059530258179,0.11172327399253845,-0.026463672518730164,0.08639848232269287,0.9790785404504573,-0.11238946092110029,0.14041238409849444,0.09517384140230405
1681568951849060000,0.25506005859375,-1.9839296340942383,0.15893524885177612,1.513587236404419,0.3009040057659149,0.20725171267986298,-0.9308617115020752,0.10775694251060486,-0.01303786039352417,0.0807487964630127,0.977068038895622,-0.12104681047961918,0.1411269821565561,0.10377258680362104
1681568951859060000,0.26506005859375,-2.003488540649414,0.1317233294248581,1.5185540914535522,0.3055139482021332,0.22116804122924805,-0.9261457324028015,0.09538030624389648,-0.015799999237060547,0.08679032325744629,0.9748928164502331,-0.12978574321676473,0.14171376678273473,0.1125026223374803
1681568951869060000,0.27506005859375,-2.0242559909820557,0.11741257458925247,1.5085546970367432,0.3101217448711395,0.23512504994869232,-0.9211627244949341,0.08395180106163025,-0.030092716217041016,0.08592712879180908,0.9725674712453023,-0.13859703708415078,0.142160166368834,0.12121850806560926
1681568951879060000,0.28506005859375,-2.0205721855163574,0.09621115028858185,1.5073800086975098,0.3147554397583008,0.24900373816490173,-0.9159291386604309,0.081027090549469,-0.015055999159812927,0.06224566698074341,0.9700965825426433,-0.14742107591277417,0.1424867091386521,0.1299125724324566
1681568951889060000,0.29506005859375,-1.983872652053833,0.07171832025051117,1.5017868280410767,0.3193527162075043,0.26251134276390076,-0.9105501770973206,0.0803055465221405,0.018067240715026855,0.03516870737075806,0.9675085881468359,-0.15609919361200902,0.14268129361636625,0.13857203975661245
1681568951899060000,0.30506005859375,-1.945103406906128,0.06058657541871071,1.4930164813995361,0.3239893317222595,0.2755337655544281,-0.9050480723381042,0.07562315464019775,0.03194606304168701,-0.0024836063385009766,0.9648159557367443,-0.16457094380791423,0.14280182719386206,0.14715347298309986
1681568951909060000,0.31506005859375,-1.8959640264511108,0.046724822372198105,1.4755131006240845,0.3286527097225189,0.28804728388786316,-0.8994532227516174,0.06514617800712585,0.03600358963012695,-0.03670394420623779,0.9620323600527338,-0.17281741286463131,0.14285491125031116,0.15562849969998974
1681568951919060000,0.32506005859375,-1.8049122095108032,0.03924480453133583,1.4570622444152832,0.33334869146347046,0.2997988760471344,-0.8938676118850708,0.049143433570861816,0.0325528085231781,-0.0529555082321167,0.9591923664164949,-0.1806998890052628,0.14287665988158907,0.16396325457332483
1681568951929060000,0.33506005859375,-1.700188398361206,0.0507950633764267,1.432063341140747,0.3381498157978058,0.31055203080177307,-0.8883761167526245,0.0310518741607666,0.03171780705451965,-0.04161649942398071,0.9563324983190079,-0.1880898869781423,0.1429479986576276,0.1720937280077013
1681568951939060000,0.34506005859375,-1.5860629081726074,0.0700949877500534,1.397510051727295,0.3431526720523834,0.3203035891056061,-0.8829789757728577,0.01384204626083374,0.04226046800613403,-0.026780545711517334,0.9534678202016489,-0.19498666061369985,0.1431457854309998,0.1799683745356957
1681568951949059800,0.355059814453125,-1.4595143795013428,0.10358117520809174,1.3614999055862427,0.34837451577186584,0.3289256989955902,-0.8777489066123962,-0.004319280385971069,0.0571979284286499,-0.00782543420791626,0.9506325354978068,-0.20131689281842735,0.14351677982459277,0.1875428050797816
1681568951959060000,0.36506005859375,-1.4425045251846313,0.1727466732263565,1.3221176862716675,0.35405316948890686,0.33683696389198303,-0.8724604249000549,-0.018985331058502197,0.07124406099319458,0.002755284309387207,0.9477755765057708,-0.20733125869634708,0.14416496034339688,0.19481167656442303
1681568951969059800,0.375059814453125,-1.4976414442062378,0.22811871767044067,1.2660622596740723,0.36020636558532715,0.34497305750846863,-0.8667438626289368,-0.02982306480407715,0.0875067412853241,0.010390162467956543,0.9448046313882226,-0.21353512232074234,0.14502007515315013,0.20178203319708446
1681568951979060000,0.38506005859375,-1.6248081922531128,0.27552562952041626,1.1964354515075684,0.3666931092739105,0.35396048426628113,-0.8603767156600952,-0.04607537388801575,0.06782293319702148,0.02506488561630249,0.9416674083010886,-0.22025094395357367,0.14594913605173915,0.20844863848230674
1681568951989059800,0.395059814453125,-1.7703909873962402,0.3252921402454376,1.1320089101791382,0.3734489679336548,0.36419400572776794,-0.8531697392463684,-0.05028301477432251,0.023440241813659668,0.03152972459793091,0.9383153975951424,-0.22769332548821433,0.14687030004678556,0.21482326430128687
1681568951999060000,0.40506005859375,-1.9188177585601807,0.3803732097148895,1.0641587972640991,0.380480021238327,0.37572047114372253,-0.8450260758399963,-0.04930320382118225,0.009197711944580078,0.04616743326187134,0.9347260008617704,-0.23590273604667272,0.14777302133432485,0.22090765462118772
1681568952009059800,0.415059814453125,-2.090219259262085,0.4332152009010315,0.9982025623321533,0.38786599040031433,0.3886646628379822,-0.8357629776000977,-0.05995458364486694,0.006385326385498047,0.06078439950942993,0.9308497501698092,-0.24497927774561554,0.14867301857729012,0.22671610838757847
1681568952019060000,0.42506005859375,-2.0905563831329346,0.4632492661476135,0.9220305681228638,0.39539414644241333,0.40232783555984497,-0.8257092833518982,-0.07552409172058105,0.008621841669082642,0.0759229063987732,0.9267940874692353,-0.25451889034747976,0.14955100814198308,0.23217955622294523
1681568952029059800,0.435059814453125,-1.9993184804916382,0.516278862953186,0.8691295981407166,0.40306374430656433,0.4155760109424591,-0.8153748512268066,-0.09381380677223206,0.015713602304458618,0.07340103387832642,0.9227239043319019,-0.2638971377214319,0.15056846023399445,0.23720893734064902
1681568952039060200,0.445060302734375,-1.9024330377578735,0.5709179043769836,0.8086992502212524,0.41103309392929077,0.42797183990478516,-0.8049172759056091,-0.09529823064804077,0.06243029236793518,0.014359474182128906,0.9186857685813582,-0.27290231320346037,0.1518739139690407,0.24181601151653187
1681568952049060000,0.45506005859375,-1.8182960748672485,0.5931599736213684,0.7369314432144165,0.4190465211868286,0.43961432576179504,-0.7944427132606506,-0.08443650603294373,0.13001149892807007,-0.03964841365814209,0.9147244407638125,-0.2815348973205577,0.1533516645962493,0.24596861166796993
1681568952059060200,0.465060302734375,-1.7236844301223755,0.6100683808326721,0.6541696786880493,0.42689278721809387,0.4506787061691284,-0.7839969396591187,-0.09155035018920898,0.1135912537574768,-0.07925373315811157,0.9108624030167045,-0.28984502644740784,0.15489151776710422,0.24965595784000763
1681568952069060000,0.47506005859375,-1.5852322578430176,0.6387776136398315,0.5874922871589661,0.43459632992744446,0.46092021465301514,-0.773743212223053,-0.09801793098449707,0.0705890953540802,-0.11184632778167725,0.9071619427850964,-0.297683033679259,0.15656693469296373,0.25284142292724293
1681568952079061000,0.48506103515625,-1.3835026025772095,0.6629788279533386,0.5209420323371887,0.442196249961853,0.4698849320411682,-0.7639833688735962,-0.10879164934158325,0.07296168804168701,-0.12015664577484131,0.9037075027271361,-0.3047877954975223,0.1584698974171472,0.25554724887493635
1681568952089061000,0.49506103515625,-1.18496835231781,0.7020582556724548,0.4554843008518219,0.44968268275260925,0.47747156023979187,-0.754855215549469,-0.13039249181747437,0.07607150077819824,-0.10712897777557373,0.9005604292171687,-0.31107026736620236,0.16064766228925925,0.2577180321029648
1681568952099061000,0.50506103515625,-0.9948809742927551,0.7327740788459778,0.4065351188182831,0.45715925097465515,0.4836987853050232,-0.7463517785072327,-0.14793983101844788,0.08427909016609192,-0.08894485235214233,0.8977105613341494,-0.31655221209743445,0.16315274567630625,0.25940643803938407
1681568952109061000,0.51506103515625,-0.7888885736465454,0.7387818694114685,0.3446294069290161,0.46447041630744934,0.4885900914669037,-0.7386115193367004,-0.15389299392700195,0.11664974689483643,-0.07346117496490479,0.8951886658619478,-0.32120381175274443,0.165898587148583,0.26065904401393236
1681568952119061000,0.52506103515625,-0.615201473236084,0.7514668107032776,0.2902843952178955,0.4714880585670471,0.4922615885734558,-0.7316949367523193,-0.16135314106941223,0.12634491920471191,-0.07377076148986816,0.8930237961223698,-0.32504093666068945,0.16882213534934315,0.2614496765115487
1681568952129060900,0.535060791015625,-0.5140421390533447,0.7583556771278381,0.2648612856864929,0.47836121916770935,0.49501076340675354,-0.7253515720367432,-0.16366392374038696,0.14099079370498657,-0.09850096702575684,0.8911052103994807,-0.32828311547352745,0.17191397389227356,0.2619299430495015
1681568952139061000,0.54506103515625,-0.4859697222709656,0.7458449602127075,0.2341640740633011,0.4850464463233948,0.49741196632385254,-0.7192435264587402,-0.1585083305835724,0.16671150922775269,-0.12510156631469727,0.8893003979833375,-0.33127606430715456,0.17502688754973533,0.26223368696473415
1681568952149060900,0.555060791015625,-0.47809964418411255,0.7216315269470215,0.19295372068881989,0.4913695752620697,0.4998038709163666,-0.7132685780525208,-0.15360096096992493,0.14579543471336365,-0.14090317487716675,0.887572063152672,-0.33418223706613864,0.1780111091548357,0.2623930465237228
1681568952159061000,0.56506103515625,-0.49113503098487854,0.7003491520881653,0.15619197487831116,0.4972915053367615,0.5023759007453918,-0.7073326706886292,-0.1577986478805542,0.10255873203277588,-0.15404117107391357,0.8858931558151385,-0.3371025734123308,0.1808189967641872,0.2624110355277952
1681568952169060900,0.575060791015625,-0.47948503494262695,0.6803306937217712,0.12210191786289215,0.5028509497642517,0.5051209330558777,-0.7014226317405701,-0.1677526831626892,0.07495707273483276,-0.17557621002197266,0.8842567659329296,-0.34004154151647414,0.1834678230210177,0.262299722108511
1681568952179061000,0.58506103515625,-0.416192889213562,0.6566064953804016,0.09873507916927338,0.5080744028091431,0.5077224373817444,-0.6957573890686035,-0.1857782006263733,0.05694425106048584,-0.18539190292358398,0.8827247538299761,-0.342811662859886,0.18601470929352013,0.2620605088675695
1681568952189060900,0.595060791015625,-0.3329210579395294,0.6362534761428833,0.08293434232473373,0.5130196213722229,0.5098556280136108,-0.6905491352081299,-0.20097732543945312,0.059876978397369385,-0.18036150932312012,0.8813577093722279,-0.34522435612202024,0.18853534900969512,0.26169277300418575
1681568952199061000,0.60506103515625,-0.2552957832813263,0.6141250133514404,0.06575296074151993,0.5176939368247986,0.5114980340003967,-0.6858299970626831,-0.20501083135604858,0.0775216817855835,-0.1717444658279419,0.8801604338122954,-0.34726461555661897,0.19102957330244683,0.2612137940502411
1681568952209060900,0.615060791015625,-0.21157599985599518,0.5989987850189209,0.03392045944929123,0.5221010446548462,0.5128116607666016,-0.681494414806366,-0.21459060907363892,0.08495134115219116,-0.16544461250305176,0.8791116484765417,-0.3490203585964995,0.19348790818876194,0.2605952389046272
1681568952219061000,0.62506103515625,-0.18523067235946655,0.5771669745445251,0.004315430298447609,0.5262091159820557,0.5140692591667175,-0.6773748397827148,-0.22484803199768066,0.0920555591583252,-0.16751950979232788,0.8781633073669627,-0.35064715838531546,0.19585488820144967,0.259839537572669
1681568952229060900,0.635060791015625,-0.1787336766719818,0.5484178066253662,-0.018244672566652298,0.5299835205078125,0.5153127908706665,-0.6734761595726013,-0.22132867574691772,0.11893397569656372,-0.1772775650024414,0.8773022150411635,-0.35217032166019374,0.19808579167763826,0.25899590197045397
1681568952239061000,0.64506103515625,-0.1888885647058487,0.5126912593841553,-0.05443543195724487,0.5333651304244995,0.5167377591133118,-0.6697041988372803,-0.214563250541687,0.13244736194610596,-0.18875521421432495,0.8764958086622132,-0.3536981522914946,0.20011377649236425,0.25808359632453454
1681568952249061000,0.65506103515625,-0.2065969556570053,0.47951579093933105,-0.09641118347644806,0.536302924156189,0.5184687972068787,-0.6660099625587463,-0.2112143635749817,0.13297462463378906,-0.19836992025375366,0.8757390253696381,-0.35528714197210765,0.2019060960504973,0.25707206896457446
1681568952259061000,0.66506103515625,-0.21067744493484497,0.4491962492465973,-0.13980978727340698,0.5387636423110962,0.5204852223396301,-0.6624415516853333,-0.2149721384048462,0.1243664026260376,-0.20164841413497925,0.8750513934178258,-0.3569106331721227,0.20345522332350138,0.2559409790020543
1681568952269061000,0.67506103515625,-0.21336914598941803,0.4305835962295532,-0.18659374117851257,0.540817141532898,0.5227809548377991,-0.6589512825012207,-0.22129809856414795,0.11730992794036865,-0.19544929265975952,0.8744284391784135,-0.3585745584843599,0.20481366357715095,0.2546574423462711
1681568952279061000,0.68506103515625,-0.24245965480804443,0.4201999306678772,-0.23281610012054443,0.5425148606300354,0.5254005789756775,-0.6554629802703857,-0.2293739914894104,0.11760473251342773,-0.18364828824996948,0.8738518730950042,-0.360317001472879,0.2060100810875196,0.25320799185490295
1681568952289062100,0.695062255859375,-0.2635382413864136,0.4122348725795746,-0.2784135937690735,0.5438919067382812,0.5284327864646912,-0.6518744826316833,-0.23575592041015625,0.11242103576660156,-0.17069631814956665,0.8732907061241106,-0.3622045810578556,0.2070521934555757,0.2515959668422136
1681568952299062000,0.70506201171875,-0.2826802432537079,0.4077540934085846,-0.31794583797454834,0.5449733734130859,0.5318374633789062,-0.6481920480728149,-0.24112504720687866,0.09708398580551147,-0.15879952907562256,0.8727428460628791,-0.3642227540469595,0.20795613877121327,0.2498318377071556
1681568952309062000,0.715061767578125,-0.2706682085990906,0.40864214301109314,-0.35430318117141724,0.5458086729049683,0.5354732871055603,-0.6444852948188782,-0.2437608242034912,0.07965421676635742,-0.14749157428741455,0.8722282970578994,-0.3662955069715558,0.20877008368482572,0.2479122637660728
1681568952319062000,0.72506201171875,-0.24452902376651764,0.4093494713306427,-0.3807819187641144,0.5464533567428589,0.5391516089439392,-0.6408621668815613,-0.2431390881538391,0.07191711664199829,-0.14360737800598145,0.8717798743641201,-0.3683152306012564,0.20955380407040036,0.24582714713912773
1681568952329062000,0.735061767578125,-0.19480407238006592,0.4096647799015045,-0.39937824010849,0.5469668507575989,0.5426985621452332,-0.6374210119247437,-0.2376558780670166,0.07361912727355957,-0.15524256229400635,0.8714190300293393,-0.37019020809161485,0.21035374572735116,0.24359684513535032
1681568952339062000,0.74506201171875,-0.1396646499633789,0.40149635076522827,-0.4170965254306793,0.5473150610923767,0.5460026264190674,-0.6342927813529968,-0.2261938452720642,0.08288830518722534,-0.15425091981887817,0.8711748256279754,-0.3718444084971681,0.21115243902474004,0.24124834867089018
1681568952349062000,0.755061767578125,-0.04499345272779465,0.40408727526664734,-0.4325491786003113,0.5475292205810547,0.5489214658737183,-0.6315829157829285,-0.2173137068748474,0.07435423135757446,-0.14446383714675903,0.871084632132872,-0.37318440908186395,0.21199515622986861,0.2387529839465514
1681568952359062000,0.76506201171875,0.05070191249251366,0.40366092324256897,-0.4387916028499603,0.5476784706115723,0.551291823387146,-0.6293851137161255,-0.2172951102256775,0.06539207696914673,-0.1343172788619995,0.8711779713248485,-0.3741154705831932,0.2129437832855585,0.23609632533874564
1681568952369062000,0.775061767578125,0.14944039285182953,0.39723315834999084,-0.4405246078968048,0.547775149345398,0.553066611289978,-0.6277417540550232,-0.21804791688919067,0.0658755898475647,-0.1306658387184143,0.8714514472631789,-0.3746193006117702,0.21398483502762647,0.2333307047030968
1681568952379062000,0.78506201171875,0.2500615417957306,0.3884889483451843,-0.434939444065094,0.5478172302246094,0.5541914701461792,-0.6267120242118835,-0.21529769897460938,0.061180174350738525,-0.11370539665222168,0.8719157177256808,-0.374661733076272,0.2151105830144577,0.2304754340128476
1681568952389062000,0.795061767578125,0.318957656621933,0.39047566056251526,-0.4323817193508148,0.5478451251983643,0.554779052734375,-0.6261675357818604,-0.20757412910461426,0.04714953899383545,-0.1069103479385376,0.872529616205376,-0.37432764673607516,0.21632159435506051,0.2275427922078012
1681568952399062000,0.80506201171875,0.3678162693977356,0.3856705129146576,-0.43432581424713135,0.5478841066360474,0.5549978017807007,-0.625939667224884,-0.2007771134376526,0.03783661127090454,-0.10915249586105347,0.8732362235667558,-0.3737398226478794,0.21759761711241632,0.22456246424484913
1681568952409062000,0.815061767578125,0.3803728222846985,0.37769830226898193,-0.44724929332733154,0.5478302836418152,0.5550626516342163,-0.6259292364120483,-0.1921631097793579,0.026556551456451416,-0.10511934757232666,0.8740109361029832,-0.3730077269461709,0.21886206767433367,0.22151629425349498
1681568952419062000,0.82506201171875,0.3935757279396057,0.3766271770000458,-0.43979138135910034,0.5477272272109985,0.5550774335861206,-0.6260063052177429,-0.18234026432037354,0.01117616891860962,-0.10028153657913208,0.8748074730563026,-0.37221883293394253,0.2201135964935802,0.21843765548065688
1681568952429062000,0.835061767578125,0.38426145911216736,0.3678778111934662,-0.4341283440589905,0.5476306080818176,0.5550221800804138,-0.6261398196220398,-0.16523009538650513,0.017029762268066406,-0.0970657467842102,0.8755981346746722,-0.37139294600260103,0.2213534936021312,0.2154015373664065
1681568952439062000,0.84506201171875,0.3562524616718292,0.36176666617393494,-0.43441250920295715,0.5474960803985596,0.555076003074646,-0.6262097954750061,-0.1486007571220398,0.0059133172035217285,-0.09119737148284912,0.8763496065381146,-0.37063612337796714,0.22253980982053237,0.21240610392450626
1681568952449062100,0.855062255859375,0.31961241364479065,0.3541484773159027,-0.4265331029891968,0.5473508238792419,0.5553221702575684,-0.6261184215545654,-0.14163488149642944,-0.015298426151275635,-0.0850173830986023,0.8770272364994354,-0.3700175945639655,0.22366886133090266,0.20948122302776478
1681568952459062000,0.86506201171875,0.2766782343387604,0.35594531893730164,-0.4196440577507019,0.5472167134284973,0.5557670593261719,-0.6258408427238464,-0.13745719194412231,-0.028865933418273926,-0.07699418067932129,0.8776228985442963,-0.3695494146883746,0.22475056338738508,0.20663576308153953
1681568952469062100,0.875062255859375,0.2682202458381653,0.34995579719543457,-0.4050884544849396,0.5471220016479492,0.5563570261001587,-0.6253994107246399,-0.12935155630111694,-0.02893698215484619,-0.07493317127227783,0.8781465129465034,-0.3692006845127286,0.22581219694089885,0.20385876371145448
1681568952479062000,0.88506201171875,0.3076243996620178,0.3284057676792145,-0.37548956274986267,0.5470799803733826,0.5567137002944946,-0.6251186728477478,-0.11226552724838257,-0.0037657618522644043,-0.08548307418823242,0.8786814073339351,-0.3687375350244119,0.22687727100169758,0.20119232782963856
1681568952489062100,0.895062255859375,0.3830506205558777,0.3194614052772522,-0.3374120593070984,0.5471140146255493,0.5565032958984375,-0.6252760887145996,-0.09421789646148682,0.01750171184539795,-0.09571683406829834,0.8793069925979865,-0.36794675740971733,0.2279849341613466,0.19863817005807613
1681568952499062000,0.90506201171875,0.5037485361099243,0.3212489187717438,-0.2912171483039856,0.5473917126655579,0.5554463267326355,-0.6259725689888,-0.07978612184524536,0.021473169326782227,-0.10614407062530518,0.8800631480047111,-0.3666722851579708,0.22927092717012687,0.19615052490836424
1681568952509063000,0.91506298828125,0.6256160140037537,0.30436408519744873,-0.25978079438209534,0.5478476285934448,0.5534107089042664,-0.6273751258850098,-0.07865506410598755,0.010569334030151367,-0.10701513290405273,0.880998234744359,-0.3648120159811479,0.23070467035149772,0.19372551576809274
1681568952519063000,0.92506298828125,0.7413966655731201,0.27022263407707214,-0.25193485617637634,0.5482401847839355,0.550501823425293,-0.6295875310897827,-0.08933210372924805,-0.006144583225250244,-0.10036236047744751,0.8821594232181612,-0.36236064313372585,0.23216590814698337,0.1912811180471183
1681568952529063000,0.93506298828125,0.7752524018287659,0.24490594863891602,-0.24297958612442017,0.5485246777534485,0.5470211505889893,-0.6323674321174622,-0.07679915428161621,0.004538238048553467,-0.10966742038726807,0.8834738331259037,-0.35951356113994265,0.23359426512323825,0.188832725782694
1681568952539063000,0.94506298828125,0.6911276578903198,0.1906200796365738,-0.262268602848053,0.5485531091690063,0.5436977744102478,-0.6352025866508484,-0.03735309839248657,0.0424991250038147,-0.1573694348335266,0.8847771777375838,-0.3567383577797884,0.2348115415113982,0.1864690133464388
1681568952549063000,0.95506298828125,0.5361075401306152,0.12485703825950623,-0.2905987501144409,0.5480524897575378,0.5413091778755188,-0.6376698017120361,-0.002184569835662842,0.036800503730773926,-0.1908060908317566,0.8859415862655461,-0.3544905336217945,0.23558771346529578,0.1842342446421906
1681568952559063000,0.96506298828125,0.3850557208061218,0.06000347435474396,-0.3012990653514862,0.5470391511917114,0.53998863697052,-0.6396565437316895,0.01892465353012085,0.0006759762763977051,-0.19110822677612305,0.8869185139404215,-0.35288309762903164,0.235892437585636,0.18221959262132945
1681568952569063000,0.97506298828125,0.23529163002967834,0.02425992675125599,-0.3075264096260071,0.5456339716911316,0.5396637320518494,-0.6411291360855103,0.032735228538513184,-0.01997995376586914,-0.17455989122390747,0.887699584596164,-0.35189586592766314,0.23580652548641018,0.18042731887174868
1681568952579063000,0.98506298828125,0.08741695433855057,-0.0030657039023935795,-0.3247447907924652,0.5439809560775757,0.5403726696968079,-0.641936182975769,0.027308166027069092,-0.03210246562957764,-0.16334635019302368,0.8882518442470748,-0.3515739668052684,0.23543075765241978,0.17882062530753295
1681568952589063000,0.99506298828125,0.054434679448604584,-0.03689230978488922,-0.3410756587982178,0.5420780777931213,0.5417906641960144,-0.6423506140708923,0.0074214935302734375,-0.04407954216003418,-0.14576584100723267,0.8886753611872082,-0.35167923367348614,0.23483275583329685,0.177289249494464
1681568952599063000,1.00506298828125,0.10439345240592957,-0.09213372319936752,-0.3717842996120453,0.5397464036941528,0.5432003140449524,-0.6431229710578918,-0.013135015964508057,-0.06291472911834717,-0.13466322422027588,0.8892017859159427,-0.35168717792086357,0.23399708213416712,0.17573169578130304
1681568952609063000,1.01506298828125,0.16930006444454193,-0.16965535283088684,-0.4393652677536011,0.5366911292076111,0.5445237159729004,-0.6445592045783997,-0.010262846946716309,-0.03431558609008789,-0.14856207370758057,0.8899471982712864,-0.3514484826864248,0.23281830681913332,0.17399293458589693
1681568952619062800,1.025062744140625,0.19232548773288727,-0.26925569772720337,-0.4799494445323944,0.5327723026275635,0.5458242893218994,-0.6467066407203674,0.013736546039581299,0.05482262372970581,-0.1661900281906128,0.890916943220206,-0.35098976365997653,0.23119876076107979,0.17210545780296949
1681568952629064200,1.035064208984375,0.152500718832016,-0.36380138993263245,-0.5085134506225586,0.5280020833015442,0.5472860932350159,-0.6493779420852661,0.03275841474533081,0.10955893993377686,-0.2086084485054016,0.8920218189402862,-0.35048663375642036,0.22906363783357794,0.1702526398154466
1681568952639064000,1.04506396484375,0.04056645184755325,-0.4500230848789215,-0.5419667363166809,0.5224757790565491,0.5493834614753723,-0.6520711183547974,0.03265416622161865,0.08509218692779541,-0.24621373414993286,0.8931062713095613,-0.3502886621297742,0.22641179544402984,0.1685127536579648
1681568952649064200,1.055064208984375,-0.09110462665557861,-0.5179334282875061,-0.5734354853630066,0.5162305235862732,0.5524373054504395,-0.6544609069824219,0.012013554573059082,0.03508704900741577,-0.2659187316894531,0.8940775926557425,-0.3506162505871993,0.22324378808005957,0.166900397553427
1681568952659064000,1.06506396484375,-0.21765030920505524,-0.5675233602523804,-0.5899803638458252,0.5094349980354309,0.5564456582069397,-0.656387209892273,-0.018346071243286133,-0.020526528358459473,-0.25605785846710205,0.8948907129920016,-0.35150564608633367,0.21965922015169767,0.16542121632446538
1681568952669064200,1.075064208984375,-0.3324996531009674,-0.5943389534950256,-0.592315137386322,0.5022857189178467,0.5612583160400391,-0.6577979922294617,-0.05537104606628418,-0.06968122720718384,-0.23302531242370605,0.8955291914232052,-0.35290469218167186,0.21577601262825089,0.16409284423106607
1681568952679064300,1.085064208984375,-0.43219882249832153,-0.60020512342453,-0.5864806771278381,0.4950195848941803,0.5667195916175842,-0.6586231589317322,-0.08403930068016052,-0.089699387550354,-0.20113331079483032,0.8959735330119929,-0.3547607625093475,0.2117385935899759,0.1629199706673084
1681568952689064200,1.095064208984375,-0.5257037878036499,-0.5767518877983093,-0.5687268376350403,0.4878315329551697,0.5727307796478271,-0.6587866544723511,-0.1039813756942749,-0.10210394859313965,-0.16090023517608643,0.8962067465808026,-0.35704280209274697,0.20767067978801412,0.16188507428022503
1681568952699064300,1.105064208984375,-0.45656225085258484,-0.5568090677261353,-0.5214583873748779,0.4809594750404358,0.578700065612793,-0.6586229205131531,-0.12220999598503113,-0.13305193185806274,-0.12160468101501465,0.8963287182074636,-0.359405359159822,0.20375552505785793,0.16095420407381536
1681568952709064200,1.115064208984375,-0.28580009937286377,-0.5452094078063965,-0.44002029299736023,0.47451284527778625,0.5834724307060242,-0.6590883135795593,-0.14524340629577637,-0.15969014167785645,-0.09008759260177612,0.896597685537389,-0.3611297464076222,0.20010281063082727,0.16017707535523312
1681568952719064300,1.125064208984375,-0.051644064486026764,-0.5244783163070679,-0.35162463784217834,0.46868160367012024,0.5864585041999817,-0.6606087684631348,-0.15885186195373535,-0.15371936559677124,-0.07254546880722046,0.8971348516901368,-0.36185912600164916,0.1968593098135805,0.15954124385223642
1681568952729065200,1.135065185546875,0.17398247122764587,-0.49923232197761536,-0.2739005386829376,0.46344658732414246,0.5874903798103333,-0.663379430770874,-0.1620243787765503,-0.10149800777435303,-0.03399300575256348,0.8980020593117551,-0.36146717039395926,0.19404062763782204,0.15900310660081732
1681568952739065000,1.145065185546875,0.3461347818374634,-0.46483731269836426,-0.196890190243721,0.45885682106018066,0.5868335366249084,-0.6671407222747803,-0.16713926196098328,-0.08846628665924072,-0.013630151748657227,0.8991266184485852,-0.36013428525800084,0.19165837302399596,0.15856104295909929
1681568952749065200,1.155065185546875,0.48209455609321594,-0.4262318015098572,-0.11042140424251556,0.454969584941864,0.5847443342208862,-0.6716224551200867,-0.16572391986846924,-0.07964789867401123,-0.00646287202835083,0.9004221000325454,-0.35805176995881705,0.18970426787691327,0.15827566720858469
1681568952759065000,1.165065185546875,0.5505249500274658,-0.3790152966976166,-0.026353666558861732,0.4518585503101349,0.5815473198890686,-0.6764810085296631,-0.1487121284008026,-0.0651136040687561,0.016340017318725586,0.9017832801356428,-0.35545518619512895,0.18817842389623707,0.15820032311628204
1681568952769065200,1.175065185546875,0.5607091784477234,-0.3186483085155487,0.058968089520931244,0.4495677947998047,0.5776801109313965,-0.6813034415245056,-0.1333598792552948,-0.07789385318756104,0.03654336929321289,0.9030893479884579,-0.3526401612867894,0.18706468289336217,0.15837042932658207
1681568952779065000,1.185065185546875,0.5156735777854919,-0.2394472062587738,0.14767824113368988,0.4482470750808716,0.5735257267951965,-0.6856696009635925,-0.1353502869606018,-0.10308200120925903,0.06718510389328003,0.9042181134010092,-0.34988099784375665,0.18640948326898868,0.15882172772878464
1681568952789065200,1.195065185546875,0.44215700030326843,-0.14730249345302582,0.23344922065734863,0.44799888134002686,0.5693790316581726,-0.689278244972229,-0.13812336325645447,-0.13430523872375488,0.09644383192062378,0.9050830246919696,-0.3473815749807821,0.18624425806704667,0.15957358869879562
1681568952799065000,1.205065185546875,0.3543089032173157,-0.04708269611001015,0.3133549690246582,0.4488854706287384,0.5654024481773376,-0.6919695734977722,-0.13772818446159363,-0.15138572454452515,0.12055850028991699,0.905642280280332,-0.3452483032114329,0.18659799862723028,0.1606139622963323
1681568952809065200,1.215065185546875,0.2672762870788574,0.06434202939271927,0.40965598821640015,0.45097509026527405,0.561633288860321,-0.6936783194541931,-0.13180693984031677,-0.15744322538375854,0.14306491613388062,0.9058773000989033,-0.3435144911372856,0.18750637799285913,0.16194301212098197
1681568952819065000,1.225065185546875,0.1886317878961563,0.1812039315700531,0.5110540390014648,0.45439550280570984,0.5579586625099182,-0.6944111585617065,-0.12431731820106506,-0.154363751411438,0.16201680898666382,0.9057810078125255,-0.3421421268962426,0.18903220094382903,0.16360443139501357
1681568952829065000,1.23506494140625,0.14159555733203888,0.2979298233985901,0.6111035943031311,0.4591827094554901,0.5542808175086975,-0.694207489490509,-0.11445608735084534,-0.14714586734771729,0.17659884691238403,0.9053643647706202,-0.3410803710632941,0.19120784650620268,0.1655873171179641
1681568952839065000,1.245065185546875,0.16588997840881348,0.41475844383239746,0.7308409214019775,0.46534717082977295,0.5501536726951599,-0.693385124206543,-0.09736615419387817,-0.1370677947998047,0.18757152557373047,0.9047165998266243,-0.34005918374435573,0.19408036490158628,0.16787034773965656
1681568952849065000,1.25506494140625,0.24082781374454498,0.528367280960083,0.8551319241523743,0.47296810150146484,0.5450435280799866,-0.6922634840011597,-0.07025811076164246,-0.10945093631744385,0.18422216176986694,0.9039226275821429,-0.3387757937058188,0.19773522650900338,0.17045698469822887
1681568952859065000,1.265065185546875,0.3257712125778198,0.6294480562210083,0.9588361978530884,0.48188942670822144,0.5387369394302368,-0.6910463571548462,-0.027330070734024048,-0.06208294630050659,0.15585964918136597,0.9030469431812922,-0.33707603475151077,0.20213011089663505,0.17328948972560212
1681568952869065200,1.275065185546875,0.37996038794517517,0.7483771443367004,1.0764009952545166,0.49208569526672363,0.5313689708709717,-0.6895641088485718,0.030054867267608643,-0.031674206256866455,0.12529408931732178,0.9020433328610971,-0.335055605994608,0.20725752738462952,0.17635153609784585
1681568952879065300,1.2850654296875,0.4374793469905853,0.8639942407608032,1.2175501585006714,0.5036727786064148,0.5228366255760193,-0.6877175569534302,0.0772445797920227,-0.018854200839996338,0.11740517616271973,0.9008604678658348,-0.3327196311456487,0.21316391299494156,0.17974728844243834
1681568952889065200,1.295065185546875,0.45477384328842163,0.9910266399383545,1.3533973693847656,0.5167001485824585,0.5131962299346924,-0.6853105425834656,0.09259861707687378,-0.021176636219024658,0.14524102210998535,0.8994330528953539,-0.33014961597864806,0.21987711875463917,0.18350869330363553
1681568952899065300,1.3050654296875,0.38321682810783386,1.119939923286438,1.4995646476745605,0.5311670899391174,0.5028067231178284,-0.681943416595459,0.10642141103744507,-0.027312397956848145,0.16607439517974854,0.897629405198326,-0.3276190368565158,0.22736325443509214,0.18770460002082173
1681568952909065200,1.315065185546875,0.18320119380950928,1.2421432733535767,1.638776421546936,0.5470154285430908,0.4923635721206665,-0.6770171523094177,0.14779359102249146,-0.03406590223312378,0.1591644287109375,0.8952443825024957,-0.3256208503434315,0.2355047480907145,0.1924736023076737
1681568952919065300,1.3250654296875,-0.10812012106180191,1.3525009155273438,1.766175627708435,0.5640538334846497,0.4826340973377228,-0.6700056791305542,0.20962786674499512,-0.07731491327285767,0.1516951322555542,0.8920937864261899,-0.3246643533875871,0.24411107804507073,0.1979181115035441
1681568952929066200,1.335066162109375,-0.4195956289768219,1.4420669078826904,1.9078742265701294,0.5821349620819092,0.47386541962623596,-0.6607347726821899,0.24875187873840332,-0.12468332052230835,0.16061270236968994,0.888082128331569,-0.3249613593543985,0.25304691783277344,0.20415055686706773
1681568952939066000,1.345066162109375,-0.7623164653778076,1.518005609512329,2.070930004119873,0.6011706590652466,0.4659374952316284,-0.6492272615432739,0.2816876173019409,-0.1403149962425232,0.15487301349639893,0.8831580275297035,-0.32652911368390014,0.2622310220765666,0.21129480759060007
1681568952949066200,1.355066162109375,-1.1892690658569336,1.5775606632232666,2.2441418170928955,0.6211041212081909,0.458994060754776,-0.6352590322494507,0.3261615037918091,-0.14664670825004578,0.14265960454940796,0.8771674174657064,-0.32960190433014563,0.2715383475183646,0.21956022955765817
1681568952959066000,1.365066162109375,-1.6708437204360962,1.613996982574463,2.3722410202026367,0.6416598558425903,0.4533309042453766,-0.6186789274215698,0.36705291271209717,-0.15258026123046875,0.1466330885887146,0.8700036980471177,-0.33442603037000423,0.2807485741169464,0.22898222604175056
1681568952969066200,1.375066162109375,-2.181771993637085,1.6198818683624268,2.456791400909424,0.6624231934547424,0.4492984414100647,-0.5994383096694946,0.4002903699874878,-0.17085614800453186,0.1582304835319519,0.8616158678763096,-0.34120799276065067,0.2895823669529088,0.23945170954288492
1681568952979066000,1.385066162109375,-2.670379400253296,1.5855897665023804,2.5077903270721436,0.6830083131790161,0.4468749761581421,-0.5777562260627747,0.4342707395553589,-0.20654910802841187,0.16697442531585693,0.8520160401478257,-0.3499310411651676,0.297775332176209,0.25089173620639943
1681568952989066200,1.395066162109375,-3.0493571758270264,1.5169055461883545,2.5367989540100098,0.7030418515205383,0.44565439224243164,-0.5541880130767822,0.47238850593566895,-0.22576001286506653,0.16725564002990723,0.8413374681701171,-0.36028307901295553,0.3051263562531636,0.26314495708942487
1681568952999066000,1.405066162109375,-3.0875797271728516,1.3563324213027954,2.573122978210449,0.7222471833229065,0.44421783089637756,-0.5301221609115601,0.5018739700317383,-0.21764013171195984,0.17352432012557983,0.8300086339461744,-0.37121652159208735,0.31166842316945204,0.27594709399978773
1681568953009066000,1.41506591796875,-2.791449546813965,1.2057079076766968,2.607478141784668,0.7403594851493835,0.44057855010032654,-0.5076991319656372,0.5203064680099487,-0.1906549036502838,0.1736994981765747,0.8187808942268507,-0.3811151379524314,0.31765023518084423,0.2888728011433617
1681568953019066000,1.425066162109375,-2.3154242038726807,1.0403695106506348,2.6181015968322754,0.7573744654655457,0.4337570369243622,-0.488097220659256,0.5270342230796814,-0.10738679766654968,0.1634969711303711,0.8081969789863955,-0.3889963455500131,0.32347060835819846,0.30144052741894767
1681568953029066000,1.43506591796875,-1.8330869674682617,0.8956634998321533,2.6130354404449463,0.7732331156730652,0.42365047335624695,-0.47183772921562195,0.5134795308113098,0.036874979734420776,0.15074706077575684,0.7985466140651639,-0.39451617663896177,0.32929944263758293,0.313436067394177
1681568953039066000,1.445066162109375,-1.461328387260437,0.7767171263694763,2.5531811714172363,0.7879039645195007,0.4110885262489319,-0.4584904611110687,0.48069649934768677,0.11157071590423584,0.1346837282180786,0.7897909024412387,-0.3980564621761927,0.3351206153943778,0.3247699607374321
1681568953049066000,1.45506591796875,-1.1895047426223755,0.6860725283622742,2.4851160049438477,0.801398754119873,0.3970579206943512,-0.44733086228370667,0.43175554275512695,0.08598950505256653,0.11972469091415405,0.7817605658936291,-0.40019904330195183,0.34084498091188703,0.3354336462035419
1681568953059066000,1.465066162109375,-0.9896320700645447,0.6047515869140625,2.4192380905151367,0.813798189163208,0.3820746839046478,-0.43789422512054443,0.3765246868133545,0.03928142786026001,0.12215936183929443,0.7743044832933348,-0.4013119102356795,0.3464125164257896,0.3455425477684631
1681568953069066200,1.475066162109375,-0.8805015683174133,0.5405600666999817,2.372119665145874,0.8252401351928711,0.3664703071117401,-0.42974209785461426,0.3273630142211914,0.009750306606292725,0.12542080879211426,0.7672488006417001,-0.40170733795987795,0.35179562351947224,0.355246924198721
1681568953079066400,1.48506640625,-0.8893682956695557,0.5015668869018555,2.3369925022125244,0.8359007835388184,0.3506525754928589,-0.4222709536552429,0.28760385513305664,0.0010624229907989502,0.14117354154586792,0.7603281213255829,-0.401821500026696,0.3569369868334501,0.3647419488659398
1681568953089066200,1.495066162109375,-1.0203627347946167,0.4750746488571167,2.3038060665130615,0.8458957076072693,0.33510106801986694,-0.4149307310581207,0.24580955505371094,-0.014040976762771606,0.1605057418346405,0.7532644259422875,-0.40213311117234174,0.36169544223913364,0.3742431326875043
1681568953099066400,1.50506640625,-1.2856504917144775,0.44153159856796265,2.2671408653259277,0.8552731871604919,0.3203473687171936,-0.40729010105133057,0.20998859405517578,-0.030628830194473267,0.16784921288490295,0.7457944163063998,-0.4031262637399991,0.36584718931513033,0.38397351888229947
1681568953109066200,1.515066162109375,-1.6841598749160767,0.39435887336730957,2.2119343280792236,0.8639892339706421,0.30704447627067566,-0.3990567624568939,0.1837097406387329,-0.042640239000320435,0.1731961965560913,0.7376822319906278,-0.40530279776328065,0.3690545451944127,0.3941488891489163
1681568953119066000,1.525066162109375,-2.1907005310058594,0.3445361852645874,2.1488583087921143,0.8720167875289917,0.29574501514434814,-0.3900277614593506,0.1594163179397583,-0.06048506498336792,0.17472624778747559,0.7287073579030383,-0.40909318136936385,0.3709836759261781,0.40496850786987026
1681568953129067300,1.5350673828125,-2.730377197265625,0.277311235666275,2.074366569519043,0.8793686628341675,0.2867122292518616,-0.3801405131816864,0.13880455493927002,-0.08000150322914124,0.1671430468559265,0.7187239563642324,-0.4147112220226836,0.3714085965634453,0.41654063208345216
1681568953139067100,1.545067138671875,-3.2548561096191406,0.20959077775478363,1.9850982427597046,0.8860368132591248,0.28001195192337036,-0.3695024847984314,0.12095171213150024,-0.08645430207252502,0.1642412543296814,0.7077143477870947,-0.4221416208261957,0.37019618325750525,0.42882586564843844
1681568953149067300,1.5550673828125,-3.726038932800293,0.14386774599552155,1.8870903253555298,0.892057478427887,0.2755163013935089,-0.35822367668151855,0.08915895223617554,-0.07785400748252869,0.16863322257995605,0.6957162142273884,-0.4312211353819107,0.36733703800800904,0.4416907851846558
1681568953159067100,1.565067138671875,-4.13927698135376,0.08039050549268723,1.7919585704803467,0.8974975943565369,0.2729342579841614,-0.34641751646995544,0.050012290477752686,-0.054092735052108765,0.17727378010749817,0.6827907041203132,-0.4416900888779162,0.36290647402235354,0.4549788079987057
1681568953169067300,1.5750673828125,-4.448322296142578,0.017072254791855812,1.6755752563476562,0.9023944735527039,0.27195748686790466,-0.3342503011226654,0.017893612384796143,-0.03047195076942444,0.1867741346359253,0.6690706886147225,-0.453219857925886,0.35702466605332,0.46847570944041517
1681568953179067100,1.585067138671875,-4.627233982086182,-0.0541159063577652,1.5539201498031616,0.9067182540893555,0.2722896337509155,-0.322056382894516,-0.0005445480346679688,-0.0038418173789978027,0.19255506992340088,0.6548282327319437,-0.46537424146025674,0.349855151441728,0.48190051867970457
1681568953189067000,1.59506689453125,-4.668270587921143,-0.11082658171653748,1.4416877031326294,0.9105339050292969,0.2734113037586212,-0.31011947989463806,-0.01310354471206665,0.03304612636566162,0.19168081879615784,0.6403388995866509,-0.4776594499364888,0.3417333816404571,0.49500074422108076
1681568953199067100,1.605067138671875,-4.57553243637085,-0.15812352299690247,1.3458775281906128,0.9139401316642761,0.2747957110404968,-0.29866498708724976,-0.025222480297088623,0.07742282748222351,0.18101972341537476,0.6258823243324013,-0.48962374502677697,0.33307069582655596,0.5075468823407
1681568953209067000,1.61506689453125,-4.390763759613037,-0.2012653350830078,1.2614027261734009,0.9169990420341492,0.27603670954704285,-0.28795209527015686,-0.034384965896606445,0.1198677122592926,0.17073407769203186,0.6117170329188968,-0.5009094716235121,0.32421236117019553,0.5194018327320062
1681568953219067100,1.625067138671875,-4.136892318725586,-0.24002204835414886,1.188306450843811,0.9197607040405273,0.27687811851501465,-0.2781704366207123,-0.04778200387954712,0.1543962061405182,0.1681392788887024,0.5980582494115063,-0.5112824282664724,0.3154442364380099,0.5304824002582021
1681568953229067000,1.63506689453125,-3.8296608924865723,-0.25920140743255615,1.1340137720108032,0.9222868084907532,0.2771020829677582,-0.26944613456726074,-0.061019837856292725,0.18494921922683716,0.16486242413520813,0.5850641826474927,-0.5205890161716338,0.3070244425889769,0.5407613391846264
1681568953239067100,1.645067138671875,-3.4979963302612305,-0.243246927857399,1.0908769369125366,0.9246909022331238,0.27656859159469604,-0.2616417109966278,-0.07073289155960083,0.2044493854045868,0.1626732051372528,0.572800363828541,-0.528822090009927,0.2992095289955556,0.5502003788798007
1681568953249067000,1.65506689453125,-3.1529502868652344,-0.20643474161624908,1.0592021942138672,0.9270707964897156,0.27521514892578125,-0.2545510232448578,-0.08452630043029785,0.2187575399875641,0.1665841042995453,0.5613012651859061,-0.5360417712553688,0.29220491385672087,0.5587632097721575
1681568953259067100,1.665067138671875,-2.796769618988037,-0.14503395557403564,1.034855604171753,0.929490864276886,0.2729877233505249,-0.24804094433784485,-0.10664546489715576,0.23570969700813293,0.17370010912418365,0.5505938420037516,-0.5423031480270096,0.2861587389445347,0.566451046098161
1681568953269067300,1.6750673828125,-2.4498045444488525,-0.06501342356204987,1.0276455879211426,0.932030439376831,0.26980990171432495,-0.24191279709339142,-0.12560349702835083,0.24818012118339539,0.17854304611682892,0.5406569015683771,-0.5476924032157038,0.2812056758895426,0.5732769527653654
1681568953279067400,1.6850673828125,-2.121900796890259,0.024353204295039177,1.0200886726379395,0.9347306489944458,0.2656993269920349,-0.23597131669521332,-0.13719958066940308,0.2605457007884979,0.17894919216632843,0.5314400401179807,-0.5523327438997891,0.27738579893258575,0.5792729061504683
1681568953289067300,1.6950673828125,-1.8021941184997559,0.12379097938537598,1.0188466310501099,0.937578558921814,0.2607450783252716,-0.23012687265872955,-0.14953845739364624,0.27100837230682373,0.17368459701538086,0.5229402599698024,-0.5563117543215959,0.27468854101084544,0.5844629274377482
1681568953299067100,1.705067138671875,-1.4987231492996216,0.22939622402191162,1.0317435264587402,0.9406240582466125,0.2548559308052063,-0.22422084212303162,-0.164867103099823,0.2785454988479614,0.16637471318244934,0.5150809579952191,-0.5597061817507113,0.2731639982145479,0.5888990788518982
1681568953309067300,1.7150673828125,-1.2054002285003662,0.33924663066864014,1.0315853357315063,0.943848192691803,0.2481316328048706,-0.21813078224658966,-0.17167729139328003,0.28645992279052734,0.14305755496025085,0.507854142953965,-0.562598957438412,0.2727948382824785,0.5925786344415488
1681568953319068200,1.725068115234375,-0.9301670789718628,0.46108943223953247,1.0480108261108398,0.9472478032112122,0.2405959516763687,-0.21174317598342896,-0.17168933153152466,0.29579615592956543,0.12249445915222168,0.5012162403222138,-0.565056543197327,0.2735681237898389,0.5955282164376944
1681568953329068300,1.735068359375,-0.6803752183914185,0.5818300247192383,1.042921781539917,0.950812816619873,0.2323320508003235,-0.20488257706165314,-0.18086963891983032,0.29336366057395935,0.09379857778549194,0.49509516608482196,-0.5671825332786549,0.2754318187055189,0.5977642814016585
1681568953339068200,1.745068115234375,-0.4421069622039795,0.6972522735595703,1.0280025005340576,0.9544629454612732,0.22358842194080353,-0.19750608503818512,-0.1925153136253357,0.2910294234752655,0.061031460762023926,0.4895194163614598,-0.569042033742968,0.27827705188842594,0.599269373162076
1681568953349068300,1.755068359375,-0.2271321415901184,0.806304931640625,1.0042004585266113,0.9581475853919983,0.21450747549533844,-0.18957726657390594,-0.20326489210128784,0.2913975715637207,0.03349508345127106,0.4844705200512294,-0.57068388626768,0.2820128842679589,0.6000640162805678
1681568953359068200,1.765068115234375,-0.05098613351583481,0.9072376489639282,0.9547682404518127,0.9617966413497925,0.20535029470920563,-0.1810479462146759,-0.21028608083724976,0.2943902015686035,0.0052514225244522095,0.4799135804956317,-0.5721988123390964,0.28646910371960077,0.6001723448842324
1681568953369068000,1.775068115234375,0.10321096330881119,1.0006771087646484,0.896324098110199,0.9653440713882446,0.19637605547904968,-0.17189273238182068,-0.2181670069694519,0.30173176527023315,-0.021970197558403015,0.4758313947456641,-0.5736624311113527,0.2914876497165608,0.5996088236479925
1681568953379068200,1.785068115234375,0.24698305130004883,1.0652475357055664,0.8380383849143982,0.9687362313270569,0.18770332634449005,-0.16222740709781647,-0.22033840417861938,0.3014781177043915,-0.04158425331115723,0.4722209078275437,-0.5750684956984922,0.2969554151041842,0.5984322759571773
1681568953389068000,1.795068115234375,0.3771359622478485,1.1075785160064697,0.7651426196098328,0.9719201326370239,0.17942030727863312,-0.15224836766719818,-0.2187311053276062,0.3029099106788635,-0.06209187209606171,0.4690875396459053,-0.5763802144511544,0.3027567719961152,0.5967252905271421
1681568953399068200,1.805068115234375,0.5053895711898804,1.1327251195907593,0.7019370198249817,0.9748532176017761,0.17164520919322968,-0.1421230584383011,-0.22380048036575317,0.30308616161346436,-0.07874791324138641,0.46647320739390696,-0.5775612861716828,0.30880646422204633,0.5945285634251453
1681568953409068000,1.815068115234375,0.5915084481239319,1.1495091915130615,0.6449905633926392,0.9775513410568237,0.16430909931659698,-0.13189373910427094,-0.23347169160842896,0.29964956641197205,-0.10286279022693634,0.46428236411863383,-0.5786179899383997,0.31504659299119986,0.5919364947916872
1681568953419068200,1.825068115234375,0.6569052934646606,1.1561259031295776,0.5741363763809204,0.9799937009811401,0.15755417943000793,-0.12161009013652802,-0.23510539531707764,0.2928394079208374,-0.12645208835601807,0.4624576114730393,-0.5796065543346212,0.3213272421866873,0.5890144008156364
1681568953429068000,1.835068115234375,0.7199355959892273,1.1312167644500732,0.525048553943634,0.9821726083755493,0.15138743817806244,-0.11143910139799118,-0.2306315302848816,0.2869822382926941,-0.14435923099517822,0.4609976264792581,-0.580489538826686,0.3275856298047913,0.5858333319169868
1681568953439068200,1.845068115234375,0.7301802039146423,1.0828510522842407,0.48263341188430786,0.9841032028198242,0.1456526666879654,-0.1016174927353859,-0.2232237458229065,0.27703097462654114,-0.1750091314315796,0.4598030363457393,-0.5812201996148775,0.3337279349542712,0.5825717842203468
1681568953449068000,1.855068115234375,0.692581832408905,1.0138769149780273,0.42999929189682007,0.9857732653617859,0.14046987891197205,-0.09230007976293564,-0.1991826295852661,0.2764612138271332,-0.21311986446380615,0.4587907553152551,-0.5818607010364548,0.3395409888579785,0.5793626675190408
1681568953459068200,1.865068115234375,0.5637162923812866,0.9162444472312927,0.3905927836894989,0.9871928095817566,0.13585591316223145,-0.08362770080566406,-0.17038977146148682,0.2642905116081238,-0.2330380082130432,0.457782377632731,-0.582507075227962,0.3447776915302524,0.5764105972060208
1681568953469068300,1.875068359375,0.4535839259624481,0.8318399786949158,0.36809131503105164,0.9883943796157837,0.1317199468612671,-0.07567165791988373,-0.14479702711105347,0.24234916269779205,-0.24320650100708008,0.4566482321496901,-0.5832110645210727,0.34932652861764407,0.5738537142166547
1681568953479068200,1.885068115234375,0.3881170451641083,0.7558647394180298,0.39217668771743774,0.9894553422927856,0.12768436968326569,-0.06837069243192673,-0.11263972520828247,0.23587143421173096,-0.24077241122722626,0.455393891324036,-0.5838652034675069,0.35343468504792064,0.571665628485648
1681568953489069300,1.8950693359375,0.3218499422073364,0.6749592423439026,0.43047720193862915,0.990436315536499,0.12338048964738846,-0.061749059706926346,-0.09111392498016357,0.24405106902122498,-0.26839011907577515,0.4539926730458424,-0.5843616509813917,0.35727710610200514,0.5698816405155841
1681568953499069200,1.905069091796875,0.19763611257076263,0.6079088449478149,0.4487917721271515,0.9913498759269714,0.1188441663980484,-0.055689144879579544,-0.06845265626907349,0.26529574394226074,-0.30553221702575684,0.4523527003874863,-0.5848004799923889,0.36078224078621657,0.5685257489370822
1681568953509069300,1.9150693359375,0.016040388494729996,0.5384606122970581,0.43884822726249695,0.992171049118042,0.11437616497278214,-0.05014454200863838,-0.04249465465545654,0.2621038556098938,-0.327281653881073,0.4503738404122608,-0.5853727227175096,0.3636846225367279,0.5676579791608602
1681568953519069200,1.925069091796875,-0.20052281022071838,0.4809688329696655,0.40403780341148376,0.9928895831108093,0.11021323502063751,-0.044978976249694824,-0.020767509937286377,0.22157377004623413,-0.3314400911331177,0.4479689763817559,-0.5862552394850203,0.3658077456693429,0.5672858024568544
1681568953529069300,1.9350693359375,-0.41281798481941223,0.4367391765117645,0.35363680124282837,0.993494987487793,0.10658399015665054,-0.04009626433253288,-0.010783135890960693,0.1780228614807129,-0.3231545090675354,0.44515362708607986,-0.5875474558980465,0.36706927689972174,0.5673503580257911
1681568953539069200,1.945069091796875,-0.6173953413963318,0.4006107449531555,0.292392373085022,0.993995189666748,0.10353945195674896,-0.03539985045790672,-0.005759716033935547,0.16434377431869507,-0.31691038608551025,0.4419440090386578,-0.5892787270582271,0.3674923901251492,0.5677899237103804
1681568953549069000,1.955069091796875,-0.7980194091796875,0.37459683418273926,0.22046157717704773,0.9943851232528687,0.10122980177402496,-0.030835475772619247,0.016875922679901123,0.17284849286079407,-0.32527416944503784,0.43841224706526655,-0.5914677866232918,0.36708053507715405,0.5685178035870576
1681568953559069200,1.965069091796875,-0.902201771736145,0.3614906072616577,0.14934585988521576,0.9946751594543457,0.09964283555746078,-0.026316842064261436,0.05435127019882202,0.18684084713459015,-0.3311508297920227,0.43467946382964234,-0.5940437413732379,0.3659967383017459,0.5693963223465662
1681568953569069000,1.975069091796875,-0.9254574775695801,0.36246076226234436,0.07608795911073685,0.9948749542236328,0.0987364873290062,-0.021795067936182022,0.07780265808105469,0.21715089678764343,-0.33004212379455566,0.4309536771366441,-0.5968621287058902,0.36449700290957493,0.5702425110977629
1681568953579069200,1.985069091796875,-0.8617935180664062,0.37742772698402405,0.020349057391285896,0.9949943423271179,0.09843485802412033,-0.017224334180355072,0.07334965467453003,0.2602228820323944,-0.3390378952026367,0.42746388986143363,-0.5997544036227943,0.36288081839113273,0.5708648931394115
1681568953589069000,1.995069091796875,-0.7650688290596008,0.3840235471725464,-0.030026230961084366,0.9950453639030457,0.0986170619726181,-0.012624320574104786,0.07015538215637207,0.2935184836387634,-0.35354089736938477,0.4243383623078118,-0.602591902784712,0.3613458706355187,0.57118220551973
1681568953599069200,2.005069091796875,-0.6402992010116577,0.39965230226516724,-0.07632714509963989,0.9950323700904846,0.0992291122674942,-0.008017823100090027,0.08677005767822266,0.3032976984977722,-0.36116862297058105,0.4216526583809386,-0.6053046147608682,0.35999640498367375,0.5711549965204193
1681568953609069000,2.015069091796875,-0.4737808406352997,0.4118855595588684,-0.11863385885953903,0.9949572682380676,0.10024075955152512,-0.003417296800762415,0.1093517541885376,0.3040560483932495,-0.3603980541229248,0.4195031308799065,-0.6078201252926226,0.35895131551006143,0.5707238194263816
1681568953619069200,2.025069091796875,-0.28803467750549316,0.41340410709381104,-0.1586364060640335,0.9948211908340454,0.10163532197475433,0.001074681174941361,0.12212216854095459,0.2990604043006897,-0.3638981580734253,0.418002216987695,-0.6100450260512791,0.3583049075896275,0.5698568635793002
1681568953629068000,2.035068115234375,-0.1322014480829239,0.40961575508117676,-0.18863797187805176,0.9946290850639343,0.10336420685052872,0.005387649871408939,0.13343805074691772,0.3016497492790222,-0.37339913845062256,0.4171274851613669,-0.6119634228131471,0.3580427266465066,0.5686043713655751
1681568953639068200,2.045068115234375,-0.02025575190782547,0.3737035393714905,-0.21844619512557983,0.9943865537643433,0.10539320856332779,0.009363618679344654,0.16622745990753174,0.30702126026153564,-0.3815256357192993,0.41678284501520363,-0.6135950354530822,0.35802645374891223,0.5671069204924203
1681568953649068000,2.055068115234375,0.04803537204861641,0.33339786529541016,-0.2446303516626358,0.9940998554229736,0.1077033281326294,0.012868155725300312,0.23179131746292114,0.30646592378616333,-0.36919140815734863,0.41685544513566103,-0.614980170640256,0.3580970089213721,0.5655064492209922
1681568953659068200,2.065068115234375,0.07115214318037033,0.28848445415496826,-0.2726329267024994,0.9937725067138672,0.11028805375099182,0.01590225100517273,0.2984333038330078,0.2948784828186035,-0.3422267436981201,0.41721868439104237,-0.616196355980261,0.35812452596818967,0.5638949360333808
1681568953669069000,2.075069091796875,0.06945928931236267,0.22645071148872375,-0.31317856907844543,0.9934028387069702,0.11319326609373093,0.018394434824585915,0.35248351097106934,0.2808191180229187,-0.31707000732421875,0.41779454144530814,-0.6172978762487842,0.3579672457285542,0.5623616478620939
1681568953679069000,2.08506884765625,0.07883574813604355,0.15970788896083832,-0.37076064944267273,0.9929718971252441,0.11660952121019363,0.02022511139512062,0.39920949935913086,0.2745036780834198,-0.2930370569229126,0.41863702452177753,-0.6182993580438108,0.35751707534055793,0.5609193393651721
1681568953689069000,2.095069091796875,0.10044488310813904,0.08291278779506683,-0.42830947041511536,0.9924731254577637,0.12059032917022705,0.021332746371626854,0.42990541458129883,0.2775419354438782,-0.25714218616485596,0.41981352865015203,-0.6191670164873617,0.35678926337740696,0.559544660309665
1681568953699069000,2.10506884765625,0.13159215450286865,0.010638590902090073,-0.5008489489555359,0.9918951988220215,0.12520089745521545,0.02165042981505394,0.4272942543029785,0.2952244281768799,-0.23243534564971924,0.42138890252936145,-0.6198714645473766,0.3557872708823341,0.5582170186592876
1681568953709069000,2.115069091796875,0.14404962956905365,-0.07358607649803162,-0.5927343368530273,0.9912033081054688,0.1306474655866623,0.021146191284060478,0.4009475111961365,0.31237614154815674,-0.22230279445648193,0.4234004255993914,-0.6204566529128774,0.35441026749224747,0.5569191774007481
1681568953719069200,2.125069091796875,0.15546821057796478,-0.17095550894737244,-0.7004930377006531,0.9903627038002014,0.13708750903606415,0.01971457153558731,0.3688138723373413,0.3249332904815674,-0.2304995059967041,0.4258820760642579,-0.6209377235603911,0.3525530160720507,0.5556681889442119
1681568953729069300,2.1350693359375,0.18300065398216248,-0.26097285747528076,-0.8289994597434998,0.9893268346786499,0.14468073844909668,0.017312772572040558,0.3497233986854553,0.33090513944625854,-0.2273653745651245,0.42891097979903975,-0.6213121342855559,0.3501822635186461,0.5544176454510402
1681568953739069200,2.145069091796875,0.22702032327651978,-0.331674724817276,-0.9784355759620667,0.9880244731903076,0.15365567803382874,0.014061972498893738,0.33418017625808716,0.344284325838089,-0.20816898345947266,0.4325680019082135,-0.6216254623856211,0.34729349400970955,0.5530407277088845
1681568953749069300,2.1550693359375,0.2745967507362366,-0.40168312191963196,-1.1281307935714722,0.9863921999931335,0.16410446166992188,0.010010724887251854,0.31290894746780396,0.35188668966293335,-0.1862955093383789,0.43690228327954095,-0.6218815263104231,0.34390220962111634,0.5514626604651571
1681568953759069200,2.165069091796875,0.3584386706352234,-0.4326370358467102,-1.2695139646530151,0.9843762516975403,0.17599935829639435,0.005274916533380747,0.3008105754852295,0.3346969783306122,-0.14850914478302002,0.4419238054297922,-0.62207800939686,0.3400829436361745,0.5496053330284022
1681568953769069300,2.1750693359375,0.5165748596191406,-0.4291228652000427,-1.3935530185699463,0.9819309711456299,0.1892402023077011,0.00010247138561680913,0.26976287364959717,0.3131095767021179,-0.09347105026245117,0.4477149992702079,-0.6221667861407377,0.33609481685221004,0.5472660979346885
1681568953779069200,2.185069091796875,0.7091879844665527,-0.42974579334259033,-1.5240987539291382,0.9790422320365906,0.20358693599700928,-0.005351379048079252,0.20445996522903442,0.30279117822647095,-0.04930567741394043,0.4543455449699789,-0.6220477013420785,0.3322363129232429,0.5442846810935649
1681568953789069000,2.195069091796875,0.9403170347213745,-0.4712122082710266,-1.6581192016601562,0.9756364226341248,0.2190917581319809,-0.011491872370243073,0.1524304747581482,0.29810476303100586,-0.05119127035140991,0.4619712572050932,-0.6215724777353768,0.32848397042391714,0.5406739821989556
1681568953799069200,2.205069091796875,1.176416039466858,-0.5561718344688416,-1.805019736289978,0.971613883972168,0.23581476509571075,-0.018913520500063896,0.18433088064193726,0.3048650920391083,-0.09178906679153442,0.4707649065903392,-0.6205518192925704,0.3247440206779446,0.5365045364813378
1681568953809069000,2.215069091796875,1.4149999618530273,-0.6455413103103638,-1.934499979019165,0.9668890237808228,0.2536640465259552,-0.027926797047257423,0.2867424488067627,0.32639870047569275,-0.1065031886100769,0.48076143254145504,-0.6188789407494454,0.3209757899748069,0.5318192378934141
1681568953819069200,2.225069091796875,1.6048133373260498,-0.7380789518356323,-2.0271363258361816,0.9614406824111938,0.2722891867160797,-0.038604721426963806,0.3527682423591614,0.3440437316894531,-0.10614019632339478,0.4917968953127119,-0.616524138069515,0.3171681367336564,0.526723963760968
1681568953829070000,2.235070068359375,1.728724718093872,-0.8313795328140259,-2.101785898208618,0.9552664756774902,0.2913421094417572,-0.050848037004470825,0.3644203543663025,0.32001641392707825,-0.07216835021972656,0.5035919878348448,-0.6135596532252812,0.31324197181155766,0.5213626646942382
1681568953839070200,2.2450703125,1.8041118383407593,-0.9165402054786682,-2.1574833393096924,0.9483442306518555,0.3106149733066559,-0.06450849026441574,0.35342878103256226,0.27097368240356445,-0.019536912441253662,0.5158910663420355,-0.6100990069319758,0.3090711186355179,0.5158590605717305
1681568953849070000,2.255070068359375,1.850132703781128,-0.9824494123458862,-2.193183183670044,0.9406888484954834,0.3298594653606415,-0.07935453206300735,0.3404847979545593,0.22646063566207886,0.04514426738023758,0.5284931689748246,-0.606224164136237,0.30465553611023893,0.5102667882101253
1681568953859070000,2.265070068359375,1.879408359527588,-1.0237795114517212,-2.2199530601501465,0.9323203563690186,0.3489045798778534,-0.09510157257318497,0.33022236824035645,0.19151586294174194,0.11509054899215698,0.5412530305375511,-0.6020183321454765,0.3000385663489176,0.5045749984041707
1681568953869070000,2.275070068359375,1.8710321187973022,-1.0688945055007935,-2.239762783050537,0.9232466816902161,0.3676632046699524,-0.11153141409158707,0.31788796186447144,0.16067227721214294,0.16873657703399658,0.5540323118326014,-0.5975758143020641,0.2951905153222127,0.4988124516628962
1681568953879070000,2.285070068359375,1.8683912754058838,-1.1050370931625366,-2.2435081005096436,0.9134865403175354,0.3860185444355011,-0.1285770684480667,0.3270225524902344,0.13271915912628174,0.19704324007034302,0.5667507426010691,-0.5929199390014122,0.2900989668400153,0.493033616144823
1681568953889070000,2.295070068359375,1.8595645427703857,-1.1306490898132324,-2.2305073738098145,0.9031059145927429,0.4037969708442688,-0.14610852301120758,0.3503730893135071,0.10813531279563904,0.2172144651412964,0.579351478912826,-0.5880531890514573,0.28484941331490327,0.4872434058967672
1681568953899070000,2.305070068359375,1.8299357891082764,-1.1534098386764526,-2.2065646648406982,0.8921821713447571,0.4208487570285797,-0.16400353610515594,0.35932838916778564,0.08597180247306824,0.21458639204502106,0.5917462894992781,-0.5830030139762242,0.27947400743945716,0.4814955688033912
1681568953909070000,2.315070068359375,1.7957476377487183,-1.1961228847503662,-2.1718528270721436,0.8807530403137207,0.43712568283081055,-0.18219590187072754,0.3614955544471741,0.06299629807472229,0.20427536964416504,0.6038791903914081,-0.5777997253891222,0.27395169280860526,0.4758444321282832
1681568953919070200,2.3250703125,1.7487010955810547,-1.229613184928894,-2.1244945526123047,0.8688591122627258,0.45255419611930847,-0.20069514214992523,0.37125319242477417,0.034033238887786865,0.21372616291046143,0.6157049177009862,-0.5724447687506012,0.2682525157344214,0.47037755147274907
1681568953929070300,2.3350703125,1.6965755224227905,-1.251792073249817,-2.0621509552001953,0.8566145896911621,0.4670170247554779,-0.21933205425739288,0.3602738380432129,0.010521948337554932,0.2310965657234192,0.6271622215726971,-0.5669671441962411,0.26245423844838456,0.46511672049551694
1681568953939070200,2.3450703125,1.657592535018921,-1.2689255475997925,-1.9921739101409912,0.8441206216812134,0.48043376207351685,-0.23799942433834076,0.3322709798812866,-0.011927992105484009,0.23893016576766968,0.6382199330546655,-0.5613788893390603,0.2566204053615105,0.46008154641528126
1681568953949070300,2.3550703125,1.6124886274337769,-1.2817456722259521,-1.9119672775268555,0.8314579725265503,0.492753267288208,-0.2566547095775604,0.30594736337661743,-0.02783331274986267,0.2641925513744354,0.6488740337634142,-0.5556738116111057,0.2507972526996686,0.4552907934477116
1681568953959070200,2.3650703125,1.5426815748214722,-1.2844264507293701,-1.8437602519989014,0.8186790347099304,0.5040554404258728,-0.27512314915657043,0.2854316830635071,-0.03751802444458008,0.29718732833862305,0.659086616600537,-0.5499291916489554,0.24498224968816767,0.4507398591615669
1681568953969071000,2.375071044921875,1.4529480934143066,-1.2855268716812134,-1.7726250886917114,0.8058249950408936,0.5144750475883484,-0.2931922376155853,0.2761300206184387,-0.048715829849243164,0.3300422430038452,0.6687968551606892,-0.544257955155557,0.23913837554624162,0.446438116724533
1681568953979071200,2.3850712890625,1.3560599088668823,-1.2735133171081543,-1.7014814615249634,0.7929360270500183,0.5241212844848633,-0.3107241094112396,0.271120548248291,-0.06672388315200806,0.36617448925971985,0.6779710341046957,-0.538735461276044,0.23324246780813376,0.44239964291541706
1681568953989071000,2.395071044921875,1.2499340772628784,-1.248234748840332,-1.6411670446395874,0.7800669074058533,0.5331153869628906,-0.32754194736480713,0.25559288263320923,-0.0900612473487854,0.40173017978668213,0.6866013480022528,-0.5334346908186846,0.22732455028661824,0.43857686843326293
1681568953999071200,2.4050712890625,1.150896430015564,-1.2051490545272827,-1.58253014087677,0.7672860622406006,0.5415614247322083,-0.34348684549331665,0.22441315650939941,-0.1111568808555603,0.42924126982688904,0.6946819585117863,-0.5284200725396125,0.22142447273529942,0.434925634018591
1681568954009071000,2.415071044921875,1.0590077638626099,-1.1602787971496582,-1.5428011417388916,0.7546024918556213,0.5495768785476685,-0.35852497816085815,0.1876429319381714,-0.1313183307647705,0.45035240054130554,0.7022660189581059,-0.5237049909281313,0.21557039129687922,0.43137544988509574
1681568954019071000,2.425071044921875,0.9794492721557617,-1.1102036237716675,-1.5195519924163818,0.7419863343238831,0.5573017001152039,-0.3726539611816406,0.15707677602767944,-0.1546528935432434,0.4603309631347656,0.7094144044766815,-0.5192998156439443,0.2097634710479941,0.4278528989813382
1681568954029071000,2.435071044921875,0.9122526049613953,-1.0563167333602905,-1.5064159631729126,0.7293804287910461,0.5648576617240906,-0.3859274685382843,0.12979620695114136,-0.17421746253967285,0.4636404514312744,0.716202811500643,-0.515191022399239,0.203996262749954,0.4242844289723386
1681568954039071000,2.445071044921875,0.8531591892242432,-0.9979269504547119,-1.4935235977172852,0.7168272733688354,0.572235643863678,-0.39837780594825745,0.09483349323272705,-0.19038456678390503,0.46150341629981995,0.7226700159594044,-0.5113517017461982,0.19831927355131895,0.42063853600479867
1681568954049071000,2.455071044921875,0.8138541579246521,-0.9315403699874878,-1.4872369766235352,0.7043425440788269,0.5794584155082703,-0.41003599762916565,0.054232895374298096,-0.20651841163635254,0.45549196004867554,0.7288536565745172,-0.5077656836106343,0.19275894451169687,0.4168816879295668
1681568954059071000,2.465071044921875,0.782167375087738,-0.8542405366897583,-1.4689135551452637,0.6920157670974731,0.5864713191986084,-0.42091044783592224,0.019486308097839355,-0.21874982118606567,0.46439802646636963,0.7347841929883023,-0.5044049510029569,0.18740442238257843,0.41297389627726094
1681568954069071000,2.475071044921875,0.7746028304100037,-0.7677706480026245,-1.444770097732544,0.6799681782722473,0.5931566953659058,-0.43105512857437134,-0.0068724751472473145,-0.23117250204086304,0.47686201333999634,0.7404794681918272,-0.5012208878851582,0.18234596291521854,0.40892279884575766
1681568954079071000,2.485071044921875,0.8102444410324097,-0.6758055686950684,-1.40583336353302,0.6683147549629211,0.5993239879608154,-0.440642774105072,-0.021204769611358643,-0.23991858959197998,0.4911036193370819,0.746004548763837,-0.49809644754467547,0.1777035237658009,0.4047202901468499
1681568954089071000,2.495071044921875,0.8691776990890503,-0.5863029360771179,-1.354504942893982,0.6571938395500183,0.6047362685203552,-0.449878066778183,-0.028119683265686035,-0.24844366312026978,0.5117067098617554,0.7514211128500363,-0.4948966968029597,0.17360363295505668,0.4003814811596351
1681568954099071000,2.505071044921875,0.9353045225143433,-0.5081369876861572,-1.3032119274139404,0.646639883518219,0.6092994809150696,-0.4589237570762634,-0.02673625946044922,-0.25027549266815186,0.5158848166465759,0.7567639582063264,-0.4915458059313965,0.17006127406781316,0.39594213008510504
1681568954109071000,2.515071044921875,0.9956944584846497,-0.4401625394821167,-1.2495033740997314,0.6366396546363831,0.6130144596099854,-0.4678709805011749,-0.018719732761383057,-0.24973326921463013,0.50545334815979,0.7620441159584501,-0.48801936942711943,0.16703775660862674,0.3914387379676765
1681568954119072300,2.525072265625,1.047286033630371,-0.37594279646873474,-1.1877707242965698,0.6272228956222534,0.61590176820755,-0.47671422362327576,-0.008066952228546143,-0.2601736783981323,0.49198824167251587,0.7672367213392173,-0.48433595231172455,0.16450401530900433,0.3869172374269724
1681568954129072000,2.535072021484375,1.0982071161270142,-0.3203573226928711,-1.118467092514038,0.6184256076812744,0.6179302334785461,-0.4855017364025116,-0.0006430149078369141,-0.2686718702316284,0.4825872778892517,0.7723286725357821,-0.4804808041978869,0.16244176606978455,0.38243851642849586
1681568954139072300,2.545072265625,1.133587121963501,-0.2692725658416748,-1.0490237474441528,0.6102829575538635,0.6191167235374451,-0.49421563744544983,0.006935060024261475,-0.2697058320045471,0.4787585139274597,0.7773000128814173,-0.4764703262449336,0.16083594765240106,0.378037562765131
1681568954149072100,2.555072021484375,1.1393200159072876,-0.228056862950325,-0.9840991497039795,0.6027469038963318,0.6196218132972717,-0.5027573108673096,0.01741611957550049,-0.277626633644104,0.48015904426574707,0.7821050521867436,-0.472389683889312,0.15959114580122621,0.3737516162211789
1681568954159072300,2.565072265625,1.1453176736831665,-0.18550141155719757,-0.9131847620010376,0.5958127379417419,0.6195191144943237,-0.5110803842544556,0.029736578464508057,-0.2837800979614258,0.49469250440597534,0.7867228381167712,-0.4682774089952924,0.15866969707569378,0.3696041947677533
1681568954169072000,2.575072021484375,1.1340702772140503,-0.143023282289505,-0.8463550806045532,0.5895277857780457,0.6188488602638245,-0.5191175937652588,0.03950059413909912,-0.29511845111846924,0.5111067295074463,0.7911297227784448,-0.4641697820156867,0.15807468244427028,0.3656125559593897
1681568954179072300,2.585072265625,1.0803120136260986,-0.09968085587024689,-0.7773289084434509,0.5838679075241089,0.6178150773048401,-0.5266904234886169,0.04856312274932861,-0.30252277851104736,0.5209988951683044,0.7952690810686072,-0.46018959100185114,0.15773498762987154,0.3617904609775076
1681568954189072100,2.595072021484375,0.9936615228652954,-0.05835079774260521,-0.7027105093002319,0.5788529515266418,0.6166514754295349,-0.5335449576377869,0.054081618785858154,-0.30909544229507446,0.5202698111534119,0.7990448762940529,-0.45650522450709624,0.15757698270610956,0.35818950762734136
1681568954199072000,2.605072021484375,0.8966751098632812,-0.01515166088938713,-0.6146738529205322,0.5745686292648315,0.6154203414916992,-0.5395634174346924,0.06244009733200073,-0.3311339020729065,0.5121586322784424,0.8024006301313045,-0.45318863155620104,0.15760185713308092,0.35487317907808125
1681568954209072000,2.615072021484375,0.8123446106910706,0.030769890174269676,-0.5163676142692566,0.5711196660995483,0.614047646522522,-0.5447641015052795,0.07895058393478394,-0.3513065576553345,0.5083260536193848,0.8053241955244008,-0.45022119620125906,0.15785697873757884,0.35190212925881464
1681568954219072000,2.625072021484375,0.7326561808586121,0.08382165431976318,-0.4049913287162781,0.5685971975326538,0.6124519109725952,-0.5491811037063599,0.09842556715011597,-0.35067218542099,0.5032521486282349,0.8078240442987821,-0.4475685258524137,0.15840410359542925,0.34930059682087883
1681568954229072100,2.635072021484375,0.6606537103652954,0.14864645898342133,-0.28308379650115967,0.5671274662017822,0.6105673909187317,-0.5527874231338501,0.11329251527786255,-0.34213483333587646,0.4966045618057251,0.8098879106969825,-0.4452241929528641,0.15931636008380765,0.3470955371321239
1681568954239072000,2.645072021484375,0.6026284694671631,0.21903645992279053,-0.15663877129554749,0.5667967200279236,0.608331561088562,-0.5555845499038696,0.1272646188735962,-0.33631324768066406,0.49334394931793213,0.8115218151916697,-0.44316660841525846,0.1606583152884276,0.34528916570829404
1681568954249072000,2.655072021484375,0.5644853115081787,0.2979404628276825,-0.019820865243673325,0.5676904916763306,0.6056045889854431,-0.5576474070549011,0.1398443579673767,-0.3305344581604004,0.48284876346588135,0.8127525528359792,-0.4413238725622671,0.16251013414518592,0.34388513986182384
1681568954259072000,2.665072021484375,0.549290657043457,0.37853145599365234,0.1192571297287941,0.5698816180229187,0.602220892906189,-0.5590749979019165,0.15115725994110107,-0.324129581451416,0.4615103602409363,0.8136135463837444,-0.43960634249062047,0.16495080633665088,0.34288537321310497
1681568954269073200,2.6750732421875,0.5573381781578064,0.46345120668411255,0.2605910301208496,0.5733743906021118,0.5980467200279236,-0.5599837303161621,0.15833032131195068,-0.31408077478408813,0.4316573739051819,0.8141517408397894,-0.43792102870588484,0.16802765737205153,0.3422698892210473
1681568954279073300,2.6850732421875,0.5888681411743164,0.5588871836662292,0.4010586440563202,0.5781977772712708,0.592944860458374,-0.5604494214057922,0.16002243757247925,-0.30099862813949585,0.3913363218307495,0.8144032841596857,-0.43618630233796357,0.17180454684192636,0.3420114004276782
1681568954289073200,2.6950732421875,0.6369718313217163,0.6647205352783203,0.5435909032821655,0.5844078063964844,0.5867860317230225,-0.5604905486106873,0.16835403442382812,-0.29380208253860474,0.35822010040283203,0.8143926039346556,-0.43433837862770636,0.17636580195075727,0.3420671698507913
1681568954299073300,2.7050732421875,0.6920071244239807,0.7614800930023193,0.6767534613609314,0.5919806957244873,0.5794511437416077,-0.5601742267608643,0.1872856616973877,-0.28311026096343994,0.33027005195617676,0.814149494975002,-0.43229958438194005,0.18174146376658568,0.3424144739640731
1681568954309073200,2.7150732421875,0.7444303035736084,0.8531481027603149,0.7803196907043457,0.6006751656532288,0.5710791349411011,-0.5595157742500305,0.21533435583114624,-0.2623634338378906,0.3061894178390503,0.8137128077587286,-0.4300750113966121,0.18782331065055222,0.34297122892585796
1681568954319073300,2.7250732421875,0.7630000114440918,0.9601531624794006,0.8997893333435059,0.610480010509491,0.5617806911468506,-0.5583158135414124,0.25580722093582153,-0.24676311016082764,0.27050459384918213,0.8130285144132354,-0.4277548281104629,0.19459677043783447,0.3437185581806434
1681568954329073200,2.7350732421875,0.7918254733085632,1.0898538827896118,1.0378329753875732,0.6215800642967224,0.5514881014823914,-0.5563264489173889,0.2791004776954651,-0.25044751167297363,0.23563247919082642,0.8119984660126783,-0.42540523217912307,0.20215627902073943,0.3447053325274733
1681568954339073300,2.7450732421875,0.8595877289772034,1.2506784200668335,1.1956045627593994,0.6341639757156372,0.5399107933044434,-0.5534729361534119,0.2671268582344055,-0.2511535882949829,0.20838022232055664,0.8106110769215569,-0.42293263578870244,0.2106929419952098,0.3458989823173292
1681568954349073200,2.7550732421875,0.9765925407409668,1.42091965675354,1.3746834993362427,0.6483701467514038,0.5266379714012146,-0.5497894883155823,0.2340456247329712,-0.23969656229019165,0.17591875791549683,0.8088784063093265,-0.4201594195469116,0.2203889841775849,0.34729004712516415
1681568954359073300,2.7650732421875,1.1128730773925781,1.6092150211334229,1.5830351114273071,0.6643233299255371,0.5112304091453552,-0.5452687740325928,0.2151322364807129,-0.216461181640625,0.14565634727478027,0.8067823219577117,-0.41691082128821383,0.23141086462152569,0.348907902688578
1681568954369073200,2.7750732421875,1.259568452835083,1.7856560945510864,1.8014017343521118,0.68204665184021,0.4934138059616089,-0.5397732853889465,0.21077561378479004,-0.18836015462875366,0.11000949144363403,0.8042591992775296,-0.4131049002185006,0.24383951552588856,0.3507902183128733
1681568954379073000,2.785072998046875,1.3787994384765625,1.9303678274154663,2.026226282119751,0.7012776732444763,0.4730859100818634,-0.5332909822463989,0.23050028085708618,-0.15565741062164307,0.06977486610412598,0.8012761943894953,-0.40867421028597006,0.2575653006384365,0.3529899654623021
1681568954389073200,2.7950732421875,1.4748023748397827,2.049191951751709,2.2354485988616943,0.7216742038726807,0.4503501057624817,-0.5257101058959961,0.28006529808044434,-0.11929547786712646,0.028487205505371094,0.7977575419166425,-0.40367035554880143,0.2723879179979218,0.355581204556174
1681568954399073000,2.805072998046875,1.5252631902694702,2.133701801300049,2.4181466102600098,0.7427862286567688,0.4254690408706665,-0.5169572234153748,0.343609094619751,-0.08550328016281128,-0.02242565155029297,0.7936795414486777,-0.39816886249952227,0.28806758763272994,0.35854072093099093
1681568954409074200,2.81507421875,1.5321160554885864,2.153790235519409,2.569206476211548,0.7640721797943115,0.39880818128585815,-0.5070953965187073,0.418102502822876,-0.06694483757019043,-0.07537835836410522,0.7890323846182519,-0.3922741076831773,0.3042586636606551,0.36190549493509594
1681568954419074000,2.825073974609375,1.4384100437164307,2.119868278503418,2.6765267848968506,0.7849107384681702,0.3709926903247833,-0.49626556038856506,0.5108351111412048,-0.046743541955947876,-0.11922815442085266,0.7838185383214777,-0.3862011067963604,0.3204932537265593,0.3657338634236507
1681568954429074200,2.83507421875,1.2686923742294312,2.048091173171997,2.740238666534424,0.8048192858695984,0.3427823781967163,-0.48452669382095337,0.6065118908882141,-0.023843228816986084,-0.15336698293685913,0.7780083025655923,-0.380284786190422,0.3363333721242388,0.3700897411211028
1681568954439074000,2.845073974609375,1.0070624351501465,1.9652551412582397,2.7610528469085693,0.8234754204750061,0.3148976266384125,-0.4719402492046356,0.6773485541343689,-0.009752422571182251,-0.1421191692352295,0.771581430417477,-0.3748659867407446,0.35143330649932886,0.3750094819170366
1681568954449074000,2.855073974609375,0.7177216410636902,1.8753868341445923,2.7376909255981445,0.8407161831855774,0.28798723220825195,-0.458540678024292,0.7157107591629028,-0.007729142904281616,-0.08580133318901062,0.7645453412128912,-0.3702523815070106,0.36557193687435446,0.3804479987114378
1681568954459074000,2.865073974609375,0.414777547121048,1.7500637769699097,2.6692702770233154,0.85635906457901,0.26246052980422974,-0.4447062313556671,0.7282204627990723,-0.0027254819869995117,-0.017223060131072998,0.7570253302240912,-0.36654022908045447,0.37854344808805396,0.38634924550671934
1681568954469074200,2.87507421875,0.1150110587477684,1.5871350765228271,2.5430986881256104,0.87021803855896,0.23878462612628937,-0.4309321939945221,0.7180541753768921,0.015884533524513245,0.04164999723434448,0.7492128780937927,-0.36379137696849756,0.39011502187802194,0.39261465216201824
1681568954479074300,2.88507421875,-0.15296126902103424,1.4038946628570557,2.3662991523742676,0.8821824789047241,0.2173217535018921,-0.41776242852211,0.6912885904312134,0.047936975955963135,0.08643311262130737,0.7413494403000004,-0.36197319372468284,0.40011772375236915,0.3991019034078222
1681568954489074200,2.89507421875,-0.42335835099220276,1.194568157196045,2.153315782546997,0.8922722339630127,0.19846203923225403,-0.4055406153202057,0.6558845639228821,0.0832456648349762,0.10723137855529785,0.7336294430286161,-0.36110994424548926,0.40844741791564554,0.4056577740764337
1681568954499074300,2.90507421875,-0.729340672492981,0.9786486029624939,1.9020494222640991,0.9005049467086792,0.18255029618740082,-0.3946723937988281,0.6141129732131958,0.1109982281923294,0.1035500168800354,0.7261958541823758,-0.3612522403925636,0.41492242030673293,0.4122812518967281
1681568954509074200,2.91507421875,-1.0731730461120605,0.768265962600708,1.6110447645187378,0.9070223569869995,0.1701558381319046,-0.3851718008518219,0.5586758255958557,0.11623629927635193,0.09824559092521667,0.7190821798245638,-0.3626550997692865,0.41939882775417553,0.4189351217780259
1681568954519074300,2.92507421875,-1.4207528829574585,0.5766328573226929,1.3153135776519775,0.9120079278945923,0.16159185767173767,-0.37700092792510986,0.4926246404647827,0.08816394209861755,0.09720057249069214,0.7123085157770706,-0.36545669618973703,0.4218304627940687,0.4255785272066441
1681568954529074200,2.93507421875,-1.746871829032898,0.41597530245780945,1.0289299488067627,0.9157230854034424,0.156818225979805,-0.3699447512626648,0.40777844190597534,0.04896174371242523,0.1050369143486023,0.7058337825870975,-0.3696760603851552,0.4223354528004073,0.43217006069900665
1681568954539074300,2.94507421875,-2.044506311416626,0.27635854482650757,0.7891308069229126,0.9184094071388245,0.1554802507162094,-0.363799512386322,0.31683534383773804,0.016135290265083313,0.11941474676132202,0.699602641478724,-0.37518618768260714,0.4211122995543835,0.43869800632606
1681568954549075200,2.9550751953125,-2.33297061920166,0.14223670959472656,0.6034383773803711,0.9202507138252258,0.15701845288276672,-0.3584463894367218,0.24092787504196167,-0.006902560591697693,0.1374076008796692,0.6934863973306995,-0.381822767029544,0.41831588822771826,0.44530861581305065
1681568954559075000,2.965074951171875,-2.576486825942993,0.035222627222537994,0.48775920271873474,0.9214169383049011,0.16078530251979828,-0.3537499010562897,0.19792205095291138,-0.017383262515068054,0.16624993085861206,0.687355851436484,-0.3893719625866048,0.4141431279111967,0.4521249556250608
1681568954569075200,2.9750751953125,-2.779747486114502,-0.05392022803425789,0.4410630166530609,0.9221352338790894,0.1659753918647766,-0.34945493936538696,0.16955476999282837,-0.018880724906921387,0.19770628213882446,0.6810459889774533,-0.39758329263211606,0.4089010335570171,0.4592426881064443
1681568954579075000,2.985074951171875,-2.883896827697754,-0.11600730568170547,0.42976054549217224,0.92256760597229,0.17185096442699432,-0.34545084834098816,0.13065505027770996,-0.021963953971862793,0.21071571111679077,0.6745129874214149,-0.40612955459035555,0.4029061385753081,0.4666451012982849
1681568954589075200,2.9950751953125,-2.898146152496338,-0.17877107858657837,0.44723379611968994,0.922827422618866,0.17776840925216675,-0.34174248576164246,0.07567715644836426,-0.011844411492347717,0.21678829193115234,0.6678373760429868,-0.41462802865136444,0.3965001262224165,0.47419881434062344
1681568954599075000,3.005074951171875,-2.884746551513672,-0.23023506999015808,0.4790889322757721,0.922968327999115,0.18332310020923615,-0.3384113609790802,0.026891350746154785,0.01086018979549408,0.2080860733985901,0.6610783097869131,-0.4228332776409241,0.38987989910171544,0.48185187068650737
1681568954609075000,3.015074951171875,-2.895341634750366,-0.26582127809524536,0.5076417326927185,0.9230494499206543,0.18849027156829834,-0.3353372812271118,-0.018523752689361572,0.0425277054309845,0.2049356997013092,0.6541947535934257,-0.4307710543839201,0.3831026739380574,0.4895894575272409
1681568954619075000,3.025074951171875,-2.91481614112854,-0.28070011734962463,0.540099561214447,0.9231351017951965,0.19335967302322388,-0.33231544494628906,-0.07477694749832153,0.05766257643699646,0.20098310708999634,0.6471093050373363,-0.43855432782885295,0.3761813027101615,0.49740044481635176
1681568954629075200,3.0350751953125,-2.907226085662842,-0.2837476432323456,0.5714341402053833,0.9232885837554932,0.19789031147956848,-0.3292073607444763,-0.13384467363357544,0.060624003410339355,0.1959066092967987,0.6397977917528304,-0.44619641102503826,0.3691951816026893,0.5052349791731511
1681568954639075300,3.045075439453125,-2.8656163215637207,-0.27352777123451233,0.6106933951377869,0.9235652685165405,0.20189329981803894,-0.3259851038455963,-0.18406331539154053,0.0706591010093689,0.19268429279327393,0.6322990660475362,-0.4535987787642994,0.36229213938601984,0.5130208817522982
1681568954649075200,3.0550751953125,-2.78831148147583,-0.252032071352005,0.6474905610084534,0.9239990711212158,0.20525068044662476,-0.3226420283317566,-0.22064518928527832,0.08753488957881927,0.1822153925895691,0.6246751932165563,-0.46068227688546726,0.3555992490436563,0.5206744713266811
1681568954659075300,3.065075439453125,-2.6837656497955322,-0.2210823893547058,0.6967843174934387,0.9246299862861633,0.20781955122947693,-0.3191715478897095,-0.25363999605178833,0.1028645783662796,0.1774020791053772,0.6169786161830785,-0.4673741588682521,0.3492500883556631,0.52813183246009
1681568954669075200,3.0750751953125,-2.598262071609497,-0.18244537711143494,0.75455641746521,0.9255141615867615,0.2094658762216568,-0.3155116140842438,-0.2874526381492615,0.10344603657722473,0.1746424436569214,0.6091815032323151,-0.473673878334929,0.34333257103389236,0.5354005018533801
1681568954679075300,3.085075439453125,-2.5602951049804688,-0.1424207240343094,0.7928355932235718,0.9266389608383179,0.21037597954273224,-0.31158000230789185,-0.30920737981796265,0.0801512748003006,0.17220625281333923,0.6012253507189423,-0.4797230216326901,0.33775112184580774,0.5425108654377454
1681568954689075200,3.0950751953125,-2.565903902053833,-0.09816012531518936,0.8283995389938354,0.9279817938804626,0.21077768504619598,-0.3072825074195862,-0.32200950384140015,0.04833172261714935,0.17906290292739868,0.5930297756325538,-0.48568621121530764,0.3323667464388522,0.5495060623521323
1681568954699076000,3.105076171875,-2.610139846801758,-0.05657460168004036,0.8565100431442261,0.9295326471328735,0.21083194017410278,-0.3025209903717041,-0.33376848697662354,0.023878678679466248,0.1960909366607666,0.5844972593166727,-0.49170658490861463,0.32705371489493423,0.5564382025108479
1681568954709076200,3.115076171875,-2.6720824241638184,-0.016586704179644585,0.8856548070907593,0.931276261806488,0.2106439173221588,-0.29724374413490295,-0.3389604687690735,0.005405232310295105,0.20469912886619568,0.5755711936040548,-0.49786754476614675,0.32172353351592364,0.5633291920569704
1681568954719076000,3.125076171875,-2.7270755767822266,0.02038942277431488,0.9145793914794922,0.9332289099693298,0.2101653516292572,-0.29140061140060425,-0.34163039922714233,-0.0009369105100631714,0.21167343854904175,0.5662116098564896,-0.5041859966216318,0.31637979563283597,0.5701795591661997
1681568954729076200,3.135076171875,-2.773730516433716,0.05625846982002258,0.9357462525367737,0.9353034496307373,0.20944882929325104,-0.2851995825767517,-0.3498389720916748,0.009743601083755493,0.21564996242523193,0.556499155594658,-0.5105911460869881,0.3109612467205237,0.5769822797025741
1681568954739076000,3.145076171875,-2.808107376098633,0.09830845147371292,0.9489856362342834,0.9374996423721313,0.20848870277404785,-0.2786163091659546,-0.3623194694519043,0.028342902660369873,0.2113707959651947,0.5464683732982164,-0.5170673490420657,0.3055048292082914,0.583678499597786
1681568954749076200,3.155076171875,-2.807901620864868,0.14183582365512848,0.9550710916519165,0.9398192763328552,0.2072661817073822,-0.27162569761276245,-0.3746947646141052,0.050302088260650635,0.20496004819869995,0.536170745462326,-0.5235892954649258,0.3000690053521044,0.5901981386263673
1681568954759076000,3.165076171875,-2.780501365661621,0.1885918825864792,0.9569730758666992,0.9422439932823181,0.2057509422302246,-0.2642781734466553,-0.38851767778396606,0.07720798254013062,0.19453021883964539,0.5257142884031751,-0.530086095234842,0.29473656159139167,0.596459290383709
1681568954769076200,3.175076171875,-2.7238283157348633,0.23167330026626587,0.9529151916503906,0.9447529315948486,0.2039027214050293,-0.2566426396369934,-0.3978627324104309,0.10403481125831604,0.1774342656135559,0.5151960734355093,-0.5364896753299302,0.28958162156690836,0.6024070484685998
1681568954779076000,3.185076171875,-2.634995460510254,0.2712249755859375,0.9364009499549866,0.9473116993904114,0.2017413228750229,-0.248799130320549,-0.3891451954841614,0.12681084871292114,0.15657496452331543,0.5047351091636036,-0.5427408650790027,0.2846625806196923,0.6079819440055242
1681568954789076000,3.195075927734375,-2.5171048641204834,0.30998867750167847,0.9237724542617798,0.9498902559280396,0.19922693073749542,-0.24086777865886688,-0.37052929401397705,0.1479104459285736,0.1418076753616333,0.494448521541897,-0.5487562040789219,0.28005846096498016,0.613151377942426
1681568954799076000,3.205076171875,-2.3793251514434814,0.3398996889591217,0.9091349244117737,0.9524746537208557,0.19631442427635193,-0.2329222410917282,-0.3535824418067932,0.1628316044807434,0.12081587314605713,0.4844227611464142,-0.5544791032543736,0.27584742140822316,0.617896235395744
1681568954809076000,3.215075927734375,-2.2349977493286133,0.37865278124809265,0.9043448567390442,0.9550648927688599,0.19293314218521118,-0.22500687837600708,-0.3404407501220703,0.17710770666599274,0.10034254193305969,0.4746889949308661,-0.5598792995863778,0.2720877325775214,0.6222330299312597
1681568954819076000,3.225076171875,-2.0942955017089844,0.41749364137649536,0.9029320478439331,0.9576709866523743,0.18907631933689117,-0.21706299483776093,-0.32745254039764404,0.18876172602176666,0.08391477167606354,0.46524209741799166,-0.5649874619322561,0.26880787103975967,0.6261639258719428
1681568954829076200,3.235076171875,-1.96467125415802,0.46643367409706116,0.9055926203727722,0.9603033065795898,0.1847292184829712,-0.20902739465236664,-0.3170233964920044,0.19931913912296295,0.07764920592308044,0.45605535951619924,-0.5698412630975034,0.26602111800397005,0.6297039543042753
1681568954839076400,3.245076416015625,-1.8432785272598267,0.5247297883033752,0.910541832447052,0.9629738330841064,0.17989639937877655,-0.20079536736011505,-0.31175923347473145,0.2081192582845688,0.07590210437774658,0.4470885917706507,-0.574498778641538,0.26372992467547646,0.6328582074539307
1681568954849077200,3.2550771484375,-1.743396520614624,0.5829775929450989,0.9222778677940369,0.9656862616539001,0.17458516359329224,-0.19227556884288788,-0.3093752861022949,0.2174893319606781,0.07365371286869049,0.43828576558638427,-0.5790196383344106,0.2619130982330952,0.6356439729628831
1681568954859077000,3.2650771484375,-1.643027663230896,0.6309592723846436,0.9434388279914856,0.96843022108078,0.16874869167804718,-0.18348459899425507,-0.2975624203681946,0.23292358219623566,0.05706550180912018,0.42960620364942254,-0.5834109168122106,0.2605559481046946,0.6381071003022156
1681568954869077200,3.2750771484375,-1.5556628704071045,0.6806606650352478,0.969380795955658,0.9711878895759583,0.1623370349407196,-0.17447318136692047,-0.27157241106033325,0.25392264127731323,0.03625905513763428,0.4210161423403599,-0.5876647578709043,0.2596411731286894,0.6402984179357537
1681568954879077000,3.2850771484375,-1.4770290851593018,0.7259413003921509,0.9951255917549133,0.9739452600479126,0.15535522997379303,-0.1652131974697113,-0.24127930402755737,0.275400310754776,0.008963167667388916,0.4124856111068166,-0.5918065641064645,0.25914935832335545,0.6422322512494684
1681568954889077200,3.2950771484375,-1.4125285148620605,0.7581934332847595,1.0154237747192383,0.9766651391983032,0.14785391092300415,-0.1557704210281372,-0.2207905650138855,0.2946203947067261,-0.02815908193588257,0.4039998143309319,-0.5958404539696036,0.25901533051106757,0.6439482784838951
1681568954899077000,3.3050771484375,-1.3569536209106445,0.7833816409111023,1.0324461460113525,0.9793075323104858,0.13991190493106842,-0.14622433483600616,-0.20381009578704834,0.3090931475162506,-0.07153385877609253,0.3955542976918778,-0.599768786233967,0.25916256015053724,0.6454835536600342
1681568954909077200,3.3150771484375,-1.3080772161483765,0.7985779643058777,1.0393675565719604,0.9818353056907654,0.1316196173429489,-0.13665853440761566,-0.17578983306884766,0.3251216411590576,-0.10871808230876923,0.3871644915342572,-0.6035869961723914,0.2595254721680583,0.646863834018514
1681568954919077000,3.3250771484375,-1.2595791816711426,0.8117110729217529,1.019835114479065,0.9842091798782349,0.12318122386932373,-0.12711599469184875,-0.14537262916564941,0.3433256447315216,-0.13950084149837494,0.3788946236649932,-0.6073117766326074,0.2600277017180895,0.6480715505177116
1681568954929077200,3.3350771484375,-1.2053358554840088,0.8181577324867249,0.9933128356933594,0.9864072799682617,0.11476072669029236,-0.11760223656892776,-0.12614744901657104,0.365021288394928,-0.1629306524991989,0.37080933199937066,-0.6109590367414256,0.26062988752784094,0.6490773271429744
1681568954939077000,3.3450771484375,-1.1397411823272705,0.8243181705474854,0.9504255056381226,0.9884108304977417,0.10648149251937866,-0.10819303244352341,-0.11135095357894897,0.38604164123535156,-0.18384498357772827,0.36297484781958134,-0.6145137616220401,0.2612973824384768,0.6498813392517153
1681568954949077200,3.3550771484375,-1.0304577350616455,0.8365541696548462,0.8839449286460876,0.9902113676071167,0.09852053970098495,-0.09886837005615234,-0.09026336669921875,0.4101310968399048,-0.19800668954849243,0.3555547523615502,-0.6179621367711918,0.26208512401182515,0.6503959584780709
1681568954959077000,3.3650771484375,-0.9431313276290894,0.8481985926628113,0.8255170583724976,0.9918151497840881,0.09098479151725769,-0.08957929909229279,-0.07058101892471313,0.42489954829216003,-0.2094929814338684,0.3486119434441154,-0.621319916462559,0.2630055324521404,0.6505838314579926
1681568954969077000,3.375076904296875,-0.8223943114280701,0.8642181158065796,0.7719724774360657,0.993242084980011,0.08380044996738434,-0.08029653131961823,-0.05020326375961304,0.4357002079486847,-0.22831255197525024,0.3421269657453081,-0.6245822639815934,0.2640998459250087,0.6504593305042646
1681568954979077000,3.3850771484375,-0.6928922533988953,0.8895685076713562,0.6819999814033508,0.994491696357727,0.07713577151298523,-0.07096629589796066,-0.025619685649871826,0.4514285922050476,-0.24142694473266602,0.3362250550581251,-0.6277560249368603,0.2654038906033991,0.6499506049041233
1681568954989077000,3.395076904296875,-0.5760377049446106,0.9103252291679382,0.5931795239448547,0.9955617189407349,0.07120703905820847,-0.06153351068496704,-0.007539927959442139,0.44920915365219116,-0.26160192489624023,0.33096258381302757,-0.6308883061883862,0.2668579962711441,0.6490227322868369
1681568954999078400,3.405078369140625,-0.4971913695335388,0.9113300442695618,0.4903889298439026,0.9964532852172852,0.06609026342630386,-0.052084483206272125,0.013541162014007568,0.43725132942199707,-0.28667598962783813,0.32628617684631606,-0.6339952934086843,0.26834255415347696,0.6477495540538533
1681568955009078300,3.415078369140625,-0.43084821105003357,0.8962339162826538,0.36644649505615234,0.9971570372581482,0.06203509494662285,-0.042773764580488205,0.05429565906524658,0.42592567205429077,-0.31063514947891235,0.3222051636861047,-0.6370969702468354,0.26966751286949986,0.6461971758622175
1681568955019078100,3.425078125,-0.3820686936378479,0.8498355150222778,0.23858918249607086,0.9976747035980225,0.05917543172836304,-0.033814724534749985,0.10681742429733276,0.4165630340576172,-0.3429858684539795,0.31875882384163345,-0.6401553849316012,0.27072813181735245,0.644437874649946
1681568955029078300,3.435078369140625,-0.35649019479751587,0.7935124039649963,0.11468874663114548,0.998019814491272,0.05754338204860687,-0.02539907582104206,0.15357619524002075,0.40960437059402466,-0.37760090827941895,0.3158969035211934,-0.643149680558762,0.2714018246804731,0.6425796956399038
1681568955039078100,3.445078125,-0.37444016337394714,0.7486655712127686,0.003983001224696636,0.9982194304466248,0.05701922997832298,-0.017510974779725075,0.1916608214378357,0.40896886587142944,-0.40210580825805664,0.3134944669036805,-0.6461050965249729,0.27164814971046275,0.6406844927420347
1681568955049078300,3.455078369140625,-0.43758416175842285,0.7083872556686401,-0.10680676251649857,0.9982903599739075,0.057583823800086975,-0.01000616978853941,0.1993260383605957,0.40170565247535706,-0.4141424298286438,0.31135945600231524,-0.6491363479054111,0.2713280617255435,0.638794332915669
1681568955059078100,3.465078125,-0.5266649723052979,0.6800331473350525,-0.19579468667507172,0.9982460737228394,0.05913557484745979,-0.002786196069791913,0.18148720264434814,0.37967661023139954,-0.41089487075805664,0.30933633539368854,-0.6523072409269329,0.2703741212130573,0.6369490684134836
1681568955069078300,3.475078369140625,-0.5921865701675415,0.641859233379364,-0.28010010719299316,0.998097836971283,0.061509229242801666,0.004146425519138575,0.16858911514282227,0.34641915559768677,-0.4041861295700073,0.3073705219226757,-0.6555935773515541,0.2688313117882995,0.6351772194647805
1681568955079078100,3.485078125,-0.6491561532020569,0.5995280146598816,-0.34553346037864685,0.9978540539741516,0.06458928436040878,0.010747263208031654,0.1753026247024536,0.32440295815467834,-0.4008840322494507,0.30549059592706773,-0.6589376876964109,0.2667859731719458,0.6334839276896133
1681568955089078300,3.495078369140625,-0.7060301303863525,0.5419753193855286,-0.4017634987831116,0.9975263476371765,0.0682290568947792,0.01690618507564068,0.1960160732269287,0.31815391778945923,-0.4115900993347168,0.30368173703870693,-0.6622744727920673,0.264283210446609,0.6319210815267905
1681568955099078100,3.505078125,-0.7726725339889526,0.4819234311580658,-0.43904775381088257,0.997128427028656,0.07229559868574142,0.02253904938697815,0.22934240102767944,0.3119816780090332,-0.4281787872314453,0.3018849984185475,-0.6655676843745783,0.26132198967165543,0.6305519836293871
1681568955109078300,3.515078369140625,-0.8195819854736328,0.42585840821266174,-0.47010886669158936,0.9966760873794556,0.07662498950958252,0.027667628601193428,0.2606787085533142,0.3011520504951477,-0.4388158321380615,0.30006085842721125,-0.6687923269656759,0.2579741027473135,0.6293883822870727
1681568955119078100,3.525078125,-0.8650575876235962,0.3469417691230774,-0.5042710900306702,0.9961755871772766,0.08121933043003082,0.03220811113715172,0.29171180725097656,0.2853882610797882,-0.44768965244293213,0.2982795777505272,-0.6718939700429906,0.25428831925243756,0.6284306861170629
1681568955129078300,3.535078369140625,-0.981706440448761,0.21391580998897552,-0.5649264454841614,0.9956327080726624,0.08621994405984879,0.03579914569854736,0.33865678310394287,0.28948190808296204,-0.4531424045562744,0.29649903115676657,-0.6748248457298235,0.2500220012906038,0.627844514735338
1681568955139078100,3.545078125,-1.1907414197921753,0.06809043139219284,-0.6558228135108948,0.9950392842292786,0.09188058227300644,0.03814273327589035,0.40800637006759644,0.3073808252811432,-0.4445148706436157,0.29458814870214456,-0.677609227245153,0.24477970101326368,0.6278108641040259
1681568955149079000,3.5550791015625,-1.4612457752227783,-0.05053987726569176,-0.756767749786377,0.9943656921386719,0.0983806923031807,0.03946948051452637,0.4858587980270386,0.28752925992012024,-0.3976086378097534,0.2922970394345792,-0.6804253201868542,0.2382354364685099,0.6283530447680081
1681568955159079200,3.5650791015625,-1.7230443954467773,-0.17089664936065674,-0.8729729056358337,0.9935780167579651,0.10584099590778351,0.04000353440642357,0.5343455076217651,0.23818358778953552,-0.34125781059265137,0.28955056384628775,-0.6833521841620029,0.23028582206560452,0.6294113596536065
1681568955169079000,3.5750791015625,-1.9588247537612915,-0.29001572728157043,-1.0133618116378784,0.9926333427429199,0.11445504426956177,0.0397399477660656,0.5445523262023926,0.21585190296173096,-0.29210519790649414,0.2864641865984233,-0.6863410986700467,0.22092050778896344,0.6309265918321069
1681568955179079200,3.5850791015625,-2.1644864082336426,-0.37449997663497925,-1.1794037818908691,0.9914575219154358,0.12450451403856277,0.03886549547314644,0.5422643423080444,0.23195599019527435,-0.2360548973083496,0.2831867905188539,-0.6893964872915869,0.21015525382081474,0.6327499281083299
1681568955189079300,3.595079345703125,-2.3041749000549316,-0.4008862376213074,-1.3819184303283691,0.989936888217926,0.136333167552948,0.03792118653655052,0.5082624554634094,0.24586890637874603,-0.18480241298675537,0.27989666465980384,-0.6926227652575112,0.19807649426207644,0.6345842241416044
1681568955199079200,3.6050791015625,-2.3159048557281494,-0.41852888464927673,-1.5774495601654053,0.9879609942436218,0.15017937123775482,0.03713953122496605,0.42480456829071045,0.2454657256603241,-0.1598813533782959,0.27698069343671283,-0.6959550779831563,0.1849764723234489,0.6361697563423205
1681568955209079300,3.615079345703125,-2.209770679473877,-0.4461216926574707,-1.7585235834121704,0.9854827523231506,0.16582074761390686,0.036431651562452316,0.30647891759872437,0.24157358705997467,-0.17546987533569336,0.2747666241951841,-0.6991880126713448,0.1713241021471495,0.6374068378698299
1681568955219079200,3.6250791015625,-2.013150691986084,-0.46866774559020996,-1.937063217163086,0.9824167490005493,0.18327192962169647,0.035617806017398834,0.2255299687385559,0.25692880153656006,-0.21208572387695312,0.2736360513116949,-0.70214888700309,0.15746696213302097,0.6382118561662448
1681568955229079300,3.635079345703125,-1.7817838191986084,-0.4741310179233551,-2.1144704818725586,0.9786719083786011,0.2024873048067093,0.03464333713054657,0.19042599201202393,0.26577433943748474,-0.23792099952697754,0.27378241226596756,-0.7047649943345254,0.14362441019810737,0.6385307629371854
1681568955239079200,3.6450791015625,-1.5212478637695312,-0.45453229546546936,-2.2770609855651855,0.9741493463516235,0.2233898937702179,0.03361951559782028,0.15832757949829102,0.2528063654899597,-0.24240553379058838,0.27527512183209313,-0.7070539853151087,0.12994005956025637,0.6382898823278421
1681568955249079300,3.655079345703125,-1.199907660484314,-0.4318331778049469,-2.419271945953369,0.968781590461731,0.24577762186527252,0.03249065577983856,0.12695205211639404,0.2225450873374939,-0.22874927520751953,0.27821768895360544,-0.7089697679878646,0.11664988357453507,0.6374555762667187
1681568955259079200,3.6650791015625,-0.8126835823059082,-0.4159362316131592,-2.5391597747802734,0.962523877620697,0.2694206237792969,0.030991068109869957,0.10209709405899048,0.18507760763168335,-0.20414793491363525,0.2827720733844478,-0.7104025434297669,0.1040373038739821,0.6360381097188089
1681568955269079300,3.675079345703125,-0.3749222755432129,-0.41226911544799805,-2.616971254348755,0.9553699493408203,0.29401612281799316,0.028688808903098106,0.08927738666534424,0.16536495089530945,-0.18223810195922852,0.2890607971256061,-0.7112046843172156,0.09237045616286985,0.6341132269715085
1681568955279079200,3.6850791015625,0.07304272055625916,-0.4274906814098358,-2.6526002883911133,0.9473978281021118,0.31906795501708984,0.0251651331782341,0.09572362899780273,0.17304319143295288,-0.17956888675689697,0.29706112806422375,-0.7112478465429075,0.08190889644789352,0.6318008055138152
1681568955289079300,3.695079345703125,0.5111970901489258,-0.45662572979927063,-2.6667563915252686,0.9386674165725708,0.3442419171333313,0.020027320832014084,0.13140106201171875,0.1728784143924713,-0.16643548011779785,0.3066654233895911,-0.7104421554771261,0.07270215753790452,0.6292397667787606
1681568955299079200,3.7050791015625,0.8664116859436035,-0.5270428657531738,-2.6505329608917236,0.9292493462562561,0.36922577023506165,0.01296934112906456,0.15896183252334595,0.15085476636886597,-0.15794312953948975,0.3176614061068908,-0.7087325675883237,0.06467470940431011,0.6265833170543118
1681568955309080000,3.715080078125,1.093550682067871,-0.6196776628494263,-2.6138696670532227,0.9192504286766052,0.39365434646606445,0.003905409947037697,0.1825869083404541,0.11324265599250793,-0.16973793506622314,0.32957621600450837,-0.7061464777614493,0.05753135555847116,0.6240408373579396
1681568955319080200,3.725080078125,1.1952192783355713,-0.7123902440071106,-2.5852274894714355,0.9086915850639343,0.41741177439689636,-0.0068708183243870735,0.24398791790008545,0.07526394724845886,-0.15124082565307617,0.3419103678689395,-0.7028377807706382,0.05082956503594375,0.6217176216216564
1681568955329080000,3.735080078125,1.2269238233566284,-0.7803667783737183,-2.537584066390991,0.897601306438446,0.4404051899909973,-0.01884833164513111,0.30485230684280396,0.02167665958404541,-0.09856808185577393,0.35429687342508115,-0.6990082383434162,0.04430933678250851,0.6195949663008726
1681568955339080200,3.745080078125,1.2314234972000122,-0.8183687925338745,-2.4665563106536865,0.8860998749732971,0.4624188542366028,-0.031557969748973846,0.3098534941673279,-0.04753243923187256,-0.04079926013946533,0.366493979997545,-0.6948242514760296,0.037950955513222154,0.6176254452743222
1681568955349080000,3.755080078125,1.2296894788742065,-0.8276271224021912,-2.381237745285034,0.8743241429328918,0.4832858443260193,-0.04463022202253342,0.2805219292640686,-0.09766584634780884,0.009184006601572037,0.3783707520356466,-0.6904148928196626,0.03181454861452569,0.6157520381193053
1681568955359080200,3.765080078125,1.239194631576538,-0.8316482305526733,-2.3050615787506104,0.8623482584953308,0.5029911994934082,-0.05792583152651787,0.2466300129890442,-0.12190300226211548,0.0527682900428772,0.3899441010454388,-0.6858301335363193,0.025963671215851494,0.6139271444319118
1681568955369080000,3.775080078125,1.2196580171585083,-0.8637737035751343,-2.2345919609069824,0.8501689434051514,0.521635890007019,-0.07147388905286789,0.22612488269805908,-0.1295156478881836,0.06779647618532181,0.40120775839210016,-0.6810658747558581,0.02030592942779223,0.6121839232852012
1681568955379080000,3.785079833984375,1.2126195430755615,-0.9491154551506042,-2.1747426986694336,0.8377685546875,0.5392813682556152,-0.08555451780557632,0.268524169921875,-0.12283855676651001,0.01624906063079834,0.4121503130350355,-0.6760224758884205,0.014708913749886138,0.6106631011526714
1681568955389080300,3.795080322265625,1.1842423677444458,-1.0339131355285645,-2.1305434703826904,0.8250628709793091,0.5560479760169983,-0.10040871053934097,0.3977459669113159,-0.10356390476226807,-0.005090594291687012,0.42282007937425636,-0.6706068490920276,0.009060753664111307,0.6094485647128689
1681568955399080200,3.805080078125,1.0961761474609375,-1.0889838933944702,-2.1137094497680664,0.8119458556175232,0.5721795558929443,-0.11556039750576019,0.48355573415756226,-0.09596812725067139,0.01389099657535553,0.43312832087851494,-0.6649884801914214,0.0031812938830609863,0.6084241073730771
1681568955409080300,3.815080322265625,0.9682469367980957,-1.1323262453079224,-2.1103858947753906,0.7983205914497375,0.587924599647522,-0.13049514591693878,0.45634859800338745,-0.13234299421310425,0.03271675109863281,0.44296674274521913,-0.6593502290141127,-0.003114662856666525,0.6074768302075791
1681568955419080200,3.825080078125,0.8690646886825562,-1.1587586402893066,-2.0901763439178467,0.7842296957969666,0.6032849550247192,-0.14502105116844177,0.40072208642959595,-0.2041913866996765,0.07122945785522461,0.45231282824470725,-0.6537534183148087,-0.009795176311676786,0.6065671255246085
1681568955429080300,3.835080322265625,0.82293701171875,-1.1755553483963013,-2.059633493423462,0.7697807550430298,0.61812424659729,-0.15924859046936035,0.3777565360069275,-0.2517912983894348,0.1142197847366333,0.4612691769799131,-0.6481497945131848,-0.01665978092827664,0.6056856226938274
1681568955439080200,3.845080078125,0.796489953994751,-1.1676510572433472,-2.0199811458587646,0.7550779581069946,0.6323329210281372,-0.17324022948741913,0.3526490330696106,-0.27542996406555176,0.15299172699451447,0.46993099077240497,-0.6425156990560136,-0.023525767282638846,0.6048015153077181
1681568955449080300,3.855080322265625,0.7608206272125244,-1.1471290588378906,-1.9783521890640259,0.7402119636535645,0.6458811163902283,-0.18687890470027924,0.30672401189804077,-0.2912364602088928,0.18362869322299957,0.4783098627355109,-0.6369000582940557,-0.030312779031281704,0.6038700755255832
1681568955459081200,3.865081298828125,0.7174941897392273,-1.120660424232483,-1.9361978769302368,0.725229799747467,0.6588132381439209,-0.20001737773418427,0.25206512212753296,-0.3123319745063782,0.20583093166351318,0.48637582010562697,-0.6313634218512025,-0.0370342986101191,0.6028659386252263
1681568955469081000,3.8750810546875,0.6762228608131409,-1.089532494544983,-1.8814054727554321,0.7102512717247009,0.6710839867591858,-0.21257862448692322,0.20106476545333862,-0.3379388451576233,0.22205421328544617,0.4940872448861943,-0.625943270912868,-0.04365445101208651,0.6018033063703148
1681568955479081200,3.885081298828125,0.6430611610412598,-1.0589702129364014,-1.8097171783447266,0.6954207420349121,0.6826088428497314,-0.2245778888463974,0.16494613885879517,-0.3588784337043762,0.22764486074447632,0.501429106890157,-0.620645834838537,-0.05009791326650595,0.6007144333133791
1681568955489081000,3.8950810546875,0.6160772442817688,-1.0156925916671753,-1.7174922227859497,0.6808874011039734,0.6933073401451111,-0.2360452562570572,0.1354273557662964,-0.37485647201538086,0.2352059781551361,0.5083915837335031,-0.6154747423713193,-0.056286859307678766,0.5996338138407281
1681568955499081200,3.905081298828125,0.5863915681838989,-0.9681510925292969,-1.6258212327957153,0.6668274402618408,0.7031087279319763,-0.24694013595581055,0.11164551973342896,-0.3904104232788086,0.24263709783554077,0.5149452279402809,-0.610465486037164,-0.06214357085779675,0.5985829774599408
1681568955509081000,3.9150810546875,0.5748507380485535,-0.9256463050842285,-1.5269854068756104,0.6532670259475708,0.7120656967163086,-0.2573026716709137,0.0823897123336792,-0.40992653369903564,0.24459204077720642,0.521117088548113,-0.6056151123475755,-0.06766832536394686,0.5975686821274635
1681568955519081200,3.925081298828125,0.5714994668960571,-0.8738248944282532,-1.423530101776123,0.6403458118438721,0.7201005220413208,-0.2672313451766968,0.045765697956085205,-0.4282914400100708,0.2522318661212921,0.5269324526359673,-0.6009074091243368,-0.07276407759351028,0.5966221333983323
1681568955529081000,3.9350810546875,0.5615056157112122,-0.8255518078804016,-1.3350739479064941,0.6280705332756042,0.7272891402244568,-0.2767270505428314,0.017284691333770752,-0.43255043029785156,0.25336575508117676,0.5324158611795107,-0.5963546735097996,-0.07744398491662047,0.5957322066465056
1681568955539081200,3.945081298828125,0.5570663809776306,-0.7781049013137817,-1.2492485046386719,0.6163786053657532,0.7337556481361389,-0.28579744696617126,-0.0014188289642333984,-0.4336458444595337,0.24876433610916138,0.537600068151273,-0.5919592724779269,-0.08176485326352541,0.5948822997286198
1681568955549081000,3.9550810546875,0.5719148516654968,-0.7324116826057434,-1.1589341163635254,0.60530686378479,0.739476203918457,-0.29458218812942505,-0.024007976055145264,-0.4382982850074768,0.24764606356620789,0.542529511590191,-0.5876794826687736,-0.08568386270203297,0.5940984363550775
1681568955559081000,3.9650810546875,0.6036107540130615,-0.691860020160675,-1.06653892993927,0.5949195623397827,0.7444025874137878,-0.3032086491584778,-0.039530158042907715,-0.4436366558074951,0.247971773147583,0.5472408498416471,-0.5834805528468311,-0.0891410046597165,0.5934069025294647
1681568955569081000,3.9750810546875,0.6297277212142944,-0.6586838960647583,-0.978683590888977,0.5852071046829224,0.7485396265983582,-0.31180307269096375,-0.04812824726104736,-0.43222498893737793,0.24611389636993408,0.5517626393314728,-0.5793174956291032,-0.09213958921249264,0.5928402792258296
1681568955579081000,3.9850810546875,0.6468124389648438,-0.6154850125312805,-0.8857600688934326,0.5762010812759399,0.7519336342811584,-0.32029396295547485,-0.050703585147857666,-0.42719608545303345,0.2512783706188202,0.556067327009165,-0.5752252213693442,-0.09470460055294337,0.5923986783114563
1681568955589081300,3.995081298828125,0.6664313077926636,-0.5713157653808594,-0.7934343814849854,0.5679519772529602,0.7546119689941406,-0.32862046360969543,-0.05040431022644043,-0.4388923645019531,0.26598310470581055,0.5601484899934637,-0.5712395926774162,-0.09682507474876054,0.5920674950440549
1681568955599081200,4.005081298828125,0.696067750453949,-0.5267453789710999,-0.7003102898597717,0.5604751706123352,0.7565650939941406,-0.3368634581565857,-0.059544265270233154,-0.45437997579574585,0.28483089804649353,0.5640300662189559,-0.5673353520576311,-0.09848283013047818,0.5918630800568137
1681568955609081300,4.015081298828125,0.7313153147697449,-0.48578697443008423,-0.6151647567749023,0.553774893283844,0.75780189037323,-0.345064640045166,-0.0736265778541565,-0.46358203887939453,0.29716727137565613,0.5677384456366347,-0.5635023222026003,-0.09966349014240734,0.5917814873789452
1681568955619082200,4.025082275390625,0.7797361016273499,-0.45672762393951416,-0.5264987945556641,0.5478106141090393,0.758295476436615,-0.35339978337287903,-0.07886230945587158,-0.46560150384902954,0.29739996790885925,0.5713130198143166,-0.5596666657625502,-0.10036600563266662,0.5918625214207074
1681568955629081900,4.035081787109375,0.7878584265708923,-0.4273340106010437,-0.44755715131759644,0.5425512194633484,0.7581413388252258,-0.3617453873157501,-0.06807917356491089,-0.4526147246360779,0.2959494888782501,0.5747160405612166,-0.5558725378946296,-0.10066291216570805,0.5920929377154986
1681568955639082000,4.04508203125,0.7764555811882019,-0.4149162471294403,-0.3644750416278839,0.5379292964935303,0.7574712634086609,-0.3699583411216736,-0.04227805137634277,-0.4347480535507202,0.2846006453037262,0.5778821987375693,-0.5521635348513583,-0.10067896221798346,0.5924788806730585
1681568955649081900,4.055081787109375,0.7467905879020691,-0.41493433713912964,-0.2766200304031372,0.533946692943573,0.7563443183898926,-0.37794747948646545,-0.022700965404510498,-0.43355995416641235,0.2689996361732483,0.580720540889078,-0.5485657709739341,-0.10050799977176833,0.593074590567312
1681568955659082000,4.06508203125,0.7004140019416809,-0.41807395219802856,-0.17628809809684753,0.5306570529937744,0.75477534532547,-0.3856387734413147,-0.010210216045379639,-0.43504273891448975,0.2689852714538574,0.5831615377214967,-0.5451090602755884,-0.10018342501803076,0.5939208511359753
1681568955669081900,4.075081787109375,0.6083885431289673,-0.42042720317840576,-0.06403420120477676,0.5281221270561218,0.7528451085090637,-0.39282459020614624,0.0010983943939208984,-0.42830604314804077,0.27777329087257385,0.5850947480032725,-0.5418781792993994,-0.09977845097076692,0.5950431640456632
1681568955679082000,4.08508203125,0.4696333706378937,-0.43206652998924255,0.046625737100839615,0.5263715386390686,0.7507432699203491,-0.3991459906101227,0.014506757259368896,-0.4286455512046814,0.2899998426437378,0.5863719404243837,-0.5390173454577738,-0.09943490812413072,0.5964401963023428
1681568955689081900,4.095081787109375,0.29688334465026855,-0.4378413259983063,0.16055843234062195,0.5254048705101013,0.7486506700515747,-0.40431657433509827,0.03282272815704346,-0.436410129070282,0.3096815347671509,0.5868844182665884,-0.536642993300396,-0.0992774066714583,0.5981011509635329
1681568955699082000,4.10508203125,0.10409551113843918,-0.43635714054107666,0.28606468439102173,0.5252756476402283,0.7466618418693542,-0.40814417600631714,0.04842430353164673,-0.4482762813568115,0.32200825214385986,0.5865462357093781,-0.534840560373295,-0.09936540085645362,0.6000297144788855
1681568955709081900,4.115081787109375,-0.1148100197315216,-0.4254106879234314,0.42036810517311096,0.5261483788490295,0.7448282837867737,-0.4103643000125885,0.062444210052490234,-0.45678818225860596,0.3351689577102661,0.5852561810658583,-0.5337396126449164,-0.09969891604282644,0.6022104680616426
1681568955719082000,4.12508203125,-0.33602842688560486,-0.4157772362232208,0.5620110034942627,0.5280724763870239,0.7431696057319641,-0.4108995795249939,0.08186709880828857,-0.4490412473678589,0.3450273275375366,0.5829597836978954,-0.5333757496104351,-0.10030213491822972,0.6046550930946074
1681568955729081900,4.135081787109375,-0.5475907921791077,-0.4095032215118408,0.7298232913017273,0.5311641097068787,0.7415767312049866,-0.40979117155075073,0.11278736591339111,-0.43656885623931885,0.35617172718048096,0.5796114741842388,-0.5337388692855686,-0.10112977769442007,0.6074094586518625
