time,seconds_elapsed,rotationRateX,rotationRateY,rotationRateZ,gravityX,gravityY,gravityZ,accelerationX,accelerationY,accelerationZ,quaternionW,quaternionX,quaternionY,quaternionZ
1681569130657498000,0.122498046875,-0.06196995824575424,-0.18405085802078247,0.2669368088245392,0.058233439922332764,0.34989622235298157,-0.9349767565727234,0.034036461263895035,-0.04800105094909668,-0.02376347780227661,0.9836099366929063,-0.17786330581520562,0.029601896302123308,-2.4748449834198537e-17
1681569130667497200,0.132497314453125,-0.08528326451778412,-0.1727425456047058,0.2831234931945801,0.05777951329946518,0.35023340582847595,-0.9348786473274231,0.02948550507426262,-0.059721291065216064,-0.023876845836639404,0.9835837392383274,-0.17808552512103282,0.029089847957000786,0.0015579887227605517
1681569130677497000,0.1424970703125,-0.14688248932361603,-0.15947268903255463,0.28629225492477417,0.05744156986474991,0.35097917914390564,-0.9346197247505188,0.02855696901679039,-0.04755815863609314,-0.022701382637023926,0.9835141461409661,-0.17852266571301162,0.02863182657586105,0.0031423400546102737
1681569130687497200,0.152497314453125,-0.20633728802204132,-0.1486421525478363,0.3003515899181366,0.057032931596040726,0.352467805147171,-0.934084415435791,0.03085770457983017,-0.06972241401672363,0.0010857582092285156,0.9833716457401295,-0.1793498160524439,0.028132369534699504,0.004749887239389628
1681569130697499100,0.1624990234375,-0.3131398558616638,-0.1407455950975418,0.32397493720054626,0.05679870396852493,0.35463622212409973,-0.9332776069641113,0.040125127881765366,-0.06462764739990234,0.020481586456298828,0.9831567383785527,-0.18053789549823973,0.027699598234008273,0.006460165538024356
1681569130707499000,0.1724990234375,-0.40847623348236084,-0.15035322308540344,0.32117488980293274,0.05661517009139061,0.3578526973724365,-0.932060182094574,0.04575604200363159,-0.06032159924507141,0.025398194789886475,0.9828683124712586,-0.18204508260842375,0.028800995185613024,4.1835473425592127e-17
1681569130717499100,0.1824990234375,-0.39497843384742737,-0.1551234871149063,0.32336053252220154,0.056312788277864456,0.3614802658557892,-0.9306776523590088,0.042732011526823044,-0.09219318628311157,0.03184342384338379,0.9825150470992953,-0.18400751593285827,0.028326794990755733,0.0017656445820506302
1681569130727499000,0.1924990234375,-0.3278806209564209,-0.1592061072587967,0.330014169216156,0.056037869304418564,0.36467474699020386,-0.9294471740722656,0.04323580861091614,-0.10818979144096375,0.031818389892578125,0.9821969156663158,-0.18574351461774294,0.027852312988023695,0.003566634769157297
1681569130737499000,0.202498779296875,-0.24462202191352844,-0.17945517599582672,0.3448309302330017,0.05570150166749954,0.3671465516090393,-0.9284937977790833,0.05559609830379486,-0.05785095691680908,0.008327782154083252,0.9819457294561833,-0.1870995271310427,0.027328861760972885,0.005426476350268915
1681569130747499000,0.2124990234375,-0.1622440665960312,-0.20083743333816528,0.33911314606666565,0.055183857679367065,0.36885178089141846,-0.9278486371040344,0.05824996903538704,-0.029511600732803345,-0.009422481060028076,0.9817691902107564,-0.18804939738181412,0.0267040636656518,0.007310324875291846
1681569130757499000,0.222498779296875,-0.0884494036436081,-0.210231751203537,0.33154603838920593,0.054521363228559494,0.36981362104415894,-0.9275048971176147,0.05694407969713211,-0.024888724088668823,-0.022263169288635254,0.98166616171941,-0.18860315537177144,0.026007805963834812,0.00917110544188701
1681569130767498000,0.232498046875,-0.08363041281700134,-0.2051490992307663,0.31944435834884644,0.05380870774388313,0.3704031705856323,-0.9273112416267395,0.06353136897087097,-0.002284914255142212,-0.028667151927947998,0.9815983269168277,-0.1889563302879883,0.025295952839037787,0.010975496384955426
1681569130777498000,0.242498046875,-0.11049634963274002,-0.19705428183078766,0.33070963621139526,0.05316504091024399,0.371128112077713,-0.9270584583282471,0.062237177044153214,0.0157431960105896,-0.02754664421081543,0.9815121884299424,-0.1893797456997405,0.024618576218493716,0.012773739124253537
1681569130787498000,0.252498046875,-0.15841487050056458,-0.180476114153862,0.31775176525115967,0.05261945351958275,0.3721695840358734,-0.9266720414161682,0.05359696224331856,0.0113600492477417,-0.018014907836914062,0.9813887139957567,-0.1899699352630426,0.02398786604138571,0.014572336614802558
1681569130797498000,0.262498046875,-0.2097049057483673,-0.16376790404319763,0.3088681995868683,0.05218338966369629,0.373717337846756,-0.9260735511779785,0.033845651894807816,-0.01501375436782837,0.0027031898498535156,0.981209347735056,-0.19082577680487142,0.023425228594193895,0.016279992374000615
1681569130807496200,0.27249609375,-0.25318342447280884,-0.1601332277059555,0.30114981532096863,0.051846932619810104,0.3757524788379669,-0.9252685904502869,0.016558215022087097,-0.03531366586685181,0.023107945919036865,0.9809747561763079,-0.19193957644858284,0.022910779722705787,0.01796695570284104
1681569130817496300,0.282496337890625,-0.2684415876865387,-0.15499071776866913,0.2971820533275604,0.051513202488422394,0.37803369760513306,-0.9243575930595398,0.00935409963130951,-0.038174718618392944,0.03173363208770752,0.9807110984214307,-0.19318244446365485,0.02239988073329839,0.01961249206254992
1681569130827496200,0.29249609375,-0.26440930366516113,-0.14671814441680908,0.2924078106880188,0.051252324134111404,0.3803488612174988,-0.9234218597412109,-0.0013713464140892029,-0.04421302676200867,0.029699325561523438,0.9804387305663853,-0.19444359444683615,0.021926074234989736,0.021234898236848498
1681569130837496300,0.302496337890625,-0.2368919998407364,-0.14873269200325012,0.31190225481987,0.05100923404097557,0.38252580165863037,-0.9225356578826904,0.0047158487141132355,-0.030841290950775146,0.029789745807647705,0.9801755966126764,-0.1956321351273449,0.02145298396575402,0.022884407492912248
1681569130847496200,0.31249609375,-0.16794489324092865,-0.15833605825901031,0.3317854106426239,0.05083847418427467,0.3842393755912781,-0.9218326807022095,0.010227181017398834,-0.02028679847717285,0.016162574291229248,0.9799539167100076,-0.19657747039786605,0.020998687873658984,0.024628918917044933
1681569130857496300,0.322496337890625,-0.12844637036323547,-0.1494830995798111,0.3277379274368286,0.05070864409208298,0.3854132890701294,-0.9213497042655945,0.005733601748943329,-0.018134266138076782,0.00008499622344970703,0.9797841491841532,-0.1972371251945709,0.020559001906279357,0.02641966082032839
1681569130867495400,0.332495361328125,-0.11031316965818405,-0.13090568780899048,0.3346509337425232,0.05070963129401207,0.3863089084625244,-0.9209744930267334,-0.003224283456802368,-0.02522498369216919,-0.0055696964263916016,0.9796390351414997,-0.19775002367473773,0.02019146208249671,0.02818948038323002
1681569130877495300,0.342495361328125,-0.13419273495674133,-0.11072398722171783,0.33237606287002563,0.05089257284998894,0.3872450888156891,-0.9205710887908936,-0.005375612527132034,-0.029548615217208862,-0.0034096240997314453,0.979483746411368,-0.19828719258725816,0.019915578843292647,0.029953018934612313
1681569130887495200,0.3524951171875,-0.1917995661497116,-0.0963921844959259,0.3421114981174469,0.05125313252210617,0.38857924938201904,-0.919988751411438,-0.014464199542999268,-0.03391924500465393,-0.005121111869812012,0.9792791220586838,-0.19903958417608703,0.01971991999295607,0.031728667172950795
1681569130897495300,0.362495361328125,-0.2534959614276886,-0.08645033836364746,0.34141749143600464,0.05173678323626518,0.39045509696006775,-0.9191671013832092,-0.03177829831838608,-0.04415690898895264,-0.0051950812339782715,0.979010192900052,-0.20008315898652002,0.019575005555583003,0.033507379893570825
1681569130907495200,0.3724951171875,-0.32736167311668396,-0.07282187789678574,0.3250132203102112,0.05230765789747238,0.39295750856399536,-0.9180676937103271,-0.03321892395615578,-0.05715736746788025,-0.0051958560943603516,0.9786681195617047,-0.20146257860687644,0.019467263708758304,0.035251399913440826
1681569130917495300,0.382495361328125,-0.4095146656036377,-0.04839823395013809,0.32472047209739685,0.05305755138397217,0.39616459608078003,-0.9166452288627625,-0.028582464903593063,-0.0687568187713623,-0.0075032711029052734,0.9782427052452366,-0.20322202404604917,0.01944694586222363,0.03692976637980364
1681569130927495200,0.3924951171875,-0.4446204602718353,-0.03833360970020294,0.30359283089637756,0.05389709025621414,0.39996540546417236,-0.9149441123008728,-0.03239746391773224,-0.07422080636024475,-0.008838236331939697,0.9777451248482971,-0.20530220306483155,0.019466258904881885,0.03855538350689646
1681569130937495300,0.402495361328125,-0.4414219260215759,0.005855819210410118,0.2707958519458771,0.05489037558436394,0.4039013683795929,-0.9131543040275574,-0.03987573832273483,-0.08574038743972778,-0.015129446983337402,0.9772288324027386,-0.20745860756818194,0.019590460893392263,0.04001195823526689
1681569130947495200,0.4124951171875,-0.40381115674972534,0.039723239839076996,0.24208058416843414,0.05615723133087158,0.4076072573661804,-0.9114289283752441,-0.05296815559267998,-0.08697435259819031,-0.02735280990600586,0.9767339803910976,-0.20949920279137021,0.0198901943303875,0.04129460268976087
1681569130957494300,0.422494384765625,-0.38391539454460144,0.06734468042850494,0.19838589429855347,0.057544343173503876,0.41108453273773193,-0.9097791910171509,-0.06293071061372757,-0.03701537847518921,-0.05161607265472412,0.9762665244288867,-0.21141969340830438,0.020300761065835005,0.042348079720853145
1681569130967494100,0.432494140625,-0.32936134934425354,0.09073842316865921,0.1381201595067978,0.0589749775826931,0.414229154586792,-0.9082599878311157,-0.0706174373626709,-0.03213387727737427,-0.08566701412200928,0.975842973967371,-0.21316089933524482,0.02079535712753037,0.0431340139055157
1681569130977494300,0.442494384765625,-0.2577904760837555,0.11886779218912125,0.066344253718853,0.06030767038464546,0.4168437123298645,-0.9069753885269165,-0.07214851677417755,-0.04164540767669678,-0.112815260887146,0.9754947552817168,-0.21461000706705133,0.021327513750581933,0.04356254380777853
1681569130987494100,0.452494140625,-0.15720608830451965,0.16792534291744232,-0.009366226382553577,0.061711303889751434,0.4186965823173523,-0.9060269594192505,-0.08334827423095703,-0.03722688555717468,-0.1372469663619995,0.9752511849492147,-0.2156439953490241,0.02200404796368132,0.04357263916309175
1681569130997494300,0.462494384765625,-0.13796211779117584,0.21585945785045624,-0.09372837841510773,0.06326909363269806,0.4200410544872284,-0.9052969217300415,-0.10037848353385925,-0.04815387725830078,-0.1548837423324585,0.9750838410046512,-0.216398754534419,0.022871666522939184,0.04312758296910703
1681569131007494100,0.472494140625,-0.13626247644424438,0.22729507088661194,-0.16104216873645782,0.06472197920084,0.4213543236255646,-0.9045836329460144,-0.1266421526670456,-0.05581480264663696,-0.1434968113899231,0.974938445498745,-0.2171237821353148,0.023778825349272056,0.0422712756770161
1681569131017494300,0.482494384765625,-0.16774626076221466,0.239736407995224,-0.21654577553272247,0.06604326516389847,0.42282989621162415,-0.903799295425415,-0.15549029409885406,-0.04793673753738403,-0.13533949851989746,0.9747866682830287,-0.2179244980277581,0.024683179645033703,0.04111881189401217
1681569131027494100,0.492494140625,-0.206963449716568,0.23914839327335358,-0.2586221396923065,0.06717900931835175,0.4246642589569092,-0.9028550982475281,-0.15236884355545044,-0.030148297548294067,-0.1590956449508667,0.974602592355705,-0.21890631450504835,0.025543898676896746,0.039717247429657244
1681569131037494300,0.502494384765625,-0.2535817623138428,0.22686196863651276,-0.2870437204837799,0.0681554526090622,0.4269391596317291,-0.9017082452774048,-0.1603948473930359,-0.0434400737285614,-0.17740857601165771,0.9743705799248654,-0.22011669817434326,0.0263535113917599,0.038159942147975225
1681569131047494400,0.512494384765625,-0.3005727231502533,0.18834947049617767,-0.30609944462776184,0.06873752921819687,0.42964109778404236,-0.9003797769546509,-0.18571141362190247,-0.07125797867774963,-0.1994585394859314,0.9740929318752076,-0.22154514269577483,0.026979138703135123,0.036509831406892526
1681569131057493200,0.5224931640625,-0.3555949628353119,0.15441200137138367,-0.3142915964126587,0.06894117593765259,0.43281465768814087,-0.8988429307937622,-0.2061329483985901,-0.07049474120140076,-0.2153233289718628,0.9737591055370334,-0.2232201475983345,0.027409925580474257,0.034853137969190325
1681569131067493000,0.5324931640625,-0.4543830454349518,0.09603870660066605,-0.30722540616989136,0.06874261051416397,0.4366428852081299,-0.8970047235488892,-0.21283137798309326,-0.04591113328933716,-0.22970426082611084,0.9733435600477438,-0.22524366084654515,0.027621406273142406,0.0332359451995626
1681569131077493200,0.5424931640625,-0.5885874032974243,0.0016120723448693752,-0.2981296479701996,0.06785709410905838,0.4414922893047333,-0.8946954607963562,-0.21847659349441528,-0.017694711685180664,-0.2414129376411438,0.972798689134073,-0.2278150357712,0.02743322961465927,0.031786913307407655
1681569131087493000,0.5524931640625,-0.7234605550765991,-0.10117343068122864,-0.3218371272087097,0.0660504549741745,0.4475764036178589,-0.8918030858039856,-0.2190045565366745,-0.026662737131118774,-0.21389460563659668,0.9720984604640763,-0.23104855253970694,0.026740178584288767,0.030431439715902807
1681569131097493500,0.562493408203125,-0.8211554288864136,-0.19682085514068604,-0.3425575792789459,0.06323119252920151,0.4546673893928528,-0.8884139657020569,-0.2034747302532196,-0.04657107591629028,-0.18789523839950562,0.9712672067208885,-0.23482333677256914,0.025515095956512093,0.02910111920869483
1681569131107493400,0.572493408203125,-0.9766571521759033,-0.27379366755485535,-0.4103344976902008,0.0594252347946167,0.46282267570495605,-0.8844568133354187,-0.1993941217660904,-0.04843977093696594,-0.19609439373016357,0.9702897219050163,-0.23917609561031494,0.023799178826249056,0.027680523490987947
1681569131117493500,0.582493408203125,-1.1281754970550537,-0.36994504928588867,-0.48626166582107544,0.054494041949510574,0.47240036725997925,-0.8796977996826172,-0.19176211953163147,-0.04031729698181152,-0.21533387899398804,0.9691090863740702,-0.24430776064634763,0.02155948507139009,0.02600625031652021
1681569131127493400,0.592493408203125,-1.1429399251937866,-0.4744224548339844,-0.5593286752700806,0.048283811658620834,0.4827277958393097,-0.8744384050369263,-0.18918347358703613,-0.03515702486038208,-0.22636115550994873,0.9678004318168709,-0.24986074188396248,0.018718799647431002,0.024116808069214842
1681569131137493200,0.6024931640625,-1.0626115798950195,-0.5556164979934692,-0.6440482139587402,0.04086989909410477,0.4926324486732483,-0.8692772388458252,-0.17125625908374786,-0.015596956014633179,-0.2366187572479248,0.9665176471624569,-0.2551978036069607,0.01534474774123678,0.02195935716990429
1681569131147492400,0.612492431640625,-1.032536268234253,-0.6172383427619934,-0.7524980306625366,0.03231557831168175,0.5018696784973145,-0.8643393516540527,-0.14391836524009705,0.05565595626831055,-0.25023889541625977,0.9652939571477103,-0.26018838456191123,0.011502979757974062,0.01942451035647136
1681569131157492500,0.622492431640625,-1.2271000146865845,-0.6708582043647766,-0.8995281457901001,0.02260548807680607,0.5116937756538391,-0.8588704466819763,-0.12999683618545532,0.1397497057914734,-0.2543955445289612,0.9639334755064923,-0.26554214333190673,0.007221257824297031,0.01635119652574058
1681569131167492400,0.632492431640625,-1.5719484090805054,-0.7349636554718018,-1.0796968936920166,0.011462441645562649,0.52379310131073,-0.8517683744430542,-0.12733770906925201,0.16533952951431274,-0.2508774995803833,0.9621466542479307,-0.2722316136701004,0.0024007303270512817,0.012567850887187718
1681569131177492500,0.642492431640625,-1.9631893634796143,-0.7660949230194092,-1.2933311462402344,-0.0011928448220714927,0.5388331413269043,-0.8424116373062134,-0.1246463879942894,0.13023418188095093,-0.24137437343597412,0.9597620098315512,-0.2806876479177573,-0.002935691318870452,0.007913218241876694
1681569131187492400,0.652492431640625,-2.185751438140869,-0.8112797141075134,-1.511373519897461,-0.015494836494326591,0.556180477142334,-0.8309170603752136,-0.11408279836177826,0.08127057552337646,-0.21868926286697388,0.9567932496438166,-0.2906275759119474,-0.008780249680523591,0.0022484636988001207
1681569131197492500,0.662492431640625,-2.2968733310699463,-0.8399890661239624,-1.713862419128418,-0.03144799917936325,0.5742984414100647,-0.8180417418479919,-0.12277258187532425,0.09310567378997803,-0.16015344858169556,0.953415825844956,-0.3012485697429684,-0.015113917334285878,-0.004362351477929758
1681569131207492400,0.672492431640625,-2.3139753341674805,-0.857514500617981,-1.9261507987976074,-0.048980098217725754,0.5923573970794678,-0.8041850924491882,-0.14379945397377014,0.15510964393615723,-0.10674935579299927,0.9497104145821174,-0.31213714219422073,-0.021859633676531036,-0.011949004214873002
1681569131217492200,0.6824921875,-2.2413628101348877,-0.885725200176239,-2.0798590183258057,-0.06800950318574905,0.6093704104423523,-0.7899635434150696,-0.13995254039764404,0.25623011589050293,-0.10449141263961792,0.9458157409537956,-0.3227644378913864,-0.029005797716696192,-0.020357298594082134
1681569131227492400,0.692492431640625,-2.1589179039001465,-0.9176343679428101,-2.2522244453430176,-0.08841470628976822,0.6249126195907593,-0.7756720185279846,-0.12275167554616928,0.3212696313858032,-0.12586301565170288,0.9417907350978829,-0.33291008124982946,-0.03653582586618638,-0.029432118755522603
1681569131237491500,0.702491455078125,-2.1684505939483643,-0.9390391111373901,-2.4860928058624268,-0.11052106320858002,0.6391363143920898,-0.7611109614372253,-0.08318928629159927,0.3038720488548279,-0.13624322414398193,0.9375505220707198,-0.3427269563934467,-0.044528113003603834,-0.0394284014535954
1681569131247491300,0.7124912109375,-2.15653920173645,-0.9566194415092468,-2.6975631713867188,-0.13445910811424255,0.6523263454437256,-0.7459163069725037,-0.06584301590919495,0.25721949338912964,-0.1256963014602661,0.9329589867661983,-0.3524669760874492,-0.052998982268716785,-0.050454867754166126
1681569131257491500,0.722491455078125,-2.1047821044921875,-0.961574912071228,-2.854552984237671,-0.15982364118099213,0.663906991481781,-0.730536699295044,-0.06292416155338287,0.2445250153541565,-0.13459086418151855,0.9281119233081411,-0.36181316594138613,-0.061829385391591954,-0.062262057119352135
1681569131267491300,0.7324912109375,-2.2211198806762695,-0.9435328245162964,-3.068204402923584,-0.18648529052734375,0.674325168132782,-0.7144989371299744,-0.047569289803504944,0.19274020195007324,-0.11278676986694336,0.922842853117239,-0.371108136795681,-0.07091735100698675,-0.07490288774641148
1681569131277491500,0.742491455078125,-2.5532314777374268,-0.9173352122306824,-3.3661043643951416,-0.21489711105823517,0.6846485137939453,-0.6964737176895142,-0.054161131381988525,0.06316947937011719,-0.08845365047454834,0.9167040495597766,-0.3812078600070228,-0.08027272465538476,-0.08882876240194305
1681569131287491300,0.7524912109375,-2.800982713699341,-0.93222576379776,-3.7132439613342285,-0.2456405609846115,0.6949892640113831,-0.6757592558860779,-0.09148712456226349,-0.04659765958786011,-0.08438783884048462,0.9093906881554564,-0.3924480871032287,-0.09002703731873483,-0.10434636941102442
1681569131297491200,0.7624912109375,-2.799699306488037,-0.9310462474822998,-4.00013542175293,-0.27888622879981995,0.703563392162323,-0.65362149477005,-0.11073169112205505,-0.08028769493103027,-0.18187355995178223,0.9011613828202489,-0.40387664129095824,-0.10036396168898004,-0.12132166278531477
1681569131307491300,0.7724912109375,-2.5709288120269775,-0.8732956051826477,-4.205724716186523,-0.31368884444236755,0.7087327837944031,-0.6318995356559753,-0.08598461747169495,0.02889227867126465,-0.33504992723464966,0.8924969574538107,-0.41438363175177134,-0.11106945225248449,-0.13927982839670364
1681569131317491200,0.7824912109375,-2.3538424968719482,-0.7679165601730347,-4.463150501251221,-0.34956732392311096,0.7096309065818787,-0.61174076795578,-0.06127557158470154,0.19613081216812134,-0.42767268419265747,0.8836488803584255,-0.42337746758538675,-0.12198823129768999,-0.15822498579788688
1681569131327491300,0.7924912109375,-2.1775550842285156,-0.5780581831932068,-4.710877895355225,-0.3861624300479889,0.7063528299331665,-0.5932490229606628,-0.10898527503013611,0.2391122579574585,-0.36051690578460693,0.8745305194231837,-0.4309510782521757,-0.13287838755358522,-0.17838453450918043
1681569131337491200,0.8024912109375,-2.1345067024230957,-0.3278534412384033,-4.96623420715332,-0.42285510897636414,0.6993739008903503,-0.5762549638748169,-0.21821239590644836,0.21149945259094238,-0.17279905080795288,0.8649598965131705,-0.4374112740702468,-0.14333145525871613,-0.1999299157230553
1681569131347490300,0.812490234375,-1.9832966327667236,-0.07223658263683319,-5.176407814025879,-0.4592493176460266,0.688770055770874,-0.560968816280365,-0.2736150920391083,0.23429512977600098,0.010218024253845215,0.854879984329157,-0.44277759647736065,-0.15317834284129875,-0.22285579803888858
1681569131357490200,0.822490234375,-1.4769902229309082,0.17593234777450562,-5.297685623168945,-0.4946920871734619,0.6735358834266663,-0.5492078065872192,-0.2512795925140381,0.34829944372177124,0.16857731342315674,0.8448514097092297,-0.44606496866323153,-0.16254887215979139,-0.2466376154434233
1681569131367490300,0.832490234375,-0.6561731100082397,0.41260507702827454,-5.2936553955078125,-0.5282297134399414,0.6522467136383057,-0.5436429977416992,-0.1882162094116211,0.47052550315856934,0.26333898305892944,0.8358639762427359,-0.44573695205578245,-0.1717471451029649,-0.27046803907383726
1681569131377490200,0.842490234375,0.1671055257320404,0.5280623435974121,-5.234314918518066,-0.5593001842498779,0.6249315738677979,-0.544650137424469,-0.1247665286064148,0.5679089426994324,0.31134331226348877,0.8283098794019375,-0.441441763340641,-0.18111900770986333,-0.29364558595283613
1681569131387490300,0.852490234375,0.7598385810852051,0.5858116745948792,-5.148555755615234,-0.5878300666809082,0.5924846529960632,-0.5508338212966919,-0.0469965934753418,0.6411121487617493,0.3207770586013794,0.8219928396608854,-0.43374657780020465,-0.1909109408208726,-0.31582405195758273
1681569131397490200,0.862490234375,1.017472267150879,0.5941247940063477,-5.079339504241943,-0.6139654517173767,0.5566787719726562,-0.5596025586128235,0.07153081893920898,0.5861891508102417,0.28489863872528076,0.8161617665389094,-0.424049398807073,-0.20094979655003498,-0.33716636708792946
1681569131407490300,0.872490234375,0.8533421754837036,0.543979287147522,-4.917812347412109,-0.6376625895500183,0.5199220180511475,-0.5683903098106384,0.20760893821716309,0.37746256589889526,0.24147075414657593,0.810090987080962,-0.4139751803901748,-0.21078283505808285,-0.35769778803215335
1681569131417490200,0.882490234375,0.1576252430677414,0.4969964027404785,-4.837540626525879,-0.6591715812683105,0.48533621430397034,-0.5744054913520813,0.33464765548706055,0.10662850737571716,0.22372794151306152,0.8027776469046854,-0.405656461469798,-0.2196362561144654,-0.3778239222991624
1681569131427490300,0.892490234375,-0.6780003905296326,0.4941856861114502,-4.778240203857422,-0.6789413094520569,0.4546208083629608,-0.5765056610107422,0.4392562508583069,-0.2581028938293457,0.2204417586326599,0.7934686344449006,-0.40035668419610465,-0.22685172990778646,-0.39832211826035435
1681569131437489200,0.9024892578125,-1.2851923704147339,0.4909369647502899,-4.601651191711426,-0.6968181729316711,0.428112268447876,-0.5754687786102295,0.4538983106613159,-0.5764734745025635,0.26273995637893677,0.7824400435351259,-0.3979174628616605,-0.23222250008670225,-0.4189534699612937
1681569131447489300,0.9124892578125,-1.511960506439209,0.5266938805580139,-4.379856109619141,-0.7126315832138062,0.4046521484851837,-0.5730732083320618,0.43649327754974365,-0.7193036079406738,0.27079659700393677,0.7705343086067852,-0.39713261181600734,-0.23611242369456267,-0.43910535928838906
1681569131457489200,0.9224892578125,-1.3536357879638672,0.5501903891563416,-3.943906307220459,-0.725927472114563,0.3827795088291168,-0.5714097619056702,0.45108622312545776,-0.6413549780845642,0.26057296991348267,0.7589887699842167,-0.39639729335035667,-0.23909056807435214,-0.45786559199744653
1681569131467489300,0.9324892578125,-1.1579488515853882,0.5053949356079102,-3.431278944015503,-0.7366272211074829,0.36301684379577637,-0.570612907409668,0.4524627923965454,-0.47983813285827637,0.28608226776123047,0.7485494781419177,-0.3954721104208977,-0.24144428500649723,-0.47432070232887524
1681569131477489200,0.9424892578125,-1.0998471975326538,0.5123623013496399,-3.0024192333221436,-0.7450718879699707,0.3456352651119232,-0.5704420804977417,0.4611821174621582,-0.4485710859298706,0.3013838529586792,0.7392296192109942,-0.3945190452575706,-0.24317417791534054,-0.48863135253676215
1681569131487489300,0.9524892578125,-1.0955805778503418,0.4644472301006317,-2.590604543685913,-0.7518013119697571,0.33087170124053955,-0.570367157459259,0.4770973324775696,-0.546005368232727,0.28325778245925903,0.7307116513260429,-0.39392482083049296,-0.24421229870501754,-0.5012425685309437
1681569131497489200,0.9624892578125,-0.945275604724884,0.39510583877563477,-2.073986053466797,-0.756966233253479,0.3191961348056793,-0.5701894760131836,0.4565054178237915,-0.5874913930892944,0.21761983633041382,0.7232727517687771,-0.3937772353847579,-0.24463189689244147,-0.5118313630739696
1681569131507489300,0.9724892578125,-0.47310271859169006,0.3978118896484375,-1.5836430788040161,-0.760440468788147,0.309431254863739,-0.5709488391876221,0.470065712928772,-0.559278666973114,0.09484410285949707,0.7176329128500044,-0.3931023697651649,-0.24494103189288172,-0.5200744509559505
1681569131517489200,0.9824892578125,0.04817107692360878,0.333951473236084,-1.0961986780166626,-0.7623976469039917,0.3004361093044281,-0.5731387138366699,0.5119246244430542,-0.604345440864563,-0.04232454299926758,0.7141585329935161,-0.3912475249054546,-0.24567463202710899,-0.5258772755266544
1681569131527489300,0.9924892578125,0.38804954290390015,0.28142249584198,-0.688885509967804,-0.7632644772529602,0.29239320755004883,-0.5761368274688721,0.4594467282295227,-0.5909314155578613,-0.10675501823425293,0.712665293714333,-0.38853695752148054,-0.24692230664261372,-0.5293171354765724
1681569131537488100,1.002488037109375,0.5447230339050293,0.28646430373191833,-0.4304538667201996,-0.7632530331611633,0.28539907932281494,-0.5796483159065247,0.4156426191329956,-0.5380083322525024,-0.06906384229660034,0.7124517736120106,-0.3854139338787238,-0.24825780385498594,-0.5312594642353764
1681569131547488300,1.01248828125,0.5308588743209839,0.2607954442501068,-0.16522753238677979,-0.7624995112419128,0.2799246609210968,-0.5832981467247009,0.36865490674972534,-0.5504630208015442,0.0009616613388061523,0.7130679155849167,-0.3823468921546952,-0.24932266685014023,-0.5321496333420855
1681569131557488000,1.022488037109375,0.23480327427387238,0.24612309038639069,-0.022037945687770844,-0.7612327933311462,0.27688875794410706,-0.586393415927887,0.2796196937561035,-0.5458859801292419,0.04369932413101196,0.7139435156469245,-0.3800985593852407,-0.24965653492667364,-0.5324295979594098
1681569131567488300,1.03248828125,-0.2080172896385193,0.2526012063026428,0.07497835159301758,-0.7593423128128052,0.27706390619277954,-0.5887569189071655,0.24771517515182495,-0.49802646040916443,0.07946431636810303,0.7143743246658519,-0.37930752422481945,-0.24849011375467628,-0.5329612433078008
1681569131577488100,1.042488037109375,-0.5111083984375,0.24842599034309387,0.13827575743198395,-0.7575823068618774,0.28002268075942993,-0.5896239876747131,0.25193655490875244,-0.41841989755630493,0.14095455408096313,0.7143009320423006,-0.38006785918079633,-0.2464476048611776,-0.5334662822581258
1681569131587488500,1.052488525390625,-0.7853695154190063,0.2944057285785675,0.13211506605148315,-0.7556315660476685,0.28484106063842773,-0.589819073677063,0.24398910999298096,-0.26289892196655273,0.1917935609817505,0.713735690746414,-0.3818329821773043,-0.24350365393199458,-0.5343135584811828
1681569131597488400,1.06248828125,-0.993283212184906,0.32881149649620056,0.14465230703353882,-0.7533310651779175,0.29119378328323364,-0.5896596312522888,0.21582502126693726,-0.08605465292930603,0.17706197500228882,0.7127990335553832,-0.38433532978254836,-0.23970092443366287,-0.5354879720891864
1681569131607488500,1.072488525390625,-1.1081637144088745,0.31832051277160645,0.1160544827580452,-0.7510476112365723,0.2983601987361908,-0.5889894962310791,0.14420562982559204,0.054728150367736816,0.1493532657623291,0.7114784682073154,-0.3873759908310746,-0.23546783941633978,-0.5369292923830336
1681569131617488400,1.08248828125,-1.1278507709503174,0.271225243806839,0.14174991846084595,-0.7489007711410522,0.3059232532978058,-0.5878423452377319,0.07641541957855225,0.048752009868621826,0.11987054347991943,0.7100095080334969,-0.3907000374748656,-0.23115428811986213,-0.5383378878341418
1681569131627488300,1.09248828125,-1.312650442123413,0.20255723595619202,0.09718937426805496,-0.7471385598182678,0.3138495683670044,-0.5859031677246094,0.03655201196670532,0.055123209953308105,0.051006317138671875,0.7082480948476002,-0.39444756779783297,-0.22684693501576653,-0.539755820684042
1681569131637487400,1.1024873046875,-1.7783409357070923,0.1604456603527069,0.1024145632982254,-0.7457944750785828,0.32355016469955444,-0.5823279619216919,0.03258347511291504,0.05328083038330078,-0.03331834077835083,0.7056568825561194,-0.39951028420316026,-0.22187281946414175,-0.5414908168189492
1681569131647487500,1.112487548828125,-2.126164436340332,0.09163570404052734,0.1862812340259552,-0.7446194887161255,0.3360136151313782,-0.5767465829849243,-0.0017031431198120117,-0.07218915224075317,-0.060643553733825684,0.7021910180798431,-0.4062694499765414,-0.21580511241223968,-0.5434160160142686
1681569131657487400,1.1224873046875,-2.169045925140381,-0.02057778462767601,0.2091187834739685,-0.7436653971672058,0.3499058187007904,-0.569673478603363,-0.04155188798904419,-0.2217167317867279,-0.03153812885284424,0.6983819859872791,-0.41391808535210334,-0.20936828684043746,-0.5450683698821226
1681569131667487500,1.132487548828125,-2.1455495357513428,-0.1476782262325287,0.2639079988002777,-0.7433247566223145,0.36381983757019043,-0.5613407492637634,-0.03922224044799805,-0.22293543815612793,-0.03768879175186157,0.6944066349519985,-0.4219033980713571,-0.20329077613008179,-0.5463238879605492
1681569131677487400,1.1424873046875,-2.1151788234710693,-0.24650326371192932,0.3365193009376526,-0.743327796459198,0.37794041633605957,-0.5519282221794128,-0.018512964248657227,-0.10261088609695435,-0.16827136278152466,0.6904738414228945,-0.43014810047803775,-0.19750572801826977,-0.5470008273069563
1681569131687487500,1.152487548828125,-2.1232683658599854,-0.3747387230396271,0.37672075629234314,-0.7436413168907166,0.3921748101711273,-0.5414762496948242,0.010013997554779053,-0.03487500548362732,-0.3224916458129883,0.6865682537189821,-0.43862541682043354,-0.1920146445927274,-0.5471399756623887
1681569131697487400,1.1624873046875,-2.1331827640533447,-0.4761064946651459,0.40572965145111084,-0.7443549036979675,0.40646490454673767,-0.529832124710083,0.02403324842453003,-0.04702886939048767,-0.4130847454071045,0.6825181481629187,-0.44743304051460303,-0.1867822475889075,-0.5468866889689299
1681569131707487200,1.1724873046875,-2.100431203842163,-0.4930596351623535,0.3868986964225769,-0.7452919483184814,0.4205842912197113,-0.5173477530479431,-0.007164657115936279,-0.015387177467346191,-0.3472915291786194,0.6783725347335998,-0.45638433688819047,-0.1817676411712276,-0.5463373490450897
1681569131717487400,1.1824873046875,-2.055332899093628,-0.48723304271698,0.3938874900341034,-0.7461388111114502,0.43409252166748047,-0.5048173069953918,-0.0693976879119873,0.04068470001220703,-0.19080036878585815,0.6741784058692532,-0.4651027057072545,-0.17683554759334555,-0.5457949354051611
1681569131727487200,1.1924873046875,-1.7916593551635742,-0.471203476190567,0.3786451518535614,-0.7468257546424866,0.4467093348503113,-0.49264806509017944,-0.19839519262313843,0.08652430772781372,-0.05335724353790283,0.6702651028046687,-0.4732955292896775,-0.17224200303492154,-0.545040144881535
1681569131737487400,1.2024873046875,-1.4528388977050781,-0.41235992312431335,0.37866920232772827,-0.7472829818725586,0.4573134481906891,-0.48211249709129333,-0.31744474172592163,0.12395483255386353,-0.002811819314956665,0.6670866919343368,-0.48017209994889576,-0.1684592109275065,-0.544106165355561
1681569131747486500,1.212486572265625,-1.494189977645874,-0.361991822719574,0.33743733167648315,-0.7474578619003296,0.4669382870197296,-0.47252020239830017,-0.29830318689346313,0.265910804271698,-0.04890313744544983,0.6642520864912357,-0.48634879002486997,-0.1649386330142194,-0.5431659610039331
1681569131757486300,1.222486328125,-1.4476059675216675,-0.25217095017433167,0.33086398243904114,-0.747409999370575,0.47637075185775757,-0.46308666467666626,-0.29873257875442505,0.3582545518875122,-0.014147281646728516,0.6612033866312901,-0.49243860579059573,-0.16112381459974148,-0.5425435762608604
1681569131767486200,1.232486328125,-1.0142979621887207,-0.12127869576215744,0.4453524649143219,-0.7463694214820862,0.48499199748039246,-0.4557581841945648,-0.2805623412132263,0.20259955525398254,0.07477670907974243,0.6590522657900866,-0.4973391782023023,-0.15739963229821324,-0.5417834395530191
1681569131777486300,1.242486328125,-0.7834442257881165,-0.03091937117278576,0.406375914812088,-0.7445881962776184,0.49219274520874023,-0.45092642307281494,-0.22640478610992432,0.2708077132701874,0.06622183322906494,0.6579686504215854,-0.5007648207002938,-0.154179713921055,-0.5408700318731593
1681569131787486200,1.252486328125,-0.7783365249633789,-0.04437579587101936,0.3727172911167145,-0.7428060173988342,0.49858424067497253,-0.44682538509368896,-0.192374587059021,0.3753170967102051,0.10222086310386658,0.6570380359840909,-0.5037112873376072,-0.15120266997573573,-0.5401052314207605
1681569131797486300,1.262486328125,-0.5668291449546814,-0.11342277377843857,0.37126773595809937,-0.7412997484207153,0.5044555068016052,-0.4427180886268616,-0.21464812755584717,0.2904053330421448,0.23507648706436157,0.6562052342014966,-0.5065070754790806,-0.1486322240524291,-0.5392158069914099
1681569131807487000,1.272487060546875,0.033802639693021774,-0.16006991267204285,0.3222692906856537,-0.7401559948921204,0.5082894563674927,-0.44023987650871277,-0.07036042213439941,0.2898215651512146,0.1872490644454956,0.6563193640755934,-0.5080748095220282,-0.14744507376859525,-0.5379265441076495
1681569131817487000,1.282487060546875,0.6089547872543335,-0.16512592136859894,0.3070160448551178,-0.739274263381958,0.5091117024421692,-0.4407706558704376,0.10232669115066528,0.39076006412506104,-0.06331869959831238,0.6579000807987118,-0.5076260482471574,-0.14808937858955634,-0.5362394354196243
1681569131827487000,1.292487060546875,0.9103040099143982,-0.15445782244205475,0.2375999540090561,-0.7386108040809631,0.507747232913971,-0.4434488117694855,0.09940493106842041,0.5542492270469666,-0.2567617893218994,0.660449405299381,-0.5057462191373291,-0.1499878508861177,-0.5343510582713542
1681569131837487000,1.302487060546875,1.276469349861145,-0.14404746890068054,0.25924766063690186,-0.7380746603012085,0.5046531558036804,-0.44785165786743164,0.069419264793396,0.5625007748603821,-0.21393728256225586,0.6637246029266871,-0.5027200179341395,-0.15279643820823827,-0.5323491402853863
1681569131847486000,1.31248583984375,1.6716252565383911,-0.13428618013858795,0.3008078932762146,-0.7372491359710693,0.5000473260879517,-0.45433080196380615,0.09842467308044434,0.45109403133392334,-0.13165247440338135,0.6680940423487511,-0.49834746258092016,-0.15647492649722286,-0.5299206503885829
1681569131857486000,1.322486083984375,1.776341438293457,-0.14243024587631226,0.33007001876831055,-0.7363543510437012,0.4944003224372864,-0.46189892292022705,0.13088560104370117,0.3866726756095886,-0.13203418254852295,0.6730961376251369,-0.49316055663503844,-0.16075821255742007,-0.5271537713321309
1681569131867486000,1.33248583984375,1.7395509481430054,-0.14287899434566498,0.3931952118873596,-0.7352230548858643,0.4889048933982849,-0.4694880545139313,0.15918856859207153,0.3818073570728302,-0.11188706755638123,0.6782366413043145,-0.48790086564937085,-0.16495063709264626,-0.5241555580952515
1681569131877486000,1.342486083984375,1.7575533390045166,-0.13868118822574615,0.36865219473838806,-0.7340424060821533,0.4834653437137604,-0.4769099950790405,0.16011357307434082,0.23089012503623962,-0.017993628978729248,0.6833653518131619,-0.48265480347094597,-0.16908385467966486,-0.521024881955821
1681569131887486000,1.35248583984375,1.6400985717773438,-0.10340575873851776,0.4000774919986725,-0.7327876687049866,0.47797656059265137,-0.4843147099018097,0.12431293725967407,0.08049511909484863,0.050339460372924805,0.6883798366414557,-0.4773851234274748,-0.1730493929508184,-0.5179678106387693
1681569131897486000,1.362486083984375,1.2509284019470215,-0.05183896794915199,0.32697874307632446,-0.7313686013221741,0.4735569953918457,-0.49075832962989807,0.08865320682525635,0.09886118769645691,0.10306301712989807,0.6927549730242339,-0.47283821458031217,-0.17619549596538858,-0.5152375416169761
1681569131907486000,1.37248583984375,0.6932920813560486,-0.0710558071732521,0.3124341666698456,-0.730157196521759,0.471075177192688,-0.4949330687522888,0.10248690843582153,0.03295314311981201,0.14082229137420654,0.6957882638813265,-0.46989701245630733,-0.17812992097110333,-0.5131717584043617
1681569131917486000,1.382486083984375,0.37712863087654114,-0.0978887528181076,0.316885381937027,-0.7291105389595032,0.47080233693122864,-0.4967324137687683,0.13360577821731567,-0.10852816700935364,0.22575151920318604,0.697732049863506,-0.4685977426649404,-0.1790249992497222,-0.5114062115598172
1681569131927486000,1.39248583984375,0.37594351172447205,-0.10801329463720322,0.3419761061668396,-0.7280386686325073,0.4714708924293518,-0.49766939878463745,0.1365165114402771,-0.1609698235988617,0.28499242663383484,0.6993348463561722,-0.4679116141089427,-0.1795104916747927,-0.5096719015841912
1681569131937485800,1.40248583984375,0.5193230509757996,-0.14266088604927063,0.32638686895370483,-0.7271391153335571,0.47163209319114685,-0.4988304376602173,0.1364409327507019,-0.08712589740753174,0.22228017449378967,0.7011019443823112,-0.46697137691715124,-0.18033998676224483,-0.5078102168945915
1681569131947486000,1.41248583984375,0.62352454662323,-0.13621842861175537,0.32945775985717773,-0.7263029217720032,0.4711611866950989,-0.5004909634590149,0.13909900188446045,-0.0027163922786712646,0.1441829800605774,0.7031555386452755,-0.46561575100748465,-0.18153925974279841,-0.5057842858644688
1681569131957485000,1.422485107421875,0.6221809983253479,-0.10563235729932785,0.33095958828926086,-0.725349485874176,0.4704362750053406,-0.502551257610321,0.1434251070022583,0.003913670778274536,0.15553593635559082,0.7053329211680445,-0.46402494573062997,-0.1827709114556657,-0.5037668942976453
1681569131967485000,1.43248486328125,0.6302130818367004,-0.06040629372000694,0.27630752325057983,-0.7243747115135193,0.4694845378398895,-0.504842221736908,0.12014192342758179,-0.048204630613327026,0.16138207912445068,0.7074538310361204,-0.46232186494007327,-0.18394941912819823,-0.5019265973471824
1681569131977485000,1.442485107421875,0.6404560804367065,-0.02061540260910988,0.22882169485092163,-0.723335862159729,0.4681242108345032,-0.5075873136520386,0.10500401258468628,-0.09863266348838806,0.11076730489730835,0.7095664277336782,-0.4603757974431983,-0.1850958019927403,-0.5003090435116451
1681569131987485000,1.45248486328125,0.5506726503372192,0.08683009445667267,0.08108498156070709,-0.7224893569946289,0.46612802147865295,-0.5106210112571716,0.1184701919555664,-0.12085214257240295,0.07463157176971436,0.7113392660922802,-0.45830077448941076,-0.18614484778655255,-0.49930647028011027
1681569131997484800,1.46248486328125,0.27425292134284973,0.10603295266628265,0.03639939799904823,-0.7216664552688599,0.4644266664981842,-0.5133278965950012,0.09407246112823486,-0.10096234083175659,0.06600117683410645,0.7125761295060569,-0.456594557204678,-0.18670153494874306,-0.4988981079632397
1681569132007485000,1.47248486328125,-0.11143646389245987,0.16910086572170258,-0.06858640164136887,-0.7210610508918762,0.4638277590274811,-0.5147182941436768,0.03888636827468872,-0.08295312523841858,0.09200406074523926,0.7128305447923503,-0.4559307880058158,-0.18646168312623868,-0.4992313318853232
1681569132017484800,1.48248486328125,-0.3571733832359314,0.1521519124507904,-0.09674820303916931,-0.7205699682235718,0.46452969312667847,-0.5147727727890015,0.015980184078216553,-0.14360687136650085,0.20491260290145874,0.7122209371421117,-0.45632243477202333,-0.18542773811057178,-0.5001276615681021
1681569132027485000,1.49248486328125,-0.4666215777397156,0.1025843620300293,-0.18821154534816742,-0.720546543598175,0.4656815528869629,-0.5137640237808228,0.002940952777862549,-0.1807694435119629,0.23515379428863525,0.7110245367069246,-0.4573622473955382,-0.1842220102022579,-0.5013245057611666
1681569132037484800,1.50248486328125,-0.3379920423030853,0.0135355768725276,-0.2421039342880249,-0.721286952495575,0.4662017524242401,-0.5122510194778442,0.04117226600646973,-0.1858062446117401,0.14369016885757446,0.709583009285853,-0.4584790074499621,-0.18349796229272797,-0.5026106959965465
1681569132047485000,1.51248486328125,-0.28151437640190125,-0.07406644523143768,-0.22485516965389252,-0.7225708365440369,0.4660637080669403,-0.5105646252632141,0.08386844396591187,-0.09503099322319031,0.031011343002319336,0.708251032686962,-0.4594391210533572,-0.18339409970685633,-0.5036496438661605
1681569132057484000,1.522484130859375,-0.28036952018737793,-0.12684296071529388,-0.249381422996521,-0.724163293838501,0.46580496430397034,-0.5085403919219971,0.12043404579162598,-0.011672884225845337,-0.13777613639831543,0.7069276953824548,-0.4604670020751333,-0.18357540474033493,-0.5045032801586142
1681569132067484000,1.53248388671875,-0.3414057195186615,-0.1879846155643463,-0.28917253017425537,-0.7262427806854248,0.46538642048835754,-0.5059515833854675,0.1317603588104248,-0.07619574666023254,-0.27587831020355225,0.7053854436836177,-0.46170414834653445,-0.18399320487389753,-0.5053783190373957
1681569132077483800,1.54248388671875,-0.528268575668335,-0.22511808574199677,-0.3331648111343384,-0.7286999821662903,0.46531474590301514,-0.5024725198745728,0.11654788255691528,-0.07111918926239014,-0.31399476528167725,0.7034390760388639,-0.4634439132803101,-0.18434606662374667,-0.5063693047225893
1681569132087484000,1.55248388671875,-0.7605739831924438,-0.25234195590019226,-0.3793858289718628,-0.7315781712532043,0.46590250730514526,-0.4977231025695801,0.10950785875320435,-0.00012797117233276367,-0.23550748825073242,0.7007803758244519,-0.46599009926621204,-0.18436830583945418,-0.5077090599095933
1681569132097483800,1.56248388671875,-0.7628803849220276,-0.20783236622810364,-0.32955002784729004,-0.7343809604644775,0.4670702815055847,-0.49247342348098755,0.11072379350662231,-0.05717343091964722,-0.11220192909240723,0.6978571919567874,-0.4689243922837645,-0.1840467558060348,-0.5091484769791569
1681569132107484000,1.57248388671875,-0.7378376126289368,-0.13735926151275635,-0.24663276970386505,-0.7365850210189819,0.4686143398284912,-0.48769158124923706,0.1292547583580017,-0.07519698143005371,-0.04693061113357544,0.6952064972346877,-0.47170743958939904,-0.1834292856696308,-0.5104250511082992
1681569132117483800,1.58248388671875,-0.7381480932235718,0.012871718034148216,-0.22745394706726074,-0.7380269169807434,0.47051364183425903,-0.48366644978523254,0.1512807011604309,-0.008904755115509033,-0.06761837005615234,0.6927850525087977,-0.4742614249241298,-0.18232627138648236,-0.5117441952336111
1681569132127484200,1.592484130859375,-0.5878163576126099,0.15633779764175415,-0.190451979637146,-0.7384940385818481,0.472134530544281,-0.4813685417175293,0.16091835498809814,-0.0904664397239685,-0.05453544855117798,0.6907764560402004,-0.4760690756532747,-0.18075941183480423,-0.5133344762573062
1681569132137484000,1.602484130859375,-0.205696702003479,0.2852324843406677,-0.17646247148513794,-0.7383245229721069,0.47287794947624207,-0.48089852929115295,0.1587652564048767,-0.19536635279655457,-0.022336363792419434,0.6894786719061199,-0.4768484212137399,-0.1793497078272796,-0.5148480394225221
1681569132147484200,1.612484130859375,0.4989970028400421,0.43047887086868286,-0.07614705711603165,-0.7372012138366699,0.47112220525741577,-0.4843328297138214,0.16925382614135742,-0.17954200506210327,-0.04688668251037598,0.6898414536468243,-0.47524131668073705,-0.1788274871320986,-0.5160283581073514
1681569132157484000,1.622484130859375,0.6786379814147949,0.5359014272689819,-0.04513028264045715,-0.7350948452949524,0.46765947341918945,-0.4908464848995209,0.2359493374824524,-0.05072832107543945,-0.11266916990280151,0.6916346769944827,-0.47176824640108084,-0.17891750264457698,-0.5167831300730271
1681569132167484200,1.632484130859375,0.4426092505455017,0.590290367603302,-0.0959836095571518,-0.732627272605896,0.46432769298553467,-0.49765148758888245,0.17699378728866577,0.14306363463401794,-0.047972291707992554,0.6932725369584493,-0.4682785939611947,-0.17857606428689324,-0.5178792448089198
1681569132177483000,1.64248291015625,0.29043641686439514,0.5548157691955566,-0.004192503169178963,-0.7299929857254028,0.4621269106864929,-0.5035364031791687,0.1571933627128601,0.04376298189163208,0.027538418769836426,0.6944771072333973,-0.4654888423573482,-0.17762867651867695,-0.5191047261847757
1681569132187483100,1.652483154296875,0.4647192656993866,0.4151726961135864,0.12391752749681473,-0.7272210717201233,0.46079301834106445,-0.5087429285049438,0.1323571801185608,-0.09467363357543945,0.06376612186431885,0.6958922629230142,-0.46304189348920327,-0.17669389226818324,-0.5197167126038568
1681569132197483000,1.66248291015625,0.7972277998924255,0.28343531489372253,0.15654830634593964,-0.7247839570045471,0.45857223868370056,-0.5141983032226562,0.17412477731704712,-0.09039291739463806,-0.008537352085113525,0.6980520725286313,-0.4600402813760544,-0.17681572347739546,-0.5194444938356646
1681569132207483100,1.672483154296875,0.8943466544151306,0.19514618813991547,0.1183852106332779,-0.7228958010673523,0.45515862107276917,-0.5198578834533691,0.22292637825012207,-0.021183431148529053,-0.20154714584350586,0.7006278336033481,-0.456531361195958,-0.1779049789219449,-0.5186997844335314
1681569132217483000,1.68248291015625,0.875252366065979,0.10469891130924225,0.09490378201007843,-0.7217066287994385,0.4512963891029358,-0.5248534083366394,0.17995864152908325,0.02367916703224182,-0.3177827000617981,0.702986889436536,-0.4531834121880865,-0.17943828329387837,-0.5179151159303353
1681569132227483100,1.692483154296875,1.054801344871521,0.052751824259757996,0.1637113392353058,-0.7207175493240356,0.4472503960132599,-0.5296539664268494,0.11482161283493042,-0.08819586038589478,-0.22315365076065063,0.7055549814922565,-0.4497635412354774,-0.18134438918301826,-0.5167389620494424
1681569132237483000,1.70248291015625,1.2583532333374023,0.04694493114948273,0.06029321253299713,-0.7199786901473999,0.4419384300708771,-0.5350898504257202,0.0849536657333374,-0.060819655656814575,-0.19835436344146729,0.7085179457823759,-0.44566479755848165,-0.18395099062963424,-0.5153127722483828
1681569132247483100,1.712483154296875,1.2366708517074585,0.02079269103705883,0.017215516418218613,-0.7197076082229614,0.4353385269641876,-0.5408338904380798,0.1148492693901062,0.11507648229598999,-0.28163009881973267,0.7114006138915662,-0.44113833093345733,-0.18702948793015697,-0.5141265124030839
1681569132257483000,1.72248291015625,1.2613208293914795,0.036780379712581635,-0.050120849162340164,-0.7196449041366577,0.4286584258079529,-0.5462263822555542,0.07697522640228271,0.17513185739517212,-0.2606889009475708,0.7141065027740994,-0.4367296030388267,-0.19014218798158203,-0.5129963138264226
1681569132267483000,1.73248291015625,1.378449559211731,0.06667090207338333,-0.1730283945798874,-0.7198215126991272,0.42055949568748474,-0.5522560477256775,0.0013766884803771973,0.13214436173439026,-0.11415636539459229,0.7167341212108062,-0.43174067155992757,-0.1935767972141373,-0.5122696936339378
1681569132277482000,1.74248193359375,1.1733410358428955,0.06475462019443512,-0.2250019758939743,-0.7202939987182617,0.41193148493766785,-0.5581119656562805,0.006625235080718994,0.11657193303108215,-0.07981222867965698,0.7190824731596211,-0.4267249970715649,-0.1971034766540766,-0.511836329706398
1681569132287482000,1.752482177734375,0.7896759510040283,0.02287588268518448,-0.30057424306869507,-0.7211527228355408,0.40446341037750244,-0.5624483227729797,-0.03298240900039673,0.14952215552330017,-0.007452249526977539,0.7205143396013616,-0.42280380369402176,-0.20003193887568166,-0.5119407046435525
1681569132297482000,1.76248193359375,0.616809606552124,-0.028657883405685425,-0.31869569420814514,-0.7223322987556458,0.3983664810657501,-0.5652788281440735,-0.0645175576210022,0.00019305944442749023,0.06854420900344849,0.7212177412338733,-0.41997830288673077,-0.20243223569967764,-0.5123322785683946
1681569132307482000,1.772482177734375,0.4519156813621521,-0.07639051973819733,-0.48601919412612915,-0.7241953015327454,0.3924063742160797,-0.5670612454414368,-0.08712971210479736,-0.04328528046607971,-0.04156613349914551,0.7212759648413642,-0.4177449995113461,-0.2048377209505649,-0.5131195804051729
1681569132317482000,1.78248193359375,0.21183829009532928,-0.12528102099895477,-0.5244089961051941,-0.7268344759941101,0.3868389129638672,-0.5675097703933716,-0.09012109041213989,-0.0037059783935546875,-0.19796264171600342,0.7205045121918044,-0.4163403123019073,-0.2071372972645069,-0.5144202226498393
1681569132327482000,1.792482177734375,0.1333504021167755,-0.06539319455623627,-0.6251233816146851,-0.7296003699302673,0.3817829489707947,-0.5673843622207642,-0.11797952651977539,-0.08950087428092957,-0.16508328914642334,0.7192780835003315,-0.4154278381383974,-0.2091112730356625,-0.5160728840993444
1681569132337482000,1.80248193359375,0.16605007648468018,0.0066299340687692165,-0.5794448852539062,-0.7320812940597534,0.3764182925224304,-0.5677731037139893,-0.19119751453399658,-0.11650010943412781,-0.05899691581726074,0.7179575849939568,-0.4143078754481628,-0.21086115458275592,-0.5180960474226833
1681569132347481900,1.81248193359375,0.12163467705249786,0.02669339068233967,-0.4785928428173065,-0.7339069247245789,0.3717734217643738,-0.5684762001037598,-0.27387505769729614,0.01244288682937622,-0.03622967004776001,0.7169583845655492,-0.41316706389519575,-0.21226137425719102,-0.5198161019470418
1681569132357482000,1.82248193359375,-0.019108276814222336,-0.017255891114473343,-0.6011635661125183,-0.7358003258705139,0.36755985021591187,-0.5687684416770935,-0.3003782033920288,0.09269097447395325,-0.0958738923072815,0.7156991968068812,-0.41237498475224754,-0.21345410691678518,-0.5216883692441514
1681569132367481900,1.83248193359375,-0.20440064370632172,-0.12407901883125305,-0.7565118670463562,-0.7386807799339294,0.3631798028945923,-0.5678478479385376,-0.26041895151138306,-0.033300042152404785,-0.2250293493270874,0.7136177623588061,-0.41222691226921493,-0.21481400703448691,-0.524093157425732
1681569132377482000,1.84248193359375,-0.3612503409385681,-0.18457338213920593,-0.8231160640716553,-0.7424556016921997,0.35887083411216736,-0.5656601786613464,-0.3072117567062378,-0.15714964270591736,-0.24725186824798584,0.7107614499398063,-0.41278993789220325,-0.21627387238653767,-0.5269233994142246
1681569132387481900,1.85248193359375,-0.5681459903717041,-0.17989687621593475,-0.7897071838378906,-0.7463704943656921,0.35546907782554626,-0.5626479983329773,-0.4129922389984131,-0.14711031317710876,-0.19359290599822998,0.707461312947784,-0.4140423346262999,-0.21735904896423075,-0.5299268261122657
1681569132397481000,1.86248095703125,-0.6559937596321106,-0.13319002091884613,-0.7731466889381409,-0.7499979138374329,0.3531431555747986,-0.5592790246009827,-0.49586689472198486,-0.07505175471305847,-0.15142959356307983,0.7039359114095729,-0.41580528445410747,-0.2178679938041461,-0.5330231910068812
1681569132407480800,1.872480712890625,-0.553229570388794,-0.08415669202804565,-0.8022883534431458,-0.753366231918335,0.3506546914577484,-0.5563098192214966,-0.46471238136291504,-0.06324014067649841,-0.16283690929412842,0.700444492982542,-0.4173876854607577,-0.21824894557072988,-0.5362204955619747
1681569132417481000,1.88248095703125,-0.39666950702667236,0.005967805162072182,-0.8084220886230469,-0.7564312219619751,0.34718799591064453,-0.5543215274810791,-0.3323901891708374,-0.03831961750984192,-0.1350553035736084,0.6972334221973723,-0.41828020256363,-0.21881707613012794,-0.539468565661827
1681569132427480800,1.892480712890625,-0.2740043103694916,0.10204213857650757,-0.8624142408370972,-0.7589897513389587,0.3427099585533142,-0.5536103248596191,-0.21613836288452148,0.0413079559803009,-0.06569808721542358,0.6943560619307584,-0.4183625859730527,-0.21947114369879042,-0.5428395554006249
1681569132437481000,1.90248095703125,-0.17126016318798065,0.20120415091514587,-0.9068916440010071,-0.7611533403396606,0.33714181184768677,-0.5540585517883301,-0.16189652681350708,-0.003996670246124268,-0.005710124969482422,0.6916686495072156,-0.4177023721748537,-0.22021682231217257,-0.5464647270696785
1681569132447480800,1.912480712890625,-0.27190154790878296,0.33397603034973145,-0.9070250988006592,-0.7626931667327881,0.33133766055107117,-0.5554407835006714,-0.16562104225158691,-0.09612342715263367,0.11606395244598389,0.6890500083262986,-0.4166586348804789,-0.22062453632310353,-0.5503911932999527
1681569132457481000,1.92248095703125,-0.6719135642051697,0.309070885181427,-0.8674173951148987,-0.7638145685195923,0.32711055874824524,-0.5564044713973999,-0.18058234453201294,-0.11316710710525513,0.2069629430770874,0.6859912459909361,-0.4163648289502521,-0.22008658452352048,-0.5546333144447662
1681569132467480800,1.932480712890625,-1.320317029953003,0.31856799125671387,-0.932010293006897,-0.764994204044342,0.325745165348053,-0.5555842518806458,-0.1605885624885559,-0.12182673811912537,0.25716811418533325,0.681782781747776,-0.41788147651677277,-0.2181351759288946,-0.5594320890892938
1681569132477481000,1.94248095703125,-1.9133597612380981,0.30444788932800293,-0.8932343125343323,-0.7662985920906067,0.3277868926525116,-0.552577793598175,-0.061368584632873535,-0.21395635604858398,0.31324368715286255,0.6760979651867943,-0.4215856581730439,-0.21442162060264447,-0.5649605623171612
1681569132487480800,1.952480712890625,-2.1696431636810303,0.322186678647995,-0.8482157588005066,-0.7674608826637268,0.33247628808021545,-0.5481453537940979,-0.003001093864440918,-0.27846017479896545,0.3221015930175781,0.6695799232011881,-0.42672620657121446,-0.2093611065246496,-0.5707323741701069
1681569132497481000,1.96248095703125,-2.1020796298980713,0.289033442735672,-0.7694374918937683,-0.7684834003448486,0.33797821402549744,-0.5433267951011658,0.03792309761047363,-0.25213226675987244,0.2715524435043335,0.6629648624439929,-0.4321557414628851,-0.20390690343343376,-0.5763167354231051
1681569132507479800,1.972479736328125,-1.9472436904907227,0.3255041241645813,-0.6973254680633545,-0.7693524956703186,0.3432615101337433,-0.5387656092643738,0.0736585259437561,-0.1819303333759308,0.23413914442062378,0.6567386612816727,-0.43721309261037594,-0.1986501903190152,-0.581444106210168
1681569132517480000,1.98247998046875,-1.7905617952346802,0.29157671332359314,-0.5169362425804138,-0.7697775959968567,0.3486229181289673,-0.5347004532814026,0.09662085771560669,-0.10744249820709229,0.2470417022705078,0.6511794413964104,-0.44181449663776456,-0.1935193358981764,-0.5859314005709132
1681569132527479800,1.992479736328125,-1.6295223236083984,0.30117419362068176,-0.4070073366165161,-0.7698184847831726,0.35420286655426025,-0.5309612154960632,0.07763403654098511,-0.10888731479644775,0.25753897428512573,0.6463006844490745,-0.44606162614726047,-0.18854284371781996,-0.5897253846989567
1681569132537480000,2.00247998046875,-1.4949041604995728,0.26475268602371216,-0.34939315915107727,-0.7696343064308167,0.3595740497112274,-0.5276074409484863,0.10291677713394165,-0.17027351260185242,0.22581905126571655,0.6419892577915244,-0.4498791491282066,-0.18386147151086873,-0.593003852361228
1681569132547479800,2.012479736328125,-1.4446780681610107,0.23001842200756073,-0.3002392053604126,-0.7695363163948059,0.36480000615119934,-0.524151623249054,0.12160235643386841,-0.21559956669807434,0.18937373161315918,0.637894928082051,-0.45357386060684773,-0.1794295174580649,-0.5959580216573674
1681569132557480000,2.02247998046875,-1.312373399734497,0.1928173154592514,-0.19246327877044678,-0.7693303227424622,0.37006089091300964,-0.5207551121711731,0.11938220262527466,-0.20439621806144714,0.14963078498840332,0.6342185930509288,-0.4570798053078928,-0.17521560656316856,-0.5984516326754699
1681569132567479800,2.032479736328125,-1.2611738443374634,0.08855509757995605,-0.058266326785087585,-0.7690432667732239,0.3757885992527008,-0.5170641541481018,0.14039641618728638,-0.1568402349948883,0.0935259461402893,0.631013059026752,-0.4606137908261218,-0.1711807361936182,-0.6002954149182036
1681569132577480200,2.042480224609375,-1.1521248817443848,-0.02478111907839775,0.022071722894906998,-0.7689359784126282,0.3819684684276581,-0.5126767754554749,0.14776605367660522,-0.04705333709716797,0.052654802799224854,0.6281794112773303,-0.4643509822554581,-0.16745085811030133,-0.6014390635162922
1681569132587480000,2.05247998046875,-0.8917335271835327,-0.08015649765729904,0.037520457059144974,-0.7691069841384888,0.3874898850917816,-0.5082578659057617,0.17390739917755127,-0.029335588216781616,-0.005337715148925781,0.6258312688829576,-0.46778744993446386,-0.16445657110172,-0.602049958964085
1681569132597480000,2.06247998046875,-0.6887469291687012,-0.10326959937810898,0.007312818430364132,-0.7694993615150452,0.3915869891643524,-0.5045101046562195,0.21194320917129517,-0.03295966982841492,-0.13895303010940552,0.6239520581677858,-0.47052645732633125,-0.16232618195788528,-0.6024441483560551
1681569132607480000,2.07247998046875,-0.4205665588378906,-0.06791534274816513,0.05994194373488426,-0.7698127627372742,0.3946898579597473,-0.5016056895256042,0.21201252937316895,-0.056387245655059814,-0.15031087398529053,0.6226890402625801,-0.4725716931781825,-0.16085135125272546,-0.6025456583657667
1681569132617480000,2.08247998046875,-0.2110598236322403,-0.031178299337625504,0.07524919509887695,-0.7698233127593994,0.396692156791687,-0.5000075101852417,0.13388276100158691,-0.1335238218307495,0.0092543363571167,0.6221004316830827,-0.4737266684629402,-0.15993525875974524,-0.6024905752641136
1681569132627479000,2.09247900390625,-0.10109177976846695,0.032781507819890976,0.09705915302038193,-0.7694355845451355,0.3981841206550598,-0.4994179904460907,0.085796058177948,-0.07185965776443481,0.04192894697189331,0.622014673822476,-0.47427327202264385,-0.1592352433220792,-0.6023344630831046
1681569132637479200,2.102479248046875,-0.05633632466197014,0.0860520526766777,0.08352616429328918,-0.7688230276107788,0.3991864025592804,-0.49956128001213074,0.07894259691238403,0.04109075665473938,0.032047152519226074,0.6221476573535332,-0.474393118796654,-0.15865222981422153,-0.602256649810423
1681569132647479000,2.11247900390625,-0.1696879118680954,0.15297755599021912,0.101333387196064,-0.7678134441375732,0.40042030811309814,-0.5001261830329895,0.09029269218444824,-0.0029593706130981445,0.0632365345954895,0.6222917966625415,-0.47440315602338246,-0.15772934419438503,-0.6023422048827278
1681569132657479200,2.122479248046875,-0.2957867980003357,0.24647802114486694,0.05768358334898949,-0.7664837837219238,0.40230193734169006,-0.500655472278595,0.05020570755004883,-0.06425872445106506,0.1241447925567627,0.6221225205429268,-0.47463846693559497,-0.15617486035295677,-0.6027366560252556
1681569132667479000,2.13247900390625,-0.3670569956302643,0.2821963429450989,-0.00041700678411871195,-0.7650848627090454,0.40421152114868164,-0.5012566447257996,0.032907187938690186,-0.12642526626586914,0.20036852359771729,0.621561477606642,-0.47494882845812225,-0.15425722446285997,-0.6035641734047523
1681569132677479000,2.14247900390625,-0.2661384642124176,0.31635329127311707,0.0418720617890358,-0.7635825276374817,0.4058499038219452,-0.5022227168083191,0.03142005205154419,-0.2012600600719452,0.2526194453239441,0.6210828098502547,-0.4750418714071664,-0.1523937542082141,-0.604456455667942
1681569132687479000,2.15247900390625,-0.36476409435272217,0.3388945460319519,0.09532675892114639,-0.7615916132926941,0.40805503726005554,-0.5034574270248413,0.0007120966911315918,-0.15713948011398315,0.2374662160873413,0.6208368072709833,-0.4750819472300091,-0.1502279343520764,-0.6052193090551221
1681569132697479000,2.16247900390625,-0.5569166541099548,0.31128743290901184,-0.03177153319120407,-0.7598174810409546,0.4105433523654938,-0.50411456823349,0.011694371700286865,-0.09956923127174377,0.1837562918663025,0.6200882307911436,-0.4755076466432296,-0.14776734839620886,-0.6062572397885531
1681569132707479000,2.17247900390625,-0.6186095476150513,0.19313868880271912,0.0682823657989502,-0.7584753036499023,0.41361942887306213,-0.5036210417747498,0.05019289255142212,-0.14117377996444702,0.12613391876220703,0.6188961591836041,-0.47657455828578793,-0.14514186359815073,-0.6072710116312803
1681569132717479000,2.18247900390625,-0.3906262218952179,0.07962058484554291,0.16010849177837372,-0.7573104500770569,0.4171006381511688,-0.5025017857551575,0.06347799301147461,-0.19755712151527405,0.06085127592086792,0.6180945845416859,-0.47784936477063983,-0.14286039444609153,-0.6076266335483028
1681569132727479000,2.19247900390625,-0.059752706438302994,0.012266847304999828,0.23857027292251587,-0.7562023997306824,0.4198121428489685,-0.5019119381904602,0.08512091636657715,-0.1600618064403534,-0.05105125904083252,0.6182311478762548,-0.478550644951549,-0.1415390454277578,-0.6072447150186826
1681569132737479000,2.20247900390625,0.2785109579563141,-0.04252875596284866,0.16945645213127136,-0.7554033398628235,0.4207931160926819,-0.5022936463356018,0.05961787700653076,-0.08438262343406677,-0.1192273497581482,0.6191142398847299,-0.4783834930161876,-0.14142989334169973,-0.6065017234341308
1681569132747478000,2.21247802734375,0.514277994632721,-0.05323652923107147,0.14983321726322174,-0.7550046443939209,0.4199391007423401,-0.5036060810089111,0.02375781536102295,-0.08883866667747498,-0.08518481254577637,0.6205222151354061,-0.4773955022570812,-0.14244473232266464,-0.6056030891415969
1681569132757478000,2.222477783203125,0.6041833162307739,-0.029945120215415955,0.13216213881969452,-0.7546243071556091,0.41813036799430847,-0.5056770443916321,-0.01875215768814087,-0.09789413213729858,0.005661725997924805,0.6222727821691016,-0.4758544411858134,-0.14395843278657702,-0.6046612596066065
1681569132767478000,2.23247802734375,0.40876156091690063,-0.02222009003162384,0.17146800458431244,-0.7542226314544678,0.416787713766098,-0.5073818564414978,-0.05885720252990723,-0.03428038954734802,0.05244100093841553,0.6238786534349445,-0.47456922596818607,-0.14523474330956995,-0.6037105824436335
1681569132777478000,2.242477783203125,0.07952551543712616,-0.00953738484531641,0.0038420534692704678,-0.7537921667098999,0.41615232825279236,-0.5085415840148926,-0.08539533615112305,-0.024581313133239746,0.11393404006958008,0.624800644293586,-0.47378716967890466,-0.1457907323423262,-0.6032370058824663
1681569132787478000,2.25247802734375,-0.34133753180503845,-0.13202069699764252,0.21696710586547852,-0.7538934350013733,0.4174548387527466,-0.5073224306106567,-0.07006585597991943,-0.14888489246368408,0.11694157123565674,0.6245895477702605,-0.47454893940325105,-0.14540316856562524,-0.6029503129893028
1681569132797478000,2.262477783203125,-0.42762136459350586,-0.09668413549661636,0.41179025173187256,-0.7530161738395691,0.4221024811267853,-0.5047733783721924,-0.06548047065734863,-0.16146710515022278,0.11507916450500488,0.6246256504877226,-0.476392408121887,-0.1437483545993711,-0.6018550699013826
1681569132807477800,2.272477783203125,-0.36234939098358154,-0.1597890704870224,0.3129534125328064,-0.7520978450775146,0.4268498718738556,-0.5021434426307678,0.012412846088409424,-0.1033482551574707,-0.027367115020751953,0.6246463602306916,-0.47828024669313113,-0.14204326499721961,-0.6007401066331682
1681569132817477600,2.2824775390625,-0.07306718081235886,-0.2802843451499939,0.35307392477989197,-0.7518152594566345,0.4304518401622772,-0.4994847774505615,-0.02203422784805298,-0.24997088313102722,-0.10076552629470825,0.6249123546805312,-0.47989766130372613,-0.14126517244634576,-0.5993554645508972
1681569132827477800,2.292477783203125,0.28108397126197815,-0.338781476020813,0.43606311082839966,-0.7516686320304871,0.4328674376010895,-0.49761447310447693,-0.04149848222732544,-0.20058289170265198,-0.05713409185409546,0.6261385358310396,-0.480765005238582,-0.1416254835351545,-0.597292102360628
1681569132837477600,2.3024775390625,0.4804231524467468,-0.382569819688797,0.5497442483901978,-0.7513322830200195,0.4345782995223999,-0.49663016200065613,0.010289192199707031,-0.06769594550132751,-0.07142406702041626,0.628289611682978,-0.4809435519099393,-0.14275231959794168,-0.5946151698907941
1681569132847477800,2.312477783203125,0.5158476829528809,-0.4436931014060974,0.7083485722541809,-0.7506389021873474,0.43679147958755493,-0.4957362413406372,-0.029329299926757812,-0.11647900938987732,-0.08963671326637268,0.6310747377448007,-0.4810248712513143,-0.14403804738130657,-0.5912805965854456
1681569132857477600,2.3224775390625,0.442230761051178,-0.48597821593284607,0.8116222023963928,-0.749596118927002,0.44012877345085144,-0.4943605959415436,-0.02600806951522827,-0.22504088282585144,-0.10978066921234131,0.6341473956943615,-0.48142220902599253,-0.14509431562760738,-0.587398931316838
1681569132867477800,2.332477783203125,0.3944006562232971,-0.5174229741096497,0.9091346859931946,-0.7482821345329285,0.44450271129608154,-0.49243399500846863,0.04225802421569824,-0.29794201254844666,-0.11967235803604126,0.637296014368623,-0.48219547263062745,-0.14584418090084234,-0.5831559621130313
1681569132877476600,2.3424765625,0.4048197269439697,-0.5251528024673462,1.0178883075714111,-0.746544599533081,0.4497636556625366,-0.49028971791267395,0.09536051750183105,-0.2947038412094116,-0.11035728454589844,0.6406581389821935,-0.48315866235777993,-0.1463312956713667,-0.5785344950412818
1681569132887476700,2.352476806640625,0.4602566361427307,-0.5301206707954407,1.1002715826034546,-0.7443097829818726,0.4555591940879822,-0.4883328676223755,0.11825692653656006,-0.23780101537704468,-0.10001558065414429,0.6443752801443644,-0.4840595013221567,-0.14669684669109295,-0.5735391241856987
1681569132897476600,2.3624765625,0.5952147245407104,-0.5697783827781677,1.1856597661972046,-0.7417694330215454,0.4614722728729248,-0.4866429269313812,0.13463753461837769,-0.1494911015033722,-0.07303419709205627,0.6484817254890013,-0.4847779364715246,-0.14720355058977852,-0.5681485965539129
1681569132907476700,2.372476806640625,0.7730547785758972,-0.6407830715179443,1.3223248720169067,-0.738897979259491,0.4674014151096344,-0.48535120487213135,0.16179531812667847,-0.0472964346408844,-0.025299489498138428,0.6532281448670126,-0.4851797286944529,-0.14807104905522767,-0.5621108676628563
1681569132917476600,2.3824765625,0.8923251628875732,-0.736298143863678,1.4827572107315063,-0.735636293888092,0.47366365790367126,-0.4842335879802704,0.19793182611465454,-0.005554527044296265,-0.006626427173614502,0.6586592054287905,-0.4853907035211861,-0.1492617328026118,-0.5552342180170219
1681569132927476700,2.392476806640625,0.9674798250198364,-0.8727744817733765,1.7052645683288574,-0.7319381237030029,0.48080897331237793,-0.48279324173927307,0.2252243161201477,-0.06256559491157532,-0.02054843306541443,0.6646998523170579,-0.4857088142857526,-0.15063308319960947,-0.5473305358873262
1681569132937476600,2.4024765625,1.0064481496810913,-1.0354528427124023,2.0057578086853027,-0.7275487780570984,0.48955726623535156,-0.48063138127326965,0.2539007067680359,-0.14077186584472656,-0.038167476654052734,0.6714012142056702,-0.4863957723809955,-0.15199824208947088,-0.5380856644050239
1681569132947476700,2.412476806640625,0.9899308681488037,-1.1965305805206299,2.3650062084198,-0.7220983505249023,0.5005477666854858,-0.47752058506011963,0.30225276947021484,-0.21452176570892334,-0.07042253017425537,0.6788067291495516,-0.4876372768383836,-0.15313260378617818,-0.5272396824824295
1681569132957476600,2.4224765625,0.8956363797187805,-1.362887978553772,2.777564525604248,-0.7151614427566528,0.5145118236541748,-0.47309809923171997,0.34765350818634033,-0.2904822826385498,-0.1027534008026123,0.6868215719755507,-0.4897217735644985,-0.153699506799246,-0.5146117348225118
1681569132967476500,2.4324765625,0.7055777907371521,-1.4940121173858643,3.2128140926361084,-0.7062134146690369,0.5319870710372925,-0.4671749770641327,0.37706607580184937,-0.3608444929122925,-0.1091037392616272,0.695307819362056,-0.4928494924431743,-0.15333588933737635,-0.5001345799757985
1681569132977476600,2.4424765625,0.37532371282577515,-1.6112587451934814,3.642848014831543,-0.6948218941688538,0.5534524917602539,-0.4592526853084564,0.4160590171813965,-0.41775602102279663,-0.08104586601257324,0.7039042687336229,-0.4973722138589827,-0.15163948963098492,-0.48388561608896374
1681569132987476500,2.4524765625,-0.011856489814817905,-1.6982189416885376,4.145076274871826,-0.6803436279296875,0.5793392658233643,-0.4488857686519623,0.4508515000343323,-0.40757113695144653,-0.010632634162902832,0.7123515823788981,-0.5035718746592744,-0.14823116780728227,-0.4658304619767398
1681569132997476600,2.4624765625,-0.4272530674934387,-1.73322594165802,4.683497905731201,-0.661709725856781,0.6099284291267395,-0.4360361695289612,0.4533967971801758,-0.3407176733016968,0.1030435860157013,0.7206045913777165,-0.5114874256887858,-0.1426973550963505,-0.4458105387699476
1681569133007475700,2.472475830078125,-0.8318035006523132,-1.7203292846679688,5.208247661590576,-0.6380811929702759,0.6447829604148865,-0.4208413362503052,0.4261823892593384,-0.340202271938324,0.20744717121124268,0.7285353984507428,-0.5209617098444523,-0.13482663826943292,-0.42385956431760125
1681569133017475600,2.4824755859375,-1.1711158752441406,-1.6984065771102905,5.726879119873047,-0.6088316440582275,0.6830412745475769,-0.4034583270549774,0.37233567237854004,-0.4062620997428894,0.28653019666671753,0.7360295320414493,-0.5317317644580531,-0.12462811662316779,-0.3999871133463012
1681569133027475700,2.492475830078125,-1.3810808658599854,-1.6504284143447876,6.209449768066406,-0.5734083652496338,0.7234235405921936,-0.38452744483947754,0.3347303867340088,-0.4661298394203186,0.33705735206604004,0.7431573096023463,-0.5432558376367204,-0.11229147624590992,-0.37414038572106445
1681569133037475600,2.5024755859375,-1.5470250844955444,-1.5614005327224731,6.4994001388549805,-0.5320651531219482,0.7641649842262268,-0.36463475227355957,0.346548855304718,-0.5055743455886841,0.3563186824321747,0.7497335807143237,-0.5550199086613598,-0.09816068554497918,-0.34672307035870775
1681569133047475500,2.512475341796875,-1.6897321939468384,-1.3936069011688232,6.526953220367432,-0.48607137799263,0.803098201751709,-0.3446270525455475,0.3867977261543274,-0.48386913537979126,0.3649212419986725,0.7554666155153275,-0.5664288424775713,-0.0827335426487677,-0.3187218682180748
1681569133057475600,2.5224755859375,-1.9062376022338867,-1.3736350536346436,6.365815162658691,-0.4377790689468384,0.8389627933502197,-0.3232507109642029,0.4329572916030884,-0.2926828861236572,0.4089440703392029,0.7595419374028503,-0.5778583567786983,-0.06674096922432272,-0.2910695578872072
1681569133067475500,2.532475341796875,-1.6908504962921143,-1.3319482803344727,6.509637355804443,-0.38711148500442505,0.8711339235305786,-0.302109956741333,0.48087674379348755,0.1353205442428589,0.5072795748710632,0.7627398034219686,-0.5885391361654708,-0.05066268968747939,-0.26321663052504435
1681569133077475800,2.542475830078125,-1.23564612865448,-1.3575336933135986,6.749844074249268,-0.3322906494140625,0.8993597626686096,-0.28413906693458557,0.5419158935546875,0.6430596709251404,0.5457051992416382,0.7663040204883528,-0.5972905010495471,-0.034271432665197096,-0.23419589974001356
1681569133087475700,2.552475830078125,-0.5374753475189209,-1.3305613994598389,6.966007232666016,-0.2735443711280823,0.9226179122924805,-0.27193689346313477,0.5900116562843323,0.822392463684082,0.3628334403038025,0.7709645338722412,-0.6030849763032944,-0.017890507242894545,-0.2039169313247202
1681569133097475800,2.562475830078125,0.1248871460556984,-1.2663224935531616,7.251613140106201,-0.21079346537590027,0.9403778314590454,-0.266937255859375,0.5364465713500977,0.70107102394104,0.1850433051586151,0.776987746723391,-0.6054170941040341,-0.0012333045747051933,-0.17250664153966133
1681569133107475700,2.572475830078125,0.7066032886505127,-1.255151391029358,7.4869585037231445,-0.14431990683078766,0.9523595571517944,-0.2686688005924225,0.42936933040618896,0.3768029808998108,0.010566383600234985,0.7840636322683068,-0.604495283419567,0.015844474205414995,-0.13992338440174332
1681569133117475800,2.582475830078125,1.2039721012115479,-1.1251684427261353,7.502784729003906,-0.07576822489500046,0.9580115079879761,-0.2765374481678009,0.36051249504089355,0.038249969482421875,-0.0989966094493866,0.7917458845486798,-0.6005261633375173,0.033160201882208716,-0.10680395202968745
1681569133127475700,2.592475830078125,1.1838884353637695,-0.878757894039154,7.025014877319336,-0.00863060262054205,0.9575556516647339,-0.28811928629875183,0.3590181767940521,-0.2521418333053589,-0.17699915170669556,0.7990153907852481,-0.594470948374786,0.050444516831122936,-0.07506043249244457
1681569133137475800,2.602475830078125,0.4890172481536865,-0.7693934440612793,6.304919719696045,0.05252153053879738,0.9536266922950745,-0.2963741421699524,0.40138164162635803,-0.42986881732940674,-0.20136758685112,0.8037733886058842,-0.5893921393846748,0.066557010426713,-0.04621030143406495
1681569133147474700,2.612474609375,-0.1797216832637787,-0.6087601184844971,6.013632297515869,0.1087626963853836,0.9482351541519165,-0.2983630895614624,0.4579029083251953,-0.32299119234085083,-0.019508004188537598,0.8054803443796652,-0.5866286232224007,0.08176375663720202,-0.01956561595359819
1681569133157474800,2.622474853515625,-0.7024138569831848,-0.525701105594635,5.949142932891846,0.1636037975549698,0.941448450088501,-0.2948027551174164,0.5675821304321289,-0.09370064735412598,0.1597777009010315,0.8045875147429637,-0.5858167093210789,0.09704328377483636,0.0063536646509464376
1681569133167474700,2.632474609375,-0.9213286638259888,-0.5387269258499146,5.914151668548584,0.21762900054454803,0.9325725436210632,-0.2880038321018219,0.6644968390464783,-0.11975210905075073,0.190210223197937,0.8018531292955341,-0.5860097436044167,0.11220809783818908,0.032149782585393236
1681569133177474800,2.642474853515625,-0.8454103469848633,-0.6054746508598328,5.939426898956299,0.2708873152732849,0.9206555485725403,-0.2810933589935303,0.6465168595314026,-0.16204959154129028,0.21607565879821777,0.7982338244600156,-0.585923429546112,0.1270710481730776,0.05804724988824393
1681569133187474700,2.652474609375,-0.7044739723205566,-0.6801683306694031,6.001071453094482,0.3236108124256134,0.9050505757331848,-0.27597033977508545,0.5600714087486267,-0.12416678667068481,0.17214953899383545,0.7942873230965051,-0.5847505732914361,0.14170954502538352,0.08421935459171877
1681569133197474800,2.662474853515625,-0.6752969026565552,-0.7606353759765625,6.0356364250183105,0.3755570650100708,0.885873556137085,-0.27236950397491455,0.4873427450656891,-0.1308075189590454,0.10864260792732239,0.789897127024666,-0.5826224119691615,0.15609732215292463,0.11066808741548097
1681569133207474700,2.672474609375,-0.7297511100769043,-0.8231328129768372,6.013443946838379,0.426155149936676,0.863585352897644,-0.2694665491580963,0.457603394985199,-0.17843520641326904,0.08620846271514893,0.7847865298703509,-0.5799514903508058,0.17006761575600085,0.13727148039036405
1681569133217474800,2.682474853515625,-0.7925312519073486,-0.8686005473136902,5.9799628257751465,0.474913090467453,0.838624894618988,-0.2667691707611084,0.4754652976989746,-0.1891956329345703,0.11344882845878601,0.7788088442818083,-0.5770073249293851,0.18351555833611152,0.16383327258372632
1681569133227474700,2.692474609375,-0.8328520655632019,-0.8965544700622559,5.975686550140381,0.5218759179115295,0.8109877705574036,-0.26446977257728577,0.4960988759994507,-0.12620389461517334,0.12340226769447327,0.7720197901693205,-0.5736951284446897,0.19656809755044752,0.19031622060969022
1681569133237474600,2.702474609375,-0.9228741526603699,-0.9137061238288879,5.977290153503418,0.5670726895332336,0.7807286381721497,-0.26247212290763855,0.49065136909484863,-0.025021672248840332,0.11459913849830627,0.7643648361656092,-0.5700537737965284,0.20929077371623866,0.2167546792592169
1681569133247474700,2.712474609375,-1.108172059059143,-0.923264741897583,5.967226982116699,0.6103457808494568,0.7481904029846191,-0.26017138361930847,0.48312950134277344,0.041421353816986084,0.10375353693962097,0.7556209809276561,-0.5663950520885126,0.22160989903775954,0.2431514981902214
1681569133257474600,2.722474609375,-1.3258765935897827,-0.9270889163017273,5.968588829040527,0.651581883430481,0.7136738896369934,-0.25711992383003235,0.47735488414764404,0.03937786817550659,0.09209609031677246,0.7455883612678743,-0.5629866797131241,0.23342243392168963,0.26955148879556434
1681569133267474700,2.732474609375,-1.5170860290527344,-0.940621018409729,5.963949203491211,0.6907181739807129,0.677241325378418,-0.25348082184791565,0.4579939842224121,0.012867867946624756,0.09196653962135315,0.7342671039814233,-0.5598018364481188,0.24470694053524827,0.29595976370646704
1681569133277474600,2.742474609375,-1.6674621105194092,-0.9439176321029663,5.908573150634766,0.7274555563926697,0.6391163468360901,-0.24967697262763977,0.43688154220581055,0.011396288871765137,0.08610273897647858,0.721817424796222,-0.5567178112348503,0.2553953605128842,0.32220806511784267
1681569133287473700,2.7524736328125,-1.7738406658172607,-0.9415708184242249,5.786453723907471,0.7613763213157654,0.5998167991638184,-0.24602025747299194,0.4262152314186096,0.04323434829711914,0.07658660411834717,0.7084558747337996,-0.553681818352867,0.26537956790484596,0.3479948723833669
1681569133297473800,2.762473876953125,-1.8337619304656982,-0.9404125213623047,5.615076541900635,0.7921466827392578,0.559924304485321,-0.2428756058216095,0.43269163370132446,0.09541022777557373,0.08680868148803711,0.6944696670412059,-0.5506126977091268,0.27456848792219163,0.37302779749468934
1681569133307473700,2.7724736328125,-1.8437378406524658,-0.9268921613693237,5.416632652282715,0.8196783065795898,0.5199037790298462,-0.24047371745109558,0.44374942779541016,0.1442807912826538,0.1065472960472107,0.6800975426966793,-0.547448781198847,0.2829540179483286,0.39711992031162247
1681569133317473500,2.7824736328125,-1.860481858253479,-0.8957733511924744,5.226810932159424,0.8441041111946106,0.4800575375556946,-0.2388162910938263,0.45985108613967896,0.19360283017158508,0.13160797953605652,0.6654801054988569,-0.544178756562844,0.2906223195114327,0.42017201956699385
1681569133327473700,2.7924736328125,-1.8847594261169434,-0.8508575558662415,5.0427961349487305,0.8656690120697021,0.4405972957611084,-0.23767922818660736,0.4870990514755249,0.24163848161697388,0.16349098086357117,0.6506164373863981,-0.540896010236599,0.29764390361543536,0.4421968183510785
1681569133337473500,2.8024736328125,-1.9301561117172241,-0.7807821035385132,4.861592769622803,0.8845974206924438,0.4017610251903534,-0.23680289089679718,0.5163425207138062,0.286624014377594,0.2058122754096985,0.6354933191033796,-0.5377232008706707,0.3040597211681622,0.4631951630696285
1681569133347473700,2.8124736328125,-1.9844539165496826,-0.7073760628700256,4.660984039306641,0.9010730385780334,0.3638507127761841,-0.23596657812595367,0.5281720161437988,0.3427685499191284,0.23918616771697998,0.6201191462330902,-0.534792541303604,0.30986069215764506,0.4831517592835922
1681569133357473500,2.8224736328125,-2.002124309539795,-0.6172181963920593,4.4229044914245605,0.9152166843414307,0.32727470993995667,-0.2350950837135315,0.5242211818695068,0.4103657007217407,0.250918447971344,0.6046396606687677,-0.5321699540389285,0.3150358647901272,0.5019546262482937
1681569133367473700,2.8324736328125,-1.9565984010696411,-0.52348393201828,4.131091594696045,0.9271429777145386,0.2924983501434326,-0.23420237004756927,0.5067864656448364,0.47828415036201477,0.2385358214378357,0.5893473525080213,-0.5298452630678333,0.3196291782803115,0.519394804329942
1681569133377473500,2.8424736328125,-1.795347809791565,-0.4336889982223511,3.7939412593841553,0.9369791150093079,0.2599307894706726,-0.23346556723117828,0.46586817502975464,0.5453364849090576,0.21597899496555328,0.5746811794227498,-0.5276835005636592,0.32375506130693077,0.5352329608658772
1681569133387473700,2.8524736328125,-1.552427053451538,-0.3413044512271881,3.443134069442749,0.9449386596679688,0.22978630661964417,-0.2330005019903183,0.41968536376953125,0.6206775903701782,0.19224423170089722,0.5610831088262032,-0.5255032269499182,0.327637156798297,0.5492595196358009
1681569133397473500,2.8624736328125,-1.3139008283615112,-0.2383916676044464,3.0915074348449707,0.9513232707977295,0.20211836695671082,-0.2326631397008896,0.37828177213668823,0.6961054801940918,0.15263082087039948,0.5487337131082537,-0.5232791288351376,0.3314323177683167,0.5614470981068216
1681569133407473700,2.8724736328125,-1.139151930809021,-0.1169762909412384,2.714977264404297,0.9564202427864075,0.17724373936653137,-0.232045516371727,0.32490605115890503,0.7498650550842285,0.11768090724945068,0.5376106821927011,-0.5212506799228006,0.33507457356016473,0.5718370752015657
1681569133417473800,2.882473876953125,-1.0193583965301514,0.009063397534191608,2.334426164627075,0.9604961276054382,0.1555486023426056,-0.23076365888118744,0.25413405895233154,0.7649989128112793,0.10861703753471375,0.5276254750339583,-0.5197180720138527,0.338395180856661,0.5805111926404302
1681569133427473700,2.8924736328125,-0.9048030376434326,0.1335563361644745,1.960697889328003,0.9638023376464844,0.13711625337600708,-0.22865764796733856,0.17218399047851562,0.7368156909942627,0.11905378103256226,0.5187358244492628,-0.5188030018376295,0.34134237948595897,0.5875730350364949
1681569133437472500,2.902472412109375,-0.7331270575523376,0.25384917855262756,1.6162290573120117,0.966556966304779,0.12174539268016815,-0.22571198642253876,0.102916419506073,0.6973464488983154,0.1381112039089203,0.5109912449563832,-0.5184386310125527,0.3440427234857198,0.5930801396454418
1681569133447472600,2.91247265625,-0.4826682507991791,0.3701837658882141,1.3013927936553955,0.9689392447471619,0.10900262743234634,-0.2219799906015396,0.05530691146850586,0.6802887916564941,0.1480206400156021,0.5045278919104327,-0.5184029771650034,0.34679728503452867,0.5970273028026375
1681569133457472500,2.922472412109375,-0.24051064252853394,0.45426344871520996,1.0029067993164062,0.9710418581962585,0.09864898025989532,-0.21759150922298431,0.03469538688659668,0.6924582123756409,0.13980217278003693,0.499436961208547,-0.5185439545690127,0.3497376370771845,0.5994651533195495
1681569133467473000,2.932472900390625,-0.06706002354621887,0.5127701163291931,0.7375017404556274,0.9729107618331909,0.09051651507616043,-0.21272416412830353,0.03258252143859863,0.7183671593666077,0.10972729325294495,0.4955914881732061,-0.5188437366407849,0.3527592567853832,0.6006257226906114
1681569133477472800,2.94247265625,0.03452605754137039,0.5470844507217407,0.4985145032405853,0.9745653867721558,0.08456099033355713,-0.2075371891260147,0.03400999307632446,0.7408326864242554,0.07045222818851471,0.4927697841993786,-0.5193848821499406,0.3556272650549813,0.6007882465046328
1681569133487473000,2.952472900390625,0.08314605057239532,0.5698071122169495,0.3122069537639618,0.9760436415672302,0.08050514757633209,-0.20213273167610168,0.0335540771484375,0.7400515079498291,0.03893996775150299,0.49072399675909084,-0.5201925168830738,0.35823648796415175,0.6002135005751473
1681569133497472800,2.96247265625,0.07902373373508453,0.5862201452255249,0.15267527103424072,0.977379322052002,0.07807385176420212,-0.1965562105178833,0.014060616493225098,0.7234398722648621,0.019523650407791138,0.4892132197258292,-0.5213004554050857,0.3605103779805594,0.5991232459240391
1681569133507472600,2.97247265625,0.02923380397260189,0.5999434590339661,0.013289151713252068,0.9785924553871155,0.07716495543718338,-0.19079376757144928,-0.013046860694885254,0.7102038264274597,0.01124359667301178,0.48804266958608844,-0.522791318667244,0.3623428622969469,0.5976714791151213
1681569133517472800,2.98247265625,-0.028569938614964485,0.6177704930305481,-0.0985746681690216,0.9797016382217407,0.0776008740067482,-0.18483227491378784,-0.030055522918701172,0.6952415704727173,0.017626449465751648,0.48707273170059556,-0.5246875876523343,0.3637125253952095,0.5959667721599835
1681569133527472600,2.99247265625,-0.09179072082042694,0.6295456886291504,-0.20518499612808228,0.9807164669036865,0.07919018715620041,-0.1786728799343109,-0.0480993390083313,0.665804922580719,0.02738197147846222,0.48623540462075754,-0.5269596578612821,0.3646602242865642,0.5940635540295855
1681569133537472800,3.00247265625,-0.1585279107093811,0.6342649459838867,-0.3045487403869629,0.9816226959228516,0.08190956711769104,-0.17235927283763885,-0.07651710510253906,0.6435390710830688,0.021358266472816467,0.48550395499039245,-0.5296067003305043,0.36515354097153985,0.5920012834670322
1681569133547472600,3.01247265625,-0.2663470208644867,0.6285325288772583,-0.41405072808265686,0.9823907017707825,0.08579165488481522,-0.16597676277160645,-0.11392146348953247,0.6432580351829529,-0.009590864181518555,0.48485771183115567,-0.5326365793581207,0.3651162766431109,0.5898316193518914
1681569133557472800,3.02247265625,-0.45844388008117676,0.6261312961578369,-0.5154139995574951,0.9829981923103333,0.0909576565027237,-0.1595032811164856,-0.15057021379470825,0.6406097412109375,-0.05166316032409668,0.4841304673344694,-0.5361994663300079,0.3643329412809548,0.5876813360250178
1681569133567472600,3.03247265625,-0.6598648428916931,0.6344326138496399,-0.5906267166137695,0.9834593534469604,0.09729015082120895,-0.15278151631355286,-0.17861932516098022,0.6225584745407104,-0.09900377690792084,0.4831029937659932,-0.5404127765502316,0.3627165142485595,0.5856638623203373
1681569133577472800,3.04247265625,-0.7797726392745972,0.6556312441825867,-0.6375410556793213,0.9837996959686279,0.10444094240665436,-0.14570634067058563,-0.20276331901550293,0.5843408107757568,-0.11474591493606567,0.48176583245496857,-0.5451670735728555,0.3604714847344928,0.5837421495710113
1681569133587471600,3.0524716796875,-0.7736047506332397,0.664128303527832,-0.6636331081390381,0.9840326905250549,0.11198534071445465,-0.13834388554096222,-0.2133876085281372,0.534422755241394,-0.10237878561019897,0.4803325093379951,-0.5501569093243183,0.35798803141762553,0.581766875106035
1681569133597471700,3.0624716796875,-0.6495111584663391,0.654370903968811,-0.6723782420158386,0.9841457009315491,0.11954537779092789,-0.1310192495584488,-0.19403040409088135,0.5125499963760376,-0.09075199067592621,0.4791217761601991,-0.5549870641955247,0.3556398937192484,0.5796135483945515
1681569133607471600,3.0724716796875,-0.4771023094654083,0.63001948595047,-0.6573495268821716,0.9841450452804565,0.1268264502286911,-0.12399066239595413,-0.13960158824920654,0.547078013420105,-0.12446820735931396,0.478344455598378,-0.5593765751602927,0.3536983418271492,0.5772191620724859
1681569133617471700,3.0824716796875,-0.3340165317058563,0.6095235347747803,-0.6311964988708496,0.9840527176856995,0.13366936147212982,-0.11735730618238449,-0.08038145303726196,0.589383602142334,-0.1710643768310547,0.47797720676204014,-0.5632679133983839,0.3522081857683404,0.57464462771929
1681569133627471600,3.0924716796875,-0.23027841746807098,0.5962034463882446,-0.5992790460586548,0.9839001893997192,0.14004871249198914,-0.11102574318647385,-0.047880351543426514,0.5956996083259583,-0.18833643198013306,0.47788713396428634,-0.5667535372229928,0.3511090402637612,0.5719586977141561
1681569133637471700,3.1024716796875,-0.1111815944314003,0.570764422416687,-0.5650486350059509,0.983699381351471,0.145967498421669,-0.1050197035074234,-0.007274210453033447,0.5855083465576172,-0.1933201551437378,0.47803651494565674,-0.5698554013524902,0.3503640552802498,0.5692020562842953
1681569133647471600,3.1124716796875,0.016029085963964462,0.5254022479057312,-0.5561909079551697,0.9834299683570862,0.15151357650756836,-0.09954587370157242,0.0796194076538086,0.5959992408752441,-0.19447576999664307,0.47852223629447665,-0.5725093844955875,0.34994294980796475,0.5663828385923277
1681569133657471700,3.1224716796875,0.13984210789203644,0.468631386756897,-0.6001373529434204,0.9830270409584045,0.15709257125854492,-0.09476221352815628,0.19019073247909546,0.6304135322570801,-0.19071447849273682,0.4794917444692772,-0.5747411854348577,0.34970196298825396,0.5634437022724619
1681569133667471600,3.1324716796875,0.25499534606933594,0.4123625159263611,-0.6834958791732788,0.9824110269546509,0.16320456564426422,-0.09073665738105774,0.2739672064781189,0.667270302772522,-0.18784308433532715,0.4810883129625907,-0.5766273819629536,0.3494746564989616,0.5602878800759862
1681569133677471700,3.1424716796875,0.35657554864883423,0.3582700490951538,-0.8116605877876282,0.9815099835395813,0.17025111615657806,-0.08748047798871994,0.3164026737213135,0.6840274930000305,-0.19103819131851196,0.48338422840517953,-0.5782621069028246,0.349102702097616,0.5568482430776431
1681569133687471600,3.1524716796875,0.4508439302444458,0.3229199945926666,-0.9754758477210999,0.9802440404891968,0.17866085469722748,-0.0848647728562355,0.3275409936904907,0.6904187798500061,-0.1970413327217102,0.4864437211305224,-0.5797770958276207,0.34846252837518044,0.5529963358373778
1681569133697471700,3.1624716796875,0.5193768739700317,0.29869312047958374,-1.1750000715255737,0.978528618812561,0.18878361582756042,-0.08272123336791992,0.306429386138916,0.6841564774513245,-0.18610811233520508,0.4902774229777105,-0.5813139102673432,0.3474385125452483,0.548624492303079
1681569133707471600,3.1724716796875,0.5737346410751343,0.29668405652046204,-1.3894777297973633,0.9762688875198364,0.20088781416416168,-0.080889031291008,0.2579229474067688,0.6413973569869995,-0.16386198997497559,0.4948571290643091,-0.5830056458293085,0.3459189229256721,0.5436551179472895
1681569133717471500,3.182471435546875,0.6541035175323486,0.32321348786354065,-1.6213040351867676,0.9733825922012329,0.21507969498634338,-0.07916484773159027,0.2088226079940796,0.577156662940979,-0.1397530436515808,0.5001887954519917,-0.5849103388113939,0.34394399504752454,0.5379531441486967
1681569133727471600,3.1924716796875,0.7679209113121033,0.3599078357219696,-1.8783369064331055,0.9697329998016357,0.23156017065048218,-0.0774451196193695,0.17501181364059448,0.5149608254432678,-0.10939871519804001,0.5063690252074798,-0.5870409683763348,0.34155576736305576,0.5313313140105761
1681569133737471500,3.202471435546875,0.9343056082725525,0.4011654555797577,-2.1203041076660156,0.9651892185211182,0.25032761693000793,-0.07580158114433289,0.14941954612731934,0.48244524002075195,-0.096058189868927,0.513504475357448,-0.589300068932601,0.3388578426581423,0.5236544389135079
1681569133747470600,3.212470703125,1.1314187049865723,0.4253906309604645,-2.3154866695404053,0.9597032070159912,0.2709558308124542,-0.07451535016298294,0.14517033100128174,0.4859563708305359,-0.09542178362607956,0.5216229940153715,-0.5914573907290764,0.3360364275381126,0.5149437464182565
1681569133757470700,3.222470703125,1.353110909461975,0.43887463212013245,-2.4755618572235107,0.9532428979873657,0.29303252696990967,-0.07389163225889206,0.17276418209075928,0.4780398905277252,-0.11867433786392212,0.5307099085727087,-0.5933146278325124,0.33321455199983074,0.5052651090345223
1681569133767470600,3.232470703125,1.566344976425171,0.4415372610092163,-2.6076877117156982,0.945771336555481,0.3162505328655243,-0.0741783007979393,0.2144918441772461,0.4526399075984955,-0.13620996475219727,0.5407195349451004,-0.59474303072537,0.3304414899233014,0.4946833820700315
1681569133777470500,3.242470458984375,1.7517696619033813,0.4442097544670105,-2.714555263519287,0.9372689127922058,0.3403316140174866,-0.07550771534442902,0.2543814778327942,0.4159550070762634,-0.13672679662704468,0.5515133984052533,-0.5957067457651034,0.3276882922219721,0.4833082141402834
1681569133787470600,3.252470703125,1.9209150075912476,0.43664103746414185,-2.7983243465423584,0.9278512001037598,0.36472731828689575,-0.07788390666246414,0.2881063222885132,0.36310166120529175,-0.12376099079847336,0.5628717179036566,-0.5961539781606374,0.3250515057582272,0.4712931914177688
1681569133797470500,3.262470458984375,2.0687966346740723,0.4144994914531708,-2.860546112060547,0.9175043106079102,0.38929256796836853,-0.08146879822015762,0.31259822845458984,0.31242862343788147,-0.10023289918899536,0.5747179803868983,-0.59606030163717,0.32245576072193943,0.45873048333542754
1681569133807470600,3.272470703125,2.1954708099365234,0.3829474449157715,-2.8900668621063232,0.9062790870666504,0.413760244846344,-0.08637586981058121,0.3232588768005371,0.2734040915966034,-0.07030141353607178,0.5869385812527904,-0.5953958419893117,0.319868500528475,0.4457477701179807
1681569133817470500,3.282470458984375,2.308781385421753,0.3551139533519745,-2.898017644882202,0.8942725658416748,0.4378264844417572,-0.09265374392271042,0.31674128770828247,0.2325531542301178,-0.04122692346572876,0.5994157714673464,-0.5941345622608382,0.31729678490171703,0.43246696956050196
1681569133827470600,3.292470703125,2.3752856254577637,0.31311535835266113,-2.8939499855041504,0.8815616965293884,0.46130529046058655,-0.10023168474435806,0.2973017692565918,0.17979276180267334,-0.015445232391357422,0.6120101066894011,-0.5923263728497136,0.31469608248824554,0.41899818272409756
1681569133837470500,3.302470458984375,2.423452854156494,0.25481024384498596,-2.872589111328125,0.8682135343551636,0.48405131697654724,-0.1090860441327095,0.2700463533401489,0.12184470891952515,0.0034036636352539062,0.6246123126071181,-0.5900130644462872,0.31199609523106,0.405465871071563
1681569133847470600,3.312470703125,2.4501044750213623,0.2064397782087326,-2.8317391872406006,0.8543448448181152,0.5058587789535522,-0.11917261779308319,0.24488317966461182,0.07077091932296753,0.03390650451183319,0.637119280272542,-0.587216836447324,0.3091764488252699,0.39200193344019685
1681569133857470500,3.322470458984375,2.4675724506378174,0.15341517329216003,-2.7733800411224365,0.8400823473930359,0.5265628695487976,-0.13035820424556732,0.22379088401794434,0.021609127521514893,0.06790399551391602,0.6494505926997453,-0.5839678389113532,0.3062718687551934,0.3786728018318717
1681569133867470600,3.332470703125,2.46641206741333,0.09164129197597504,-2.6960551738739014,0.8255797028541565,0.5459778904914856,-0.14257057011127472,0.202816903591156,-0.02411198616027832,0.10247045755386353,0.6615366732269093,-0.5802760414306669,0.3033058416313416,0.36558790565227683
1681569133877470500,3.342470458984375,2.4648406505584717,0.02853430062532425,-2.601494312286377,0.8109460473060608,0.5640044212341309,-0.15577465295791626,0.17818981409072876,-0.06844466924667358,0.14288096129894257,0.6733388399964472,-0.5761566671584549,0.30026016408388345,0.3528487946901241
1681569133887470600,3.352470703125,2.4824604988098145,-0.016385769471526146,-2.486222743988037,0.796383798122406,0.5804451107978821,-0.1698717176914215,0.1600523591041565,-0.1060187816619873,0.1782640814781189,0.6848335978320291,-0.5715800112623793,0.29725482308309853,0.3404979211616542
1681569133897470500,3.362470458984375,2.501372814178467,-0.06562335789203644,-2.3617336750030518,0.7820526957511902,0.5951662659645081,-0.18485352396965027,0.1459258794784546,-0.14272791147232056,0.21144956350326538,0.696043248783535,-0.5664931230307445,0.29437863084916865,0.3285584117148415
1681569133907470600,3.372470703125,2.50893497467041,-0.12245067954063416,-2.230436086654663,0.7680339813232422,0.6081534624099731,-0.20068199932575226,0.1263142228126526,-0.17251503467559814,0.23699790239334106,0.7069584031754428,-0.5609152513226594,0.2916043287706982,0.3170975411096682
1681569133917469400,3.382469482421875,2.493765115737915,-0.173812136054039,-2.085623025894165,0.7544655203819275,0.6193661093711853,-0.21718047559261322,0.10899877548217773,-0.18700838088989258,0.2563803195953369,0.7175233579056737,-0.5549030697559565,0.28895041666082183,0.30618697957387914
1681569133927469600,3.392469482421875,2.4706103801727295,-0.22389528155326843,-1.9449310302734375,0.7414290904998779,0.6288498044013977,-0.23415988683700562,0.09868931770324707,-0.2173202633857727,0.2734359800815582,0.7276914333240844,-0.5485373598947576,0.2864032504208627,0.2958801974531361
1681569133937469400,3.402469482421875,2.4475955963134766,-0.27054303884506226,-1.8077806234359741,0.728941023349762,0.6366905570030212,-0.251535564661026,0.08818233013153076,-0.25380176305770874,0.2894231379032135,0.7374779998632208,-0.5418521450747522,0.2839515249205048,0.2861712756312233
1681569133947469600,3.412469482421875,2.418825387954712,-0.3145163059234619,-1.6648988723754883,0.7170634269714355,0.6429125070571899,-0.26922792196273804,0.07448625564575195,-0.27378714084625244,0.29658687114715576,0.7468907919928156,-0.5348626649062139,0.28161671026266977,0.2770707354005165
1681569133957469700,3.4224697265625,2.3659472465515137,-0.3534504175186157,-1.5220197439193726,0.7058428525924683,0.6475983262062073,-0.28705841302871704,0.060621440410614014,-0.2882843017578125,0.30260708928108215,0.7558953258526377,-0.5276475295068215,0.27939018492415896,0.2686105477372938
1681569133967469600,3.432469482421875,2.2848856449127197,-0.38912585377693176,-1.3871992826461792,0.6952974796295166,0.6509007215499878,-0.3047783672809601,0.0539853572845459,-0.3088597059249878,0.3190452456474304,0.7644366865082061,-0.5203321189851672,0.27724593010443327,0.26081758672954997
1681569133977469700,3.4424697265625,2.1777961254119873,-0.4196026623249054,-1.2496628761291504,0.6854270100593567,0.6530145406723022,-0.3221207559108734,0.05058068037033081,-0.33221375942230225,0.339302122592926,0.7724567323951358,-0.5130606497568884,0.27515157963256004,0.2537142890107741
1681569133987469600,3.452469482421875,2.0547921657562256,-0.43854251503944397,-1.1177008152008057,0.6762568354606628,0.6540902256965637,-0.33888471126556396,0.04462939500808716,-0.3496926426887512,0.3629325032234192,0.7799237204963813,-0.505931819453214,0.2731128789435549,0.24730843901264626
1681569133997469700,3.4624697265625,1.937603235244751,-0.4570746123790741,-0.9859405159950256,0.6678143739700317,0.6542404890060425,-0.3549555838108063,0.03859126567840576,-0.36461341381073,0.3857172727584839,0.7868358010612813,-0.4989973217986183,0.27115288312568286,0.2415932438556407
1681569134007469600,3.472469482421875,1.8033064603805542,-0.4693499207496643,-0.8596659302711487,0.6600897312164307,0.6535845994949341,-0.37028199434280396,0.034246206283569336,-0.3691149950027466,0.40671998262405396,0.7932056752961616,-0.4922964825976261,0.2692641490663557,0.23657090369559794
1681569134017469700,3.4824697265625,1.649025559425354,-0.477049857378006,-0.7411928176879883,0.6530475616455078,0.6523398756980896,-0.3846838176250458,0.04109007120132446,-0.3649405837059021,0.4256231188774109,0.7990080472469201,-0.4859436069313124,0.26742644603639376,0.23222424698547467
1681569134027469600,3.492469482421875,1.4845178127288818,-0.48538076877593994,-0.6281461715698242,0.6466532945632935,0.6506949663162231,-0.39803972840309143,0.04604995250701904,-0.3663780093193054,0.44439592957496643,0.8042314341376832,-0.48002719659536675,0.2656200913725123,0.22854249725277925
1681569134037469700,3.5024697265625,1.3035087585449219,-0.4802914559841156,-0.5186423659324646,0.6408294439315796,0.6488484740257263,-0.4102844297885895,0.04625856876373291,-0.3753804564476013,0.4628356695175171,0.8088846887671893,-0.47461852535831367,0.2638087196860449,0.225494521395629
1681569134047469600,3.512469482421875,1.0889527797698975,-0.4761108160018921,-0.4133497178554535,0.6357408761978149,0.6469031572341919,-0.4211292266845703,0.04608285427093506,-0.37612074613571167,0.4758319556713104,0.812879345880297,-0.46984742280713065,0.2620663821122556,0.2231407037875121
1681569134057469700,3.5224697265625,0.8660888671875,-0.4718860685825348,-0.3105471134185791,0.6313437819480896,0.6450662612915039,-0.4304587244987488,0.0509987473487854,-0.3748025894165039,0.4881826639175415,0.8161942949858465,-0.46581806248982216,0.26035393678796676,0.2214866722883665
1681569134067469600,3.532469482421875,0.6491626501083374,-0.4630776643753052,-0.20520897209644318,0.6276410222053528,0.6434174180030823,-0.4382701516151428,0.06541311740875244,-0.38645946979522705,0.500953197479248,0.8188418202989016,-0.4625489334179827,0.25867625549278206,0.22052928709462072
1681569134077469700,3.5424697265625,0.45138314366340637,-0.454301118850708,-0.11006493866443634,0.6245914697647095,0.6419886946678162,-0.44467514753341675,0.09446364641189575,-0.39739036560058594,0.5116764307022095,0.8208761115295805,-0.4599962552673274,0.25703282104685043,0.2202270577314872
1681569134087468500,3.552468505859375,0.2592003643512726,-0.4348408877849579,-0.022489817813038826,0.6221669316291809,0.6408277750015259,-0.4497200846672058,0.12272137403488159,-0.3925215005874634,0.519971489906311,0.8223328683096444,-0.45813910578535827,0.2554379021640189,0.2205191979701864
1681569134097468700,3.56246875,0.05755629017949104,-0.41703957319259644,0.06051698327064514,0.6203652024269104,0.6399883031845093,-0.45338964462280273,0.1431998610496521,-0.3846935033798218,0.5264028906822205,0.8232177237049102,-0.4569895479576245,0.2539010372630596,0.2213765516091892
1681569134107468500,3.572468505859375,-0.1528366208076477,-0.3903017044067383,0.13264045119285583,0.6191415786743164,0.6396031975746155,-0.45560017228126526,0.15600484609603882,-0.383118212223053,0.5266908407211304,0.8235146927542604,-0.4566122751212907,0.25239878139670524,0.22276382556048793
1681569134117468700,3.58246875,-0.3800993263721466,-0.3424290716648102,0.20376689732074738,0.618529736995697,0.6397810578346252,-0.4561810791492462,0.16099601984024048,-0.3847914934158325,0.5346722602844238,0.823184559328585,-0.45708393494143457,0.2509656029371933,0.22462800574757585
1681569134127468500,3.592468505859375,-0.6055500507354736,-0.28482115268707275,0.26538363099098206,0.6186062693595886,0.6405782699584961,-0.45495712757110596,0.15991246700286865,-0.3881978392601013,0.5413675904273987,0.8221799880315847,-0.4584691432807926,0.24965473120278436,0.22693349881686234
1681569134137468700,3.60246875,-0.8042013049125671,-0.21081450581550598,0.3320736587047577,0.6193847060203552,0.6419451832771301,-0.45196110010147095,0.15740966796875,-0.3911517858505249,0.5381121635437012,0.8205238474865866,-0.4607208770395149,0.24850698730394882,0.22961069756952754
1681569134147468500,3.612468505859375,-0.9425352215766907,-0.12010270357131958,0.41708922386169434,0.6210540533065796,0.6435794234275818,-0.4473225176334381,0.1791473627090454,-0.3917178511619568,0.5374408960342407,0.8182631890615204,-0.4636697348727977,0.24768755035030923,0.23260825922965706
1681569134157468700,3.62246875,-1.009525179862976,-0.03364485129714012,0.5120815634727478,0.6237062215805054,0.6450499892234802,-0.4414759874343872,0.21424543857574463,-0.384490966796875,0.5284816026687622,0.8155296495235442,-0.4670146963092328,0.2473040176333561,0.23590123442313302
1681569134167468500,3.632468505859375,-0.9764280319213867,0.07130207121372223,0.6247218251228333,0.6274420022964478,0.6458839774131775,-0.4349142014980316,0.24293452501296997,-0.37349939346313477,0.5122305154800415,0.8124971891757533,-0.47039708747780246,0.24752671723284397,0.23938551577866143
1681569134177468400,3.642468505859375,-0.8875476121902466,0.14431490004062653,0.7758569121360779,0.6324253678321838,0.6455051302909851,-0.42820701003074646,0.2673243284225464,-0.3525974750518799,0.49780234694480896,0.8093204273294687,-0.4734406831325175,0.24849631671628766,0.24311290325157187
1681569134187468500,3.652468505859375,-0.7970739006996155,0.201365128159523,0.9547731280326843,0.6387127041816711,0.64361572265625,-0.42166927456855774,0.28877753019332886,-0.332794189453125,0.47245049476623535,0.8060441980022994,-0.47598817712431557,0.2502011507229104,0.24723966384684726
1681569134197468400,3.662468505859375,-0.6997494101524353,0.2330024242401123,1.1752575635910034,0.6464399099349976,0.639927089214325,-0.41546207666397095,0.32531601190567017,-0.31511324644088745,0.46865415573120117,0.8026630232463964,-0.47793312304287167,0.25268337884866937,0.2519188469725168
1681569134207468500,3.672468505859375,-0.6012502312660217,0.26564931869506836,1.4443638324737549,0.6557926535606384,0.6341058015823364,-0.40968984365463257,0.3841547966003418,-0.2988244891166687,0.4589451849460602,0.799118885514047,-0.47920174151704154,0.25597026052525307,0.2573981627473571
1681569134217468400,3.682468505859375,-0.4877530038356781,0.29923564195632935,1.7132493257522583,0.6669100522994995,0.6258898377418518,-0.40434253215789795,0.4498502016067505,-0.2814685106277466,0.43365469574928284,0.7953783734800555,-0.4797206094835087,0.26018623250200834,0.26371290144428233
1681569134227468500,3.692468505859375,-0.3237081468105316,0.3314652144908905,1.9946035146713257,0.6796596050262451,0.6150525808334351,-0.3997163772583008,0.5212070941925049,-0.25210702419281006,0.426754891872406,0.7915173079709261,-0.4793178706980051,0.26532279817610516,0.2708478647657983
1681569134237468400,3.702468505859375,-0.15766488015651703,0.4095137417316437,2.2770698070526123,0.6941244006156921,0.601327657699585,-0.3957226872444153,0.5923593640327454,-0.19893813133239746,0.4247601628303528,0.7875115530866027,-0.4779039738435165,0.27156297009947966,0.2787238022462971
1681569134247468800,3.71246875,-0.09398975968360901,0.5117636919021606,2.5436861515045166,0.71024090051651,0.5848594903945923,-0.39178702235221863,0.6505531072616577,-0.14780205488204956,0.374636173248291,0.7831855195978368,-0.4756991360419316,0.2789566554192022,0.28725221328819966
1681569134257468700,3.72246875,-0.2086554765701294,0.5820409655570984,2.738879442214966,0.7276287078857422,0.5663657784461975,-0.38702234625816345,0.6619281768798828,-0.12444072961807251,0.27024680376052856,0.7782104954322399,-0.4733003555274829,0.28718566392508105,0.2964786355053774
1681569134267467500,3.732467529296875,-0.4929679036140442,0.6287970542907715,2.830650568008423,0.7454888224601746,0.5471292734146118,-0.3806520402431488,0.6609290242195129,-0.11635839939117432,0.16066604852676392,0.7723129610814976,-0.4714770323664599,0.2956068066503909,0.30636366334691634
1681569134277467400,3.74246728515625,-0.8786707520484924,0.6874249577522278,2.853289842605591,0.7632659077644348,0.5282406806945801,-0.37200382351875305,0.6636750102043152,-0.12417274713516235,0.07094791531562805,0.7652827992312846,-0.47086918487414886,0.3037767335083768,0.31677127257624405
1681569134287467500,3.752467529296875,-1.2837531566619873,0.7184411883354187,2.8213019371032715,0.7806128859519958,0.510267436504364,-0.3609304130077362,0.6316033005714417,-0.12373179197311401,-0.012955725193023682,0.757066494076002,-0.47175649615926085,0.3114170842754823,0.32759062169721487
1681569134297467600,3.762467529296875,-1.6065046787261963,0.7287498712539673,2.7485098838806152,0.7971575856208801,0.4934345781803131,-0.34793993830680847,0.5526349544525146,-0.09391364455223083,-0.1034456193447113,0.7478578541117387,-0.4740346335326518,0.318309918175198,0.3386424163749606
1681569134307467800,3.7724677734375,-1.8815778493881226,0.7092568278312683,2.6525778770446777,0.8127427101135254,0.47763487696647644,-0.33363768458366394,0.46511977910995483,-0.06598326563835144,-0.15827515721321106,0.7378848691353399,-0.47743041010337994,0.32440924351854955,0.34977808686781575
1681569134317467600,3.782467529296875,-2.0456438064575195,0.6761751770973206,2.532989740371704,0.8272004723548889,0.46279218792915344,-0.31868886947631836,0.39483004808425903,-0.06008225679397583,-0.18683478236198425,0.7274216856875653,-0.4816361410397155,0.3296698225448629,0.3608351980777662
1681569134327467800,3.7924677734375,-2.0901060104370117,0.6094089150428772,2.3955600261688232,0.8404448628425598,0.4486977159976959,-0.3038465976715088,0.3550964593887329,-0.05154195427894592,-0.2018907070159912,0.7168115138874162,-0.48622389238017755,0.33416017824703464,0.37162423064231553
1681569134337467600,3.802467529296875,-2.020399332046509,0.532036542892456,2.2527990341186523,0.8524177074432373,0.435139924287796,-0.28989192843437195,0.3518211841583252,-0.03714492917060852,-0.21090155839920044,0.7064320201391713,-0.4907336026261838,0.3379860420366091,0.38196835163016807
1681569134347467800,3.8124677734375,-1.8292888402938843,0.44031378626823425,2.122629165649414,0.8631705641746521,0.4218656122684479,-0.2774275541305542,0.3831214904785156,-0.011800915002822876,-0.21260851621627808,0.6966168830525628,-0.49473915430979665,0.3413493796232741,0.3917125729468729
1681569134357467600,3.822467529296875,-1.5801390409469604,0.35228192806243896,2.00645112991333,0.8728261590003967,0.4085875451564789,-0.2668910026550293,0.41722816228866577,0.029583841562271118,-0.21347099542617798,0.6876139553300054,-0.49788847259781505,0.34447289130975606,0.40078999423827655
1681569134367467500,3.832467529296875,-1.3606303930282593,0.2627565860748291,1.8817936182022095,0.881457507610321,0.39536044001579285,-0.2583077847957611,0.41495972871780396,0.07753995060920715,-0.21164768934249878,0.6794835077051344,-0.5001523640064365,0.34741000807603234,0.4092140584525553
1681569134377467600,3.842467529296875,-1.2191424369812012,0.17876508831977844,1.7429693937301636,0.8890747427940369,0.3825848698616028,-0.2513463795185089,0.37047725915908813,0.11672848463058472,-0.20142769813537598,0.6721338779995272,-0.5017907068554799,0.3500469931206235,0.4170243002161475
1681569134387467500,3.852467529296875,-1.154889464378357,0.10126762092113495,1.5975791215896606,0.8957146406173706,0.3706265687942505,-0.24562418460845947,0.2930060625076294,0.1324862241744995,-0.17092548310756683,0.6653988391394539,-0.5031161292710727,0.35222445295520444,0.42433059101031
1681569134397467600,3.862467529296875,-1.1157565116882324,0.032716795802116394,1.44887113571167,0.9014462232589722,0.3596979081630707,-0.2408570796251297,0.19279205799102783,0.1284613013267517,-0.136202871799469,0.6591580091957456,-0.5043348313164265,0.3538613308293419,0.4312067481833234
1681569134407467500,3.872467529296875,-1.0996131896972656,-0.029007822275161743,1.328252911567688,0.9064024090766907,0.3497718870639801,-0.2368420660495758,0.08108532428741455,0.127751886844635,-0.10793028771877289,0.6533202439577356,-0.5055279369459297,0.35499362194284967,0.4377140324411578
1681569134417467600,3.882467529296875,-1.1041711568832397,-0.0764072984457016,1.221418857574463,0.9107071757316589,0.3407711982727051,-0.23342575132846832,-0.029679954051971436,0.13598966598510742,-0.09259355068206787,0.6477878090883971,-0.5067576279008945,0.3556456560724372,0.4439413396876201
1681569134427467500,3.892467529296875,-1.123425006866455,-0.11362098157405853,1.1205612421035767,0.9144524931907654,0.3326687812805176,-0.23045195639133453,-0.11563962697982788,0.14479398727416992,-0.08882296085357666,0.6424950761332395,-0.508078790900987,0.3558510402160972,0.4499178391374692
1681569134437467600,3.902467529296875,-1.3108373880386353,-0.16316184401512146,0.9655068516731262,0.9176175594329834,0.32580527663230896,-0.22765988111495972,-0.1752622127532959,0.14250221848487854,-0.07808053493499756,0.6372804867778663,-0.5097739149810444,0.3553879812438153,0.45574508644025513
1681569134447467500,3.912467529296875,-1.5596171617507935,-0.17257477343082428,0.8185250759124756,0.9200868010520935,0.32105448842048645,-0.22441986203193665,-0.21850299835205078,0.14284318685531616,-0.06778596341609955,0.6318174796995457,-0.5124893507840523,0.3537580182935635,0.4615371848098869
1681569134457467600,3.922467529296875,-1.487603783607483,-0.17508207261562347,0.8997227549552917,0.9225178956985474,0.3162587285041809,-0.22122609615325928,-0.24891877174377441,0.1363321840763092,-0.07053723931312561,0.6261500150580422,-0.5152981900484779,0.35192999920341594,0.4674923940958204
1681569134467466500,3.932466552734375,-1.4093468189239502,-0.1829727441072464,0.7531647086143494,0.9246436357498169,0.3120635449886322,-0.21828995645046234,-0.2652961015701294,0.0927826464176178,-0.04496997594833374,0.6208265989637994,-0.5180083065778972,0.3500320179397472,0.472989766925442
1681569134477466600,3.942466552734375,-1.314355731010437,-0.15527035295963287,0.7856563925743103,0.9266750812530518,0.30786585807800293,-0.21562013030052185,-0.305367648601532,0.11791542172431946,0.015836745500564575,0.6157534905893327,-0.5204656429458107,0.3482893137704136,0.47818178105195136
1681569134487466500,3.952466552734375,-1.247571349143982,-0.1292741745710373,0.7886058688163757,0.9287754893302917,0.30331897735595703,-0.2130117416381836,-0.3167148232460022,0.20312029123306274,0.015379875898361206,0.6107689733478,-0.5226887437980321,0.3468293618048289,0.48318454078947454
1681569134497466600,3.962466552734375,-1.1573264598846436,-0.11286810040473938,0.822054386138916,0.9309393167495728,0.2983837127685547,-0.21052078902721405,-0.3031623363494873,0.16726872324943542,0.026301413774490356,0.6058685821188063,-0.5246647220185363,0.3456393152722217,0.48804056788920386
1681569134507466500,3.972466552734375,-1.0281628370285034,-0.07471911609172821,0.8712432384490967,0.9332431554794312,0.2927926182746887,-0.20815785229206085,-0.32868993282318115,0.12410801649093628,0.04324084520339966,0.6010814448009102,-0.5262776122547721,0.34489556128207094,0.4927271196170199
1681569134517466600,3.982466552734375,-0.9125768542289734,-0.03729604557156563,0.9166263937950134,0.9357200264930725,0.28643932938575745,-0.20586596429347992,-0.30454009771347046,0.16323724389076233,0.038507550954818726,0.5964114376398586,-0.5274990266214861,0.34469086959418793,0.497218823759476
1681569134527466500,3.992466552734375,-0.8243801593780518,-0.0005638636648654938,0.9622194170951843,0.9383443593978882,0.27938878536224365,-0.2035970389842987,-0.27643340826034546,0.19856226444244385,0.04698081314563751,0.5918058150053499,-0.5284008782855981,0.3449550552055992,0.5015619380517871
1681569134537466600,4.002466552734375,-0.7695784568786621,0.04280504584312439,0.992904782295227,0.9410881400108337,0.27179908752441406,-0.20119185745716095,-0.2827325463294983,0.20178788900375366,0.06020060181617737,0.5872004285909251,-0.5291109861521849,0.34560908023458276,0.5057582722918904
1681569134547466500,4.012466552734375,-0.7227625250816345,0.08778290450572968,1.031605839729309,0.9439258575439453,0.26374924182891846,-0.19859646260738373,-0.28595149517059326,0.21092119812965393,0.061160534620285034,0.582550190745243,-0.5296989039392351,0.3465845299383014,0.5098368714127336
1681569134557466600,4.022466552734375,-0.7097873091697693,0.1338215172290802,1.0453842878341675,0.9468445181846619,0.2553122639656067,-0.1957072615623474,-0.2659361958503723,0.2263619601726532,0.06146034598350525,0.5778101711981485,-0.5302380051312683,0.34784195253341677,0.513798788729701
1681569134567466500,4.032466552734375,-0.736405074596405,0.18144042789936066,1.0341616868972778,0.9497627019882202,0.2468520551919937,-0.19239288568496704,-0.24613410234451294,0.24451148509979248,0.051523685455322266,0.5729398298266088,-0.5309097106070791,0.3491968414130638,0.5176258006725717
1681569134577466400,4.04246630859375,-0.7933504581451416,0.23675648868083954,1.0154467821121216,0.9526476263999939,0.23855583369731903,-0.18855701386928558,-0.2366899847984314,0.25024423003196716,0.042072594165802,0.567886011960697,-0.5318343114850262,0.3505335378626969,0.5213291370564271
1681569134587466500,4.052466552734375,-0.8591119050979614,0.28993529081344604,0.9733781814575195,0.955479085445404,0.2305888682603836,-0.1840890496969223,-0.2329447865486145,0.24427996575832367,0.0500558465719223,0.5626114703328026,-0.5331156323623192,0.3517715186464103,0.5248933741818743
1681569134597466600,4.062466552734375,-0.9157403111457825,0.3497985303401947,0.911541223526001,0.9581983685493469,0.22318173944950104,-0.1790134608745575,-0.2369154691696167,0.24552248418331146,0.0511753112077713,0.5571919716460241,-0.534785693969764,0.3528420733586648,0.5282460315322658
1681569134607466800,4.072466796875,-0.9200434684753418,0.40548470616340637,0.834876298904419,0.9607847332954407,0.21642440557479858,-0.17335867881774902,-0.24316388368606567,0.2529359459877014,0.03866934776306152,0.5517361746369813,-0.5368027816661795,0.35378444246816476,0.5312876726770035
1681569134617466600,4.082466552734375,-0.8640627861022949,0.46142154932022095,0.7631820440292358,0.9632307887077332,0.21026217937469482,-0.16726142168045044,-0.24446547031402588,0.2629433870315552,0.018030405044555664,0.5464295822879317,-0.539004332370302,0.3547444389900503,0.5338965222751956
1681569134627466800,4.092466796875,-0.763186514377594,0.507969081401825,0.6980525851249695,0.9655426144599915,0.20456326007843018,-0.1608773171901703,-0.24723511934280396,0.2819632291793823,-0.0060691237449646,0.5414114932347154,-0.5412271767075255,0.3558573969091142,0.536015234372024
1681569134637466600,4.102466552734375,-0.6314652562141418,0.5477721095085144,0.6368315815925598,0.9677205681800842,0.19922663271427155,-0.15435610711574554,-0.25200706720352173,0.30442023277282715,-0.04222285747528076,0.536781736151903,-0.5433457439089587,0.35720771469164186,0.5376276765065702
1681569134647466800,4.112466796875,-0.4651729166507721,0.5791431069374084,0.5801752209663391,0.9697722792625427,0.1941586285829544,-0.14779862761497498,-0.2508085370063782,0.3158359229564667,-0.0759715586900711,0.5326334183624859,-0.5452477329708864,0.35889496039445923,0.5387031588984385
1681569134657466600,4.122466552734375,-0.2754683792591095,0.5954731702804565,0.5282924771308899,0.9716846346855164,0.18932439386844635,-0.14136967062950134,-0.23944586515426636,0.32456111907958984,-0.09566038846969604,0.5290743089829542,-0.5468208660112981,0.3609738339395405,0.5392265448500234
1681569134667465700,4.1324658203125,-0.09249430894851685,0.5986080169677734,0.48095160722732544,0.9734529256820679,0.18467696011066437,-0.13521867990493774,-0.22452092170715332,0.3412325084209442,-0.11725325882434845,0.5261361345554525,-0.5479995030626584,0.3634380368527191,0.5392497283997095
1681569134677465600,4.142465576171875,0.06074400991201401,0.5802253484725952,0.4495496153831482,0.9750816226005554,0.18018130958080292,-0.12942413985729218,-0.19598311185836792,0.3577978312969208,-0.1452493667602539,0.523767538630105,-0.5487878209899094,0.36622377594161815,0.538868866370703
1681569134687465700,4.1524658203125,0.18814857304096222,0.5602931976318359,0.4373355805873871,0.9765937328338623,0.17570149898529053,-0.12407196313142776,-0.1481940746307373,0.37244001030921936,-0.17417633533477783,0.5218697612516894,-0.5491837472525812,0.3692712124272136,0.5382267476708937
1681569134697465600,4.162465576171875,0.23560234904289246,0.5208932161331177,0.4488980770111084,0.9780163168907166,0.17112018167972565,-0.11917205899953842,-0.09470027685165405,0.37847089767456055,-0.20251375436782837,0.5202892470700008,-0.5492422083599378,0.37248753935141465,0.537480329405014
1681569134707465700,4.1724658203125,0.19428393244743347,0.4932927191257477,0.4526115655899048,0.9793727397918701,0.16643916070461273,-0.11457382142543793,-0.04435992240905762,0.39224618673324585,-0.22272175550460815,0.5187178122547708,-0.5491974231340102,0.3756265178444471,0.5368601492439491
