,seconds_elapsed,rotationRateX,rotationRateY,rotationRateZ,gravityX,gravityY,gravityZ,accelerationX,accelerationY,accelerationZ,quaternionX,quaternionY,quaternionZ
0,1.0,0.505737328941228,0.2852097300728691,-0.4947604685108549,-0.7632558808412879,0.2871394568289494,-0.578774537889967,0.42654257459149153,-0.5511773993252629,-0.07844269161855394,-0.38619104861302567,-0.24792548662653308,-0.5307761466335946
1,1.01,0.534308582933581,0.2671824224937684,-0.23122169267403345,-0.7626870041107637,0.2812868169316998,-0.5823899883374826,0.3803464856811549,-0.5473640196616347,-0.01646222804504826,-0.3831100397646485,-0.2490577054564581,-0.5319281396398913
2,1.02,0.30846480458662573,0.2497737156024635,-0.057664916025171056,-0.7615479651426803,0.2776441203122923,-0.585623282661702,0.3017725259936578,-0.5470247926366624,0.03306577542339299,-0.38065796657910556,-0.24957346528220103,-0.5323599400230551
3,1.03,-0.09783376903611521,0.2509893082186497,0.05083855759663583,-0.7598127060513231,0.27702032544644833,-0.5881688272501062,0.2556537228829546,-0.5099349642295552,0.07056519767274813,-0.37950435121524967,-0.24878034506213934,-0.5328289582222121
4,1.04,-0.4356963647020483,0.24946482492996758,0.12252674346912111,-0.758020213564822,0.27928650869446897,-0.5894082524807368,0.25088623431735985,-0.43822678937577014,0.12565518123172978,-0.37987868040357126,-0.24695580106063666,-0.5333406236252792
5,1.05,-0.7171222724769497,0.2829641126458936,0.1336480948889775,-0.7561169891500373,0.2836420531166606,-0.5897705284004175,0.245966755274619,-0.3015988219759848,0.17914276274583107,-0.3813937482848331,-0.24423622782538748,-0.534102721936541
6,1.06,-0.941547173769953,0.32025016475918255,0.14153261270288833,-0.7539035084715648,0.2896130086257502,-0.5896993059805121,0.22283320975532409,-0.13005955514927298,0.18072769741501066,-0.3837126601179411,-0.24064717358640084,-0.5351957378185066
7,1.07,-1.0795761076812835,0.3209311569723042,0.12317095019878373,-0.7516158406749193,0.2965768615932502,-0.5891562569613149,0.16202786211878784,0.019694847616175973,0.15624848007064418,-0.38661933308181,-0.23652122765348166,-0.5365706249248371
8,1.08,-1.1229519579844154,0.2829441573860011,0.135356015272708,-0.7494349783788642,0.30404130666600376,-0.5881277956375023,0.09328394231684703,0.05023907800912765,0.12720685309446844,-0.38987290098731664,-0.23222764720611175,-0.5379873811118661
9,1.09,-1.266667086444795,0.21964376759715376,0.10827729092852673,-0.74757704755757,0.31187727825017647,-0.5863856896292419,0.046471148938871894,0.053537876182235766,0.06814167345874005,-0.3935150768541883,-0.22791872561237153,-0.5394029991116255
10,1.1,-1.6624982081792519,0.170921115286008,0.1011147726487632,-0.7461288225570453,0.3211370951752841,-0.583217311387463,0.033570667550321315,0.05373913107329079,-0.012342180634328563,-0.3982509093926936,-0.22311015439040283,-0.5410592282697151
11,1.11,-2.039643754522216,0.10875209877856476,0.16541949949689627,-0.7449117651753691,0.3329133466699186,-0.5781349443527308,0.006825612359137066,-0.040978643391935896,-0.053846439532431234,-0.40458811553487795,-0.21731444731987923,-0.5429371250057212
12,1.12,-2.15837973192534,0.007333810444263497,0.203438250409774,-0.7439027145992816,0.34645032003223986,-0.5714328181243313,-0.031640049010365275,-0.1845237588036405,-0.0387777115742831,-0.4120155902422076,-0.21096936057088775,-0.5446573690958315
13,1.1300000000000001,-2.1513942346474852,-0.11606214265273912,0.2502792466955994,-0.7434094905524407,0.3603587419362872,-0.5634135057697368,-0.03980173750118804,-0.22263228639719096,-0.03615882167598242,-0.4199170610362146,-0.20480254968609377,-0.5460115793328036
14,1.1400000000000001,-2.12273312940411,-0.2219218656836557,0.31845821677603925,-0.7433270403406851,0.3744281124109963,-0.5542694616123911,-0.02366411798578135,-0.13253999902399766,-0.13579070569394658,-0.4280973417163674,-0.19894468087754694,-0.5468324477551803
15,1.1500000000000001,-2.121256101818564,-0.34284030515212854,0.36672069211888747,-0.7435633290565147,0.3886340216458106,-0.5440761654108826,0.0029179497577234495,-0.05172422516989336,-0.284129533955185,-0.43651669446959573,-0.19338054505958238,-0.5471053626745832
16,1.1600000000000001,-2.1307166909364734,-0.4508926257396177,0.3985140791989195,-0.7441774085835293,0.40291043589519077,-0.5327284440866433,0.02054614844989653,-0.04400575931741249,-0.3905509311375963,-0.44524226265879124,-0.18808373592297115,-0.5469496906250484
17,1.1700000000000002,-2.1085775147657837,-0.4888428725796988,0.3915825286938339,-0.7450588767707814,0.41707236955408034,-0.5204529966635162,0.000595212553161556,-0.023257430331431544,-0.3636563066916993,-0.45415787674526803,-0.18301492657609378,-0.5464739866218495
18,1.1800000000000002,-2.0665502215735607,-0.48868229378713285,0.3921491641231115,-0.7459281705319881,0.430732613176224,-0.5079340107156892,-0.05391843699035357,0.0267379156430263,-0.22972448846557791,-0.46293418174415346,-0.17806230954089086,-0.5459298502040769
19,1.1900000000000002,-1.857242999342265,-0.4751905177865407,0.3824363857740533,-0.7466548908560071,0.4435711489932148,-0.4956749263335948,-0.16630958280875602,0.07512260061339565,-0.08754353650728894,-0.47125772443963554,-0.17338455752616222,-0.5452278842822845
20,1.2000000000000002,-1.5371138689108124,-0.4269961076613969,0.37866322024201504,-0.7471692555292975,0.454675882108859,-0.4847330138582035,-0.28783349157311255,0.11464472056832237,-0.015384006375096605,-0.478461687305436,-0.16940010658156754,-0.5443384745208594
21,1.2100000000000002,-1.4839069796431643,-0.3745171322545067,0.34769068525665026,-0.7474143735324597,0.46454482598806784,-0.4749055705026078,-0.3030632214655406,0.2306098405305534,-0.03744135862475869,-0.48481279890189233,-0.16581411427619724,-0.543399766734854
22,1.2200000000000002,-1.4591885637546052,-0.2794766892304774,0.33249837264959564,-0.7474218998565004,0.4740254743385195,-0.46543220895648535,-0.29862581524183834,0.33529430564811696,-0.02278893880276635,-0.49092444080223785,-0.16207232678834566,-0.5426983253080405
23,1.2300000000000002,-1.1220325502334085,-0.1538228051111195,0.41688687151763787,-0.7466281432891264,0.48284847293398353,-0.4575802849081809,-0.28508005847688733,0.24130049484665228,0.05266728716669759,-0.49612073510071986,-0.1583255862181048,-0.5419724344805742
24,1.2400000000000002,-0.8408420395455283,-0.05338566418104,0.4160667640855529,-0.7450310673099011,0.49040240304893823,-0.4521277574298436,-0.23987013135338103,0.2538489271071751,0.06834885607240702,-0.49991309357139874,-0.15498029128318822,-0.5410971349935619
25,1.2500000000000002,-0.7796064669848419,-0.04103008715210325,0.38108592939097374,-0.7432491255458444,0.4969951051811223,-0.44784503770060824,-0.2008356111589813,0.3493326347728744,0.09327032305882368,-0.5029786990506346,-0.1519428607847965,-0.5402953859082417
26,1.2600000000000002,-0.6194168197107464,-0.09625542946669272,0.37162814293405966,-0.7416742563131266,0.5029957173916046,-0.4437392972991801,-0.20911019453778898,0.31151718365726844,0.20204421962262356,-0.5058119508103119,-0.14927132125171994,-0.5394369470887855
27,1.2700000000000002,-0.11556718161414781,-0.1484693364469347,0.3344546082158726,-0.7404404324869205,0.5073359997303398,-0.44085617772804675,-0.1062430199697179,0.28996674112721504,0.19914316288111658,-0.5076849331288074,-0.14774030360872933,-0.5382471681097213
28,1.2800000000000002,0.46591096578933117,-0.16386846139321287,0.31080961944680857,-0.7394935553471441,0.5089072048649541,-0.4406386478294735,0.05937836051016772,0.3656560482791999,-0.0010009795711146408,-0.507737657893327,-0.14792913607951894,-0.536659029565252
29,1.2900000000000003,0.835356633663476,-0.15711104323709119,0.25486415609520746,-0.7387758104261593,0.5080865847470704,-0.4427827381819953,0.10013159049121885,0.5135884823525015,-0.20865132167019082,-0.5062137440187212,-0.14951568933130646,-0.5348207091016625
30,1.3000000000000003,1.1854018127996915,-0.14663658685785744,0.25386374492845837,-0.7382080025054165,0.5054226715146796,-0.44675664338501525,0.07687688154983259,0.5604485649586425,-0.22458799668238388,-0.5034726524960752,-0.15209792553610837,-0.5328470294094843
31,1.3100000000000003,1.573383834446161,-0.13671297643148536,0.2904754237674016,-0.7374543731516205,0.5011924013697376,-0.45271999387714323,0.09121351285144433,0.4787913445456503,-0.15210965708372728,-0.49943454251271047,-0.15556040158552858,-0.5305244077839986
32,1.3200000000000003,1.7503087516204818,-0.140405612166021,0.3227953862181778,-0.736576796660639,0.4958041806969656,-0.46001747042396895,0.12281573874908396,0.4026879746828739,-0.13193928901462537,-0.49445003353372025,-0.15969337766689037,-0.5278416239097499
33,1.3300000000000003,1.748696698056623,-0.14276743993967478,0.3775029167547126,-0.7355042838582292,0.4902710023969203,-0.46760147188527607,0.1521527323759169,0.3830168268680222,-0.11689543994950517,-0.4892083725127235,-0.16390844205327346,-0.5249008840841161
34,1.3400000000000003,1.7530779027079724,-0.1397247726040359,0.3747536459634058,-0.7343359181245397,0.48481762843428744,-0.4750648833685232,0.15988361480567187,0.268408500413512,-0.04133575649114682,-0.48395898674681553,-0.16805632716108357,-0.521803175335568
35,1.3500000000000003,1.6692966586424272,-0.11217487964085715,0.3922654756724882,-0.7330995839366649,0.4793410174822025,-0.48247397144810167,0.13321261923103314,0.11788182166315059,0.03335253403735832,-0.47869511347124094,-0.17206359957996262,-0.5187277681609309
36,1.3600000000000003,1.3476770125615523,-0.06465859224074785,0.3451512623086722,-0.7317213847786126,0.4746557095941308,-0.489156430758017,0.09751829886435791,0.09429534026670275,0.08995581812459524,-0.4739685867096706,-0.1754133674285519,-0.5159162928547124
37,1.3700000000000003,0.8319149241074997,-0.06627869208304561,0.3160498036964027,-0.7304583397058657,0.47169213251151465,-0.49389527013063844,0.0990479878127897,0.049337227445096485,0.1314357113708981,-0.470628166049574,-0.17764904215550267,-0.513685291563639
38,1.3800000000000003,0.45572760102454285,-0.09121802003566774,0.3157787994545265,-0.7293707404671922,0.47087016565568457,-0.4962850924069166,0.12586955471239866,-0.0733555837949531,0.20463791536093712,-0.4689207441611316,-0.17880248070498025,-0.5118451306174084
39,1.3900000000000003,0.3762381205578509,-0.10549643424505452,0.3357388016889979,-0.728305124934406,0.47130469618232695,-0.4974364736294437,0.13579293211274981,-0.1479333493833217,0.2702657262881528,-0.46808217884336417,-0.17938980308688607,-0.5101030337937623
40,1.4000000000000004,0.48368119383085684,-0.1340480497270628,0.33026210365351244,-0.7273627298767679,0.47159202126349553,-0.4985418219905114,0.13645972040249035,-0.1054823148020639,0.2378694359998899,-0.46720510482454425,-0.1801337875683865,-0.5082730018923821
41,1.4100000000000004,0.5976217236573604,-0.13781992035073903,0.32869438556081154,-0.7265107860992429,0.47127824650815453,-0.5000781833397924,0.13843824846844657,-0.023699243382723015,0.1635966918212922,-0.46595273789743147,-0.18124113968693914,-0.5062878998720056
42,1.4200000000000004,0.6225149089663651,-0.1132338813340264,0.3305863404534776,-0.7255864422919795,0.4706164365428079,-0.5020392148785257,0.1423499446614116,0.0022659082015076535,0.15271439810506163,-0.4644203068877728,-0.18246481035487036,-0.5042682744953818
43,1.4300000000000004,0.6282171701694593,-0.0716446265677386,0.2898881457746549,-0.7246169355288214,0.4697210372873848,-0.504272934574614,0.12592761747340836,-0.035253629085857545,0.15992935710727627,-0.4627450675643141,-0.18365656893432059,-0.5023838971436083
44,1.4400000000000004,0.6379106473967553,-0.030503625079697682,0.24062214521297418,-0.7235940210809524,0.46846225845511363,-0.5069051454773331,0.10876585420158535,-0.08610106155886588,0.12334531292587182,-0.46085940431438516,-0.18481092049135675,-0.5007110132021295
45,1.4500000000000004,0.572983149899035,0.06013070557668701,0.11779643125106869,-0.7226997070903438,0.4666240593522299,-0.5098671604740705,0.1151239487944347,-0.11533077100285624,0.08361102663366565,-0.45881640191253253,-0.18588416788495776,-0.4995556021034106
46,1.4600000000000004,0.34293944482195504,0.10126130494027251,0.04750315457840553,-0.7218709350971039,0.46484942995011796,-0.5126552725967487,0.10013496367609939,-0.10590468463342301,0.06814571198192379,-0.4570185288727446,-0.186563205799896,-0.4989995804159034
47,1.4700000000000004,-0.015597924758567472,0.15342935158405746,-0.04249886578345962,-0.7212114856025437,0.4639765793457627,-0.5143727993621724,0.05259935785142905,-0.0874281690936177,0.0855426996015024,-0.45609572557676353,-0.18652128302490678,-0.49914853029648126
48,1.4800000000000004,-0.2961111184635345,0.15636349561464075,-0.0897503804164457,-0.7206919955526245,0.46435527209978317,-0.5147592355904635,0.021672057680551696,-0.12853524470411057,0.17685637384711833,-0.4562251159051664,-0.18568465931099787,-0.4999049358964389
49,1.4900000000000004,-0.4394251977675646,0.11490122062823267,-0.16548415525976884,-0.7205523642973276,0.4653953314846149,-0.5140146841178648,0.006181023485259417,-0.17153505241585837,0.22763927168271178,-0.457103868174783,-0.18452161710291257,-0.5010271063422943
50,1.5000000000000004,-0.36995472325215206,0.03566298252030296,-0.22871241244647791,-0.721102971007349,0.46607248995132977,-0.5126269803615287,0.031672307362898174,-0.18455466840096074,0.16641762929793474,-0.4582015078446417,-0.18367787829915355,-0.5022910953076868
51,1.5100000000000005,-0.29554830422275424,-0.05229854042250236,-0.2291412518425196,-0.7222518089110964,0.4660980102024041,-0.5109836711693787,0.07325902747980051,-0.11758740212535054,0.0590104906965226,-0.45920054594946674,-0.1834199081394491,-0.5033914795249269
52,1.5200000000000005,-0.2806539382839858,-0.11373162333589232,-0.24328833444606068,-0.7237676776319631,0.4658692443486078,-0.5090432748051887,0.1113500064680285,-0.03238164607480498,-0.09584404657481349,-0.46021164427557354,-0.18353036289850946,-0.50429121020047
53,1.5300000000000005,-0.3262446488871429,-0.17279735033731075,-0.27928862860375314,-0.7257262470986526,0.4654903845690246,-0.50659462979897,0.1289469622760065,-0.06016860726700173,-0.24157445717261317,-0.46139684772480943,-0.1838894255199371,-0.5051609639859365
54,1.5400000000000005,-0.4818539590065568,-0.2158945524024619,-0.3222376268939135,-0.7280896411539289,0.4653325490580755,-0.5033366798394125,0.12032648932945374,-0.07238014861213715,-0.30452706962824033,-0.46301177537903493,-0.1842584197623461,-0.506123155104397
55,1.5500000000000005,-0.7028719515481603,-0.2455798549483018,-0.36790505173849153,-0.7308632616885008,0.46575651403109075,-0.4989028040261471,0.11125652091577612,-0.01776138554850732,-0.2550028387515304,-0.4653576555108272,-0.18436278187020097,-0.5073762798980558
56,1.5600000000000005,-0.7623075008596062,-0.2188880440924529,-0.341928676300447,-0.733684779374744,0.46678021962288774,-0.49377738429757273,0.1104217690881342,-0.04300398493651556,-0.14282963316654226,-0.4681955471382427,-0.18412662519177717,-0.5087909420849739
57,1.5700000000000005,-0.7440579535788845,-0.15486398239590604,-0.2672284773296231,-0.7360375573451166,0.468230813232367,-0.4888793366902971,0.12465187661000611,-0.07072013565630267,-0.06314326711289753,-0.4710161621653873,-0.18358265825673464,-0.5101079645558115
58,1.5800000000000005,-0.7380709733610274,-0.024443955449980917,-0.23221774935009215,-0.7376687663578196,0.4700418767315569,-0.4846662468436987,0.1458097064809418,-0.025370993165412692,-0.062479765093304176,-0.4736270438988479,-0.18260024763933266,-0.5114165347763132
59,1.5900000000000005,-0.6251598162645271,0.12069981614698962,-0.19964352814917766,-0.7383780022963268,0.4717318904079447,-0.4819393582158783,0.15852429410832244,-0.07020594459711903,-0.05778533811229905,-0.4756200425200737,-0.18114863074885224,-0.5129394392851597
60,1.6000000000000005,-0.3006202248506941,0.2532133574568514,-0.17993764837592519,-0.7383666328678373,0.47269327448520926,-0.481015286528418,0.15930011426826227,-0.16930784167562446,-0.030335037801703713,-0.4766548215780531,-0.17969989675004716,-0.5144720505258896
61,1.6100000000000005,0.3239418649791772,0.3943977677699967,-0.10106671876655407,-0.7374802585254655,0.47155835509693117,-0.4834797045477901,0.16664832816604822,-0.18347298011576535,-0.040788062076900694,-0.4756405424772043,-0.1789572135865289,-0.5157351515004633
62,1.6200000000000006,0.6340128115662195,0.50971308470617,-0.05283525530376011,-0.735618094804522,0.468519661320897,-0.48922840771410886,0.21938129969203563,-0.08272732582553644,-0.09632793920900848,-0.4726310025069278,-0.17889514161333991,-0.5165956348398545
63,1.6300000000000006,0.5012418759506398,0.5767794430939864,-0.08335097768759031,-0.7332402499523595,0.46515535084472476,-0.49596103587100554,0.19163911744544374,0.09492317688638038,-0.06404384287088352,-0.4691454692926359,-0.17866088204298283,-0.5176069555648352
64,1.6400000000000006,0.3282241770532964,0.5636248685926187,-0.026986192632381015,-0.7306471353426561,0.4626734118702616,-0.5020750531229314,0.1621102304441723,0.06842145188039533,0.008787498844080796,-0.4661815971812064,-0.1778639331076833,-0.5188004130217321
65,1.6500000000000006,0.4214432017483048,0.44984737925892876,0.09210660681852317,-0.7279093639333918,0.4611242363056002,-0.5074500994947038,0.13852423690835,-0.0602985251573042,0.05477044382486934,-0.4636494938148275,-0.17692600795412272,-0.5195647506432486
66,1.6600000000000006,0.7146669025867702,0.3161453216567214,0.14844617931902207,-0.7253890854661161,0.45912365178254044,-0.5128437496232247,0.16375400499573806,-0.09145580671221751,0.00941538919434981,-0.4607855728917339,-0.17678547314419177,-0.5195120849602651
67,1.6700000000000006,0.8702311330814183,0.21706920535660323,0.1278614647895091,-0.7233646478737585,0.4560062543024455,-0.5184525566662651,0.21080848359202814,-0.038368794899633726,-0.15362100604427914,-0.45740265894629983,-0.17763450659152058,-0.5188847027541069
68,1.6800000000000006,0.8799934220612626,0.12715670582003863,0.10073415211427716,-0.7220018967982832,0.4522553700139247,-0.5236130341072186,0.19062740498651262,0.012539915011969782,-0.2889217516402124,-0.45401469814257867,-0.17905756829930913,-0.5181099468265364
69,1.6900000000000006,1.0102176515185581,0.06565077258573077,0.14662577822513478,-0.7209631470229277,0.4482550539980523,-0.5284619428840767,0.13099574722735402,-0.06041624309457894,-0.24665093013473166,-0.45061272722847023,-0.18087108523539883,-0.5170310120756273
70,1.7000000000000006,1.2078118942984248,0.04838676573849814,0.08597163116045893,-0.7201621467216909,0.44325737569049717,-0.5337401363148165,0.09236978971153811,-0.06761708728587464,-0.2045119540085228,-0.4466825036351689,-0.18330377910806195,-0.5156668910080393
71,1.7100000000000006,1.2420547901747347,0.027286537236697425,0.027912111891554306,-0.719774920404145,0.4369773447298213,-0.5394075914960205,0.10742591095664705,0.07139982354455485,-0.26095195364426993,-0.4422622949978871,-0.18626506821277672,-0.5144210718348979
72,1.7200000000000006,1.255200311970487,0.032810683337425345,-0.033401426374818285,-0.7196604733780383,0.4303170754028866,-0.5448874422964805,0.08637924059174207,0.1602202832659569,-0.26588853917994537,-0.4378242772908441,-0.18936931365547577,-0.5132769388300761
73,1.7300000000000006,1.349367547925802,0.05924935391886002,-0.14251155530019674,-0.7197776623797836,0.4225703872725711,-0.550758935962222,0.0201471262407672,0.14281777069117824,-0.15053907746913814,-0.4329793784237066,-0.19272401459951136,-0.5124501068995034
74,1.7400000000000007,1.2242525811248335,0.0652302750821532,-0.21210121830927675,-0.720176719372854,0.41407310905336797,-0.55665842376541,0.005322453443374893,0.12043728390025364,-0.08833704784764067,-0.4279699757523121,-0.19622809274973013,-0.5119438982601476
75,1.7500000000000007,0.8849061191531418,0.0332706758849708,-0.2818163211340449,-0.7209395774508974,0.40631707396123284,-0.561371988142344,-0.02315132779211061,0.14134352433562644,-0.025412843947160514,-0.4237770898215448,-0.19930506024949934,-0.5119147975615465
76,1.7600000000000007,0.659714932797824,-0.015867232606602107,-0.3141979605651459,-0.7220395286976906,0.3998797353781908,-0.5645762983556868,-0.05669055205746315,0.037256454320704735,0.04968193215537793,-0.4206795905452896,-0.20183648342269972,-0.5122350901477802
77,1.7700000000000007,0.4928442850926774,-0.06454272028035855,-0.4444875414890905,-0.7237328824210351,0.3938857425503632,-0.5666188285897416,-0.08151711049261277,-0.03249344721322892,-0.014235456703569085,-0.4182993315690969,-0.204240651334448,-0.5129241628671606
78,1.7800000000000007,0.2714253591062405,-0.11314642699478622,-0.5148806695611116,-0.7261794344263417,0.38822075361158753,-0.5673984467609253,-0.0893786320544544,-0.013529538169652414,-0.15914511925373176,-0.41668895485106994,-0.20656654375959885,-0.5140974040004759
79,1.7900000000000007,0.15283201528729656,-0.080258054580233,-0.6001248914051032,-0.72891384265679,0.3830378984573197,-0.5674154899981841,-0.1110647363558085,-0.06820557615620904,-0.1732443295891571,-0.4156543249141207,-0.2086213091269363,-0.5156626741689933
80,1.8000000000000007,0.15793403630733133,-0.011246164605554075,-0.590782261508296,-0.7314655301324029,0.3777497971356792,-0.5676766183012564,-0.17302485245356553,-0.10979891495752095,-0.08532749203406229,-0.4145858495371035,-0.21042683499956913,-0.517593899461428
81,1.8100000000000007,0.1326582842455508,0.02171377398474426,-0.50362365002947,-0.7334538153168979,0.37292624784167827,-0.5683016962488182,-0.2533550405147304,-0.019559908581132837,-0.04188034925900721,-0.41345020574694036,-0.21191384903233007,-0.5193891958363331
82,1.8200000000000007,0.01582318971431078,-0.0063479712232065305,-0.5707423265368639,-0.73533039627946,0.3686056306934912,-0.5686959092592588,-0.2938002986280497,0.07277393201803123,-0.08107059241738544,-0.4125715735356266,-0.21315807859116423,-0.5212236849340339
83,1.8300000000000007,-0.15841230870084122,-0.09756622790428925,-0.7179554503644009,-0.7379658703634052,0.3642669015534917,-0.5680763331911293,-0.2703365724737491,-0.0020299084848474785,-0.1929738225677386,-0.41226366287620975,-0.21447648885586013,-0.5234963049683604
84,1.8400000000000007,-0.32232128766555856,-0.16955908288655847,-0.8065853446634775,-0.7415187159989731,0.359940291549719,-0.5662031436484538,-0.2955980931903508,-0.12641099428729968,-0.24173638662323543,-0.41265019867141955,-0.2159115435005771,-0.5262209521472567
85,1.8500000000000008,-0.5167958640988394,-0.18105755393116807,-0.7979990460560629,-0.7453988440014658,0.35631337114609746,-0.5633956014877183,-0.3867382257420194,-0.1496020080987355,-0.20691070409956858,-0.4137314980735943,-0.21708971534389807,-0.5291813955504426
86,1.8600000000000008,-0.6341969769574365,-0.1447789227532258,-0.7772556778328377,-0.7490978787590117,0.35372026324918304,-0.5601149341396221,-0.4753040406477917,-0.09293091945354658,-0.1618911518443048,-0.4153678614599143,-0.21774171444426674,-0.5322549211548675
87,1.8700000000000008,-0.5787230376829412,-0.09632075010708196,-0.7950589666652642,-0.7525306285095595,0.3512720230306222,-0.5570464118106943,-0.47244111034168396,-0.06617033453439153,-0.16000701268671258,-0.41699512761929264,-0.21815444006765952,-0.5354273167347501
88,1.8800000000000008,-0.43551043776286874,-0.016391149464174,-0.8069003724320815,-0.7556708296662924,0.34804804718257776,-0.5548148020755986,-0.36521795502263393,-0.04450214128659241,-0.14194763230903548,-0.41805877831130744,-0.2186761288206237,-0.5386627530997634
89,1.8900000000000008,-0.30443476675839704,0.0782082729590916,-0.84902001103054,-0.7583550381623791,0.34382085817458957,-0.5537867581181619,-0.24497780737522784,0.021554158909252795,-0.08290404135041878,-0.4183421485155185,-0.21930888435248855,-0.5420032892140502
90,1.9000000000000008,-0.19674992231637495,0.17660308235273514,-0.8958572607840081,-0.7606165763098487,0.3385232113941472,-0.553947351328147,-0.17535336473624966,0.007242938447823123,-0.020592517302263517,-0.41786616438249746,-0.22003182716876324,-0.5455653595127119
91,1.9100000000000008,-0.24693470032588988,0.3010383349241996,-0.9069919916881989,-0.7623111706884373,0.3327775389984182,-0.5550978831264167,-0.1646970743479194,-0.07326886583700783,0.08585456255321003,-0.41691756245801104,-0.22052339171349222,-0.5494171259798081
92,1.9200000000000008,-0.572674724586935,0.3152495938360063,-0.8772436563110257,-0.7635363603470012,0.32815925893916587,-0.5561653904080063,-0.17687060034184085,-0.10893874657503169,0.1844118446470451,-0.41643771915954786,-0.22022004479517787,-0.5535808881106049
93,1.9300000000000008,-1.1594628192676484,0.3162119743903119,-0.9159862583507685,-0.7647015631945415,0.3260838885185246,-0.5557877297612028,-0.16554856686716612,-0.11967847984299784,0.24471334859948618,-0.4175052306142016,-0.21861927619330498,-0.5582416218131633
94,1.9400000000000008,-1.7662319998231641,0.3079509404204936,-0.9028542318127207,-0.7659749869216378,0.32728036124781196,-0.5533236647699349,-0.08598403383990223,-0.1910999517274286,0.2993319180921501,-0.42066668905629834,-0.21534291522985913,-0.5635890053497636
95,1.9500000000000008,-2.1060650574718522,0.3177860868786555,-0.8593838421152663,-0.7671725447034868,0.33131295530986254,-0.5492449416953946,-0.017480746045837832,-0.26245823865984097,0.31990414724274613,-0.4254509529694714,-0.21061650542468346,-0.5693005184061048
96,1.9600000000000009,-2.118841443093604,0.2972584173051628,-0.7889815642627536,-0.768229724295056,0.33661324316404534,-0.5445222296227243,0.027770229424444435,-0.2586639481517616,0.28409316412525143,-0.43080873007231507,-0.2052600347489025,-0.5749313132153234
97,1.9700000000000009,-1.9856436083654612,0.31645925268922287,-0.715209531695274,-0.769136956634284,0.34195123205850375,-0.5398968011712052,0.06479600010854608,-0.19934068711492361,0.24341778875692233,-0.43595884976810884,-0.19995387570793305,-0.5801724982237394
98,1.9800000000000009,-1.8294176506095576,0.29999043953444354,-0.5616713260123395,-0.7696721745199159,0.347293331878254,-0.5357085794129669,0.09092638330974785,-0.1259148848589028,0.2438419712424792,-0.4406733852852536,-0.19479174670862692,-0.5848185875019833
99,1.9900000000000009,-1.6694568413775723,0.29879421346058266,-0.43426747231013485,-0.7698083451947401,0.35281915269025765,-0.5318884705117052,0.08234238251306852,-0.10852902963084114,0.25493586405654495,-0.4450084243008302,-0.18977691269108252,-0.5887845537023864
100,2.000000000000001,-1.5282883869798567,0.27378492825827355,-0.3636810138102334,-0.7696799811873712,0.35824203929867765,-0.528439150180543,0.09664685992139428,-0.15505022710327926,0.233685338173532,-0.4489324339981942,-0.18502241433155647,-0.5921908186336984
101,2.0100000000000007,-1.457133118818562,0.23863181392660057,-0.3124283874364312,-0.7695606159332654,0.36350407510891847,-0.5250085958405021,0.11696871232758393,-0.20435962599016638,0.19841143057336136,-0.45265764721080415,-0.18052855203689533,-0.5952254476799539
102,2.020000000000001,-1.3451838980591473,0.2020428919910152,-0.21919084553640553,-0.7693814075187251,0.36875623361923143,-0.5215974197205273,0.11993278299166427,-0.20717455881120453,0.15948671750504373,-0.4562103590962963,-0.17626062272171789,-0.5978332371108627
103,2.030000000000001,-1.273870294059562,0.11441000973600292,-0.09154444493530305,-0.7691144508226282,0.3743682439313742,-0.5179794367634079,0.13518531808554415,-0.16863315279089944,0.10743880651725254,-0.4597374342034348,-0.17218130208496085,-0.5998381943747471
104,2.040000000000001,-1.179170153239494,0.003327435802510867,0.002147054990538161,-0.7689625870366038,0.3804357969040907,-0.5137648907852532,0.14593830729571652,-0.07428162418623865,0.06279126940734248,-0.46342412009710127,-0.1683759064831445,-0.6011554268259944
105,2.0500000000000007,-0.9563116511520982,-0.06642317663861354,0.03368910762091911,-0.7690645740170675,0.38612055111209087,-0.5093537735989665,0.16742423827033806,-0.03372966261134491,0.009044667167956169,-0.4669351918548395,-0.16519916656140313,-0.6018984543873453
106,2.060000000000001,-0.7390872090181604,-0.09753759529412709,0.01480425381100461,-0.7694020526920213,0.39057091535651167,-0.5054395421262594,0.2025104025815417,-0.03206090466701459,-0.10581669296663149,-0.46984718884277216,-0.16285451430463974,-0.6023463901567477
107,2.070000000000001,-0.48707476689011686,-0.07668312934110486,0.04689002345062926,-0.7697350398462732,0.39392035255878033,-0.5023259788053107,0.21199533809849522,-0.050577252607038437,-0.14749415088736106,-0.47206447868152485,-0.16121710638707615,-0.60252048408162
108,2.080000000000001,-0.26301708477037905,-0.04028901435139785,0.07145302665758352,-0.7698206963745179,0.3961955905921061,-0.5004038555402074,0.1532587909605278,-0.1143941015965613,-0.030317524156983355,-0.4734402368481315,-0.16016244790876105,-0.6025042357657394
109,2.0900000000000007,-0.1283555632774131,0.016924298085609826,0.09165192788279787,-0.7695317119083457,0.3978142261080171,-0.4995641468927978,0.09771793483756014,-0.08714772109896847,0.033828107139333076,-0.47413775555264603,-0.1594087943708647,-0.6023731671334505
110,2.100000000000001,-0.06743204123642549,0.07284528567830308,0.08688124596911646,-0.7689748919614633,0.3989379180804504,-0.4995257558417458,0.08064169847610976,0.01308823087592069,0.03449703466728856,-0.47436340653401216,-0.1587967697954791,-0.602275941179874
111,2.110000000000001,-0.1415873230722164,0.13638629251588252,0.09691886190602557,-0.7680637263853558,0.4001144149762183,-0.49998613993443247,0.08747893043751881,0.007960939752813964,0.055504485824713415,-0.4744006677302063,-0.1579581334857206,-0.6023209952290697
112,2.120000000000001,-0.2645245195239236,0.22329750251385166,0.06850518824307988,-0.7668134314727335,0.40183544617164185,-0.5005242515493862,0.060144022751390074,-0.04906146515016244,0.10904449325751592,-0.4745801289479111,-0.15656024604690208,-0.6026388641902817
113,2.130000000000001,-0.34938865444190387,0.27334154083666273,0.013986503853625973,-0.7654316642414256,0.40373812301942585,-0.5011076102027664,0.037195602405197536,-0.11101378000919021,0.18147216956100742,-0.4748718878370196,-0.1547326187553972,-0.6033590265146572
114,2.140000000000001,-0.29115620757219135,0.3078857704400474,0.03138858517058833,-0.7639549570885718,0.4054437481172501,-0.5019832271616907,0.031788713618879874,-0.18270848545508636,0.23966642141750227,-0.47501880602375346,-0.15285570921225863,-0.6042352585463496
115,2.1500000000000012,-0.34031476211531647,0.33330656017206195,0.08207531862136187,-0.7620851617364676,0.407508383819368,-0.5031513418798569,0.008324610820268918,-0.16807698912015778,0.24122270753432337,-0.4750720124178718,-0.15076484194043605,-0.6050301974024507
116,2.160000000000001,-0.5092819594865656,0.318131247036214,-0.0002638169287968728,-0.760257289119181,0.40992649807885784,-0.5039516626711703,0.008971861435567309,-0.11384091844810657,0.19707100306113087,-0.4754021155924035,-0.1483773286158345,-0.6059999363542939
117,2.170000000000001,-0.6033158552163564,0.22242780861851236,0.043478965155745036,-0.7588080299494321,0.41285686830524376,-0.5037433871766552,0.04064909419394416,-0.1308599960917525,0.14041852756344697,-0.4763100704728354,-0.1457927223051691,-0.6070196971954637
118,2.180000000000001,-0.4471433773971245,0.10776176715952296,0.13734475927850487,-0.757599217732786,0.4162376450112792,-0.5027792497596236,0.06018461141793677,-0.18357966912008777,0.07703486858226058,-0.47753333974507384,-0.1434259715400856,-0.6075384747361582
119,2.1900000000000013,-0.14177638016749677,0.028963865151345546,0.21911956672775976,-0.7564770858443807,0.4191399597752028,-0.5020581616321578,0.07975562721258303,-0.16935690969402886,-0.023310576911913565,-0.4783767973207641,-0.1418666083655545,-0.6073393927713623
120,2.200000000000001,0.19465526341868417,-0.02894490450822286,0.186589795302999,-0.7556014271161984,0.42054993244237276,-0.5021990207373165,0.06594009042600797,-0.10314352246349719,-0.10232647023804817,-0.4784249300462574,-0.14145695218647103,-0.6066859113381722
121,2.210000000000001,0.4558485722705621,-0.05058285458822498,0.1546963834393772,-0.7551034518704655,0.42015074875010366,-0.5032808243448306,0.03264490457143797,-0.08773433913277877,-0.09362147024441478,-0.4776403529799283,-0.14219322788725125,-0.6058257949251015
122,2.220000000000001,0.5819061827827345,-0.03571636731861143,0.13654075585437014,-0.7547185487784911,0.4185785436982994,-0.5051638920350993,-0.008218850808681448,-0.09565032933567469,-0.01684862629777635,-0.47623629203208134,-0.14358336147115816,-0.6048946302443324
123,2.2300000000000013,0.45718642399237996,-0.02413432689999728,0.1617281413604983,-0.7543221653615155,0.41712041903248137,-0.5069594096675878,-0.048919305380333164,-0.0500436640593872,0.04084925169777889,-0.47488769803817726,-0.14491847779338693,-0.6039461570927918
124,2.240000000000001,0.16110506146053452,-0.01267996095644651,0.04537714411762181,-0.753898829145326,0.4163097668517458,-0.5082542216490541,-0.07881960143783404,-0.026984592669525805,0.09869702612534506,-0.47398095100364185,-0.14565296695026483,-0.6033543507521967
125,2.250000000000001,-0.23704906400624548,-0.10166973832120295,0.1641554244655934,-0.7538683410544859,0.41713208096913457,-0.5076245327823076,-0.07386445034376936,-0.11808287761532744,0.11619631498371785,-0.4743601753910903,-0.1454992055845826,-0.6030213545377417
126,2.260000000000001,-0.4062415794676537,-0.10543998311676717,0.3635161213234842,-0.7532335454436402,0.4209508679903782,-0.5054049936745231,-0.06661665746949615,-0.15834942950981093,0.1155406397829505,-0.4759356253873127,-0.14415839163502886,-0.60212645401963
127,2.2700000000000014,-0.3785223709681211,-0.144153035691679,0.3374430385345336,-0.752325387035671,0.42567357136868006,-0.5027950836913074,-0.0068874290984130004,-0.1177488461871607,0.00792798485488476,-0.47781248122292735,-0.14246574923482275,-0.6010163703589764
128,2.280000000000001,-0.14473972820893194,-0.2504304413125154,0.3431336684678912,-0.7518852728573692,0.4295594166609494,-0.500143488216174,-0.013499622357023792,-0.21364366741103946,-0.08258033921475577,-0.4794969307324643,-0.1414579526217959,-0.5996985234109983
129,2.290000000000001,0.19333513596984625,-0.3242875090471623,0.41550069171739235,-0.7517049622408816,0.43226891953740704,-0.4980778826601129,-0.036675779712856564,-0.2128198665081103,-0.0679447514604918,-0.4805501014619445,-0.14153620843834733,-0.5978033462967877
130,2.300000000000001,0.4310348858713393,-0.3717208216287247,0.521578614854794,-0.7514156168357431,0.4341544164496332,-0.4968740348755204,-0.002541719689872504,-0.1006200093224762,-0.06788358341515831,-0.4808993151946647,-0.1424731347456464,-0.5952784065592641
131,2.3100000000000014,0.5070704665737263,-0.42854844707274314,0.6690508187106972,-0.7508107027310544,0.4362431149362708,-0.49595773009282895,-0.019512936151672742,-0.1043919188548658,-0.08512412454172953,-0.4810047225734106,-0.14371947968829699,-0.5921068113867435
132,2.320000000000001,0.46047008631444475,-0.47550165785727655,0.7860351324317283,-0.7498544788607401,0.4393019256732026,-0.49470142578382476,-0.02683093741278886,-0.19814359794028863,-0.1047898035920967,-0.48132376463678783,-0.14483261465435465,-0.5883606525294118
133,2.330000000000001,0.4062516299275028,-0.5096318349593297,0.8849737964635555,-0.7486077034305493,0.44341897078214815,-0.4929113532973231,0.025343579127079848,-0.2798791340651497,-0.11722147183034089,-0.4820038793510825,-0.14565838507901036,-0.5842072522292252
134,2.340000000000001,0.4022390639384649,-0.5232382284504878,0.990951505293573,-0.7469749634700471,0.4484605908437527,-0.4908208263697543,0.08220774758621008,-0.29550589248674414,-0.11266450235773968,-0.48292009327971297,-0.14621064392598282,-0.5796791699765963
135,2.3500000000000014,0.44652632087159144,-0.5288902559083898,1.079867336486425,-0.7448632903159708,0.4541237863263036,-0.4888175297691753,0.11258606719090916,-0.2518944009894335,-0.1025769582079586,-0.4838363863763888,-0.14660630898217172,-0.5747763507507206
136,2.360000000000001,0.5617906944445549,-0.5599566627568638,1.1645123325593087,-0.7423985819264881,0.46000782620199954,-0.4870614615237648,0.1305806756037074,-0.1713621375719797,-0.07971646850624324,-0.48460000717258706,-0.14707805913861358,-0.5694836270062387
137,2.370000000000001,0.7290083112487726,-0.6231970124064776,1.2884763942321749,-0.7396091654711565,0.46593291707512846,-0.4856711316388383,0.15506902448903243,-0.07260745964807618,-0.037122164934288146,-0.48508021495939746,-0.14785619170477282,-0.5636062598554236
138,2.3800000000000012,0.8627863856113446,-0.7126426617016465,1.4430241693017813,-0.7364440903774462,0.4721127364724185,-0.48451037954625176,0.18898217556093372,-0.015892423737564686,-0.011251040670523066,-0.48533845301110573,-0.14896684533139767,-0.5569373048601409
139,2.3900000000000015,0.9488659228365082,-0.8389727570085275,1.6501551436853272,-0.7328540665883745,0.4790392600529047,-0.4831499789433185,0.21846465910236137,-0.048445400494613655,-0.017100305583853476,-0.4856300263238736,-0.1502934345148231,-0.5492880773342076
140,2.4000000000000012,0.9967971649069621,-0.9951635462607166,1.9313369627131316,-0.7286358534796437,0.48739064392009485,-0.4811667926008686,0.24679864600649332,-0.12140312118920604,-0.03380390385776735,-0.48622563876156777,-0.15166014370379863,-0.5403752705066481
141,2.410000000000001,0.9940217795314598,-1.1566357134504002,2.276029498493169,-0.7234482830781628,0.49782569869235677,-0.4782910503217683,0.29027719084387826,-0.19625578748275896,-0.06243377213704188,-0.4873297876970004,-0.15285165118704502,-0.5299259569045546
142,2.4200000000000013,0.9189895692652451,-1.3216875233266596,2.6753893853538315,-0.7168794532647483,0.5110534532376533,-0.4741933822279665,0.3364094569757118,-0.27166972657678756,-0.09474626313680312,-0.48920552231838166,-0.15355910629716935,-0.5177392013393246
143,2.4300000000000015,0.7526469881646082,-1.4615384048782465,3.1050218170509325,-0.7084294497501094,0.5276592168025696,-0.4686418752884484,0.3697818696033248,-0.3434188517741953,-0.10753103825263764,-0.4920748933146276,-0.1534259414744174,-0.5037199378558028
144,2.4400000000000013,0.45711319930847416,-1.5822218850255156,3.5363474262878825,-0.6976430754177259,0.5481364461593357,-0.46121469037607216,0.4064021715428728,-0.4036615253891865,-0.0879945736844058,-0.49625213363334947,-0.15205961362077067,-0.4879097735515606
145,2.450000000000001,0.08403110724534413,-1.6766827055253195,4.020696307346286,-0.6839292610529792,0.5729282444343002,-0.4514532003551709,0.44223492420278915,-0.41009348714724053,-0.028070911113164135,-0.5020364899142029,-0.14907526000893317,-0.470301933737343
146,2.4600000000000013,-0.32437750880277316,-1.7245562393218326,4.550154423713756,-0.6663245281670218,0.6023528316523921,-0.4392184530617652,0.4527664384339008,-0.3572743514086962,0.07489095961210902,-0.5095270900041344,-0.14406783840054144,-0.45076859787662704
147,2.4700000000000015,-0.7316363511379018,-1.723522511675221,5.078319022428362,-0.6439316447123934,0.6361529386410043,-0.424603594332654,0.43292070775739855,-0.34032988590482444,0.1815967242188514,-0.5186158662616079,-0.13677543674934414,-0.4292946506745393
148,2.4800000000000013,-1.087114130124407,-1.7038338642665865,5.598484310747305,-0.6160727980406978,0.6735698688661574,-0.4077617454304388,0.38566621534030626,-0.38990802239876693,0.2669520361130404,-0.5290654797884604,-0.12715290994070647,-0.4058970880246099
149,2.490000000000001,-1.3290983710518904,-1.6623067021943214,6.0899763923351795,-0.5821783530526121,0.7134258217875188,-0.3892142951738761,0.3440405891636621,-0.4513079662221898,0.32454799236036114,-0.5404027425925365,-0.11534574420972227,-0.38053944006171564
150,2.5000000000000013,-1.5059431641126344,-1.5834406879911505,6.427618680328296,-0.5423002704581745,0.7540788434891761,-0.36955947950367485,0.3436230204135604,-0.4958092807055815,0.35155025815637464,-0.5521075406789926,-0.10165896962680133,-0.3535106281060682
151,2.5100000000000016,-1.654406444228199,-1.4351425741667327,6.520132724421374,-0.49745668735164417,0.7934606643975105,-0.34957976300093424,0.3768345116826867,-0.48924204795841436,0.362791762483922,-0.5636046724548047,-0.08655238104386007,-0.32565329204443033
152,2.5200000000000014,-1.852641136326575,-1.37857913541967,6.40570529974435,-0.4497339531958568,0.8300844222457865,-0.3285424788320457,0.4215303734699821,-0.3400115296493542,0.3980461069258897,-0.575028951368348,-0.07069997155638925,-0.29791495782262956
153,2.530000000000001,-1.7441674685605448,-1.342267433499595,6.47403557801924,-0.3996537500399946,0.8631702747867491,-0.30734314375921873,0.4690147519050567,0.02937247958102307,0.48293758213569177,-0.5858952136526546,-0.054642710591895446,-0.2701113503796511
154,2.5400000000000014,-1.3483414924602182,-1.3511994890994203,6.690375876120573,-0.3458626940828178,0.8923718657226937,-0.28858813664627253,0.5268043751296111,0.5173582285228624,0.5361921320881354,-0.5951239175992915,-0.03832943123613765,-0.24138058874179152
155,2.5500000000000016,-0.7103305694791617,-1.3372392810997513,6.9124889077269795,-0.2880889514039067,0.9168595896524527,-0.2749579442730446,0.5781039626846977,0.7779927114534341,0.4081093804255672,-0.6016503626912774,-0.021946146029697973,-0.2114134893984337
156,2.5600000000000014,-0.03910255236560273,-1.282226955096112,7.1809019704931805,-0.22632952336497555,0.9359807772532828,-0.2681750811752856,0.5497083761918401,0.7311081509047487,0.22906112157722708,-0.6048397013643542,-0.0053573449130355465,-0.1802832955609041
157,2.570000000000001,0.5625802563738638,-1.257917166192782,7.428690990724159,-0.16077763039538,0.9493930854660005,-0.2682400995392529,0.4558798357873345,0.4570862383333979,0.05376390463350619,-0.604723508081461,0.011616306368278076,-0.14799044520827376
158,2.5800000000000014,1.0808320346056237,-1.157350012031366,7.498866424546579,-0.09274045649925902,0.9566121809999465,-0.27458930473367327,0.377560277449074,0.12206994235307222,-0.07187067408523631,-0.6015088500257996,0.028873121941528315,-0.11500376071339913
159,2.5900000000000016,1.1888608097622608,-0.9397649588397688,7.1433025742414635,-0.025252737080621958,0.9576685139443725,-0.2852518199782952,0.359388144600234,-0.18024575732710887,-0.15768704767762087,-0.5959701167082093,0.04616521414809473,-0.08291958853802525
160,2.6000000000000014,0.6610555467253063,-0.7964702235345462,6.483203044731537,0.03738130147706595,0.9545994358733872,-0.294330380124303,0.39089316758182246,-0.3858666360553132,-0.19533437638238288,-0.590649566190551,0.06256783079895936,-0.05335310365727938
161,2.610000000000001,-0.014214716865437294,-0.6485154447705539,6.085723356268568,0.09484350563893709,0.9495695121208829,-0.29787084268659153,0.4439143950970392,-0.3494424585326092,-0.06451664122594497,-0.5873125690121894,0.0780002215477272,-0.026159939773153167
162,2.6200000000000014,-0.5730583587045728,-0.5462564927595966,5.965102716324704,0.15003175970052923,0.9431280189244864,-0.29568386422752774,0.5404387922690647,-0.15044531312226983,0.11540819838664466,-0.5860176412128221,0.09326191694799858,-6.082101805825191e-05
163,2.6300000000000017,-0.8671544778801131,-0.5355034654600754,5.922810851033094,0.2042595467614482,0.9347690373819921,-0.2896863410421285,0.6405136488681448,-0.11330523252161656,0.1826791788364726,-0.5859619739934421,0.10845530711219382,0.025766095205736198
164,2.6400000000000015,-0.8641985596217129,-0.5889559699578746,5.933171802385345,0.25770698431444944,0.9236047582795006,-0.2828035581072899,0.6509665324481821,-0.15158183977726283,0.20967449865369298,-0.5859447904896689,0.12339277548577335,0.05163816256008224
165,2.6500000000000012,-0.7393510712144915,-0.6616841113635261,5.985816461499367,0.31056348785382876,0.9089122912218351,-0.27723811786532515,0.5814638033171895,-0.133541529954658,0.1830198031686685,-0.5850408164857863,0.13808700042969277,0.07774262290211974
166,2.6600000000000015,-0.6825176237127744,-0.74072144715944,6.027082309630708,0.36270144228483686,0.8906194717066643,-0.273260636332677,0.5053415845411283,-0.12916407511716976,0.12435925938165279,-0.5831490878638879,0.15253664500290895,0.10412257327680494
167,2.6700000000000017,-0.7162754918632693,-0.807666761036254,6.0189358523739545,0.41363379470789324,0.8691009472245275,-0.27018493461729326,0.46496290211221963,-0.16664892647392293,0.0917601728611591,-0.5806124552553112,0.16661042939987195,0.13068801909508754
168,2.6800000000000015,-0.7769944657513757,-0.8573482238115202,5.988248710500074,0.46284650900801183,0.8448020916007652,-0.2674367161044899,0.4710448463474591,-0.18653265000821692,0.10670740155165305,-0.5777359449551882,0.18018747079101993,0.15725977859031937
169,2.6900000000000013,-0.8228739956099433,-0.8896367972436002,5.976744787153833,0.5102541688704662,0.8178270461619856,-0.26503879769975486,0.4909927467078782,-0.14179226981000423,0.12093912015442404,-0.5745147877031886,0.1933380251005234,0.1837625654620784
170,2.7000000000000015,-0.9005972025916127,-0.9094617595081246,5.976893324311823,0.5558882540557607,0.7882165914401363,-0.2629664631676856,0.49199941426049826,-0.05006031985393014,0.11677756910212188,-0.5709548668315318,0.2061424083447451,0.21021219349575432
171,2.7100000000000017,-1.0623180654249476,-0.920899357309101,5.969717223942278,0.5996373811038286,0.7562423451687152,-0.26074072672054127,0.48499086978845163,0.024979300296411187,0.10643739966908275,-0.5673004427924292,0.2185613967365181,0.23661931663054184
172,2.7200000000000015,-1.2720032253768647,-0.9261425825185148,5.9682518251240255,0.6413775588269413,0.7222153783892226,-0.2578750409302296,0.4787838763324534,0.039883551048114474,0.09498085298691682,-0.5638301187364863,0.23049929296506272,0.2630185223703792
173,2.7300000000000013,-1.4697691628942513,-0.9372723517357389,5.965097329579293,0.6810334708308852,0.6862569618853693,-0.2543813574360678,0.4627850506687512,0.019428057456385598,0.09199859835789531,-0.5605899607482672,0.24191446594943347,0.28942474723926065
174,2.7400000000000015,-1.6302499044221137,-0.9431018489878631,5.922276560589662,0.7183644892997167,0.6485507897683358,-0.2506182767217972,0.4421060469001497,0.011760447209235001,0.08755380058137131,-0.5574809870053988,0.2527503940848264,0.3157126358428053
175,2.7500000000000018,-1.74752394733213,-0.942151390652787,5.816664536281726,0.7529847501125095,0.6095390136626746,-0.24692488287456585,0.42885394274041444,0.03535801227559743,0.0789407763613033,-0.5544328848603441,0.2629096003959271,0.3416155401435463
176,2.7600000000000016,-1.8189385088040626,-0.9406990628072995,5.6574721129383105,0.784534659783176,0.5697929758697349,-0.24365353495379471,0.4310894905815102,0.08250287232148637,0.08427992706341347,-0.5513719418555832,0.2722953176740114,0.3668351110331068
177,2.7700000000000014,-1.8412701065277979,-0.9302366836342424,5.465721582422797,0.8128678274968464,0.5298036292194174,-0.24106787094532228,0.4410140687836858,0.1321917131935046,0.10166456837530863,-0.5482314370762399,0.280879695083396,0.3911602682600335
178,2.7800000000000016,-1.856340003118387,-0.9034710021864111,5.273765855701612,0.8380620640178713,0.48991403459221466,-0.2392262775159904,0.4558681270980765,0.1814023687940862,0.12540888663789163,-0.5449876405865736,0.2887254632751699,0.4144697766554879
179,2.790000000000002,-1.878754047269472,-0.8619680743780836,5.088314638985287,0.8603346474294125,0.45035831065032844,-0.23796049579832446,0.48035890536266873,0.22975622525846986,0.15560429703910478,-0.5417080411393697,0.29590702153189763,0.4367486918549803
180,2.8000000000000016,-1.9189266386092707,-0.7981161973613676,4.90641582864334,0.8799152274266845,0.4113676925102424,-0.23701966456428616,0.5091087602078959,0.27549624538515427,0.19534354112402696,-0.538508037406207,0.3024726834864193,0.4580009436192325
181,2.8100000000000014,-1.9710226333816607,-0.7255340219533436,4.7106072730850155,0.896997575677235,0.3732283320481604,-0.2361734511971006,0.5252458333387056,0.32888045338332494,0.23093069220777124,-0.53551747887034,0.3084257449392513,0.47821523016152756
182,2.8200000000000016,-1.9977533031487864,-0.639519942074535,4.481796629587153,0.9117180657165612,0.3363222700165297,-0.23531065943097915,0.52519847319927,0.3936446476960655,0.24801631263108165,-0.5328186858300827,0.31375571710672195,0.4973034873790007
183,2.830000000000002,-1.9678598391706972,-0.546670347219316,4.203275390341825,0.9241928506526187,0.30110074461262504,-0.23442319462919817,0.5110991742578304,0.461483619801596,0.24159882856765535,-0.5304203062543352,0.31849296118357046,0.5150807446540843
184,2.8400000000000016,-1.8352352851535885,-0.45590096768572524,3.877339872601392,0.9345460158132498,0.26798680814099013,-0.2336478251934748,0.47598985765943624,0.5287501994200383,0.2215587255763205,-0.5282182412299746,0.3227344693434131,0.5313151824961995
185,2.8500000000000014,-1.6125167288235054,-0.36415699590869377,3.529910887032699,0.9429697605839477,0.23724294480925473,-0.23311554205429266,0.43110929550020316,0.6020409673103235,0.1981153406217312,-0.5260425465850357,0.3266768689194274,0.5457898640338286
186,2.8600000000000017,-1.372903458063913,-0.26384851144392035,3.178486952953908,0.9497439524391679,0.20896239929715596,-0.23274659074377263,0.38852350041851574,0.6774473898694988,0.1624297241549284,-0.5238292890426313,0.3304935342979014,0.5584323387057403
187,2.870000000000002,-1.1823783915023913,-0.1470099969068308,2.808117002854051,0.9551594390708499,0.18339680886710508,-0.23219829370500508,0.33810924463904357,0.7365669102408096,0.12632623256212583,-0.5217524437016039,0.33417361321634204,0.5692669763752994
188,2.8800000000000017,-1.0489931193847426,-0.02211650928743414,2.4285675257764563,0.9594878284703778,0.16091558126068084,-0.23108076690959561,0.2716417515630757,0.7612550740293137,0.1108592726319858,-0.5200972110959395,0.3375737235256541,0.5783653751064844
189,2.8900000000000015,-0.9331405189354451,0.10276060252348533,2.053146798855285,0.9629844827150685,0.1416758510158289,-0.22917861045614693,0.19245592323508212,0.7437873554257635,0.11647205088485015,-0.5190293621253682,0.34061333296353336,0.5858261518812204
190,2.9000000000000017,-0.7755776167119358,0.22410419955460525,1.7014063460880726,0.9658758254325405,0.12554616685344744,-0.22644036426319716,0.12004430843874182,0.7071060634680966,0.13339884836091034,-0.5185287294949248,0.3433750056567475,0.5917183902039873
191,2.910000000000002,-0.5445965922653031,0.3414189237082416,1.379239078616983,0.968350203560071,0.11215339832245722,-0.2229027623521084,0.06707881882926565,0.6845064609649832,0.14557043692269933,-0.518411792920673,0.34611619327977866,0.596051328865086
192,2.9200000000000017,-0.3003834445733865,0.43347497858682804,1.0767066397585274,0.9705219928089447,0.10120889102225127,-0.21867654916342713,0.03979152960103907,0.6894493566022403,0.14183416618062067,-0.5185090982939473,0.34901064312870056,0.5988624014900432
193,2.9300000000000015,-0.10995053962626294,0.49830270662601295,0.8031305632962882,0.9724486231451757,0.09252749451676387,-0.21392775131799127,0.033104986506777845,0.7119604476808663,0.117164148258309,-0.5187696071401506,0.3520120768131083,0.6003387394583601
194,2.9400000000000017,0.009406698444360914,0.5385994882293096,0.5576092745609864,0.9741562449136674,0.08603362283418078,-0.20881978105509366,0.03365701979214077,0.7352775982131247,0.08016383879844854,-0.5192510722005589,0.3549180878837987,0.6007480589710404
195,2.950000000000002,0.07112310412551026,0.5641881615496126,0.35827783017438164,0.9756780928057426,0.08150809260423415,-0.2034691675421724,0.03366681786359491,0.7402446808891484,0.04673244561987127,-0.5199928017342274,0.3575912688814397,0.6003556260486405
196,2.9600000000000017,0.08004306587034796,0.5821616672765824,0.19212293534942226,0.9770490461187575,0.07867504232025169,-0.19793512617232792,0.01888079690573162,0.7275474590276549,0.024324755465458037,-0.5210264936054586,0.3599481094172116,0.599392835003519
197,2.9700000000000015,0.041545142074020346,0.5965501552680529,0.047754547623458904,0.9782924892148006,0.07738969425554366,-0.19221862162812517,-0.006344113405798157,0.7134766455739716,0.013290969334774208,-0.5224226794309371,0.36188975191715295,0.5980304511424824
198,2.9800000000000018,-0.014277060076720458,0.61336248032749,-0.07091459083096265,0.9794273754348981,0.0774930863291957,-0.18630634712171634,-0.025849865423518234,0.6989412220427741,0.01604818938067285,-0.5242187055165681,0.3633738547931784,0.5963882875906872
199,2.990000000000002,-0.0761583945954171,0.6266340875299671,-0.17882392675385161,0.9804655346553774,0.0787972046469807,-0.1801958865835319,-0.04363772354554747,0.6730835937196329,0.024969766230790023,-0.5263978530010232,0.36442589092788175,0.5945341544501094
200,3.0000000000000018,-0.1420260977407564,0.6330980358645328,-0.27997950206046734,0.9813986166380347,0.081237157931901,-0.1739204108424008,-0.0694903684081557,0.6490446507697888,0.022847721655852023,-0.528952177719951,0.36503156071310644,0.5925112120866007
201,3.0100000000000016,-0.23968706120505762,0.6299499585758885,-0.38697465065635595,0.9822008003247902,0.084831748026773,-0.1675549381121517,-0.10467265143525438,0.6433275257004425,-0.0019382080470725926,-0.5318873944266832,0.36512549083057005,0.5903681027053614
202,3.020000000000002,-0.41094493012645716,0.6267250384669747,-0.4903503468842416,0.9828479807823897,0.08968028188392141,-0.16110395060386398,-0.14150823764503614,0.6412645732751112,-0.04126012772322402,-0.5353184868561005,0.3645266331888628,0.588213027175764
203,3.030000000000002,-0.6100603626342896,0.6323799833422543,-0.5720291971229169,0.9833453241502867,0.09572434265574098,-0.15444357768865163,-0.17168374410831,0.6270219322759621,-0.0872980697604457,-0.53937096976531,0.3631162010889913,0.5861627142168457
204,3.040000000000002,-0.7501235630596259,0.6503895516041702,-0.6259407523088236,0.9837155409622939,0.10267279745603561,-0.14745578839792747,-0.19679333928507226,0.5937907252926315,-0.11085342533770276,-0.5439914993481216,0.3610266033604316,0.5842173230750436
205,3.0500000000000016,-0.7751294040321329,0.6620278975113456,-0.6571833586737088,0.9839750961093584,0.11012042498859935,-0.14016382634895774,-0.21076136800108747,0.5467621046463556,-0.10543584238564094,-0.5489234613033255,0.35860192147964204,0.5822551473661045
206,3.060000000000002,-0.6801831195771009,0.6567826205980947,-0.6702167250390646,0.9841177683789284,0.11767677878306257,-0.13282966495607848,-0.1988148849923129,0.5179562417557424,-0.09362576196290111,-0.5537932046272616,0.3562202781445012,0.5801457817838835
207,3.070000000000002,-0.5197162544674556,0.6360383764782401,-0.6610641438746792,0.9841452073364052,0.12502680234392916,-0.1257279040080887,-0.153054648102249,0.5385437935823651,-0.11613463856775358,-0.5582916286513261,0.3541782312645417,0.5778109776761131
208,3.080000000000002,-0.36938275275167176,0.6145894773944708,-0.637660689681065,0.9840755381097552,0.1319780129997538,-0.11899685936368636,-0.09501877356668743,0.5789270157110957,-0.15954729627120254,-0.5623060992303565,0.3525765046145164,0.5752809701458461
209,3.0900000000000016,-0.25591915644616137,0.5994957455783128,-0.6071680180379133,0.9839378895063419,0.13847194125846837,-0.11259070275118457,-0.05591358278178962,0.5941384939069405,-0.1840673331928004,-0.5658920026624382,0.3513807138254886,0.5726225735777293
210,3.100000000000002,-0.14061851426592997,0.5770521342987147,-0.5735092961753189,0.9837490146688651,0.14450456412596507,-0.10650420413512506,-0.017310747865114127,0.5880273000278957,-0.19208833841257822,-0.5690887198962644,0.35054819170537344,0.5698834097470856
211,3.110000000000002,-0.015413319512635124,0.5366143244376771,-0.5583802543580513,0.983496558619663,0.15014276365254892,-0.10089882909596659,0.05814208856902151,0.5934062278363877,-0.19419013902079335,-0.5718534048730121,0.3500470335921788,0.5670796589027148
212,3.120000000000002,0.10923949475729897,0.48266332519123195,-0.5892751994018991,0.9831266317050903,0.15571362245828016,-0.09594458109640885,0.16286104272005364,0.6219074217602676,-0.1916441492736332,-0.5741895557300444,0.3497615272109773,0.5641701626265219
213,3.1300000000000017,0.22653315409408825,0.4262703784333908,-0.6628923215670659,0.98256328588468,0.16169387640693564,-0.0917316459170244,0.25326034557075794,0.6581604896695419,-0.18855280099669416,-0.5761611745984412,0.34953083938220364,0.5610678982380247
214,3.140000000000002,0.3314681763120652,0.37163997424648987,-0.779982377094008,0.9817326926102393,0.16850943457975645,-0.08828530123500902,0.3059139854798639,0.679885652329543,-0.1902484632155398,-0.577858055259972,0.34919463731146416,0.5576984111677603
215,3.150000000000002,0.4275438058481295,0.33165739575924036,-0.9349859626731268,0.9805569410615131,0.17658223670441836,-0.08551129138068005,0.32478795776842406,0.6888390584616004,-0.19555754845496398,-0.5794026390924004,0.3486207588138018,0.5539484039257668
216,3.160000000000002,0.5024377254769335,0.3046812277432718,-1.125684074411439,0.9789526161039245,0.18628159352083645,-0.08325104766918187,0.31164749929448193,0.6857043180149037,-0.1888104542100315,-0.5809340589639317,0.3476916164579003,0.5497050719891436
217,3.1700000000000017,0.5602991421939901,0.29718063277832657,-1.3364657226601064,0.9768274207133796,0.1978960440479589,-0.08134189295669751,0.26991218533948136,0.6519660419376957,-0.16936051885131342,-0.5825875029867957,0.34629451680527606,0.5448833881127675
218,3.180000000000002,0.6342403827786742,0.3166567498209669,-1.5640082591801483,0.9740959389018408,0.21157217747949905,-0.07959097898899328,0.22095773668067514,0.5930337240466544,-0.14571155981729617,-0.5844395947244377,0.34443209766014865,0.5393623846272999
219,3.190000000000002,0.739789584083149,0.35083838971922554,-1.8148081647398953,0.97063504011934,0.22748682440347665,-0.07787017094643932,0.18336855498075638,0.5303332689584715,-0.11690114973975943,-0.5865143578513123,0.34214604633763007,0.5329679783575958
220,3.200000000000002,0.8931836988673101,0.3909686518047616,-2.060502013423509,0.9663122121953447,0.24568925030271005,-0.07620778100230745,0.15574466451489427,0.4904814535814314,-0.09935529521589606,-0.5887417331594849,0.33952463363907,0.5255517754355803
221,3.2100000000000017,1.0827143433696427,0.41940487089862905,-2.267259320707055,0.9610587368749127,0.26585883824731954,-0.07483316293079433,0.14622026280965325,0.48508881110216245,-0.09557903223260861,-0.5909243415169682,0.3367335665134936,0.5170960575751256
222,3.220000000000002,1.2983373472234672,0.43554313573986553,-2.4360120305791813,0.9548390485579135,0.28757803075132393,-0.07404573443636746,0.16594656067900898,0.4799958177900392,-0.11292932202195972,-0.5928557596809803,0.33391175367090953,0.5076564129974938
223,3.230000000000002,1.5136611688649726,0.4408794044575194,-2.5750433355570115,0.9476173375733181,0.3105140528932728,-0.07410747351241302,0.20418217766565205,0.45891548931830967,-0.13187743193703133,-0.5943901147762561,0.3311266312371308,0.4972978126579357
224,3.240000000000002,1.7059601354903222,0.44354950980040736,-2.688153428594127,0.9393694529924185,0.33438233644292403,-0.07517928091497715,0.24452666685205338,0.42501808255135226,-0.1365991123148891,-0.5954686581045879,0.32836847502769806,0.4861184713311579
225,3.2500000000000018,1.8791252344323879,0.4385109970859523,-2.777627998303963,0.9301779805145655,0.35870001116045214,-0.07729683466377024,0.2797741178527902,0.37615983508322137,-0.1269643782886482,-0.5960434830105483,0.3257029615091386,0.47426167436378497
226,3.260000000000002,2.032262193294891,0.4199696031278902,-2.845174104802605,0.9200605296271347,0.3832236756241555,-0.08058314384206558,0.30654745576740683,0.3249474952161965,-0.10604555962982917,-0.5960834446030864,0.32309704454288657,0.46183412461292717
227,3.2700000000000022,2.164174145947487,0.39074282859679027,-2.8827733392318082,0.9090524388460858,0.40771515585913903,-0.08516350769796079,0.3206250113856084,0.283045659483945,-0.07769641450790661,-0.5955600062342354,0.32050772010704576,0.44895533482002536
228,3.280000000000002,2.280787789061146,0.3619902711608525,-2.896053388652581,0.8972388000826336,0.43188087350238397,-0.09110278300714646,0.31835147067233116,0.24264545714794128,-0.04840983235074936,-0.5944461638520004,0.3179321322106636,0.43574801696988735
229,3.290000000000002,2.3588548032326258,0.32349171101477164,-2.8949549588423467,0.8847020983125538,0.4555045161408589,-0.09835944624639623,0.30210457989917744,0.19282797020494155,-0.021814967350768252,-0.5927731118658647,0.3153386231592328,0.4223258388551564
230,3.300000000000002,2.411553047344755,0.26921463491172726,-2.877866356519341,0.8715112235819724,0.4784318672264359,-0.1068985575570936,0.2767798564446742,0.13616088722280578,-0.001252992506085392,-0.5905845717519893,0.31266313229386516,0.4088090547823928
231,3.3100000000000023,2.4435198114840415,0.2183903925061961,-2.8418317443501766,0.8577713026222409,0.5004709340472493,-0.11668058572738937,0.2511001010678047,0.08338942841006633,0.026370342072667113,-0.5879076845064407,0.30987308273622344,0.39532839150590054
232,3.320000000000002,2.463256953548954,0.16651500427314925,-2.787797780802829,0.8436059249082158,0.5214478840087915,-0.12759478352453918,0.2290017763651316,0.03375464306726721,0.05950484974742312,-0.5847705100231103,0.306989450867283,0.38196578952064647
233,3.330000000000002,2.4666987566599743,0.10690341152674988,-2.7151593865775596,0.8291627882947791,0.5411811323083395,-0.13955333072354345,0.20799882497781472,-0.012815932097648617,0.09393031947510595,-0.581188152719564,0.30403864098910527,0.36882071611436007
234,3.340000000000002,2.4652288721252655,0.044125004633641975,-2.624855755642009,0.8145613201518591,0.5595509320233427,-0.15251255880705678,0.18427398408156367,-0.05749219432905227,0.13289746835731542,-0.5771743665227089,0.3010126046000753,0.3559960166395348
235,3.3500000000000023,2.4781072636763115,-0.0052876246659872145,-2.514702231089867,0.7999816097417132,0.5763832036573093,-0.16638883653366332,0.16453347637336208,-0.09673556060677377,0.16952217634365166,-0.5727107394591577,0.29799733549558627,0.34354938084545084
236,3.360000000000002,2.4967004901662784,-0.05345911664525996,-2.3924889397570253,0.7855932222507191,0.5915293761690794,-0.1811522398140491,0.14941585353378686,-0.13365885010484466,0.2032510261216845,-0.567749848585955,0.2950891996915503,0.3315080905666737
237,3.370000000000002,2.5070666349282553,-0.10841067819585866,-2.2628750308719585,0.7714975049191193,0.604944790062423,-0.19677134844799962,0.13115956265928125,-0.1651557005085385,0.2306858204234829,-0.5622933441838146,0.2922897597180407,0.31992911286143844
238,3.380000000000002,2.497511743087495,-0.16112696616922365,-2.1213887226245056,0.7578166370324286,0.6165968278667888,-0.21310570847164761,0.11327531680186011,-0.18342883756288839,0.2515932813827131,-0.5563879486851994,0.2896058756033532,0.3088816525059852
239,3.3900000000000023,2.4763284014188627,-0.21152733680902458,-1.9796746712817948,0.7446484139436477,0.6265078225842466,-0.22996685107682818,0.10123522017965779,-0.2098347972860281,0.26922411470514307,-0.5501093607552549,0.2870322686463793,0.2984254391804607
240,3.400000000000002,2.4532790567318394,-0.25902345717987496,-1.8416496753197555,0.7320249295807998,0.634754296930625,-0.2472446715655717,0.09077701224304963,-0.24479272084136833,0.28547513738158514,-0.5435030471231969,0.2845569742231439,0.2885688768086784
241,3.410000000000002,2.4259301403362716,-0.3036571849152179,-1.7001832696405204,0.7199965785184737,0.6413760074283358,-0.26485882542693034,0.07786847716488146,-0.2688517869319222,0.2948177998150654,-0.5365887047476375,0.28219328863825527,0.27931809781344447
242,3.420000000000002,2.3790063827648456,-0.34383499131085155,-1.5573061203130345,0.7086139599975007,0.6464410852572212,-0.28265487679612294,0.06404558706031813,-0.28470398682943643,0.30112029631599957,-0.5294294271582506,0.2799400623764759,0.27069993174649976
243,3.4300000000000024,2.304904153679429,-0.38031565241086984,-1.4204937714222008,0.697901704525636,0.6500851809141737,-0.30040234889034334,0.05562416635752414,-0.30377852198126887,0.3149857727197355,-0.5221386908601267,0.277775462991015,0.2627420917368317
244,3.440000000000002,2.2042436628077655,-0.41207590772245356,-1.2836297785076332,0.6878646866339435,0.6524924978940176,-0.31783776469044306,0.0514215219431481,-0.3264460876081711,0.33429935002437416,-0.5148564599840119,0.27566881430391693,0.2554685664874732
245,3.450000000000002,2.0851685189854816,-0.4338652375129562,-1.1502894098024607,0.6785214492467836,0.6538245806852012,-0.3347447808860975,0.046099090348282155,-0.34537615780777275,0.35709687979322663,-0.5076923145463953,0.27361634478669733,0.24889039103127494
246,3.460000000000002,1.9665449901104288,-0.45249780281174096,-1.0184809126348657,0.6698993802061868,0.65420337898337,-0.3509866146287178,0.04008248211108564,-0.3609284812976125,0.3800901950841959,-0.5007099112928647,0.27163693668134736,0.2430047063250193
247,3.4700000000000024,1.8364716225610294,-0.46631848091547884,-0.89084997857789,0.6619973647390411,0.6537465742112322,-0.3664970717975511,0.03531923726036876,-0.368003310299575,0.40153327371294667,-0.49395128345990236,0.26973058000974,0.2378111920502644
248,3.480000000000002,1.6871277931125548,-0.47514823000239903,-0.770451722668096,0.6547867425097297,0.652647280935483,-0.38112704790938867,0.03939986496837234,-0.36597152398272254,0.42095467508114637,-0.4875125552050453,0.2678802973547472,0.23329772613099276
249,3.490000000000002,1.5251437034448063,-0.483323414622029,-0.6560635236898555,0.6482323861313627,0.6511011837140495,-0.39474142918875926,0.04482508863321684,-0.36602303092433575,0.43975990378806656,-0.4814882793988542,0.26606617837232055,0.22945172107528916
250,3.500000000000002,1.3482119540753856,-0.48154834639699734,-0.5456861514315137,0.6422677406770293,0.6493044959981061,-0.40726039719134843,0.04620704751051848,-0.37315715244746067,0.45828166914499985,-0.47595428664915074,0.2642560680413167,0.22624726971161016
251,3.5100000000000025,1.1419382951708434,-0.47714324290245486,-0.43935218703922185,0.6369975197346929,0.6473835615249791,-0.4184510577692466,0.04612624771546854,-0.37593792843520063,0.4726224672940186,-0.4710256669611669,0.2624966598182265,0.22372198909980195
252,3.5200000000000022,0.9211288159114458,-0.47292944020173794,-0.3359359258616958,0.6324297174826269,0.6455199132862358,-0.428154649893926,0.049784685817682875,-0.37512813013502866,0.4851324511634886,-0.4668131800155138,0.2607768536332705,0.22189516286831673
253,3.530000000000002,0.7027335059826034,-0.4652529374180079,-0.23122267603141702,0.6285554345395835,0.6438246068959355,-0.4363410863234544,0.06185342715370576,-0.38358075339515146,0.49779945966883854,-0.46335625880584935,0.25909056605458236,0.22076571745753804
254,3.5400000000000023,0.5002280812185235,-0.45646863269379645,-0.13356233966044054,0.6253446074441977,0.6423415416505446,-0.4430933272968697,0.08728913525749181,-0.3946907991357312,0.5090281499648402,-0.4606266815794781,0.25743869450831447,0.2203016982978175
255,3.5500000000000025,0.3066465878068468,-0.43964524369524,-0.04411042694324499,0.6227655033564011,0.6411143836877876,-0.44847458694141673,0.11574508581620921,-0.39372352950084716,0.5179235996947963,-0.45859760019171086,0.2558316568905308,0.22044707417691367
256,3.5600000000000023,0.10733595566673709,-0.42143416544273155,0.04002517954130741,0.6208099934645643,0.6401955427297759,-0.4524837441254769,0.1381443579932531,-0.3866259930105338,0.5248151773782012,-0.45727333811787524,0.25428044152268425,0.22116489759689487
257,3.570000000000002,-0.10089973946315266,-0.3969021241263014,0.11483629620467592,0.6194436382891133,0.6396982634410096,-0.4550544889111952,0.15284385086168475,-0.383507083262045,0.5266197583498954,-0.45670540741573556,0.25276962319129725,0.2224213678119694
258,3.5800000000000023,-0.3239952156652304,-0.3542473393410366,0.1862079846173332,0.6186807817224906,0.6397371496549125,-0.45603767126738254,0.159763853904318,-0.38437841220635593,0.5327018954343482,-0.4569674967660655,0.25131941023151155,0.22416779749944185
259,3.5900000000000025,-0.5498960485861224,-0.2990420484311902,0.25017313283089243,0.6185873768394756,0.640381472873986,-0.4552592681118067,0.16017994918599454,-0.38735696026326627,0.5397148039073286,-0.45812719544224095,0.2499783285588378,0.2263643726071518
260,3.6000000000000023,-0.7551604738235598,-0.22908445071832959,0.31560996005870295,0.6191925341614244,0.6416077347900812,-0.4527007263257555,0.1580275313957411,-0.39042254808967103,0.5389158274349127,-0.46016499383919807,0.24879032966143552,0.22894978026314036
261,3.610000000000002,-0.9083865794860689,-0.1424955118061445,0.3961025694194212,0.6206419638900655,0.6431760004396865,-0.448467582389273,0.1737812690173307,-0.39157811419660404,0.5376066028578484,-0.46294178981670997,0.24788983378101412,0.23186829131184788
262,3.6200000000000023,-0.992987437664537,-0.0549886124893878,0.4886309021572026,0.6230514835226965,0.6446869521558278,-0.44291931433980325,0.20558081263488087,-0.3862750603175321,0.5306933742200337,-0.4661889291149456,0.24739869996127353,0.23508830101925132
263,3.6300000000000026,-0.98459828175261,0.04539522940834983,0.5969158316771228,0.6265198001230828,0.6456781019136286,-0.4365340217476086,0.2358524343133315,-0.3762127360246556,0.5162422038163043,-0.46956212185106905,0.24747174236406247,0.23852539788550697
264,3.6400000000000023,-0.909487795879228,0.12629164046376845,0.73854912735118,0.6311952211297478,0.6455986489250789,-0.4298626841744391,0.2613036911599979,-0.3577571258589109,0.5013639488017326,-0.472689369761795,0.24825697051567505,0.2421927954698687
265,3.650000000000002,-0.8194073893929992,0.18728224592051726,0.9106075553049242,0.6371606715198154,0.6440821240379587,-0.42328311839810195,0.28348179476598023,-0.33768264210666116,0.4787086143311118,-0.47535932673976844,0.24978031144944973,0.24622097057588055
266,3.6600000000000024,-0.7237740176700519,0.22519273916514831,1.1208308514833867,0.6445324446671312,0.6408376305407719,-0.4169943271037467,0.3162964662857209,-0.3194777975833815,0.4695912842464158,-0.47745301200325974,0.2520706393813958,0.25076378787623754
267,3.6700000000000026,-0.6255648112884706,0.25759041366983093,1.3779347923206613,0.6534839233165282,0.6355427898452021,-0.41111472275515404,0.3696304081226266,-0.30284537840634174,0.4613418500732198,-0.47888858230336184,0.2551588918574819,0.25604559043780256
268,3.6800000000000024,-0.5157698609291127,0.29094483837980883,1.646874784186431,0.6641657159067135,0.6279179532299147,-0.4056625191340559,0.43363325238753303,-0.28575284408725143,0.4398976678261472,-0.47959252662196217,0.2591455173492512,0.2621541044969056
269,3.690000000000002,-0.3642027158871882,0.32350932562622564,1.9251510682807425,0.6765123704652096,0.6177277640512306,-0.400858346305903,0.503592603447047,-0.2593549243232639,0.42845811250226545,-0.4794172870031863,0.26405483392974893,0.26908659488924097
270,3.7000000000000024,-0.1986527578209969,0.3902474170507237,2.207342837270767,0.6905537573489745,0.6047156630171197,-0.3967085319643947,0.5747953845319161,-0.21206290368862554,0.4252525628631697,-0.47825299511050184,0.2700225800038454,0.2767796224644308
271,3.7100000000000026,-0.10970917127564522,0.4865213517219106,2.477866848384599,0.7062622367388458,0.5889249699431365,-0.392758615901933,0.6361868776400623,-0.16042596555477223,0.38701023107532884,-0.47624344208547553,0.27713138391819003,0.2851468132136011
272,3.7200000000000024,-0.18034737771379683,0.5646912636235523,2.69069109857087,0.7233360929414672,0.5709314135834531,-0.38819862566888214,0.6591199565678861,-0.13020805679261127,0.29601792935279514,-0.47389255446698686,0.28515412745019414,0.2942008625205138
273,3.730000000000002,-0.4228044144154053,0.6172584438932422,2.808003009263614,0.7410812488304925,0.5518765168855937,-0.38222412382009163,0.6611755981650226,-0.11835298153262679,0.18770872202564465,-0.4719269976256088,0.2935286113256533,0.3039242059816534
274,3.7400000000000024,-0.7835045373881037,0.6729594289946673,2.8477039516151184,0.7588796868097073,0.5329011489195968,-0.3741376372890272,0.6629974806171088,-0.12224467764370332,0.09308447759085166,-0.4710191618452001,0.30176093036799917,0.31420335590661125
275,3.7500000000000027,-1.1838003268134918,0.7107880294158616,2.8291948538023655,0.7763325727628283,0.5147022788917647,-0.36366274278568905,0.639516895680426,-0.12384059629485461,0.0077472384704620895,-0.4715375548453618,0.309531851366055,0.3249209807810864
276,3.7600000000000025,-1.5268647950958374,0.7262061735425986,2.766471536271255,0.7930751325067874,0.49758813528678286,-0.3511453759972903,0.5721206252099157,-0.10127135978617968,-0.08111697285569429,-0.47347249646153755,0.31660909121659564,0.33591535365992503
277,3.7700000000000022,-1.813697680226036,0.7140671518691692,2.6762511449115944,0.8088967483847709,0.4815337900757588,-0.33716707060044604,0.4867160143669502,-0.07287568208475739,-0.14474479982998573,-0.47659242983979044,0.32290410495819843,0.3470301227716834
278,3.7800000000000025,-2.0051590624916353,0.6843383706315294,2.562499183896997,0.823632890065934,0.46645475435167505,-0.3223776234568789,0.41217466859442664,-0.061538383564405774,-0.17978743913147696,-0.48059833927274126,0.32837172756649685,0.35810675688049937
279,3.7900000000000027,-2.079134013712708,0.6258849135987127,2.429473738020614,0.8371765271317805,0.4521758274276663,-0.30750924466261864,0.3649015694820885,-0.05364945599574549,-0.1981753366294641,-0.48509176693037553,0.3330520872473641,0.36896180684498764
280,3.8000000000000025,-2.037600079098245,0.551128868518655,2.2880265871997714,0.8494633008322624,0.43848543078970803,-0.2933353680198011,0.3526293876484909,-0.04069752402814439,-0.20867805013654753,-0.48962079124269453,0.33704197588945733,0.3794158471543723
281,3.8100000000000023,-1.8764494284297641,0.4629483319081549,2.1547513557933526,0.8605170675353845,0.4251413317550681,-0.28050340421875697,0.37539747260091993,-0.018055090809266604,-0.21218728798417905,-0.493750699037271,0.3405194043705708,0.38930797859934324
282,3.8200000000000025,-1.6416189848419944,0.37400457731864717,2.035119100498143,0.8704435545202166,0.4118640271091762,-0.2694909910766953,0.40881203562578766,0.01937178231758831,-0.21325817095843091,-0.4971113501110119,0.3437021368329563,0.39855005925470466
283,3.8300000000000027,-1.4147947949938808,0.2848472264915227,1.912553224424448,0.8793276970536704,0.39862426696053804,-0.2604257189486793,0.4155194713472149,0.06570664020547551,-0.21209759546036308,-0.4995937421688654,0.34668526590912013,0.4071353959278087
284,3.8400000000000025,-1.254055004651272,0.19949023645965624,1.7772246778301997,0.8871951676963383,0.385737279225574,-0.2530641266654111,0.3814534388424246,0.10705859905066177,-0.20394951090711125,-0.5013864409576463,0.34939630933532917,0.41509710017941553
285,3.8500000000000023,-1.1707440736092247,0.12039034804509399,1.6334545971883594,0.8940762263766389,0.37357731461670207,-0.2470361529667557,0.3121223072477556,0.12859795577678956,-0.17845199402762982,-0.502789077406952,0.3516871583617452,0.42252774235170326
286,3.8600000000000025,-1.1254126824118327,0.04963191273271165,1.4855652668949526,0.9000319384504125,0.36239458719137185,-0.24203337674589293,0.21752015720118933,0.12945446283119857,-0.14477077786613335,-0.5040341130163196,0.35345742641835826,0.4295100362558924
287,3.8700000000000028,-1.1035966016934209,-0.013777091930768176,1.358015811748886,0.9051794557060945,0.35222116185031793,-0.23783278241207773,0.108649288094572,0.12792693694645985,-0.11490663067051304,-0.5052335346364235,0.3547142257933328,0.4361083409862296
288,3.8800000000000026,-1.1030464651266823,-0.06471133883498045,1.2477804733876559,0.9096449619479255,0.3429921446011553,-0.2342687369946352,-0.0023482971141055575,0.13395696984807942,-0.09637793547771753,-0.506454198055147,0.3554847647407054,0.44240473338049296
289,3.8900000000000023,-1.1186740629753373,-0.10443839623768265,1.1454481542022903,0.9135283251351219,0.33466807641088775,-0.23118574900436145,-0.09442882584991957,0.1426214952021857,-0.08975336494040584,-0.5077527900601198,0.3558003610769378,0.44844312038894457
290,3.9000000000000026,-1.2645928339247383,-0.15093749106855667,1.0037669767727089,0.9168365700650619,0.32749886651217636,-0.22834883386931248,-0.160550165038164,0.14306771914780195,-0.08073126000235502,-0.5093556381481068,0.35550224240184386,0.4543071960962806
291,3.910000000000003,-1.4982300237403932,-0.17025210552056044,0.8547932596920472,0.9194775084484725,0.32222675933007716,-0.22521934623291506,-0.2078332078235807,0.14275905191097996,-0.07032617909826228,-0.5118193090442825,0.3541602164268198,0.46010796756814365
292,3.9200000000000026,-1.5053732956410197,-0.17446338919617177,0.8796869897676728,0.9219180159721879,0.3174420963136059,-0.22201416724055797,-0.24141359055066341,0.1379387930872309,-0.06985835392515652,-0.5146051007309603,0.352381068269434,0.46602292875761564
293,3.9300000000000024,-1.4286511971395217,-0.18102627828832393,0.7893175541603275,0.9241192595476009,0.3130984101868339,-0.21901424152266974,-0.26125615227733956,0.10352541863573786,-0.05127689219440845,-0.5173397767581712,0.35050021074927024,0.4716336784964545
294,3.9400000000000026,-1.3377857837738465,-0.1621032938230131,0.7776421473827294,0.9261740145069784,0.3089012396907481,-0.2162786569995653,-0.29548379021144766,0.11171629015880791,0.0008384469947637224,-0.5198595279720557,0.3487191609438208,0.4769011433878871
295,3.950000000000003,-1.264044069114588,-0.13568626905979903,0.7878783649473925,0.9282574126016703,0.30444048946373964,-0.21365511445692317,-0.31391598278133054,0.18210406084620112,0.015492565195017809,-0.5221404042494489,0.3471894666561054,0.481950583718475
296,3.9600000000000026,-1.17958583772122,-0.11691474511425937,0.8138041329526542,0.930405597305799,0.2996010218048456,-0.21113519562459193,-0.30650512871070196,0.1761117015535912,0.023607558863298378,-0.5241773365702518,0.34593284652512496,0.4868428031971014
297,3.9700000000000024,-1.0600217257422322,-0.08412876424880779,0.8591105486324639,0.9326749015075626,0.2941716912158868,-0.20874068309858496,-0.32239341653476605,0.13475383241819933,0.03906264511243022,-0.525879784372529,0.3450790121258816,0.49157115691911757
298,3.9800000000000026,-0.9410867464219049,-0.04652664326357786,0.9054323992037211,0.9351090931959339,0.2880064015938826,-0.20643127055445742,-0.3104967818959206,0.1535858136070698,0.03967504294196139,-0.5271977583268841,0.344741357878433,0.4961109212460193
299,3.990000000000003,-0.8461343392627647,-0.009624050037008173,0.9509736574662513,0.9376970538476606,0.2811278392262445,-0.20415668137684342,-0.28336607143282094,0.18984916183909345,0.04489083834305584,-0.5281784318167867,0.34488989243137835,0.500490686008448
300,4.000000000000003,-0.7830955857934742,0.03210787560975713,0.9853360751512896,0.9404113720534958,0.2736711265199097,-0.2017851081644032,-0.2811788307066326,0.20099227169557793,0.056939871226863066,-0.528935834302182,0.345447761512224,0.5047232243224637
301,4.0100000000000025,-0.7343099215402485,0.07668887847868414,1.022060019825596,0.943225919549878,0.2657347787200683,-0.19923663043373305,-0.28515752446401255,0.20866841926981833,0.06092376213200646,-0.5295538909167117,0.34634393012490644,0.5088308634313412
302,4.020000000000003,-0.712987714598417,0.12246585061913298,1.0419857609493235,0.9461246151462556,0.2573932890474654,-0.19641989823612588,-0.2708730749771287,0.22255341478885854,0.061386395929730546,-0.530105032979337,0.3475318026193924,0.5128215609305489
303,4.030000000000003,-0.7298396623868104,0.1696949724672001,1.0369298006000431,0.9490429165642135,0.24893881030038517,-0.193210393973276,-0.25101839313283003,0.24003480906613328,0.05397461517495399,-0.5307440309092737,0.3488626509259774,0.5166818479953554
304,4.040000000000003,-0.7793056263716932,0.2231135079924962,1.0200625678524822,0.9519360976417796,0.24060198788904993,-0.18950308132898838,-0.23901925249174436,0.24883032370357136,0.04440358184144405,-0.5316062708085202,0.3502038592198058,0.520415757722223
305,4.0500000000000025,-0.8428918934145656,0.27681877905970204,0.9837543703301779,0.9547807081905582,0.23255391432393835,-0.1851910697167786,-0.233868536894501,0.24575104707851966,0.0480867833396052,-0.5327995955267127,0.351466171612455,0.5240142577619052
306,4.060000000000002,-0.9017726161677395,0.3350329466258828,0.9267936352931296,0.9575276430317904,0.22500874683173444,-0.18026538162339312,-0.23593607936200073,0.24521601046144517,0.050899189351912594,-0.5343737644673227,0.35257801539338407,0.5274190809167635
307,4.070000000000003,-0.9189819928849553,0.3917483930724882,0.8537875168526036,0.9601467452239947,0.21809126188860717,-0.17475356463357206,-0.24162256437564522,0.2511072401926409,0.041754239602743284,-0.5363052192510881,0.3535519848259593,0.5305373799076278
308,4.080000000000003,-0.87787105373613,0.44762409512425283,0.7808662418124618,0.9626274415110154,0.21178216207201594,-0.16876537902457642,-0.2441444192702438,0.26047493865962373,0.023121233392045235,-0.538461295021643,0.3545076450043427,0.5332530200536935
309,4.0900000000000025,-0.7880700340549757,0.4964870310575463,0.7141183074649505,0.9649723479283934,0.20596903338888134,-0.1624521076437656,-0.24655191986557576,0.2772715350053771,-0.00012440464901875697,-0.5406788595477081,0.35558285950001267,0.5354926038936096
310,4.100000000000003,-0.6639557923899206,0.5379542430332247,0.6519324336320914,0.9671833512940746,0.2005429721332033,-0.15596463724054915,-0.2508300123624178,0.298880959174734,-0.03330513067831457,-0.5428231753785734,0.3568746435581459,0.5372299494408386
311,4.110000000000003,-0.5061928575444611,0.5714047080208491,0.5941508530985304,0.9692661761699147,0.19540877173724192,-0.14941618511786084,-0.2511041828429526,0.31301997281815547,-0.06764664286590036,-0.5447785623578228,0.3584787613128633,0.5384378657149853
312,4.120000000000003,-0.32226114620326796,0.5914451757016185,0.5410899419364015,0.9712129306195412,0.19051681246559515,-0.1429554454878759,-0.24224859651298492,0.32240895090087907,-0.0908039162105265,-0.5464328349776483,0.3604610562978517,0.5390974457931896
313,4.130000000000003,-0.13761573166344443,0.59783496348383,0.4926258701378306,0.9730168649582563,0.1858230177065223,-0.13673551478830404,-0.22820141414594772,0.3371213422625946,-0.11192845499150446,-0.5477088510564391,0.36283036418570047,0.539244011334206
314,4.140000000000002,0.022961012715520618,0.5847578460709898,0.45729220469524257,0.9746800451650762,0.18128977352526032,-0.1308528627250653,-0.2030194980412004,0.3537134250437324,-0.13834654457112655,-0.548593450454806,0.3655369139806628,0.5389627730976967
315,4.150000000000003,0.15673366403969705,0.5652079878833295,0.44034726856954176,0.976220882723846,0.17680611281343483,-0.1253916815204115,-0.15997770481551027,0.36882960021122274,-0.1670436388038743,-0.5490861213339517,0.36851978769382143,0.5383850787386916
316,4.160000000000003,0.2239019734516204,0.5306078188615796,0.44604718584230496,0.9776655593919946,0.17224976793595362,-0.12038019718230383,-0.10788990217869576,0.37698390015258715,-0.19552677727330872,-0.5492277939766962,0.37169451008782256,0.5376643690072287
317,4.170000000000003,0.20447206280591174,0.5000983395884829,0.45169590838803475,0.9790382784432302,0.16759338818559663,-0.11570763650559607,-0.05677264621632816,0.38884953090227115,-0.21773894718739834,-0.5492084660963859,0.3748525210479922,0.537013070794369
318,4.180000000000003,0.19401690765526625,0.457480926689186,0.45406210389918844,0.9803304543424516,0.16293316919359793,-0.11134219160121202,-0.0008491621273623087,0.4031099103202583,-0.22571197511215155,-0.5491271655270408,0.37787115496547646,0.5364959209805207
319,4.190000000000003,0.18991132865938867,0.40088149112943317,0.45514816726337587,0.9815316461820641,0.15826253538326734,-0.10743179078528904,0.05705044655674585,0.4119818285877047,-0.23017562759309496,-0.5489212904814792,0.3807466500456616,0.5361252244896247
320,4.200000000000003,0.14005938045151606,0.34059591723818405,0.43527150070873977,0.9826213808965313,0.1536920219441507,-0.10405773929894059,0.10783497228641117,0.4413854662537257,-0.24780537147634857,-0.5486226304231331,0.3833837439093084,0.5359357620010646
321,4.210000000000003,-0.018795622477694562,0.28642389110973543,0.3742167163710165,0.9835610661299791,0.1496079080109647,-0.10109607597885178,0.1510138103719406,0.4718213136481257,-0.2612621239079697,-0.5484951640294614,0.38549228786289363,0.535994038219864
322,4.220000000000002,-0.3299882152925373,0.24061734388108685,0.28810803312399147,0.9843129246882005,0.14652142866784842,-0.09826762149621382,0.17241004118478137,0.44183556084263964,-0.2580651346717862,-0.5489862565006071,0.3866265079784722,0.5364401394524623
323,4.230000000000003,-0.717722356037241,0.2016832699846305,0.20490784172177262,0.9848864327781486,0.1445967132458458,-0.0953331688249809,0.16585993025073137,0.36495124229693054,-0.23907028789689544,-0.550430289531092,0.3864703528140989,0.5374667575803495
324,4.240000000000003,-1.0767332757183927,0.20078296465872303,0.12219625682443833,0.985311466107669,0.14382337449096647,-0.09205421337865013,0.14767100154712667,0.2901225692454103,-0.20688111621419758,-0.5529431947796712,0.3849995893839157,0.5390721404005024
325,4.250000000000003,-1.338635990474793,0.22560420065711673,0.03488275735682743,0.9856182868083125,0.14412894583219907,-0.08820637898206644,0.12908123485248685,0.23514997182972683,-0.17692245652723665,-0.5564203364102246,0.3824777798170513,0.5410116139880708
326,4.260000000000003,-1.477953396679403,0.2724411251718436,-0.06452173836640812,0.9858096172771185,0.14549309691501597,-0.08370508384650588,0.11548673271026531,0.20374442328137854,-0.16178977113013035,-0.5606593722723098,0.3792132942347129,0.5429801554520987
327,4.270000000000003,-1.4425539818483128,0.3343769200653863,-0.14581616741410977,0.9858979080682692,0.14774533973656792,-0.0785507610425396,0.12171455746307125,0.2063030387714629,-0.16119811340011933,-0.5653325577123299,0.3756555672044854,0.5446409552814346
328,4.280000000000003,-1.201932602547373,0.39535751589866697,-0.20024959934673037,0.9859103708789916,0.1504998834712759,-0.07295981604511155,0.158322095395137,0.23147281879938367,-0.17831182414229893,-0.5699394863179014,0.3724021795791782,0.5456759331724319
329,4.290000000000003,-0.7859396315425816,0.4376637979461627,-0.23474767127846427,0.9858700355311156,0.15336787112646644,-0.06731439022660027,0.21512271203539007,0.26811120832281854,-0.21211048840633528,-0.5739265668236367,0.37006434378079145,0.5458025722129507
330,4.3000000000000025,-0.3599712577989495,0.435473707359048,-0.2615376928595709,0.98576778134302,0.1561990698122833,-0.06210844936313031,0.29316797238136194,0.32481948758724266,-0.2665344979614154,-0.5769656404675237,0.3688560972986959,0.5449889841139259
331,4.310000000000003,-0.045965965185368995,0.4012904070317627,-0.30323949052327864,0.985575283433718,0.15908999145867792,-0.05767887319416204,0.3927282181510542,0.3931755908255786,-0.3177188274014183,-0.5790886506862218,0.3685325237399031,0.5434526782292086
332,4.320000000000003,0.14355419085270119,0.3593427712771272,-0.38097308611871816,0.9852419485643379,0.1624132957712501,-0.05399758673682361,0.4929800005338223,0.43396100392202014,-0.33373868652420413,-0.580625395180902,0.3686122357939439,0.5414258644465525
333,4.330000000000003,0.3304998581516429,0.32274745394133025,-0.48440876594617044,0.9847042847883392,0.1665805097248199,-0.05102404850670272,0.5649968718025123,0.4423587862185294,-0.3032424728975796,-0.5817833802031454,0.36880327071615737,0.5389496199176104
334,4.340000000000003,0.5775999083045182,0.2895791677696101,-0.5930873529354733,0.9839255916510286,0.1717669178086841,-0.048789590616615676,0.5747572074554269,0.4662448411893512,-0.24045985428077898,-0.5825193707209521,0.3691561797412989,0.5358936509609203
335,4.350000000000003,0.836913186985098,0.2554787596922808,-0.7238944381485312,0.9828961487757714,0.17794267275799183,-0.04736617385801917,0.5173494781717344,0.5160671400322934,-0.1815557994183123,-0.582736737083634,0.3697765779682739,0.53217792333145
336,4.360000000000003,1.0592663760221837,0.22741385534299075,-0.8889843777199873,0.981541531073569,0.18541985542719597,-0.04673187421094207,0.4339141465699429,0.5636307163779304,-0.14252483430743984,-0.5825230700521115,0.37054122793734123,0.5277258118123832
337,4.370000000000003,1.221365576703692,0.19689508642851722,-1.0853053482613892,0.979761899437379,0.19456574476077482,-0.046828014715896246,0.35897237738891563,0.5509057166823366,-0.11511753884734097,-0.5820613709359982,0.37120133800451827,0.522526163846392
338,4.380000000000003,1.3007621367850157,0.14642146141232826,-1.310688504483387,0.9774447741931288,0.20567491073212094,-0.047676918764916344,0.29356840352771313,0.48510975926150174,-0.10237059997209996,-0.5815414960919417,0.3714444451129387,0.5166594362934727
339,4.390000000000003,1.2911306777041422,0.0829795874043298,-1.5674478654479969,0.974437793989415,0.21908963467595072,-0.04931290153019427,0.232672934993861,0.4103000010505295,-0.12145809027806041,-0.5811874922059046,0.37089691669701086,0.5102323518806273
340,4.400000000000003,1.2028140302747152,0.016885540213458554,-1.8265614449513032,0.9705986515386018,0.23497590746265423,-0.051669455744559674,0.19547363640739565,0.34093545351640964,-0.14910824187100802,-0.5812180351436913,0.3692562451601569,0.5033747504009857
341,4.410000000000003,1.1152489835861814,-0.0386405610985258,-2.052746166940847,0.9658390805823713,0.25318126635393723,-0.054609185327718475,0.1873070818372067,0.27843990368999477,-0.16727180585731297,-0.5817197037285453,0.36646386616507315,0.4961671051784667
342,4.4200000000000035,1.1118589818477704,-0.08342369701714758,-2.2243978122249777,0.9601556908339242,0.2731958725489745,-0.058124185359339456,0.1929692436009672,0.22799983238799762,-0.15724815581924595,-0.5825137742773792,0.3627846256766384,0.4886007518463722
343,4.430000000000003,1.1956397397497176,-0.12616466879802335,-2.3423573356501346,0.9535967125382044,0.2943841251906909,-0.06239882693670453,0.19915115456115415,0.19622076995221424,-0.12861401455562377,-0.5832591916679294,0.35861655298505446,0.4806226943161993
344,4.440000000000003,1.339996359189377,-0.17397599290608534,-2.426970637849639,0.9462077407117543,0.3162324773396296,-0.06768930405880559,0.20843104924240682,0.1832309381170851,-0.09819191745919274,-0.5836569673470575,0.35425455383468857,0.47220596919425717
345,4.450000000000003,1.5033687075520004,-0.2271797341047809,-2.483172482250535,0.9380157730538663,0.3383819151801045,-0.07423569310102665,0.2269916426393112,0.1753902021623688,-0.06627331792274815,-0.5835164521869036,0.3498386108386612,0.46337480521746843
346,4.460000000000003,1.6605021954689112,-0.2815549322650237,-2.4973572088832197,0.9291041000413989,0.3604147355092149,-0.08215428705093733,0.24895080170736372,0.16081288685532566,-0.03270084570543415,-0.5827233744655254,0.3454745248710818,0.4542176931972719
347,4.470000000000003,1.792328224151085,-0.3575634846139328,-2.49629660807056,0.9195524622114551,0.3820048774573113,-0.09151554627593546,0.2672328455865949,0.13701448843032546,-0.005155258885283245,-0.5812487911049546,0.3411570298716794,0.44488194589677627
348,4.480000000000003,1.8848863180361666,-0.45480929449447177,-2.4849401064230325,0.9093782234876984,0.4030053792685817,-0.1024381301353253,0.298876937356462,0.10779560954501897,0.019157698194024447,-0.5791020162987085,0.33677468859275084,0.4355160196071897
349,4.490000000000003,1.924836044711874,-0.5731032213552552,-2.4584031619235334,0.8986025818279947,0.42328532197676805,-0.11495542229084464,0.35658129105966074,0.09046422864498588,0.03556754975403324,-0.5763429579452817,0.3321829229477311,0.4263021343221462
350,4.5000000000000036,1.9033929532404013,-0.6989435286298693,-2.411967437275843,0.8872730292456399,0.44270833363602696,-0.128936944383305,0.43300069582797057,0.09000996343907841,0.04281452132705215,-0.5730869887584557,0.3272553165582975,0.4174298214796739
351,4.510000000000003,1.8182457009051627,-0.8072309872756269,-2.349307434048762,0.8754705954376241,0.4611702487940503,-0.1440191562160111,0.5074670077543381,0.08191587130970465,0.07179840412622784,-0.5695183063214762,0.32191826465491497,0.40905164102408154
352,4.520000000000003,1.6866227808834289,-0.8784402608871651,-2.282470486516278,0.8632910853484465,0.47866378767902845,-0.15962650299324493,0.5451058172809516,0.05371188300287737,0.12623950508069312,-0.5658714810526166,0.3161762226073131,0.40121955595030784
353,4.530000000000003,1.5360166889262274,-0.9038673030226799,-2.2128655278166462,0.8508499025434079,0.49523335042234096,-0.175144472806867,0.5245833773844419,0.018611281249436173,0.20034104876295286,-0.5623543702286903,0.3101227533024663,0.3938895472781997
354,4.540000000000003,1.398205851778606,-0.8930731286399733,-2.1429587375930983,0.8382544873972072,0.5109482770711378,-0.19012164964772826,0.46408147562590635,-0.02107776197494452,0.280976049211888,-0.5590861175827824,0.30389587584480054,0.3869569610519281
355,4.550000000000003,1.3185916133869615,-0.8635646330067113,-2.0812017511449894,0.8255809928401717,0.5258331987689,-0.20447034565245503,0.3996168262453247,-0.05637080773190921,0.3521578048553388,-0.55601493176178,0.2976631106002337,0.38027598803005086
356,4.560000000000003,1.2773883929461711,-0.8276376770269633,-2.03752315493463,0.8128205029262614,0.5399648180531486,-0.21831017329469696,0.35477301721905063,-0.07407481431559824,0.4018563137038049,-0.5530396904478272,0.29151919324545283,0.373700727620053
357,4.570000000000003,1.2595206375987484,-0.782941882766423,-2.0061021487796995,0.7999488220363469,0.5534224128719694,-0.23175135094021368,0.333480959854339,-0.07807243634179521,0.42810368531646004,-0.5500899696116366,0.28551202758656946,0.3671214473628511
358,4.580000000000004,1.2612315047715967,-0.7284146522041217,-1.982723799011073,0.7869767088687,0.5662484947660372,-0.24482224388060622,0.31095173946741056,-0.0870880988501561,0.4387687288708748,-0.5471336407393734,0.27968881664403844,0.36046172713388097
359,4.590000000000003,1.2861336176189286,-0.6729112865999798,-1.9492744304271095,0.7739600792766176,0.5784010606592813,-0.25758493878552585,0.2671509252872297,-0.1209533892428543,0.43756463794771683,-0.5441125886964221,0.27411982210351693,0.35367514521304594
360,4.600000000000003,1.3331912693772983,-0.6165980368423895,-1.904899957819637,0.7610010872469578,0.5897465780221357,-0.27017198746938337,0.21654771292267114,-0.16247368837771453,0.4342101551525948,-0.5409360830755016,0.2688778416026302,0.34677405503266095
361,4.610000000000003,1.3957405953369193,-0.5527805459345188,-1.8519782165655558,0.7482057725310085,0.600156646313104,-0.2827040096690136,0.17416052404401408,-0.2010984370716675,0.4336084021609313,-0.537517277820561,0.2640393118456645,0.33976125948716435
362,4.620000000000003,1.4574126084224681,-0.48301924731454393,-1.798859877366543,0.7356641000435445,0.6095837875496699,-0.2951819555605259,0.132441298998069,-0.23677423054648325,0.436397196267457,-0.5338373328495009,0.25965503157841324,0.33262887649227496
363,4.6300000000000034,1.504954252817407,-0.40399957157388183,-1.7447758877332202,0.723456150450059,0.6180454609907047,-0.3075111304155588,0.08711318735980231,-0.2712902519044915,0.44433007769102684,-0.529935345000812,0.2557487033877572,0.32537523540366853
364,4.640000000000003,1.532882922974691,-0.31899500401157455,-1.6934925534749066,0.7116352325276608,0.6256194078273524,-0.319552288886661,0.04029133442272869,-0.30396478280084493,0.4562203276406859,-0.5258868398416906,0.2523128031229069,0.31800358677124113
365,4.650000000000003,1.5359968169132072,-0.23729582183840153,-1.641294569346788,0.7002398579590171,0.6323982015561007,-0.3311805432902655,-0.005145348428970194,-0.3343250682823296,0.4686460017891693,-0.5217749320963193,0.24931092968932003,0.3105472042329433
366,4.660000000000004,1.527898783478422,-0.15576865236966575,-1.588099469981025,0.6893165932380656,0.638457238786213,-0.34229304412535,-0.04506483419907738,-0.3571033612865407,0.47786500896185724,-0.517666651446571,0.24671934633001852,0.30304086582766443
367,4.6700000000000035,1.5109096846457852,-0.07917090291085957,-1.5339617874913267,0.6789089134173735,0.6438528796058884,-0.35283334952156187,-0.07723680599386609,-0.37143275530480324,0.4817299509427411,-0.513601232875222,0.24452654827691644,0.29551054848969166
368,4.680000000000003,1.4867361277616054,-0.013571105250270644,-1.4762979092790662,0.6690196670352244,0.6486336219264502,-0.3628323515371721,-0.10526834053790526,-0.3785329549323843,0.4799960770486148,-0.5095907919478754,0.24268810077815686,0.2880020960683846
369,4.690000000000003,1.4591085691552517,0.044946198013974016,-1.4195766167300674,0.6596532906794756,0.6528395026025092,-0.3723211196838361,-0.1282933488753485,-0.38175388586300324,0.47690569179656767,-0.5056409014785964,0.2411710312176245,0.2805520769054852
370,4.700000000000003,1.4212468445078308,0.0960902095609456,-1.3599249704057244,0.6508262570806327,0.6565170967571039,-0.38128700288812417,-0.1450411741038201,-0.38336908960624155,0.47448991430751253,-0.5017761761397379,0.23994619781210452,0.27320468735719056
371,4.7100000000000035,1.3729241367557294,0.13730392532433572,-1.3028878357823586,0.6425141095372919,0.6597406186525242,-0.3897319118164429,-0.15838247453792262,-0.385675732254555,0.47185663828821406,-0.49802529400073764,0.23896049969823913,0.26600023656872546
372,4.720000000000003,1.3185963636031188,0.16369332259055977,-1.246310790197439,0.6346907143655672,0.6625803505769009,-0.3976575028820688,-0.16622757342411415,-0.38951054992503625,0.46917194512206967,-0.4944135465677877,0.23816804464303312,0.25897159927458546
373,4.730000000000003,1.2761150412469628,0.18153871722094853,-1.1833110827084679,0.6273248141574572,0.6650407733007131,-0.4051708461130322,-0.16642611030285331,-0.3980736542221297,0.466601199289861,-0.49091203614243395,0.23752396381907084,0.25216287481593674
374,4.740000000000004,1.2549252791854033,0.18274004255072074,-1.1211730098613555,0.6203915254664001,0.6670643298959482,-0.4124566262842589,-0.16065860830130735,-0.40742384410259863,0.462186760401526,-0.48743909166647975,0.23700745172580684,0.24559836896202403
375,4.7500000000000036,1.2504668720619518,0.17577635690176707,-1.049459127333805,0.6138924903978457,0.6685568311469983,-0.41970233473912466,-0.1506613321966106,-0.4130328669707538,0.4588087458534564,-0.483901201487841,0.23661379038334293,0.2393073484096431
376,4.760000000000003,1.2556704690039648,0.15879116382711136,-0.9694790100882258,0.6078354347526309,0.6694282705066146,-0.42706553697717264,-0.13765007662004333,-0.41419613492762436,0.45959303885829345,-0.48021847570897447,0.23633633094275527,0.2333244279621
377,4.770000000000003,1.2680345611937855,0.1327583776790468,-0.8778340438147691,0.6022612138229287,0.6696016228073859,-0.4346248443624088,-0.12130396783758775,-0.4142268287265324,0.46435345480349677,-0.47634965217531544,0.2361688694047968,0.22771433520967305
378,4.780000000000003,1.264896895678246,0.10168848341108119,-0.7704566041414797,0.5972282415896175,0.6690251830266787,-0.442388906890121,-0.10090729784132575,-0.41475799390609625,0.47246790052086235,-0.47228778288677226,0.23610730791425416,0.22255347439171866
379,4.790000000000004,1.2374923168856073,0.06893212862504511,-0.6404007665303201,0.5928292821452473,0.6677137019156357,-0.45021866992829274,-0.07674811736796147,-0.41663616989244545,0.48445500653470364,-0.46810279679439704,0.2361506865903651,0.21794270364949336
380,4.800000000000003,1.1787501934828248,0.038953968175327994,-0.48509597812875754,0.5892777228786134,0.6656023203060605,-0.4579424707502792,-0.047105640951475486,-0.42126819723635156,0.5014643513743128,-0.4638578732540138,0.23634987306448155,0.21404281755779966
381,4.810000000000003,1.0872533611487267,0.017904118661038623,-0.3035113086617743,0.5867618619638953,0.662713572802021,-0.46530512985337064,-0.012518401526892285,-0.42690528651728715,0.5241539113645638,-0.4596661241972145,0.23675138682753102,0.21098831963644984
382,4.820000000000004,0.9663646642845751,0.007341493180407513,-0.09365625985901685,0.5854779166213117,0.6590857931645571,-0.4720284310817105,0.028816970926727612,-0.43377992879104865,0.5491410121831102,-0.4556494034898864,0.2374160521267328,0.20890158534982645
383,4.830000000000004,0.8343547259296867,0.00969610651334478,0.13985206543001627,0.5856440263101833,0.6546944293877442,-0.47789795901772064,0.07560566807662197,-0.4379674044845171,0.57505548003247,-0.4518829424186781,0.23843249860877852,0.20789408299080214
384,4.840000000000003,0.6971156183047692,0.03835851033903798,0.3837412454759846,0.5874527810388834,0.6494885993495682,-0.4827561890117082,0.13280304239453644,-0.43556077865214177,0.6001495212520322,-0.4483996738789011,0.23991040798685054,0.20801622519504068
385,4.850000000000003,0.5228068998167025,0.0978733070720465,0.6012812618772372,0.5909891559694723,0.6435914468365342,-0.4863231657040852,0.1999056638575248,-0.42671038529850364,0.6220568361312455,-0.44530764277798573,0.2419441726548862,0.20919746350281446
386,4.860000000000003,0.2892479646934397,0.20606079614487205,0.7835120921029475,0.5961517683012291,0.637494862254237,-0.4880475899570815,0.26697972421463695,-0.4059273278261174,0.6388822924604528,-0.44291844143973985,0.24453463080339816,0.21126648248344945
387,4.870000000000004,0.03690132179382524,0.36009806918028076,0.9795457746383806,0.60309231083952,0.6314406068929406,-0.48738603195340424,0.324472788052029,-0.36902718936304985,0.6541822457727459,-0.4414625300304932,0.24782112564198178,0.2141178858271518
388,4.8800000000000034,-0.2043432214991321,0.5282220880311388,1.1772080175009008,0.6120161502197944,0.6252934817111128,-0.48416722704983955,0.38376552545945725,-0.3366122890204309,0.6776765703802907,-0.44094287703100277,0.25195679827400325,0.21774298668218
389,4.890000000000003,-0.4483128572387769,0.7027186501998546,1.3661891704233888,0.622905238350699,0.6190068423726167,-0.47830982316040405,0.4636892095368895,-0.31446180951853964,0.6847533598877282,-0.4413697583058216,0.256968238670225,0.22210209364360453
390,4.900000000000004,-0.6307374309208956,0.8788476685264106,1.5323471746065638,0.6355604326604866,0.6124292588662318,-0.4700412856070323,0.5358951942960143,-0.2959244983631157,0.6542604131328944,-0.44259873121335175,0.26282792698585006,0.22706918112198834
391,4.910000000000004,-0.8601876426108973,1.0783134497086755,1.68378958557676,0.6498937194167393,0.6055509716584475,-0.45920840049805894,0.5842742715782775,-0.29871463806631443,0.6005200933189243,-0.44465601436773333,0.2695679424052164,0.23252088830320097
392,4.9200000000000035,-1.0215261126632516,1.2812370419465096,1.867965145640942,0.6658948730821208,0.5981723816348623,-0.44573112284003724,0.628695314637907,-0.32245678306776426,0.5428573894726381,-0.44750717810859575,0.2772336004342047,0.2384468815605878
393,4.930000000000003,-1.066484363884283,1.4917137162691174,2.0570172051113462,0.6836084876009556,0.589528388827043,-0.43012968089251175,0.6885429927606743,-0.3160286667643237,0.49957123343117094,-0.45069177472125777,0.28599816366850017,0.24479158119387553
394,4.940000000000003,-0.9970268092988994,1.7067317693850785,2.2553327592892916,0.7029258508499665,0.5789863465790402,-0.4129382529161115,0.7508765935726324,-0.30284965153402005,0.4406971613258339,-0.4537408812274595,0.2960212203818743,0.25136120480633983
395,4.950000000000004,-0.8121381306091509,1.8848147493771013,2.5004924630671486,0.723770089413487,0.5657310690595682,-0.3948717321177617,0.798488656591998,-0.30112445170939667,0.36410313579363995,-0.4560881039399171,0.3074429854679157,0.2581086857250632
396,4.9600000000000035,-0.5823635923271125,1.9929731238945385,2.7897128723862035,0.7459893408678181,0.5489985730780631,-0.3766791687175563,0.8417439764140021,-0.2939608269294093,0.2582481161160782,-0.4572421061788599,0.32024660865427484,0.26520057570561556
397,4.970000000000003,-0.3504207999458525,2.0464292342560686,3.080575318165338,0.7692378348384463,0.528460601012405,-0.35882594692872033,0.8983302039936631,-0.2616738366188202,0.12260349977712509,-0.4569774933891252,0.33424641319183884,0.27280745091387987
398,4.980000000000004,-0.1442957188410308,2.079214985169661,3.329088299102417,0.7930127481447413,0.5042570567230481,-0.3414342844702408,0.9461390628400665,-0.20427729379546045,-0.0038781837158680665,-0.4552964304473114,0.3492054814266454,0.2809163745585233
399,4.990000000000004,0.02237515077453392,2.1025652367434464,3.518460921825194,0.8167782739845753,0.476872924507264,-0.3242832707888374,0.9497042978257209,-0.1297674645629939,-0.11560813435959863,-0.452392846482635,0.3648979285671302,0.28937625151207585
400,5.0000000000000036,0.17654558072437143,2.1070859404397875,3.6581889331255386,0.8400065671047019,0.4468221804225439,-0.30726532330925316,0.9086606245857811,-0.035622692704587636,-0.20597649158215828,-0.4484226758588487,0.3810928668811064,0.29801404964051337
401,5.010000000000003,0.34119835059677694,2.0917104489024583,3.7467086463821295,0.862248826800814,0.41450312282674173,-0.2904690885918339,0.8560581218029331,0.06680311001507133,-0.25392542255528805,-0.4434203293152742,0.39760247922686887,0.30665898121226914
402,5.020000000000003,0.49141417824244293,2.0452867714543244,3.7782148588641182,0.8830800448578479,0.38045908334791767,-0.27399433235463116,0.8036158894881786,0.1493488390854118,-0.2777993571685291,-0.437470592628196,0.41420287868597466,0.3151371639339407
403,5.030000000000004,0.5977973728519841,1.9570287531611277,3.7502126757632137,0.9020871177604095,0.345421575367468,-0.25802945427084295,0.7413766246463578,0.20976540007723798,-0.29972521612589825,-0.2679217676135083,0.5342968236177782,0.07858818106384713
404,5.040000000000004,0.6378986171168665,1.823524573150805,3.6662131651627,0.9190107840061442,0.3100705944603107,-0.24279498358610693,0.6842762324451797,0.23988115991675205,-0.3082983385899859,-0.2027048693220122,0.580911069999368,0.008145462691524889
405,5.050000000000003,0.6143640691094208,1.6497230758191423,3.526342431327744,0.9336621712980604,0.2752325421286402,-0.22852621777273724,0.6365093472180741,0.23933129402866793,-0.3057954226591376,-0.18979671370715048,0.5913240453484931,0.01874188124398151
406,5.060000000000004,0.5510236771427731,1.4745641585380524,3.3571307127596093,0.9460462140123175,0.24156494665802242,-0.2153562501327489,0.584673715176155,0.23414369671590798,-0.28149419134423265,-0.17744121294503512,0.600660796154661,0.029024555174617106
407,5.070000000000004,0.4744684158212881,1.3128876895293873,3.1507742055341637,0.956325178546835,0.20950808798951187,-0.20326796596709265,0.5121935077476922,0.2332757766249416,-0.23314791785085204,-0.16582809009127394,0.6089586635499027,0.0389200832438923
408,5.080000000000004,0.33261503097013523,1.1640805765694902,2.8863560744443872,0.9646748085651806,0.1796623279289532,-0.19217375440857346,0.42277894951399925,0.22382255374031512,-0.16954847434824355,-0.15525741532971857,0.6162622820956044,0.04834994242329983
409,5.090000000000003,0.0814237380170654,1.0207502629141794,2.5771677628740566,0.97127972104063,0.15280151310215906,-0.18197462162206324,0.3268082832917257,0.1995672045384617,-0.09743411708620778,-0.14626216156970306,0.6225748988288626,0.0573748358079132
410,5.100000000000003,-0.2466896295072478,0.8953511322062307,2.268640347826196,0.9764081619476218,0.12935433854435532,-0.1725663443299679,0.24081680478700093,0.1764436920733645,-0.038853059941157814,-0.13928690454717366,0.6279357568605386,0.06619913415161063
411,5.110000000000004,-0.5994968370259461,0.7908528084371527,1.9695642018631274,0.980371009567172,0.1093223235842663,-0.1638174738080089,0.17448595101593337,0.1617806826849067,0.015509273338124983,-0.13450849069584014,0.6324491485821103,0.07501446680955144
412,5.120000000000004,-0.9804639849987762,0.6891216829244159,1.6517720991860885,0.9833989664010016,0.09278727766431438,-0.15574950537556742,0.11673092829585438,0.15085603968036226,0.04353180422986701,-0.13204007468584877,0.6361507015838802,0.08388213745951817
413,5.1300000000000034,-1.389176462881867,0.5745938150852069,1.3393764256033047,0.9856627235159983,0.07986140576103544,-0.1485057069294248,0.06647715039433277,0.15257960310191448,0.02732827118233221,-0.1320188326184373,0.6389967262314765,0.09288275908076761
414,5.140000000000004,-1.774392143875748,0.44361623932776517,1.0608136519905003,0.9873113850277156,0.07034180587761146,-0.14229138082082252,0.0333119805465568,0.17375425457868177,-0.01178238803333384,-0.13437790313448406,0.6409327046254151,0.10211132013257354
415,5.150000000000004,-2.1324234219793285,0.2962350847184382,0.8179127426031243,0.98846394768043,0.0638085066324468,-0.13731956744740983,0.025172546855173294,0.19580078676663956,-0.06382921224287652,-0.13887665087832793,0.6419101994431297,0.11163886898635693
416,5.160000000000004,-2.431746681861211,0.1484536370411154,0.6008763184799315,0.9892051825125239,0.059912942140362004,-0.13371357854702973,0.026803320585168794,0.21395431405399593,-0.12750545723322393,-0.14524780536747434,0.6419015477626129,0.12145673695156257
417,5.1700000000000035,-2.653433897020361,0.009435534272553392,0.4192698185258804,0.9896101435500898,0.05826086924807857,-0.13143948531724098,0.010242126337827166,0.24393427653413902,-0.17015274699662072,-0.15311204083803823,0.6409556358079038,0.13145337088264197
418,5.180000000000003,-2.8083144718235724,-0.11019673077399465,0.26813527577965063,0.9897444052544186,0.058456847542995814,-0.13034007210559934,-0.022639695665671693,0.2767282829877284,-0.19145531110714736,-0.1620939311710613,0.63917044964257,0.14151104950045243
419,5.190000000000004,-2.9074284497836462,-0.20521413879082306,0.1399380006684095,0.9896572388355533,0.06018873527713447,-0.13021147380892686,-0.06698282696693353,0.29994001264585896,-0.19451992200374923,-0.1718796440426634,0.6366567109183076,0.1515119383293094
420,5.200000000000004,-2.9693836374654867,-0.27785929562405576,0.039379250414975406,0.9893939307464246,0.06315104063218323,-0.13080307626327567,-0.11827106875320845,0.31761912790566366,-0.17052510930164805,-0.1822201096464482,0.6335391717134209,0.16139216666130565
421,5.2100000000000035,-2.998800581983087,-0.33023248615392387,-0.03348515828142842,0.9889952048656776,0.06704465772806951,-0.13187100390013604,-0.16952331558092376,0.3300239540968896,-0.13170934074868534,-0.19291221999635677,0.6299406089920503,0.1711257295693188
422,5.220000000000004,-2.9971544082260366,-0.3612708651654927,-0.0899311029704111,0.9884925857879368,0.07164392351690368,-0.1332096674237459,-0.2168800308472954,0.3350208663780949,-0.09354337986148117,-0.2037837985651459,0.6259729023707038,0.18066262059434113
423,5.230000000000004,-2.962533774108964,-0.3803911027488495,-0.13828757211310705,0.987908581657884,0.07677407376763974,-0.13467226830291604,-0.26342694933436583,0.3334203680940333,-0.06586285640532838,-0.21468140982846484,0.6217315765529959,0.18993761645841023
424,5.240000000000004,-2.8717750025352804,-0.39365087152793865,-0.17751507158748875,0.9872591881541992,0.08228899997277521,-0.13616584246301666,-0.3071667114844267,0.33252731115138895,-0.051725732091694177,-0.2254224477964122,0.6173141602556572,0.19883215585151395
425,5.2500000000000036,-2.727382089933275,-0.40834778293508284,-0.2165419273450545,0.9865408011172063,0.08807627447905525,-0.13774150039330713,-0.3402073445335593,0.33653515864637007,-0.047522488242902054,-0.2357939491833427,0.6127862041531295,0.20719360107637783
426,5.260000000000003,-2.526035423486428,-0.41958405306546864,-0.2556014547824096,0.985750451866265,0.09405553257891353,-0.13943537578367676,-0.3674338359034105,0.3455607846225423,-0.05677394713315463,-0.245600793009764,0.6082279942646697,0.21485888613890616
427,5.270000000000004,-2.273455998821833,-0.4343323365000534,-0.2871076241563169,0.9848870150174671,0.10010440893578257,-0.1413115574479568,-0.3931724406924979,0.35758631792139084,-0.07377129932062507,-0.2546381997484644,0.603726180224359,0.22168714555282373
428,5.280000000000004,-2.000455554840829,-0.4395581560553243,-0.3150213657827498,0.9839540670435477,0.10612149203090045,-0.14340444730571236,-0.41946731861217545,0.3644643613200105,-0.08715472248092962,-0.262776616826538,0.5993588721145786,0.2275998171338086
429,5.290000000000004,-1.71790604009763,-0.4423021528553291,-0.33852693558508345,0.9829602589938662,0.11202925942204123,-0.14570813257478202,-0.44865390019056856,0.36204026155076297,-0.0958492738282531,-0.26995082601575243,0.5951977623158228,0.232562963252205
430,5.300000000000004,-1.4449856471914142,-0.4343817724625401,-0.354960229907669,0.9819194259301048,0.11775007624141251,-0.1481949483767089,-0.48511610144287987,0.3488946620114457,-0.09445476714758753,-0.27615243848685184,0.5912977134956895,0.23660199550759997
431,5.310000000000004,-1.2006008994793698,-0.4244652778434062,-0.37257648411469607,0.9808417486565298,0.12327511691182962,-0.15081659112365847,-0.5243540165393079,0.3261405687517149,-0.08936351568263266,-0.2814576074367425,0.5876785987558544,0.23978717161434168
432,5.320000000000004,-1.0114872751291117,-0.4119379383228022,-0.3966539573666631,0.9797239059189446,0.12871142438325703,-0.15351667246977851,-0.5560696012107778,0.29561676308365814,-0.08109072979277307,-0.28605201214220183,0.5843031681607331,0.24223640131813245
433,5.330000000000004,-0.8733516693464036,-0.39926356644354677,-0.42195883918612676,0.9785611438783232,0.13417049173586026,-0.15623377892552617,-0.5783697363367607,0.2629085010630545,-0.06677219379525355,-0.2901372403013388,0.5811184982810669,0.24408571499696216
434,5.340000000000003,-0.7881022168803375,-0.386845140466899,-0.44457968938150577,0.9773543683913882,0.13970842531489505,-0.15891073347666035,-0.58517976661824,0.23127348215711085,-0.04930580712061185,-0.2938972557740318,0.57806988709956,0.24549531321774795
435,5.350000000000004,-0.7409634417053731,-0.3726049184333471,-0.45648810590501304,0.976120467705186,0.14533834367830653,-0.16142607588335625,-0.5797839754450218,0.1980930918743838,-0.02960827277092054,-0.29749467781836436,0.5751347025863539,0.24661420474130366
436,5.360000000000004,-0.7309267431264741,-0.3583947612642019,-0.45756697966498844,0.9748596130593791,0.15099817152077102,-0.16383226931975609,-0.5749909796795676,0.1646555809875141,-0.008603476222551924,-0.3010163843895192,0.5722492125218738,0.24760914859227148
437,5.370000000000004,-0.7602772677200984,-0.3461389598487544,-0.4499021886294906,0.9735864451868106,0.15664534374627886,-0.16608609745708308,-0.5720718590164315,0.13478962789666993,0.004778050972167104,-0.3045659484456533,0.5693791649030614,0.2486267229866612
438,5.380000000000004,-0.8198654881271344,-0.3308706020907197,-0.42966841899032177,0.9723208376526594,0.16224643353234802,-0.16811139692799848,-0.5594179070103498,0.10968126777696757,0.010044276661575667,-0.30824683255200197,0.5665016007833698,0.24979851333363073
439,5.390000000000004,-0.8921379647533534,-0.309888421117471,-0.40218983984097056,0.9710913863887625,0.16774670708574116,-0.16981213481896973,-0.5364023269263287,0.0937586899511544,0.019868422421970656,-0.31211431964171976,0.563625923798907,0.25120533983475163
440,5.400000000000004,-0.964999118430378,-0.2873208131672442,-0.3635649427850355,0.9699286582710851,0.17305287553903909,-0.17112973552133687,-0.5126067354388514,0.08381811571506204,0.02908016226114493,-0.3161716581298674,0.5607726482043682,0.2529019992598892
441,5.410000000000004,-1.0359893540694378,-0.2661113149930412,-0.3150987077418087,0.9688571263676304,0.17807386236622416,-0.1720482823019771,-0.48882073815199467,0.08211849797703073,0.03354871361082117,-0.3203873458546341,0.5579632399538734,0.2549097478539021
442,5.4200000000000035,-1.1088582578602832,-0.24444664839287597,-0.2644596280598264,0.9678961923382526,0.18272689228391426,-0.17257907719401538,-0.4572234724750652,0.08615176571725025,0.03382093780647978,-0.32473502150647426,0.5552050449345611,0.2572580316474593
443,5.430000000000004,-1.178345265875496,-0.21871345848474721,-0.2122422294486922,0.9670589372889306,0.18700263747034865,-0.1726951358663014,-0.41758717905364645,0.08975640279467623,0.03011148498318824,-0.32921743927732006,0.5525062558436088,0.25994523132882935
444,5.440000000000004,-1.233088362831335,-0.19295889533230712,-0.15148432529311356,0.9663594474285736,0.19084842733895088,-0.1724055153946079,-0.372980239245154,0.09432486845807428,0.027183665927098536,-0.33379208356109336,0.5498862551030118,0.26295392179168153
445,5.450000000000004,-1.260900994026941,-0.16593121361482954,-0.08577212116999366,0.9658192660389514,0.19415360097613524,-0.1717424808243915,-0.31864475943285275,0.10236751571563171,0.024751070665745875,-0.3383653156357343,0.547387113646121,0.2662494636380907
446,5.460000000000004,-1.2717861685748943,-0.13792056864716795,-0.026294364774742354,0.9654498845331544,0.19686511625600417,-0.17073155658595196,-0.257708867795447,0.11535826920270427,0.020872389011260994,-0.3428561859386572,0.5450496816435118,0.26976704432590165
447,5.470000000000004,-1.2756694904187842,-0.10170488490084327,0.029371057860937515,0.9652521606330895,0.1990118590790326,-0.16935587435521948,-0.20629129632961568,0.1293038512960585,0.016200663306191826,-0.34724553165971495,0.5428979902696506,0.2734456211896906
448,5.480000000000004,-1.2654798686139057,-0.05693314876516764,0.06315942956588069,0.9652163006490988,0.20068662316869487,-0.16757423909227379,-0.16924638376782572,0.13937155712961155,0.0078035955905045576,-0.35154065933260836,0.5409509878863729,0.27720235217042993
449,5.490000000000004,-1.2346481817995967,-0.01182722606269087,0.08190404216756836,0.965306719628776,0.2020697592968632,-0.16537651989688315,-0.13561759088567793,0.14245952833120587,-0.0037979369594712594,-0.35574890402718046,0.539212996081481,0.2809016395450262
450,5.5000000000000036,-1.1474976873141352,0.03839794822753898,0.09429845460181623,0.9655089934618446,0.2031777533164135,-0.1628172466120295,-0.10042672762500504,0.14491331769641058,-0.018593035951931552,-0.3597672423464039,0.5377319107819527,0.2844087428114568
451,5.510000000000004,-1.0853918187669267,0.10603694530976554,0.0955803407558042,0.965817903952848,0.204061640336295,-0.1598517665537643,-0.06797166664035546,0.15185962517535145,-0.034910920487534844,-0.36355031976492774,0.5365654436539696,0.2876035472827162
452,5.520000000000004,-1.042110060274699,0.1680130890769106,0.09661780688056838,0.9662280125543479,0.20482678519438227,-0.15635467962092497,-0.04268233682959247,0.15373670017470412,-0.05184706768050831,-0.3672385925357983,0.5356825841703557,0.2905397812223025
453,5.530000000000004,-0.9661612957002622,0.24042740275802443,0.09575942799710828,0.966737555569853,0.20545527299327676,-0.1523265159099522,-0.018309332802882484,0.1571226836353179,-0.06727213015074632,-0.3708108080918817,0.5351015850161174,0.29319743817638205
454,5.5400000000000045,-0.8499369378113802,0.31961133960725274,0.08395553781919507,0.9673409320734211,0.20594977799446512,-0.14775601801920646,0.013549683353645793,0.15521508420933788,-0.07995359013330533,-0.37415906469506804,0.5349065043572985,0.2954248440392857
455,5.550000000000004,-0.7074732155771278,0.40349067002174793,0.06521642234492027,0.9680218617912035,0.20635001563787236,-0.14264628555501754,0.040028753549278456,0.14333523719250754,-0.0947895392702845,-0.37720401638503054,0.5351563540532451,0.2970898580612524
456,5.560000000000004,-0.5550444896987082,0.48082648639250325,0.04072470409126931,0.9687519046419769,0.2067141192343116,-0.13705037333311085,0.05948623302684485,0.1302870633346119,-0.11699877135216562,-0.37990921041820913,0.535856698613064,0.2981263234817246
457,5.570000000000004,-0.4008616952392341,0.5430628420334176,0.007778481527922751,0.9694892811312459,0.2071188515350515,-0.13109290885877045,0.0850782754671049,0.118428751925235,-0.14387813632239274,-0.3822591722860071,0.5369639141351461,0.29851382149301087
458,5.580000000000004,-0.25952649230452834,0.5891311552754052,-0.03431275892819322,0.9701855840103236,0.20767751318453537,-0.12490947668866066,0.12153931267822826,0.10684222333001847,-0.17504866516138679,-0.3842756679855724,0.5384016574306345,0.2982609646061312
459,5.590000000000004,-0.13512521378064973,0.6225861046477937,-0.07269278514660753,0.9708144677410021,0.20843242309929366,-0.11860540971592577,0.1585059697201517,0.09742242942702051,-0.20539917817333322,-0.3859950877053881,0.5400962941140552,0.29743442236571366
