,seconds_elapsed,rotationRateX,rotationRateY,rotationRateZ,gravityX,gravityY,gravityZ,accelerationX,accelerationY,accelerationZ,quaternionW,quaternionX,quaternionY,quaternionZ
0,1.0,-0.0861712713240455,0.3530386965008839,0.6139995349845673,-0.04421432000362052,-0.2339874857456951,-0.9712333609157061,0.0468142157021458,-0.005604318375358008,0.05565128123315483,0.9905428813062149,0.11907265987370873,-0.014308216584399784,0.06663482651258736
1,1.01,0.043135207247586876,0.3670483109333533,0.6211061558888833,-0.041981175914008406,-0.23344364904204784,-0.9714633264176327,0.046581185233422244,0.0331509213890257,0.03124202712834322,0.9903754003495451,0.11875988091331541,-0.012811625226635105,0.06990698599325175
2,1.02,0.14175208107077053,0.3451644541339659,0.6025374932659395,-0.03978955737838102,-0.234043158538099,-0.9714113266909307,0.05953276124024032,0.05923431452894752,0.014451223079453285,0.9901271708017927,0.11902279074163427,-0.011298056992887684,0.07316247766091562
3,1.03,0.17931781969309957,0.2934680109878782,0.5584893670040723,-0.03790133063777363,-0.23534924752427064,-0.9711712950672158,0.08030243073021898,0.06839971080834858,0.01854315286922714,0.9898348643450335,0.11964753459870901,-0.009930003970571515,0.0762350669191869
4,1.04,0.16626286603388646,0.23612058918141496,0.5007261919212974,-0.036434408979703695,-0.23680782428287633,-0.9708729360514106,0.09270185257134166,0.0719375624820291,0.04777831870909728,0.9895413265721451,0.12035772508513055,-0.00879864319973023,0.07901773605420552
5,1.05,0.13108197127849314,0.17939096961395676,0.43174600870796276,-0.035389959840594704,-0.2380240824292304,-0.9706141923623235,0.09463975570959031,0.07157205661891684,0.08614856579118102,0.9892785292557292,0.1209544535498956,-0.007927712357750931,0.08145338119027763
6,1.06,0.09666075308302816,0.14618020909508375,0.3554196478774539,-0.034636525023314685,-0.23892322766381918,-0.9704204674937281,0.0830438036507456,0.06655822321120719,0.11745111134525778,0.9890590395104937,0.1213960094369379,-0.007261140043199328,0.08349945252280637
7,1.07,0.08383193914558401,0.13103004657080655,0.29279243233340335,-0.03394079048615247,-0.23959662416049665,-0.9702790043350847,0.06641975540171151,0.054834920236009346,0.1283999846082713,0.9888800781836813,0.1217204651405548,-0.006676522813039007,0.08517923543178939
8,1.08,0.10169433060241767,0.12838708241594202,0.2506177069174909,-0.033222620036281306,-0.24035465690732324,-0.9701163908769109,0.05122519696456205,0.04729633261660594,0.11891627895815793,0.9887161500219385,0.12208380233947674,-0.0061085497278126,0.0865932515656337
9,1.09,0.09842851971047693,0.1317918116482641,0.22168388620599822,-0.03241557650567922,-0.24120355181702371,-0.9699329782664469,0.04599392588660548,0.048573602811175697,0.08905437803365732,0.9885604841051199,0.12248707692226835,-0.005512367501310861,0.0878331762361001
10,1.1,0.11203409045762293,0.13515533437912927,0.23098542487446905,-0.03155780101217431,-0.24208672236974962,-0.9697411769261138,0.05085420247381757,0.06285873090226489,0.048309588464762326,0.9884059446280454,0.12290398875106388,-0.00489482210677863,0.08901878737053633
11,1.11,0.13552478583988398,0.14339271618211996,0.26933009585874723,-0.030713116849262947,-0.24315512881293183,-0.9695009553341201,0.05918134826166777,0.08178940911363429,0.02663640767201888,0.988225949012957,0.12341524804212935,-0.004258319444628936,0.09033155688603164
12,1.12,0.13606563489811652,0.16769078512910232,0.30567192071558086,-0.029801214360515166,-0.24437285155773553,-0.9692232015211482,0.07010405333001035,0.08722592466631246,0.01888440938345218,0.9880157530968698,0.1239987868593506,-0.003553884458949921,0.09184956200570224
13,1.1300000000000001,0.09552632611542783,0.1884856757393365,0.34017661766770246,-0.028745902466467636,-0.24539460078620182,-0.9689969076412458,0.07429024578317715,0.0867460218021167,0.02452105077904248,0.9877986440430886,0.12447430672539785,-0.0027616352796832116,0.09355321861966481
14,1.1400000000000001,0.009210769259419712,0.20323483768580303,0.3752085873902185,-0.027617471590945963,-0.2458011008678657,-0.9689267030694039,0.07046067688488722,0.08176347038945495,0.04332963613711093,0.9876006746352046,0.12463077155451585,-0.001938458115801808,0.09543673375703633
15,1.1500000000000001,-0.12206688250831538,0.20484411096171007,0.3940012566100619,-0.02646660457195711,-0.24512656657204485,-0.9691295654491393,0.07099914276020258,0.06778540711139312,0.06922789640476967,0.9874549874652434,0.12423285947866099,-0.001140822120572274,0.09745355897673352
16,1.1600000000000001,-0.26088559631516545,0.20440122564142635,0.4111126201837327,-0.025360280469069296,-0.24310622053715,-0.9696677327474746,0.07021807473961517,0.04797374501844641,0.09806723097583563,0.9873812604064506,0.12314933103387088,-0.00042512326193732525,0.09955886075465642
17,1.1700000000000002,-0.3612922124206827,0.21047369516109676,0.42963518666318257,-0.024271960715436684,-0.23992711464357802,-0.9704869020264505,0.06300585900655897,0.032935224930535995,0.13125998553322527,0.9873652348472819,0.12147520089802998,0.0002268097397212996,0.10175082462218892
18,1.1800000000000002,-0.42091041275540386,0.22774557932585093,0.43811137643233994,-0.02308384459595678,-0.23595527640600614,-0.9714891132645646,0.046218231337495225,0.021748847805050334,0.15825127427650287,0.9873820469044896,0.11939158608618193,0.000888680198256451,0.10402472993309742
19,1.1900000000000002,-0.4340518509737887,0.24644559737839258,0.4426201343408905,-0.02171754456322827,-0.23163706221535996,-0.9725592508890359,0.024224824417945736,0.022549795734473552,0.1762368053565793,0.9874069306111198,0.11712157983336116,0.0016153942408289742,0.10633474962229642
20,1.2000000000000002,-0.41318775593386925,0.2729020011694471,0.44299421166791264,-0.020120104891765706,-0.22737251227783356,-0.9735995071368021,0.0004903196172143993,0.03578172720265246,0.1868451513776455,0.9874158788044608,0.11486503359621,0.0024531702053798518,0.10867172698822339
21,1.2100000000000002,-0.3693048524685324,0.29645669170632327,0.42336018750816695,-0.018237097376525423,-0.22340875595841336,-0.9745538499892257,-0.017791657275745852,0.04941296715187226,0.18803798625922577,0.9874008405058687,0.1127433360624004,0.0034367229821495038,0.11097899297948396
22,1.2200000000000002,-0.2898126802548974,0.3172622820072357,0.3959594102246426,-0.016077847862064655,-0.22008933782890422,-0.9753469758832383,-0.03728010187687228,0.053126663797149566,0.18580912774015487,0.987351746061007,0.11092993988015741,0.004573982400854601,0.11318102752365182
23,1.2300000000000002,-0.21509724703365715,0.3440011300202894,0.3537579174348704,-0.013599997476619007,-0.21754163626552725,-0.9759561001867734,-0.05925342566697811,0.04460222747165713,0.18588572235605005,0.9872700618798883,0.10948581702884085,0.005889969527121067,0.11522089801324156
24,1.2400000000000002,-0.14901065235193742,0.36294887738194487,0.3004923254802709,-0.010759444458815867,-0.21570052153022312,-0.9764000864250064,-0.08289731880267628,0.03074765380062561,0.18327469222700857,0.9871692023849759,0.10837481112905162,0.007398735094955711,0.11703420638406402
25,1.2500000000000002,-0.10978044273587756,0.3774739255931517,0.2418205308217376,-0.007649169984239657,-0.21440796773486415,-0.9767141108075966,-0.10365969509498417,0.015422576967196861,0.18000442315051893,0.9870650302555806,0.10752261046390726,0.009041751175372497,0.11857415020447849
26,1.2600000000000002,-0.10377996934624352,0.37886853747174987,0.19145215944666158,-0.004334312676490428,-0.21334066518047065,-0.9769681339049652,-0.12000882749391058,-0.004432659749113124,0.17725145717725033,0.9869753694147144,0.10677024609840774,0.010769365492261129,0.11984863113842906
27,1.2700000000000002,-0.08656563087062771,0.36209588057839376,0.14791361242822376,-0.0009857825308018358,-0.21237968137202012,-0.9771866588283786,-0.1301715688690494,-0.017218174060816546,0.17361360598277994,0.9869048641594195,0.10606872450948497,0.012492321687851563,0.12088040784659868
28,1.2800000000000002,-0.055822303990639886,0.33993738619883385,0.10639625787490449,0.002240185336336488,-0.21164726158772648,-0.9773435067168592,-0.1320403285269343,-0.026752696897137888,0.15860680444284855,0.986844613384182,0.1054901705288415,0.01414371695131736,0.1216943699440277
29,1.2900000000000003,-0.008817812096522597,0.3190522607351812,0.06180846749036969,0.005340222541577503,-0.21131198298969361,-0.9774040147840334,-0.12986180307080142,-0.03635867205104876,0.13372468084453148,0.9867873258133933,0.10512113493134224,0.015732376044183212,0.12228176109079908
30,1.3000000000000003,0.046982385847959926,0.30472512092950477,0.020030032548543363,0.008366424117987796,-0.21147584266585406,-0.9773474314229952,-0.13036930378821254,-0.03868143029993379,0.09951165704418351,0.9867286269732701,0.10501097070157352,0.01729120388085836,0.12263969593943358
31,1.3100000000000003,0.0972076891522177,0.28243367080729687,-0.01168874130536732,0.011302063784404699,-0.21217925118323358,-0.9771653821721931,-0.13152764258381455,-0.039254028004603744,0.07042204998194494,0.9866619016999806,0.10518147765898517,0.01881892046099462,0.12280564965534578
32,1.3200000000000003,0.12080777938608701,0.26442927552664836,-0.04374260296558112,0.01409843893835429,-0.213236270656028,-0.9768989097508802,-0.1330475811144848,-0.04414756246231295,0.048517838876672534,0.9865959669200546,0.10554248596990173,0.020280909389031387,0.12279267022668335
33,1.3300000000000003,0.12466965006230483,0.23730095856997127,-0.07635132123003593,0.016754473896708706,-0.21440563595103734,-0.9766009719624729,-0.13673924813077618,-0.05305742421073739,0.03305549928840342,0.9865429832910554,0.10597287771832652,0.021662190023474318,0.12261104044677686
34,1.3400000000000003,0.12488699205222636,0.21069824476024188,-0.10923812478379584,0.019203986900324366,-0.21559047255865327,-0.9762949555144663,-0.14494398004363007,-0.0637779810668761,0.024644373801563823,0.9865102957037483,0.10642873252403934,0.022922036712905644,0.12224925382608436
35,1.3500000000000003,0.14443517145332282,0.17857834838813083,-0.13198872300521552,0.021437224193322085,-0.21683929867292054,-0.9759718133605642,-0.15648312460657957,-0.07704365325810261,0.009713336825370381,0.9864910352273081,0.10693484336760986,0.024062201099693658,0.1217427157438888
36,1.3600000000000003,0.18886405530887523,0.15347539572542412,-0.15584866731276148,0.02343410247992752,-0.21839549942604175,-0.9755788662987299,-0.1698638417238688,-0.08381059091614713,-0.016798723553783416,0.9864710881619969,0.10761558084656721,0.025088328408247467,0.1210964887546124
37,1.3700000000000003,0.23909215592597668,0.12495378289913757,-0.18207094206344343,0.025221235034971964,-0.22042093804421,-0.975078632263281,-0.18188658849895467,-0.08353521317805603,-0.04182731244820699,0.9864405992210278,0.10855153415394539,0.02602324914521408,0.12030960094479928
38,1.3800000000000003,0.2659165385840292,0.09488815254444408,-0.2031928974207509,0.026776883026603384,-0.22282233045477526,-0.9744910963077941,-0.18728686117839105,-0.08215300267276382,-0.06970641528695362,0.9864039177657546,0.10969717770936571,0.026849702159767556,0.11938540826152974
39,1.3900000000000003,0.27854588898936455,0.06613451953732402,-0.20542666312120964,0.028067846382849926,-0.22539786220171998,-0.9738622356047546,-0.19156275357491162,-0.08468006211766683,-0.0977821011858982,0.9863664928373608,0.11095124265019476,0.027543082356392856,0.1183735721006242
40,1.4000000000000004,0.26642618317468775,0.03129561304650494,-0.2084729775751635,0.02909068317788378,-0.22798767677633514,-0.9732291532452789,-0.19668828359986767,-0.09471653318741535,-0.1180078906476174,0.9863301394586996,0.11223117229233318,0.02809801283104304,0.11733485234256454
41,1.4100000000000004,0.242073714201469,-0.023659788405345158,-0.1953913811059602,0.029670720030541727,-0.23036015069394894,-0.9726528351616057,-0.20011963361790705,-0.10892407213994064,-0.14359663343325324,0.9863075254055652,0.11342872633665563,0.02841528331123554,0.11629243578605523
42,1.4200000000000004,0.23317381889555125,-0.09029962057738788,-0.18542616962140626,0.02963974904004587,-0.23257238170428665,-0.972127197961874,-0.1949148377482929,-0.10807910982114469,-0.16797870625300937,0.986292268228276,0.11458049271330686,0.028419006208565082,0.11528688071111139
43,1.4300000000000004,0.23218979510628426,-0.15927112203409638,-0.19182068003034095,0.028945800809914997,-0.23474694863932394,-0.971625301008347,-0.1736492651163213,-0.0956253526772521,-0.19048090206378487,0.9862856278251065,0.1157524261344525,0.02808284429408483,0.11425133240756422
44,1.4400000000000004,0.22464392015470885,-0.2496425543348758,-0.20309139110232727,0.027503948368633912,-0.23688306066933584,-0.9711485859707376,-0.15260145042094786,-0.0851260695740094,-0.19998753086475596,0.9862942592478404,0.11694949394561804,0.02735714939616858,0.11312833071786159
45,1.4500000000000004,0.1914230564555919,-0.3440568033368984,-0.255137594602533,0.025239908494433288,-0.23882893367011146,-0.9707333189885301,-0.13523192234060577,-0.08071807567222129,-0.1943560740768316,0.9863393693548383,0.1181002830764702,0.02618220884480459,0.11180902873770303
46,1.4600000000000004,0.14410329957621798,-0.41837159166186877,-0.31715415702699107,0.022269123105445494,-0.24034678098323617,-0.9704312599404988,-0.11841626951088588,-0.07436064621783293,-0.17308893145934176,0.9864514548396691,0.11907929949463687,0.024581956287144748,0.11013197518389241
47,1.4700000000000004,0.12277748774803307,-0.44781848114326916,-0.3412714909855946,0.01891575940460298,-0.24151483217865022,-0.970212317259351,-0.11790608037637965,-0.05861747901605252,-0.15140158694142863,0.9866077701799677,0.11990227085195976,0.022737903518718676,0.10821812881899061
48,1.4800000000000004,0.12214633194430997,-0.45457820603292187,-0.36566118271800163,0.015478457057412735,-0.24259261422611458,-0.9700042818969151,-0.12902582208752106,-0.03858510165007168,-0.1573956359697703,0.9867747483780394,0.12067994209947192,0.02083035606040302,0.10619603535637605
49,1.4900000000000004,0.13653571475717863,-0.43939345405387553,-0.4051092922849807,0.012149465556009511,-0.2437639907359196,-0.9697580240967295,-0.12786208909193517,-0.014174837671309358,-0.18189380764077653,0.986947069081049,0.12149620623705461,0.01895668806296016,0.10399195871053468
50,1.5000000000000004,0.17722724480955723,-0.397631553940084,-0.39774296519283914,0.009160926739533969,-0.24516938512838304,-0.9694365529951694,-0.12325947180417857,0.01580793976050926,-0.19912831771069053,0.9871032982124585,0.12240824296659633,0.01725293999311669,0.10170979850587866
51,1.5100000000000005,0.266299259156329,-0.3393917061054375,-0.3495008696963895,0.006596970568148423,-0.247248893901244,-0.9689290603233697,-0.1253747176643797,0.05175605096001855,-0.2246577827851364,0.987188407373584,0.1236325361150769,0.015816657708235465,0.09961571820910625
52,1.5200000000000005,0.3402155592984042,-0.2753059645908597,-0.3482384118120217,0.0045739549806840625,-0.25014741945451874,-0.9681963613689606,-0.1083658337515201,0.08639058308473607,-0.24736811854590032,0.9871948745490369,0.1252401204403522,0.014710372814356271,0.09769473326973041
53,1.5300000000000005,0.3621301471643807,-0.20137192982089375,-0.35894996340458263,0.0032525068562513633,-0.2535067564807494,-0.9673275018537997,-0.07187571214186542,0.11379481985366599,-0.25405753915256907,0.9871656188162969,0.12704626992404205,0.01396955032114872,0.09574725626847724
54,1.5400000000000005,0.3574036179906922,-0.11906038129672339,-0.3295588863913408,0.002697539820688876,-0.25695091839131956,-0.9664200515907917,-0.04719470303005448,0.135943951867605,-0.25504008410935775,0.9871128166134052,0.12885663669035544,0.013624239579928536,0.09390440814328269
55,1.5500000000000005,0.28134727392918785,-0.062258472552648894,-0.32113424005811453,0.0027991650730919836,-0.2600444124505217,-0.9655921170699638,-0.030680495937331215,0.13653141943257305,-0.27605607419217487,0.9870618786679495,0.1304552893186909,0.01360613599030585,0.09222142482679735
56,1.5600000000000005,0.1215476116217353,-0.05262822219513609,-0.3585505152206186,0.0032649957861478054,-0.2619283690788216,-0.9650816003596479,0.0016660738935812443,0.11823446396993964,-0.2924210010019249,0.9870919324573006,0.13142047870802911,0.013702765707286593,0.09049996209058511
57,1.5700000000000005,-0.033555144224118635,-0.07118812666868707,-0.4090651168128664,0.0038110104272156865,-0.26225288693360455,-0.9649916305316714,0.04015446973847445,0.11446868833594423,-0.25720559471235277,0.9872451883457164,0.13158861067253497,0.013733795922233286,0.0885573194636434
58,1.5800000000000005,-0.12016304717896925,-0.08887555269120039,-0.46040307382127116,0.004321051677729712,-0.2613725190153097,-0.9652282527620409,0.05873112843483699,0.11632276085127403,-0.19350630060871968,0.9874999428337304,0.13114624074549183,0.013656725049034653,0.08635674675164175
59,1.5900000000000005,-0.14058020053620912,-0.09180093133184454,-0.5090659560257932,0.004870563058748727,-0.25996229153224704,-0.965606318504933,0.056849772014381794,0.12474083089932843,-0.1556764501226742,0.9878065152885247,0.13043501141389222,0.013545400773959555,0.08390956115374575
60,1.6000000000000005,-0.0971505585878616,-0.10087708878874412,-0.5667503264945355,0.005524170883806517,-0.2586693634667733,-0.965949970097888,0.0442748858690358,0.1545646371073836,-0.15940365247421945,0.9881207186107617,0.1297836839227021,0.01345917320036791,0.08118891467227284
61,1.6100000000000005,-0.030355860035138148,-0.12671372800312325,-0.6307569576854054,0.0061604020250505135,-0.2579073542573064,-0.9661499706301455,0.04057349560290885,0.18239466759831022,-0.17300248302366394,0.9884157886344779,0.129409463879987,0.013348964189546429,0.07815502626986957
62,1.6200000000000006,0.03244380349310565,-0.1567862333449923,-0.683749873351201,0.0066906927655776376,-0.25776771695325745,-0.9661837543204973,0.04383268460405759,0.18696920546838314,-0.173777763906525,0.9886839308117239,0.1293625525803864,0.013170300312645211,0.0747968490514387
63,1.6300000000000006,0.07494600142945596,-0.19124968731081687,-0.72248018426741,0.007049634898501668,-0.25812713594864023,-0.9660852067241333,0.040476260209388625,0.17682266776599553,-0.15783788632886386,0.9889255280818876,0.1295807616389473,0.012891735214417138,0.07118538235940189
64,1.6400000000000006,0.0794299702219274,-0.2209015807345881,-0.7464368501564037,0.007184922402378649,-0.25870642803092186,-0.9659292376211779,0.03556869412067357,0.1710505938096229,-0.1316490066340046,0.9891514986337442,0.12992106527799915,0.012483962537515667,0.0673965432786014
65,1.6500000000000006,0.0479793222594576,-0.25455324802353696,-0.7636625353382296,0.007081687333588933,-0.25914431335801763,-0.965812614724911,0.034192448772054414,0.16512652370037015,-0.09603333348911283,0.9893805546328956,0.1301968778328617,0.011933193795532147,0.06348650086772674
66,1.6600000000000006,-0.01807174210071469,-0.2888146037144972,-0.7820010614515683,0.006701247249071605,-0.25909451393679656,-0.965828711840978,0.03331954483954714,0.15198237592205474,-0.056576162767899174,0.9896342806288415,0.13023009310050607,0.011211192691201572,0.05946648740580535
67,1.6700000000000006,-0.11053011791323591,-0.31960701540328507,-0.7884228761891208,0.006033438314999899,-0.2582723352099525,-0.9660532238984741,0.03084001617034082,0.1235496598122295,-0.017018454860778714,0.989928664894309,0.1298727324236547,0.0103115085058982,0.05536697339295635
68,1.6800000000000006,-0.1945550785542517,-0.3459010793279382,-0.7848542948310376,0.005083010090044733,-0.2565759861566327,-0.9665103752219905,0.027598270845957604,0.09815502624593254,0.024757177555371223,0.9902659779082275,0.12906992429732617,0.00924644416402386,0.05124642095378478
69,1.6900000000000006,-0.26175862977528536,-0.3627158085837418,-0.7764606514250099,0.0038692474223779288,-0.2541655690181272,-0.9671523730301055,0.02431844778199008,0.08490353095161382,0.06357882908923428,0.9906316388142411,0.12790124487633608,0.008040928830841069,0.047147206988683625
70,1.7000000000000006,-0.29663078606490983,-0.38123743363458185,-0.7710622358785651,0.0024194234677273243,-0.25128497180932907,-0.9679092624468474,0.0236538259721251,0.07835604930706148,0.09291025769812097,0.9910080458240755,0.12648972432766104,0.006719483079690764,0.043073926773498625
71,1.7100000000000006,-0.2973832630407661,-0.40446872850718985,-0.7658161152644584,0.0007178461684963862,-0.24824151879597678,-0.9686969136180011,0.022033721848981013,0.07731416079681275,0.11605737541880035,0.9913746449672632,0.12499194885957234,0.0052824281952939395,0.03901809302632512
72,1.7200000000000006,-0.265095373045441,-0.41612977141423707,-0.7694483955585304,-0.001201776306056496,-0.24538024532170558,-0.9694252188026956,0.023181836283870473,0.08501457175669369,0.13558239248141205,0.991709587490385,0.12358261167399377,0.003751926851426897,0.034962634109218564
73,1.7300000000000006,-0.20613219875516361,-0.43018735246665024,-0.7793957749643311,-0.0032664662733499304,-0.24297815493321656,-0.9700254631975921,0.024927334444280694,0.09485503194430571,0.1481306785392596,0.9919967794722169,0.12240096461336782,0.0021625704531060535,0.030863335514874808
74,1.7400000000000007,-0.1218002816314817,-0.4423302488422182,-0.7893047029293403,-0.005472474801245537,-0.24132120332258883,-0.9704292677784739,0.025761298928581793,0.10117809180385455,0.16588967775478095,0.9922192589528462,0.12159185815925486,0.0005148265630411022,0.026700136996362145
75,1.7500000000000007,-0.02555049957753483,-0.44938768849686633,-0.8063833400528894,-0.007759308033673062,-0.24056305340993736,-0.9706020201446827,0.024690748150086355,0.10262734307497365,0.1898615817826794,0.9923675177518304,0.12123184102738792,-0.0011640111825553501,0.02247187601034223
76,1.7600000000000007,0.05166441697531443,-0.459331451980215,-0.8224990399818406,-0.010100695497677736,-0.2406839213866234,-0.9705505170798734,0.022192652897621856,0.10187668067167896,0.214710396824067,0.9924428055275547,0.12130960936816305,-0.002869640044050999,0.01815597287367076
77,1.7700000000000007,0.10775579674750838,-0.46994906010907433,-0.8302489698299673,-0.012519303612309234,-0.2414800349387854,-0.970324467105064,0.020993586464861314,0.09560706094477656,0.23819227807765142,0.992456447624671,0.12172051437650819,-0.004619570343525419,0.013763306533413143
78,1.7800000000000007,0.1507975187253332,-0.48354432771126254,-0.8289878415315037,-0.015053413088531135,-0.24279923718795687,-0.9699589836210354,0.021649493364501,0.08677984839593152,0.25754734994302264,0.9924156921783694,0.12238662085838814,-0.00643161432607592,0.009350878875497374
79,1.7900000000000007,0.17354351613723595,-0.4978569401839178,-0.8181590324891757,-0.017725208269705067,-0.2444468872274334,-0.9694997187708919,0.021560132018743662,0.07551399385583654,0.2703512742863362,0.9923316488112242,0.12320806428495716,-0.008316076896816208,0.004958828268631117
80,1.8000000000000007,0.1870424352034047,-0.511856881729164,-0.796046177034388,-0.020570392835600273,-0.24629687176947176,-0.9689750032465484,0.022612864845053267,0.0673656696899543,0.27646862634911457,0.9922116721648713,0.12412032485219202,-0.010285612412369506,0.0006480075770020177
81,1.8100000000000007,0.1970938150514839,-0.5190285144838409,-0.7618524390473669,-0.023577823096722184,-0.24828024104455235,-0.9684000426187926,0.022197377362371012,0.06243062507783712,0.27744440156745964,0.9920608546962113,0.12508822501034816,-0.012328990705657081,-0.003528896189303332
82,1.8200000000000007,0.20647743110060543,-0.5225649819772176,-0.7252716593876198,-0.02671319995451678,-0.25038341016305277,-0.9677767713879131,0.022734327303979708,0.05830851183118378,0.26984634626706944,0.9918814707219759,0.1261053249256459,-0.014424832804431662,-0.007535952629561909
83,1.8300000000000007,0.2190161692931906,-0.526102943341378,-0.6755753976008682,-0.029970012801830197,-0.25257762577926113,-0.9671108560218192,0.022870523577150876,0.058260560338451055,0.2555959330937055,0.9916776599059216,0.1271579567615993,-0.016564425666628867,-0.011330492432699646
84,1.8400000000000007,0.2389578572839322,-0.5230911623352626,-0.6180693806347675,-0.033342974376163195,-0.2549376936490705,-0.9663807275680955,0.02481260544522859,0.059143380251997946,0.23628397328819156,0.9914471016610001,0.12828628783513701,-0.01873878985209915,-0.014858982853177747
85,1.8500000000000008,0.2535017082690188,-0.5160293567005341,-0.563311189894742,-0.036804490832156936,-0.2574777013006211,-0.9655812050015917,0.03137399174561893,0.05639520370810987,0.2134730089752344,0.9911917188939302,0.12949936136040804,-0.020931748197317565,-0.018102742567706758
86,1.8600000000000008,0.27466665400126966,-0.5071452037303911,-0.4964006117823765,-0.04031960223577383,-0.26017792394783656,-0.9647164571499053,0.04076894882552623,0.05421003045792508,0.1912221693431721,0.9909156957308719,0.13078943860960718,-0.02312273366400488,-0.02104188504036374
87,1.8700000000000008,0.3100200085300128,-0.49715832861244186,-0.4259802819732451,-0.0439025330670639,-0.2631504761468658,-0.9637530470259468,0.05446806456995644,0.05564435730874008,0.17121423616315287,0.9906145749767454,0.13221712458943108,-0.02531352272775454,-0.02362667506562148
88,1.8800000000000008,0.33893437367001167,-0.4857479960289152,-0.3671272096808762,-0.0475499882607415,-0.2664251945733742,-0.9626793887929691,0.07365654210194793,0.05317445277872155,0.14717740730130807,0.990287438122899,0.13379954270242037,-0.02750540052887871,-0.025877802043795247
89,1.8900000000000008,0.35082231152751603,-0.4750459422816299,-0.3040527213386064,-0.0512379959615887,-0.26988244273709233,-0.9615262895297391,0.09836401692397714,0.04987051221141956,0.11946989856465477,0.9899437191610886,0.13547706815741323,-0.02968715336963986,-0.027819086308301107
90,1.9000000000000008,0.35157452347026596,-0.4698039125269527,-0.22887872678082424,-0.05501303341250668,-0.27336273470835537,-0.96033373674317,0.1263070801949418,0.05420982070692202,0.08538664613170396,0.9895967832063999,0.1371706521726015,-0.03187225186829198,-0.029405079402348416
91,1.9100000000000008,0.329756845893409,-0.4536032651141981,-0.14224202216942836,-0.05888997167234798,-0.2767037266139946,-0.9591462633780948,0.1543516507551554,0.05854327792286216,0.04988159075735492,0.9892610120541341,0.13880033091508598,-0.03405688467502892,-0.030588353795463385
92,1.9200000000000008,0.28742792118376115,-0.420861506508451,-0.043457432650112066,-0.06277813570915063,-0.2796832964673544,-0.958035095145946,0.17736272686219548,0.051821241283607065,0.019993473356728932,0.9889577794050715,0.14025764146505962,-0.036179602607535874,-0.03130483212466549
93,1.9300000000000008,0.2314508894026156,-0.38037528282897853,0.06064096573194086,-0.06659961784066758,-0.2821251496569785,-0.9570609645638622,0.19125416134825057,0.03855796241025429,-0.008725644681828447,0.9887053449390978,0.14145743606418898,-0.038187108484626794,-0.0314998104891406
94,1.9400000000000008,0.1546993013779146,-0.3380060538261279,0.16713882874877178,-0.07032636202721163,-0.283866597865021,-0.9562795080640031,0.20625433249204705,0.02500579150941461,-0.03135076131879701,0.9885186787104915,0.14231964461580449,-0.04005676004884287,-0.031153040010346383
95,1.9500000000000008,0.0745261871503409,-0.29528818701650844,0.28019365292654125,-0.07394960112746626,-0.2847693892952396,-0.9557379472123587,0.22080542584300017,0.00849361765217622,-0.04335014338962099,0.9884097025696362,0.14277607429402175,-0.04177803738780128,-0.03025059370034224
96,1.9600000000000009,-0.0068810604937551215,-0.24899238285719416,0.4017984542405161,-0.07746470220480438,-0.2847887881935262,-0.9554538295053934,0.2326509753030114,-0.008858600552593276,-0.04980110065853884,0.9883823988839561,0.14280783859153834,-0.04334194295178604,-0.028752133528869933
97,1.9700000000000009,-0.08258469417222833,-0.2144071876155232,0.5186572354877781,-0.08093621615980964,-0.28396187772625103,-0.9554120776357476,0.24514721090100683,-0.019756702601598796,-0.06237976201931731,0.9884305498126935,0.1424361340855644,-0.044782212374826505,-0.026649022061770763
98,1.9800000000000009,-0.15132824009443988,-0.19588811460490424,0.623846226808069,-0.08446911573841048,-0.282328296328898,-0.9555899932091045,0.26349020559661784,-0.022921990464134956,-0.07098674043309008,0.9885433247363906,0.14168072795180442,-0.04616286569228996,-0.02399020353262436
99,1.9900000000000009,-0.21431788306709657,-0.18100398314406102,0.7095783132555954,-0.08810135802506042,-0.2799563805566461,-0.9559593022007281,0.2801988075209483,-0.02436596708405519,-0.06572854493249204,0.9887075025021513,0.14057556914608713,-0.04751992211770441,-0.020855881292230195
100,2.000000000000001,-0.26343251081260094,-0.1519951523089021,0.7503432871582791,-0.09171145886013335,-0.27696898892837246,-0.9564895008849607,0.2883111046139519,-0.026149193708504288,-0.04658177465815118,0.9889080063384846,0.13917918424562659,-0.04882183629341055,-0.017412838392859523
101,2.0100000000000007,-0.27737994714975617,-0.06393019679328375,0.7710725649113109,-0.09483774266574778,-0.2736057998223223,-0.9571526206406327,0.27751919807627473,-0.027377426593874998,-0.01072452274655174,0.9891324996047448,0.13761111790592254,-0.04986103878186569,-0.013800230263436613
102,2.020000000000001,-0.24777542970017644,0.10446888288573418,0.8216314100150123,-0.09679160568505975,-0.2702758287301341,-0.9579036247673758,0.23490909183715958,-0.030490587881521695,0.008478256828629927,0.989368294582589,0.13608521685608488,-0.05028420332918837,-0.009938675976906338
103,2.030000000000001,-0.20323571399008766,0.3217922171169384,0.9186817629104852,-0.09703218639172155,-0.26724164819110724,-0.9587307008881606,0.16721226845475035,-0.03534267340921973,-0.028576090041044777,0.98961090602991,0.13474314319332448,-0.049783744689223475,-0.0055595171153117965
104,2.040000000000001,-0.17994173190684584,0.516560568327414,1.0466754905478517,-0.09553278090108808,-0.2644466401399563,-0.9596555011416428,0.10653824893638858,-0.043503153432052265,-0.11883558257265289,0.9898591808342737,0.13355283100294688,-0.04832084444745383,-0.0004715311292137511
105,2.0500000000000007,-0.1809576861806625,0.6549233934271154,1.2064937044854345,-0.0927837357032211,-0.26163318672261054,-0.960695066738634,0.08140010314886836,-0.05672627735550602,-0.21337604960208065,0.9901057341911865,0.13237411314671074,-0.04612966347865961,0.00544227656211544
106,2.060000000000001,-0.20257156357912506,0.7490350533455402,1.357516059667374,-0.08930065304140823,-0.258586854598688,-0.9618485498685607,0.10611603087620594,-0.06021145982025894,-0.2755132952323559,0.9903350140311347,0.13108762405200386,-0.04346950541190172,0.012230219381044686
107,2.070000000000001,-0.2968621167140571,0.8016685540895665,1.4070749485131118,-0.0853278906177489,-0.2549935071970868,-0.9631665799923962,0.17949133649601273,-0.04571649225310031,-0.29763123251377605,0.9905492423483219,0.1295084137034816,-0.04051576359460324,0.019567299688989244
108,2.080000000000001,-0.4914414527993355,0.814904013554827,1.3901151716013747,-0.08099595931867987,-0.25003853816362975,-0.9648357621460557,0.2537090121575617,-0.04519664901090591,-0.2607945466050783,0.9907977239381919,0.12719263815722118,-0.037420834770444264,0.02693640798876346
109,2.0900000000000007,-0.709137392220796,0.8048981288079057,1.401237471599048,-0.07653985522859404,-0.24308316485415338,-0.9669708926043274,0.27494669627158325,-0.07195595367493882,-0.18207514544737824,0.9911109988156136,0.12381314491374965,-0.03434266189804709,0.03423807812327195
110,2.100000000000001,-0.8594858727866905,0.7967475563339884,1.401852386020486,-0.0720788276099329,-0.2343389893549314,-0.9694656323139573,0.2542349640413983,-0.10228447409807992,-0.11472038562812335,0.9914605061854094,0.11948787001373491,-0.03135033801217433,0.041551351383426235
111,2.110000000000001,-0.9006684384002387,0.819518894124461,1.3401870147558033,-0.06733690467483669,-0.22472759944792184,-0.9720770414884712,0.23428042678775485,-0.11353102150454776,-0.08923776832063132,0.9917940089847439,0.11467958060023056,-0.02832432078388053,0.0486996350054882
112,2.120000000000001,-0.8399173071064228,0.8688925842604482,1.2689372626360096,-0.06191572801139479,-0.215305336478147,-0.9745671662715493,0.21903070661827861,-0.09623842141890399,-0.10547802683191587,0.992064329951502,0.10991117569842482,-0.02506283787820806,0.05551242922271826
113,2.130000000000001,-0.6957438437493786,0.9202715416143868,1.2440674210835836,-0.05574662677168318,-0.20699626323633402,-0.9767394488759046,0.19768563960961588,-0.06322025435478354,-0.1409438349457988,0.9922202722444224,0.10564898055772694,-0.021484071148499807,0.0621177608906418
114,2.140000000000001,-0.5066295209507707,0.9682381746400683,1.2579767019130297,-0.04896150946578308,-0.20041577403540226,-0.9784763829759789,0.17580849754466515,-0.033219869643876035,-0.17342843837353997,0.9922204893061105,0.10220632967287314,-0.017596039495606477,0.06874759729178018
115,2.1500000000000012,-0.327176420773909,0.997224433212495,1.2680462475372805,-0.04172331055328481,-0.19574037861008667,-0.9797591242650222,0.16204444103481747,-0.009378192609131173,-0.19254485301741645,0.9920542658066676,0.09967031471866862,-0.013448780317632487,0.07547917454173815
116,2.160000000000001,-0.21685172680591186,0.9923851439973574,1.2525484067648318,-0.03428916440400401,-0.1926072469955108,-0.9806689695950627,0.15844373735102638,0.008516207809243802,-0.1868104152276383,0.9917488562368203,0.09785854543530341,-0.00917774411140058,0.08220771819798596
117,2.170000000000001,-0.2085182695577724,0.9549942637709592,1.2171475782300505,-0.026970269979548787,-0.19015592278310325,-0.9813762909558583,0.15785013896239183,0.013120027278865644,-0.15079002964465812,0.991359767411893,0.09634556289734142,-0.004975369273782396,0.08879124920533495
118,2.180000000000001,-0.2785288776804792,0.8916732905214849,1.1645716446140864,-0.020021851797738344,-0.18747090027764796,-0.9820593841027685,0.15146807407416585,-0.0009326930265606461,-0.0968931730436014,0.9909445887694992,0.0946835024702644,-0.0010153675233006668,0.09512787363290882
119,2.1900000000000013,-0.3658826801025371,0.8098394179136635,1.0908649315219294,-0.013628525589684758,-0.18406233757580703,-0.9828136312239625,0.13919677536112754,-0.0332548598754127,-0.04105392395667134,0.9905424439097416,0.09264193803036327,0.002574863379445194,0.10111581910578363
120,2.200000000000001,-0.422877277290055,0.7309732272081155,1.0017626726629854,-0.007842997314461938,-0.17999203746154424,-0.9836306344019006,0.12370624417436245,-0.06624515202228415,0.004138466081495429,0.9901679799123562,0.09026505626432722,0.0057596212237144276,0.10665758756479984
121,2.210000000000001,-0.4302492339094742,0.6672709320871789,0.914345332783495,-0.00254827096202089,-0.17565367466400325,-0.9844430481261943,0.106680327766878,-0.07801517747611492,0.033923532573404275,0.9898160041368941,0.08775472978086583,0.008614324593350767,0.11171466278920689
122,2.220000000000001,-0.38512210040185124,0.619817995662085,0.8496039854344217,0.0023690316005495404,-0.17156586031323703,-0.9851650616523491,0.08828693448551132,-0.06419646384097316,0.05617735747819154,0.9894639474113885,0.08537225905159221,0.01123422139195887,0.11635660771226713
123,2.2300000000000013,-0.31064502357705354,0.5919974596641067,0.8107841875307742,0.007037025961227671,-0.16812423189793002,-0.9857368407973446,0.07075957491944421,-0.03654513924794902,0.06969989784787804,0.9890849819455899,0.08331178778174275,0.013724516366379658,0.12072674953266634
124,2.240000000000001,-0.21927017070083066,0.5762262933062137,0.7891243084173224,0.011580522080820645,-0.16554166270006382,-0.9861316762220846,0.056954487371336925,-0.005780546739286737,0.07505996229437407,0.9886622124835712,0.081673190807264,0.016176269187413838,0.124934724254001
125,2.250000000000001,-0.1223944946408146,0.563417671074062,0.7790287597434441,0.016028832272628017,-0.16392226894845272,-0.9863404331005498,0.04423530130944157,0.01365724611503507,0.08601474965218289,0.988186361996196,0.08050631931237137,0.018623074027519594,0.12904972848782834
126,2.260000000000001,-0.04440250484854999,0.5573968638620322,0.7718968273756165,0.020401121840319877,-0.16322035508544422,-0.9863763091361328,0.03247495664034956,0.01841191570739522,0.10233170224579319,0.987656586342374,0.07978635403201031,0.021081021558553882,0.13311113890303625
127,2.2700000000000014,-0.016364949919615103,0.5609709775890573,0.7631448382722144,0.02477290461554486,-0.16310132970414504,-0.986295856983078,0.023652768181572498,0.022186872248935095,0.12323671240948764,0.9870876630914368,0.07934068583011954,0.02356999911096875,0.13712020209695833
128,2.280000000000001,-0.04522444434285247,0.5600337878135787,0.7581602538583749,0.029173666124025124,-0.1630003256092443,-0.9861921660577646,0.013783627427431368,0.025084437697723786,0.14734438609086278,0.9865023872462082,0.07888455181896303,0.02606805516601641,0.14108607666363465
129,2.290000000000001,-0.10178210058605794,0.5411747868434532,0.7663590603769622,0.033473600969142585,-0.16248768847535291,-0.9861403202204009,0.0006829839071391518,0.019898891846598734,0.1726341104732284,0.9859126131595405,0.07821142504116159,0.028482997006826733,0.14506048792560142
130,2.300000000000001,-0.14307874853261465,0.5184848527242024,0.775982241317755,0.0375491664976707,-0.16152341585463623,-0.9861521138283568,-0.00970564102299554,0.011774171529481382,0.1959544450070733,0.9853155360058374,0.07731019472103268,0.030750999733811363,0.1490815003819734
131,2.3100000000000014,-0.1550458276064664,0.5008494432597718,0.7707124062435681,0.04142278122110999,-0.1603181085079953,-0.9861938108765118,-0.014683165533047693,0.0110391460088386,0.20866135021709983,0.9847083484929987,0.07628699927873764,0.032893870862283674,0.15310882906696485
132,2.320000000000001,-0.1491307441101984,0.48748947315298335,0.7598546082308489,0.045156794157330496,-0.15911525914449076,-0.9862248615368698,-0.020851359025085576,0.022632882770348164,0.2128976065957994,0.984089764680319,0.0752617582637414,0.03495640072923511,0.15708524128297896
133,2.330000000000001,-0.12866521097108044,0.4797805353938288,0.7506671087918119,0.04881022040970002,-0.15808265884581596,-0.9862169703168441,-0.03172389572506684,0.03863521295377226,0.21731397566363345,0.9834549552196735,0.07431480023591419,0.03698109718185554,0.16100003124829151
134,2.340000000000001,-0.10182020672070274,0.4791189582140886,0.7395950662033358,0.052445465351788345,-0.15730273800853345,-0.9861551192053997,-0.04589153654758012,0.04653136654761143,0.22003790791972744,0.9828002128672924,0.07348255650243467,0.039007325981425284,0.16485654266179023
135,2.3500000000000014,-0.08128760328755685,0.4855418195027288,0.7280408915954679,0.05611981283634363,-0.15679161753380524,-0.9860342152223326,-0.06240981969967425,0.04784729398763127,0.21940052249439237,0.9821256842375161,0.07276863931340352,0.04106607147713417,0.16864963717929618
136,2.360000000000001,-0.06766051689821606,0.4946357973733912,0.7194470575389188,0.05989015043670986,-0.15647458282648705,-0.9858626259721952,-0.07945448052609562,0.04953646218737621,0.21480542316313822,0.981432050120515,0.07213038937651384,0.04318133299684289,0.1723915369676976
137,2.370000000000001,-0.05885282030136002,0.5020589999957427,0.7166781705245884,0.06375013896299121,-0.15628590628768407,-0.9856504212899034,-0.09568773367955355,0.04652122800599977,0.2020444858869208,0.9807175472583435,0.0715340730751786,0.045347188809444876,0.17610984768735805
138,2.3800000000000012,-0.06344925238450982,0.5024099487890274,0.7060748097406548,0.06765035679953255,-0.1561477049799853,-0.9854123199377778,-0.10997533760986745,0.031934840969366586,0.17950300039911884,0.9799878498338057,0.07094545636904834,0.047531938293468384,0.17979575275378912
139,2.3900000000000015,-0.08024019846618531,0.49970186563232044,0.684251195698165,0.0715713333278752,-0.15590914987412224,-0.9851730653967792,-0.12056095888373852,0.011712741542394912,0.15390550626126964,0.9792592465942016,0.07029411340988188,0.04970817851152001,0.18339739372732067
140,2.4000000000000012,-0.08904713848882793,0.49548440243039726,0.669592873522355,0.07547977563821735,-0.15555182840054346,-0.9849378625208038,-0.1297943157951726,0.0023388537829450535,0.13287264399553295,0.9785358542325012,0.0695750379409807,0.05185659773523159,0.1869048104543413
141,2.410000000000001,-0.08843784348246733,0.48430596438151163,0.6484556727021669,0.07933552257616193,-0.15517697855694373,-0.9846939976268383,-0.14046268043425175,0.005483696001575192,0.11413604640369447,0.9778146226445829,0.06884271975664583,0.05396712905844861,0.1903225850341933
142,2.4200000000000013,-0.10205279430638522,0.46658956345693114,0.6035079854919808,0.0831017764368274,-0.15474976483227193,-0.9844506528864868,-0.15254652800790527,0.006225807919861242,0.09766746176708804,0.977114372499809,0.06808890130017965,0.056012654414932646,0.1935727296083072
143,2.4300000000000015,-0.12612370436805223,0.44243489229123856,0.5432510905834159,0.08674330870589378,-0.1541131962669736,-0.9842364444044848,-0.16826437157970062,-0.00012848145806308633,0.08236001090531474,0.9764635620418569,0.06724666341219811,0.05795321571617846,0.19655849607134004
144,2.4400000000000013,-0.13704598876559837,0.4091208170336645,0.47737893292322114,0.09021147378962487,-0.15325322604897335,-0.9840590993419432,-0.18339501644155073,-0.007797144111098135,0.05884626630751971,0.9758771783564278,0.06631940621505522,0.05975963531727543,0.19922802934695868
145,2.450000000000001,-0.12978034114264994,0.3779862322190077,0.41130127972086017,0.09346144221339055,-0.15232641904054864,-0.983899863052447,-0.19481682611904852,-0.010955873495562332,0.028654825137814584,0.9753568659190653,0.06539268915573324,0.06142490569027976,0.20156347243349965
146,2.4600000000000013,-0.1139199333581162,0.35560283515733776,0.33670979893601866,0.09655042710831897,-0.15146565296616887,-0.9837345445064832,-0.20643769916808555,-0.007567640240505262,-0.005211816536355466,0.9749027616406072,0.06453001126074505,0.06299076896786618,0.20354667001500576
147,2.4700000000000015,-0.10365941997703611,0.32741949185235936,0.2518088440337321,0.09952038548699936,-0.15066750788738476,-0.9835612430528237,-0.21856342057309958,-0.004138214117444451,-0.04167122917691095,0.9745277832282165,0.06373116314484235,0.06447517298784203,0.20512413136269128
148,2.4800000000000013,-0.10644824705916171,0.29833648396310364,0.17940000739547934,0.10233015675684293,-0.14983614954152538,-0.9834000388470282,-0.23261893253074128,-0.00721965305560319,-0.06885900060914485,0.9742381780998062,0.06295487133037724,0.06584896404149301,0.2063002826940154
149,2.490000000000001,-0.1116047039774344,0.27043600402730006,0.11960468486880727,0.10496313452297654,-0.14891394473005293,-0.9832626791482951,-0.24803503960423345,-0.011094805820197355,-0.09022328971472378,0.9740230813989516,0.06217142456596365,0.06710331601654886,0.2071481363944783
150,2.5000000000000013,-0.10398038085769422,0.23094121227650283,0.05980249216480746,0.10735603303988425,-0.14793018481032857,-0.9831529995754519,-0.25753417201661666,-0.009746169313463742,-0.11261663671426114,0.973878969546828,0.06140162192357697,0.0682124260885637,0.20769278135256947
151,2.5100000000000016,-0.08597246700770225,0.17887571599933258,0.004908620005838627,0.10937104238552121,-0.1470036142031995,-0.9830701470496753,-0.2590358736464744,-0.005917819070933662,-0.1345266400413215,0.9738042215154951,0.06071883935851108,0.0691223027495674,0.20794328631825088
152,2.5200000000000014,-0.07150660403696145,0.1260429093152764,-0.06156301239253539,0.11095614463917282,-0.14620121020995988,-0.9830123594315415,-0.2536169873458312,-0.0019337292909529526,-0.16456543996866527,0.9738021094586747,0.06016359323814612,0.06981410831657633,0.20788366822217563
153,2.530000000000001,-0.09170960323995023,0.07899889754245612,-0.14624002079677006,0.1121694835137157,-0.1452993730287502,-0.98300838838126,-0.2406083184732713,-0.004733863149166902,-0.19804294410518852,0.9738954103392152,0.05962555035573179,0.07028847196687664,0.2074411517964488
154,2.5400000000000014,-0.14759982002553246,0.03066363192106012,-0.235239671792064,0.11303175300042473,-0.14390796552398244,-0.9831141355973887,-0.22627919491423013,-0.01740114565199339,-0.21909524312331013,0.9741075152025221,0.058913863357783224,0.0705116905304239,0.20657037281446114
155,2.5500000000000016,-0.19508530577380667,-0.009619819443826266,-0.3145328535130538,0.11356270191042132,-0.1418854672343326,-0.9833466257410031,-0.21645565255802734,-0.030757286447623957,-0.22064157272261098,0.974438189826018,0.057955377574120025,0.07048090466612733,0.20528749967229426
156,2.5600000000000014,-0.19664105886907782,-0.036209043808060594,-0.3636273147182296,0.11385976051643935,-0.13952200555405875,-0.9836504143372908,-0.2195449334844426,-0.03946815310119697,-0.21596624534842,0.9748504514050561,0.056875182565159305,0.07028306463706374,0.20369362395262416
157,2.570000000000001,-0.14383672005103426,-0.05794291202147339,-0.4043255705467322,0.11398820322809798,-0.1373687846810612,-0.9839388559221153,-0.23180757115974054,-0.03489761658884983,-0.23099178495050038,0.9753025413504484,0.055931451058285675,0.07001486570889798,0.20187508410955754
158,2.5800000000000014,-0.05670573170811999,-0.08620028234702785,-0.4657573691629596,0.11393845581824973,-0.1358632677100245,-0.9841539018898504,-0.22759015050304068,-0.012525548952082407,-0.2721421451970672,0.9757904532706048,0.055344583045142254,0.06971346767602653,0.19977163427769332
159,2.5900000000000016,0.0634841240697964,-0.12543300830350843,-0.5180197034727295,0.11363167741127483,-0.13531069772293736,-0.9842656118099545,-0.20396579193226477,0.014660721906974844,-0.32768226030149483,0.9763156239003847,0.05527624101472544,0.06936623185049583,0.19732952345039537
160,2.6000000000000014,0.1943374301961795,-0.16557179709181852,-0.5283359441711982,0.11297674279124419,-0.13598360003547474,-0.9842479564002339,-0.1827845964857353,0.03338817805758213,-0.38284102919354834,0.9768430114568025,0.05585998905115887,0.06895942532518336,0.19467886815614802
161,2.610000000000001,0.26409625151736293,-0.19687637731778404,-0.5270956086371973,0.11198336249160562,-0.1376921942941406,-0.9841235618263482,-0.1617563808648563,0.04723254375634483,-0.4344592893143098,0.9773466720303909,0.05698981623867275,0.06848268706090314,0.19197232940254144
162,2.6200000000000014,0.22395628532159606,-0.24346009118441136,-0.5571594506664476,0.1106539780102724,-0.1395395823951574,-0.9840138418947285,-0.12234613281296665,0.05775941507581237,-0.4593788387955388,0.9778634069039555,0.05822364549477218,0.06784271963511436,0.18917727760517516
163,2.6300000000000017,0.09033288088981657,-0.31517651729646445,-0.6080927868517634,0.10880821402484428,-0.14047182889433177,-0.9840870095437956,-0.07276913200624646,0.0481934148901047,-0.411807978272001,0.9784555710838275,0.05906241083811239,0.06684070215019239,0.18618766870719738
164,2.6400000000000015,-0.09949355675193952,-0.3818941819658622,-0.6706547795353113,0.10635815169457587,-0.13974010328518394,-0.9844581206790257,-0.03617800217506404,0.008389296941722895,-0.30670389420924027,0.979160445162243,0.05914313587436425,0.06536221239660046,0.18295084765089814
165,2.6500000000000012,-0.2900364525832252,-0.43015257539758756,-0.7507410688250197,0.10343435282641282,-0.13702877877407185,-0.9851488546362746,-0.014567307096052917,-0.034371789128327765,-0.2173079146894683,0.9799906307940077,0.05829586672096038,0.06344753643000181,0.1794136673247727
166,2.6600000000000015,-0.42203699331061717,-0.4676895734967991,-0.8449953858801074,0.10018219765302457,-0.1326254740250188,-0.9860854128496254,0.0010972514132183463,-0.04879779446360799,-0.17835463658511,0.9809414286165941,0.056651095987378323,0.06120110663709729,0.17547703787188185
167,2.6700000000000017,-0.4411474757364977,-0.4793898533373138,-0.9154284845129086,0.09675470096920687,-0.12738930271932733,-0.9871173760883315,0.016415598883660995,-0.03567024360017381,-0.16396718980028793,0.9819704127100759,0.05461665400462255,0.058786992265462586,0.1711364820700288
168,2.6800000000000015,-0.32901767108254526,-0.4424510690541153,-0.9398614889681033,0.09347088074322651,-0.122598303944281,-0.9880418732412852,0.020979923882500286,-0.008450201509574734,-0.1478629293005991,0.9829926003312444,0.0527861226386565,0.0564901807363045,0.1665565843288067
169,2.6900000000000013,-0.12855232782262144,-0.3705643910886303,-0.9502383825897418,0.09072777046835558,-0.11938837306632268,-0.9886924403243532,0.004195403490750036,0.019658804762675397,-0.1389563670032413,0.9839415813353318,0.051683592620427626,0.05460735455836055,0.16186310525979974
170,2.7000000000000015,0.10349942049058254,-0.29157167687160646,-0.9623781716474795,0.08874277470707057,-0.11835175339298047,-0.988998000706043,-0.020112321747478307,0.051477500124272234,-0.14129220461450234,0.9847956143991391,0.05158972378161341,0.05328422307647099,0.15706980102300364
171,2.7100000000000017,0.31268222885284697,-0.21835939240686686,-0.9808973557718355,0.08754778683696945,-0.11952845555707202,-0.988962486153061,-0.034452948380996176,0.08981178606488456,-0.13492989108392042,0.9855570838758895,0.05253013883201455,0.052523755255524565,0.15215996212703534
172,2.7200000000000015,0.43630887951808106,-0.17443498366490878,-1.0035184068252339,0.08699113056672063,-0.12236127202462822,-0.988664405621327,-0.03663798263812967,0.11516382511769885,-0.11481312863393962,0.9862472800611796,0.05424810641453857,0.052191550055812184,0.14711373553082457
173,2.7300000000000013,0.4649352437178918,-0.168747443081778,-1.0315466180846538,0.08676104202316774,-0.12592829658244092,-0.9882365199345201,-0.032689577128448215,0.11265831381508226,-0.08217978584824873,0.9868992902825349,0.056314148314345475,0.052052055207948006,0.14192128496563278
174,2.7400000000000015,0.4120956011383614,-0.18717198000387156,-1.062147828158135,0.08655301144518059,-0.12932308162735964,-0.987816792585139,-0.023138489481484927,0.09431671323454442,-0.02821284129416443,0.9875461686991315,0.058300804483759454,0.05188318320479084,0.13658010683280755
175,2.7500000000000018,0.32366235437129753,-0.22939518877130896,-1.0916758062570397,0.0861091475008917,-0.1319561864313809,-0.9875078273204859,-0.010920989963925282,0.07131928963676064,0.037585419699650464,0.988211096721445,0.05993015148598568,0.051516725932837154,0.13109367478933814
176,2.7600000000000016,0.2655713059053003,-0.2900198025854657,-1.1159625051667375,0.08518193996776303,-0.1337987322120522,-0.9873403770443114,-0.0036902657803990135,0.04928581257830909,0.09537404820819162,0.9888979916105289,0.061199286013611,0.050832871429338476,0.12547317203670488
177,2.7700000000000014,0.27143646324876336,-0.34946792132887405,-1.1400071170282113,0.08369633862177442,-0.13536340664792293,-0.987253911822927,0.003463817951738624,0.04039904079904778,0.1270434297103402,0.9895887942409467,0.062363289880162154,0.04983172596046219,0.11972142123445065
178,2.7800000000000016,0.32875927445254893,-0.3993282409628667,-1.1639618886460525,0.08170486273087885,-0.1372752385418601,-0.9871562410978265,0.016029227088220268,0.04991363803109448,0.12432081521356775,0.9902601721438788,0.06372720308164949,0.04857699338588429,0.11381914726871056
179,2.790000000000002,0.39627388618625387,-0.44671662710426946,-1.1702148190284998,0.0792673098580008,-0.1398462291764205,-0.9869934109724288,0.03200643659420609,0.07134076749829249,0.1061982848105075,0.9908918055146647,0.06543748703872664,0.04711485419484244,0.10780499691966713
180,2.8000000000000016,0.4490151385967993,-0.49997265651877754,-1.1589152283759916,0.07635252233790596,-0.14305990076058744,-0.9867618377812621,0.049089101783764175,0.09028640634638757,0.09578938430046836,0.9914715322038828,0.06747946578611543,0.045428299266585974,0.10176967067261429
181,2.8100000000000014,0.4799842352481099,-0.5552162135821462,-1.1432327699266036,0.0729082794427205,-0.14674769920731087,-0.986480094004229,0.06437860708376054,0.09521704925984291,0.11585175487206782,0.9919978255807632,0.06976477817334636,0.043480752079031286,0.09577308671725215
182,2.8200000000000016,0.47840411768009494,-0.6091776187777234,-1.1390426773161004,0.06895440064867621,-0.15063609222056848,-0.9861778424292901,0.07486351429873021,0.08919791290458298,0.1587393355161042,0.9924799440055165,0.0721515580839435,0.04126412981738407,0.0898038102494971
183,2.830000000000002,0.44143181985302926,-0.6726093633910466,-1.1503035004204045,0.06446873538588714,-0.15437778680100797,-0.9859023558090818,0.08460437874738698,0.08200547014882605,0.20301389582245,0.9929359979988056,0.07446446177984128,0.03874511940840669,0.08379392421948641
184,2.8400000000000016,0.38983775082661193,-0.7428954842937197,-1.1648124109582336,0.05936659923119242,-0.15772031621494015,-0.9856932789563199,0.09534753350868919,0.07286833620985575,0.24115717070592887,0.9933790255092141,0.07657599629426769,0.035868138547646415,0.07769603086428577
185,2.8500000000000014,0.3475267880524083,-0.8118061091850999,-1.1736489807071664,0.053611748230070255,-0.16064456934800872,-0.9855502917114969,0.10638831948970513,0.057623101052888634,0.2713319669214319,0.993807246288973,0.07847087979690544,0.032617452605410095,0.0715123493621207
186,2.8600000000000017,0.33398691892314264,-0.8622670329797999,-1.1748729882579123,0.04729934989510723,-0.16335018878545404,-0.9854281810492993,0.11535464195259258,0.041805261031371964,0.29164836537250627,0.9942054027738129,0.08023833969332611,0.02905393838409684,0.06527983249651531
187,2.870000000000002,0.3650121877391721,-0.8848783939457535,-1.1594277724270516,0.040643959269170755,-0.16621978398530676,-0.98524479228043,0.11774023031117072,0.03122672017825224,0.29702612946079404,0.9945481316495969,0.08205769303875632,0.025304179593892296,0.05906275859528267
188,2.8800000000000017,0.42372905873828276,-0.8811190216869933,-1.125383468290112,0.033901735305355354,-0.16964081870748768,-0.9849162883484337,0.11487386544727037,0.02926004937615207,0.2863838144766518,0.9948094736519605,0.08411280152977899,0.021514544629264828,0.052960799116417996
189,2.8900000000000015,0.49552931771504716,-0.8560290423434492,-1.0777794156070264,0.027280879488062296,-0.1737962678817946,-0.9843969566719842,0.11353767514619893,0.03796570109283473,0.27074185404877493,0.9949760048395803,0.08649082480283683,0.017797074060004584,0.04705999391342031
190,2.9000000000000017,0.5718461634577241,-0.8200007153929523,-1.0154221180189615,0.02092246794634816,-0.17877201985147054,-0.9836607698120078,0.10994170315059411,0.04506135969084969,0.25663184403978745,0.9950413242876079,0.08923512887861525,0.014226473438501946,0.04144130765005813
191,2.910000000000002,0.6594415962516622,-0.790242086324544,-0.9439927835496068,0.014822302563717658,-0.18461669659799548,-0.9826907139853142,0.10365961747536917,0.03970563577948903,0.2339719901712075,0.9950038956016907,0.09237594757780826,0.010802067002939186,0.03616230326779188
192,2.9200000000000017,0.7417308628986595,-0.7526501010089717,-0.8627828490474622,0.008977009781651876,-0.19136737456355457,-0.981468504978017,0.1020216675818168,0.031086210207350386,0.21282081210840326,0.9948629101757005,0.09593852765399577,0.007523670033633031,0.03127180478876496
193,2.9300000000000015,0.8072466847890802,-0.7178149638759621,-0.7702687019325262,0.0034015333614227103,-0.19889683447212164,-0.9800047859878693,0.10646398313297104,0.027617022203569385,0.19071782133570622,0.9946253820765064,0.09986490931830384,0.004399687854534843,0.026824581108518413
194,2.9400000000000017,0.8442402583498592,-0.6939285464864364,-0.6741142839152579,-0.0020109733441124877,-0.20698361851937166,-0.9783322943884085,0.11541057061299216,0.0316106705956609,0.16391844675161774,0.9943044407191755,0.10405117653740333,0.001377452829601907,0.02285724807004362
195,2.950000000000002,0.8383426613413005,-0.6624674645703237,-0.5667006695801965,-0.007306055274974907,-0.21524166631472783,-0.976523895160238,0.13090944851875028,0.03487961513439241,0.14121275563940044,0.9939233238969027,0.10830796632594712,-0.0015631175135858962,0.019408624369975938
196,2.9600000000000017,0.8104078220265946,-0.6270497448201281,-0.4481909087323507,-0.012461566600173227,-0.22331415769500543,-0.9746579382102526,0.15053513758569254,0.03312308738237837,0.1126116076383771,0.9935062447787301,0.11245922256232153,-0.004402044230031082,0.016534028234197317
197,2.9700000000000015,0.7852170775120546,-0.5804930655262076,-0.30102560053562777,-0.017462997378946302,-0.23110431205063472,-0.9727639815317916,0.16738485255980248,0.02817117476891115,0.07969118540281296,0.9930638752157739,0.11646152084755798,-0.007111568972969667,0.014345160244762779
198,2.9800000000000018,0.7433638000955196,-0.5216042287575167,-0.1453255779106368,-0.022273816367095686,-0.23856559654380283,-0.9708637003157586,0.18558677641272303,0.021031266790742187,0.03998759676631247,0.9926047994151519,0.12029731317395956,-0.009651820433303218,0.01294477567651568
199,2.990000000000002,0.6551954589702031,-0.45724797987668364,-0.00431031641593866,-0.02681503805565634,-0.24537995901374268,-0.9690505851487832,0.2149321541912317,0.01760266522580976,-0.009619784869984412,0.9921560287933591,0.12380882491960721,-0.011977138197758554,0.01231362203361514
200,3.0000000000000018,0.5112930750199014,-0.39874732455457285,0.14402100159617934,-0.03109685249879311,-0.25100919972185826,-0.967481421733311,0.24937087986055215,0.01793162535673645,-0.04885008001345371,0.9917590752084816,0.12672444376654962,-0.014089269816488309,0.012429214963639494
201,3.0100000000000016,0.33167477374508897,-0.35727558112459096,0.30334684213482277,-0.03528244770018895,-0.2550142022516512,-0.9662910494681766,0.2821558306528661,0.015500723920151555,-0.07240933068886307,0.9914471558130619,0.12882354899440038,-0.016061299206883668,0.013328311442887675
202,3.020000000000002,0.14516934227451628,-0.32573100198806737,0.4472699466337053,-0.039502744694599905,-0.25715539884741084,-0.9655605734567885,0.3146394096327636,0.009546554898287363,-0.0775687219537466,0.9912390190871181,0.12998645777941248,-0.017960170023950808,0.014989446077591367
203,3.030000000000002,-0.032037413332439736,-0.30341165507493656,0.5529769244143903,-0.04379828539311368,-0.25745758032168836,-0.9652947130967128,0.3396913945411259,0.002957521460229166,-0.0713071101817408,0.9911345810990739,0.13022663432231552,-0.01982547971361236,0.017274746028824072
204,3.040000000000002,-0.1645161539627789,-0.26867495866522667,0.6226080449546876,-0.04805489806242263,-0.25617325278776515,-0.9654337152022033,0.3500492157167153,-0.0032700493683692137,-0.061510194548857505,0.9911183185287379,0.1296716910219376,-0.021626870460625114,0.01999795661592358
205,3.0500000000000016,-0.229201305334966,-0.19242668125779405,0.6643354315457427,-0.05193071123065958,-0.25388071475483676,-0.9658389036215301,0.3455126731935936,-0.004630328319829844,-0.045033784467504924,0.9911549463218606,0.12861284611367174,-0.0232112146413001,0.02301566599125751
206,3.060000000000002,-0.24497947725553218,-0.033812283539510525,0.6998568872243837,-0.054766532020643896,-0.25119647340808793,-0.9663846386607788,0.3183239046618147,-0.004205159114279724,-0.026236108843045294,0.9912110986666012,0.1273551885024592,-0.024249461588123345,0.026286344589239858
207,3.070000000000002,-0.23844608850736573,0.20759605590097685,0.7805051323275225,-0.055763655421542886,-0.24841581663205708,-0.9670462522461517,0.2599148032441718,-0.00135056643189473,-0.027420309417410173,0.991273331749854,0.12603575008982792,-0.024319061321604035,0.029959260085626434
208,3.080000000000002,-0.2490689146018416,0.4707987541102418,0.9391878257024664,-0.0545316969965321,-0.2455532730767872,-0.9678465603863728,0.181561044668539,0.003512249769004459,-0.0728324412201726,0.9913311463300235,0.12465236286632679,-0.02318350359329193,0.034372394004907464
209,3.0900000000000016,-0.26659846904443507,0.6838718366233748,1.1638955764969712,-0.05141985042642819,-0.2424843320552412,-0.9687893036495798,0.11575287580743139,-0.0068948431722473565,-0.1588770132349018,0.9913606026787417,0.12314015371424775,-0.02097945357749998,0.03990104692698726
210,3.100000000000002,-0.29095725424555596,0.8223298350742162,1.3531392574246681,-0.047085204151380775,-0.23914281218873076,-0.9698389396592964,0.09835851105807647,-0.030087184981629406,-0.24899303627871897,0.9913318807805537,0.12146118832037754,-0.018040212841386745,0.046606307042796426
211,3.110000000000002,-0.3707513326166029,0.8926475050020798,1.4156354897639054,-0.04198282966257035,-0.23533747491439425,-0.9710023555090911,0.152918790837298,-0.03827820445817194,-0.30753933180522236,0.9912505142929536,0.11950223163194151,-0.014670571827695171,0.05399005169602847
212,3.120000000000002,-0.5103260094474691,0.9212395969802022,1.4544859267675385,-0.03643707371967393,-0.2305016974234833,-0.9723840087879642,0.23828542979093312,-0.025112712528998354,-0.29948815314583566,0.9911553755243296,0.11696579497041582,-0.011116054769667537,0.061594722689005246
213,3.1300000000000017,-0.6820424130639773,0.9123188043681341,1.5031748070411808,-0.030787083886935237,-0.22420612918931793,-0.9740482716868762,0.2741361161440051,-0.01653597767706011,-0.2662248007508384,0.9910568287118772,0.1136413551478356,-0.007575190779423347,0.0694360861677171
214,3.140000000000002,-0.8288306543572669,0.861031845051185,1.4838202250406958,-0.025352803642050233,-0.2163462685092453,-0.9759795488004753,0.2744613091976576,-0.028055341908323202,-0.23199903963690985,0.990959817536439,0.10948832181457949,-0.004253198230544826,0.07732997350363494
215,3.150000000000002,-0.8572720338629152,0.8235176377676586,1.4159649943331756,-0.020156237398730216,-0.2076838815700427,-0.9779807573376548,0.264705695007079,-0.037526275890611374,-0.15214181593025364,0.9908402771556094,0.10489988833629334,-0.0011811166708341335,0.08496166767858548
216,3.160000000000002,-0.7957458774015825,0.82866570220588,1.3269337988257712,-0.014792655932582239,-0.1992939400417345,-0.9798214275537409,0.23582839675170456,-0.03614297876479749,-0.09356657433538296,0.9906589965631013,0.10040898834244685,0.001874140094460888,0.09219100677254106
217,3.1700000000000017,-0.691982561162249,0.8238610461294467,1.2199295521883298,-0.009079480061037445,-0.19179798994185623,-0.9813870145304264,0.2027257453686868,-0.024911217079484134,-0.10314415739640412,0.9904059192118954,0.09632235210621974,0.0050334536080214615,0.09891622195306206
218,3.180000000000002,-0.5640875819682375,0.8035612674731453,1.133840322911677,-0.0032122358930311485,-0.1855211414768303,-0.9826308458600251,0.18108258475260025,0.0014886991923516637,-0.13855295142685786,0.99008023819766,0.09281332451168745,0.008230702521830273,0.105128342970833
219,3.190000000000002,-0.42762270175041983,0.7811642293217811,1.0855281376319987,0.0026369093958092575,-0.18062260155182858,-0.9835458580322582,0.17007763271655252,0.028437802631233647,-0.16472896128469555,0.9896718549893156,0.08997051426870097,0.011420661491953085,0.11098877757633922
220,3.200000000000002,-0.3065686129518561,0.734960900143031,1.0444019310551325,0.008299545964386658,-0.17706935009521002,-0.98416114470464,0.16105411769558722,0.04373293549740164,-0.18064572778066873,0.9891805401793263,0.08778637957313856,0.01454330100614769,0.1166142377314862
221,3.2100000000000017,-0.23259978581994936,0.6675190050098694,0.9932711570165698,0.013518007961584592,-0.1745424535133819,-0.9845551694054826,0.145853231163716,0.042861829036245525,-0.17267810506306547,0.9886332639205309,0.08611840878267135,0.017461405128403204,0.121978872593953
222,3.220000000000002,-0.21780833464402724,0.6022454810846422,0.9272223969988559,0.01822050689396127,-0.17248698896271744,-0.9848419204968152,0.12765140133728525,0.03697009798474735,-0.13754568692327224,0.9880721283710601,0.08469851061278487,0.02010709028130392,0.12701091147979535
223,3.230000000000002,-0.23667866347607172,0.5295276119030061,0.8561109439517713,0.02239939775596846,-0.17041181148492124,-0.9851172207386583,0.10766951557362105,0.03236904145322554,-0.09806358787437958,0.9875313627384095,0.08328774280937334,0.022445811201204483,0.1316746023227443
224,3.240000000000002,-0.27049089141505295,0.4549177409075796,0.7832150152060917,0.025981559899974863,-0.16806838156283246,-0.9854319493603557,0.08643240633508871,0.013969804536202828,-0.05502853565433848,0.9870320835100124,0.08177340276683105,0.02442384059388387,0.13594838211790664
225,3.2500000000000018,-0.2899449580783976,0.40024834031654793,0.7052717114642084,0.029069460827668935,-0.16545800993119142,-0.9857874441442376,0.06836354623755875,-0.009098893941819525,-0.013916457551170906,0.9865810791822693,0.08015575890912656,0.026091799290099242,0.13982177933873244
226,3.260000000000002,-0.29224838490644023,0.3645166263466623,0.6396603484055056,0.03185965137207825,-0.16274416871476038,-0.9861530657830856,0.05337057370531463,-0.018288881270039855,0.01917738027924789,0.9861722501182021,0.0785070460205363,0.027561866736229266,0.1433171614940093
227,3.2700000000000022,-0.2468048895001014,0.33307714552147727,0.6075974743032143,0.03441571259882574,-0.16023404381519527,-0.9864783828557145,0.041216464403315646,-0.012087278632993016,0.04889141576792776,0.9857796524694198,0.07697601112659383,0.028899250380620856,0.1465494551101525
228,3.280000000000002,-0.17610784311800934,0.3271640082652848,0.6052980566378844,0.03683014824858291,-0.15832606302155947,-0.9866993778162306,0.029448660088481543,0.008873054607417327,0.0800429611598527,0.9853639955633591,0.07575130098145832,0.03019590314084584,0.1496883270182708
229,3.290000000000002,-0.07560722706576234,0.33247060873323575,0.609122803252066,0.03924560400335179,-0.15728197873420968,-0.9867732998579903,0.02126615471130056,0.028586275345908897,0.10629325131626317,0.9849027155275143,0.0749503537732042,0.031552679337382004,0.1528151661554671
230,3.300000000000002,0.0266868721618242,0.34765211770969795,0.6213519429284479,0.04174325059397951,-0.15726900225282717,-0.9866728116150231,0.012327301090622632,0.043611442720021584,0.126283620709153,0.984383427406547,0.07464828225503711,0.033030024581118055,0.15596419133867342
231,3.3100000000000023,0.11574889524784204,0.360695324373136,0.6399818505963668,0.044348169411524974,-0.15823406813477564,-0.9864047561757137,0.004355138944595142,0.05317991163604202,0.14141426661495576,0.9837997944556846,0.07481368552751677,0.0346446976904264,0.15918377971987846
232,3.320000000000002,0.1571973528809386,0.36903694794424047,0.6586787653151921,0.04701830669087726,-0.15988493830215514,-0.9860147715657894,0.0029000555586919906,0.05901555514434154,0.15442970188004168,0.983160957589487,0.07530259848622292,0.036357069724926215,0.16248360928092598
233,3.330000000000002,0.1397213766016236,0.37086007422849016,0.6753796347769587,0.049690458258985166,-0.16167920063995064,-0.9855911475029915,0.0038718149755272335,0.05921947269021674,0.170100732472128,0.9824877315152035,0.07584890774479823,0.038093505721954884,0.16586880639241697
234,3.340000000000002,0.08256717395700787,0.36222958639800007,0.7055268961963097,0.05226415453684094,-0.16313075520143133,-0.9852189061916595,-0.0009408123483751961,0.05376616944422061,0.19971654603112574,0.9817960395268046,0.0762175681978841,0.039764781217520875,0.1693667341728954
235,3.3500000000000023,0.0063304162736023874,0.3572583118275789,0.7348444015106441,0.05470379746707226,-0.16394404923257577,-0.9849515124741125,-0.009730369189617054,0.0476208934344921,0.23614144435067258,0.9810895403646847,0.07626276200182039,0.0413289218273945,0.17302643924243877
236,3.360000000000002,-0.06000727894245475,0.35343510677321227,0.7593659194852859,0.05706143033951257,-0.16408843832613595,-0.9847937217951864,-0.017203772537244363,0.04552326750332941,0.2665813549262348,0.9803708352767581,0.07596594829550551,0.04280391220358404,0.1768300940545925
237,3.370000000000002,-0.09546318697725142,0.33928980046364904,0.7677501128009314,0.059285651492687504,-0.163749981213346,-0.9847186929096876,-0.024669803299988507,0.04679864250863195,0.29241631494024894,0.9796431070039515,0.07542744081012098,0.04417278323016159,0.18071449011609156
238,3.380000000000002,-0.09664557223490214,0.3291932728779684,0.7649205237635703,0.06136284168446072,-0.16325947536681082,-0.984672871792963,-0.034062777740323465,0.04590112493803914,0.3135888351411081,0.9789044030801558,0.07481664527528427,0.04545227815316028,0.18461269707629266
239,3.3900000000000023,-0.09782886120665635,0.3258615506155101,0.7558153833057891,0.06339989599940322,-0.16277384624114008,-0.9846242353982105,-0.04068684037544823,0.04799268378376692,0.30940292933521346,0.9781543346790649,0.07420436744412767,0.046706365271989576,0.18848174340529186
240,3.400000000000002,-0.10122964559939515,0.3223036734599886,0.7426210781832822,0.06542759190251804,-0.16227573118582372,-0.9845738303211096,-0.039995281625522724,0.06519174923091693,0.27484987541850064,0.9774015960753096,0.07358135523960177,0.047945556534217615,0.19228167062162438
241,3.410000000000002,-0.09566680652729773,0.32933197268334446,0.7592942510330376,0.06745817669343548,-0.1617891354655883,-0.9845168808828019,-0.042464779108232986,0.07840997317187992,0.24841143555593964,0.976633611975073,0.0729555996789772,0.04918284228406235,0.19607249922509393
242,3.420000000000002,-0.06701223588239993,0.34874579917414933,0.7926634549153112,0.06956262485848902,-0.16149498245580454,-0.9844186850580723,-0.056777156209911195,0.06862303391907874,0.2339403532252921,0.9758117043970711,0.07240190692194606,0.05048279534993596,0.200000377398395
243,3.4300000000000024,-0.04227318802615883,0.37732866458086944,0.8099928179630134,0.07187614428075442,-0.16155238773788944,-0.9842430684522111,-0.07536662054606566,0.04662441236826346,0.21493280753883912,0.9749251684584822,0.07198401020332605,0.05192946613965265,0.20406313756754607
244,3.440000000000002,-0.05595207957603575,0.4030223756286182,0.8106480917702922,0.07445308834654832,-0.16167539947702778,-0.9840312377377115,-0.09234409581189768,0.022127094388237314,0.1924895268336008,0.9740035134570535,0.07155811499187195,0.053513486405782795,0.20816379219502082
245,3.450000000000002,-0.09617636195031887,0.418575251312195,0.831774834601773,0.0772254330546894,-0.16155360517127976,-0.9838376155692936,-0.10818046995091986,0.010722501956478725,0.16819076288298657,0.973055871523085,0.07097539728974112,0.05516874931164791,0.21232170995697042
246,3.460000000000002,-0.1363624371899807,0.4102804599155595,0.8451164929685493,0.0799997427716101,-0.1610636966241057,-0.9836962703987013,-0.1182131402842068,0.009318474501271788,0.1395697504739741,0.9720806523581504,0.07019231751231245,0.0567875191623047,0.21658004678907117
247,3.4700000000000024,-0.18492571306445776,0.39665097910884783,0.827308696883897,0.08266536573365736,-0.16017492519752752,-0.9836209664259258,-0.1212145610039395,0.004756204126935517,0.12164650603349127,0.9711029664444509,0.06921207924751446,0.05830195416997421,0.220837262429638
248,3.480000000000002,-0.22545248607111076,0.3675055117822932,0.7878381359289643,0.0851717890007856,-0.15882759173198316,-0.9836256536100608,-0.13024903041513525,-0.006554258388155046,0.10846267588877267,0.9701588297155395,0.06802091918458789,0.059667986626281505,0.2249544841220613
249,3.490000000000002,-0.24128114437981565,0.33238203896541363,0.7206474087814398,0.08746270876595615,-0.1571550631504296,-0.9836932924498125,-0.14844556884931878,-0.011502335068739189,0.08923296086595488,0.9692747714021525,0.06670092006252024,0.06086301858911188,0.22880784738004378
250,3.500000000000002,-0.23891510363886997,0.2973427807420695,0.6331881659879156,0.08954293192361601,-0.1553662431064352,-0.9837902911063903,-0.17317228145056224,-0.013429217255306882,0.06092828065271839,0.9684755592798003,0.06536477996270174,0.061905375928216926,0.2322720584899299
251,3.5100000000000025,-0.20884065567117602,0.266511816291316,0.5341254025400506,0.0914444350449641,-0.15367916380330887,-0.9838803865720223,-0.19623414046329313,-0.016679440350603647,0.01706774400831549,0.9677774292008906,0.06412382489757326,0.06283258074177007,0.23525966267931755
252,3.5200000000000022,-0.15986077555172315,0.23474164592276328,0.43087635617611175,0.093199480688767,-0.152298813614883,-0.9839303502930229,-0.2213217507366474,-0.017202063153126293,-0.029657228904025886,0.9671862050365617,0.06307925438461785,0.06368541268392765,0.23773132381751583
253,3.530000000000002,-0.11944661221748112,0.20687018049705463,0.33157141823409186,0.09481247850637071,-0.15129711672302232,-0.9839307656394417,-0.24053975536783045,-0.014208824684282277,-0.07317556528544654,0.9667048385032448,0.06226773219834189,0.06447743380354441,0.23968127364401734
254,3.5400000000000023,-0.10385103901502458,0.1862423778358176,0.2358224521572035,0.09636914189573108,-0.1504658271736705,-0.9839070254583552,-0.2565804673037173,-0.015288702984056698,-0.10589965177093602,0.9663342568097031,0.06157607890435694,0.06522941017531218,0.2411463401374409
255,3.5500000000000025,-0.0727886969217697,0.14710276589267662,0.14966744431570964,0.09774450374696467,-0.1497558544865035,-0.9838796389569646,-0.2696698750908515,-0.00904560444140401,-0.12773573688292197,0.966076705129471,0.06099512470719988,0.06587685886422287,0.24214804066815288
256,3.5600000000000023,-0.021084121950260784,0.110592044959274,0.08047696043491682,0.09886480654924323,-0.14941131919383374,-0.983820076680545,-0.2827121642775518,-0.004354676685178797,-0.1340943402077437,0.965909936240857,0.060649808481469406,0.06641945617618733,0.24275114180952426
257,3.570000000000002,0.02119752774100803,0.07777789194860055,-0.019020687621562143,0.09977918178429812,-0.1494601329910116,-0.9837203786488742,-0.2835164695358869,0.0008862635579121201,-0.17002039210796221,0.9658386068823639,0.06055024582873479,0.06688405510733832,0.24293230968116616
258,3.5800000000000023,0.03600877903628891,0.029162253272976828,-0.14450416797401233,0.10045465321953742,-0.1496757038384517,-0.9836188269400835,-0.2749900358769874,0.005850139626195178,-0.22167562564365986,0.9659084172371017,0.060600219085500506,0.06721745725130439,0.24255001431349793
259,3.5900000000000025,-0.0019261363621927707,-0.030944277152497233,-0.27965824996529876,0.1007982364868564,-0.14963524139825057,-0.9835898515844586,-0.2672789338574114,-0.005713939886226768,-0.25023723434677153,0.9661604848680607,0.06061105382134659,0.06731545382578882,0.24151393698735352
260,3.6000000000000023,-0.04524125861527315,-0.07782992546925963,-0.3965854095043637,0.10080596829789708,-0.14903104989915264,-0.9836807955761213,-0.26771396761005,-0.02791478726509984,-0.2714178030555362,0.9665936813821993,0.060429185788913986,0.06714101812541647,0.23986897892512263
261,3.610000000000002,-0.021957022252822613,-0.12354995751823297,-0.47641287650181163,0.10049521107607925,-0.14818539825037477,-0.9838403118407633,-0.2819679552462706,-0.04699422044912916,-0.2969184477098463,0.9671645611436884,0.0602011419802276,0.06675069442017947,0.23772428866509465
262,3.6200000000000023,0.08507433012959992,-0.150306637316149,-0.526625404094204,0.0999048911878917,-0.1479669962431087,-0.9839333214087406,-0.29590561476612676,-0.04009630213665798,-0.3331943239662587,0.9677988596570517,0.06033563499051428,0.0662792857260748,0.23522709019419247
263,3.6300000000000026,0.21672489952586083,-0.16681673885739445,-0.5789503965071991,0.09920513405173594,-0.14890087230380264,-0.9838632141678949,-0.2838225823030183,-0.0016133029476882513,-0.41142663963078696,0.968450911200478,0.061064010113235236,0.06587526737102005,0.23245243666497056
264,3.6400000000000023,0.28762318292666245,-0.19797876725118219,-0.6348241091342495,0.09837461369171273,-0.1508249966422483,-0.9836533882455195,-0.2358851292041427,0.05639430957137917,-0.5051049252434897,0.9691322558908002,0.062312039802795635,0.06550128253325285,0.22936632175139202
265,3.650000000000002,0.2683213444856442,-0.2512830117574227,-0.6664843296393438,0.09719800796264225,-0.1529671149376116,-0.9834395164098495,-0.18004112656298615,0.09659389035824897,-0.5361589471499187,0.969857852890089,0.06372033150214379,0.06496027408448417,0.22604183992236054
266,3.6600000000000024,0.18692966782557038,-0.31478575463371167,-0.6914125493174106,0.0955002151345263,-0.15456375316322904,-0.9833562042772038,-0.128082457546117,0.10273858674787675,-0.5013804576788226,0.9706359938086819,0.06492436326274628,0.06408269610464501,0.22258302221138318
267,3.6700000000000026,0.05051763331583198,-0.3652800764956364,-0.7481479700167815,0.09329539791938742,-0.15505779542074544,-0.98349006769376,-0.08352020620676526,0.09771593654032176,-0.43189183306742135,0.9714945967850994,0.06564669985372414,0.06281194399340337,0.21895770365394046
268,3.6800000000000024,-0.11185653549988066,-0.41595348311745545,-0.8660545511373985,0.09076657488702321,-0.15401702907226836,-0.9838900403384914,-0.046037901239614154,0.08610216566204901,-0.36523611365953246,0.9724971746859894,0.06566505935736847,0.06117913383586309,0.21492603698935195
269,3.690000000000002,-0.257786943508994,-0.49338079982511635,-0.9993788799785217,0.08778919459918294,-0.1513202362691123,-0.9845781145672057,-0.02011800095081277,0.06848854154468195,-0.30654656309752626,0.9736875452837587,0.06493906146217246,0.059106002658284564,0.2102856539570794
270,3.7000000000000024,-0.32000968660161505,-0.5355267178975015,-1.0932317050932512,0.08431649298256474,-0.14748496177898995,-0.9854627510227149,-0.0067604159379374505,0.048857849219208285,-0.25299936915523935,0.9750209393040126,0.06371637728357797,0.05664165628176473,0.2050936336555768
271,3.7100000000000026,-0.28088962258460076,-0.5122927723750436,-1.1734684410029146,0.08086230691819965,-0.14350086123101702,-0.9863399716868098,-0.0026559417717107055,0.0481899436595851,-0.23084201294752224,0.976410487515238,0.06241829058096876,0.05416044965720658,0.1994742769562525
272,3.7200000000000024,-0.1589053500841296,-0.4643442624987589,-1.244993452446956,0.07783441674772258,-0.14029238096258653,-0.9870452090013158,-0.004462229064001389,0.07285549878958875,-0.22793651289313444,0.9777990422377799,0.06145697656823446,0.051961244006561734,0.19346456485403313
273,3.730000000000002,0.010311230385688985,-0.39295664610002334,-1.2751730179311045,0.0754563268107938,-0.13852593566355115,-0.9874797352678638,-0.017490459637604577,0.10547372663296099,-0.1944851233789996,0.9791332957727371,0.06113794630098699,0.05021988806594548,0.18717459377772944
274,3.7400000000000024,0.20139664923734626,-0.31372970275920825,-1.2790599814467993,0.07386728901473703,-0.13856238639528842,-0.9875950156154532,-0.041937248837693314,0.12725135125532652,-0.15280094529884772,0.9803636898753371,0.06162576763393054,0.04903696238310676,0.1807784491693192
275,3.7500000000000027,0.35635526504696335,-0.24885619471226117,-1.29717119087758,0.07304748372846019,-0.14033708174081824,-0.9874052600533779,-0.060778578550899645,0.13925367218927742,-0.12518147639970265,0.9814857213568237,0.06289888482900147,0.04838278713568348,0.1743117664618144
276,3.7600000000000025,0.4415187541610354,-0.2126652530371873,-1.3345154625827003,0.07282802685146435,-0.14328862145967586,-0.986997224967751,-0.0655244217344129,0.151443038506959,-0.10310582654798038,0.9825380412250273,0.06470854899595026,0.048102514737019604,0.1676702423600389
277,3.7700000000000022,0.4560081468362338,-0.2050158214776533,-1.3615555287496934,0.07292201561806572,-0.1466839627828003,-0.9864912382097947,-0.05624809042097137,0.155335322084732,-0.08439193249049724,0.9835472395333308,0.0667211163493594,0.04798181593701795,0.16085970008847472
278,3.7800000000000025,0.40738095930067686,-0.21611051590377217,-1.3822910341316643,0.07309080614149387,-0.14987246662193682,-0.9859994501067418,-0.04354047839044965,0.15061755029807938,-0.061248976821547924,0.9845312618241541,0.06863250364601156,0.04784850445114041,0.15392538116657986
279,3.7900000000000027,0.33017848881805684,-0.23528213853144897,-1.396235241645767,0.07315936056622149,-0.1523954682892379,-0.9856077606575905,-0.030833751747126437,0.13427874432767917,-0.03434856154129588,0.9855034110215702,0.07022481671212888,0.04758490503195343,0.14690725832493473
280,3.8000000000000025,0.2439868342993127,-0.2525152237584133,-1.4069516549130947,0.07307187707903644,-0.15407142808034466,-0.9853538483306673,-0.022588905931392216,0.11769505018600784,0.004313867968025516,0.9864678401644582,0.07140735727035076,0.047158226791317356,0.13983108093820143
281,3.8100000000000023,0.16198366703925002,-0.26522253528159717,-1.4158586561976845,0.07285019920789054,-0.15492047916154247,-0.9852372677650193,-0.020284532705686507,0.1078965515079371,0.05093951643150233,0.9874212029094434,0.07218463334939966,0.046590329026599604,0.13271107204403934
282,3.8200000000000025,0.10082339892247362,-0.2764758727303876,-1.4132675715243481,0.07250325691762112,-0.15506361267104185,-0.9852403404530276,-0.022679006136919044,0.09871782111790507,0.09813974730369585,0.9883528656775421,0.07261165708168632,0.045905336066390225,0.12558981065230815
283,3.8300000000000027,0.07078975123707867,-0.2934378345185501,-1.4084398609799311,0.07196371564936282,-0.1548191108907229,-0.9853183437099503,-0.025968073433447834,0.09586386231489383,0.14345657861976183,0.9892490841909056,0.07284844587734914,0.045098235530646166,0.11848743961948247
284,3.8400000000000025,0.03693442637432712,-0.3110790373860747,-1.4019864111408593,0.07122438787474508,-0.15429148022480174,-0.9854547612031517,-0.021317756582493953,0.09496075028400379,0.18142043145516776,0.9901054150133433,0.07294494314366326,0.04417622079856646,0.11141131160401771
285,3.8500000000000023,0.017104045901661074,-0.34736484223256753,-1.3976047029992407,0.0702029013850298,-0.15349698682531898,-0.9856520712093155,-0.01356896960527967,0.09459598796533361,0.21029370812255538,0.9909247234762455,0.0729118536483325,0.043100762765432135,0.10434521664884547
286,3.8600000000000025,0.057620000375295403,-0.4057954481302468,-1.365289357541256,0.06864530796459772,-0.15281367071332866,-0.9858678574868932,-0.005814413174577895,0.09426296152021639,0.2396893305033213,0.9916905876896015,0.07294523093829373,0.041771176025011,0.09735164689697844
287,3.8700000000000028,0.15166510140839923,-0.45731075787195524,-1.341182482409467,0.06648865977170665,-0.15289879823366123,-0.9860022883632641,0.00848431397615898,0.0925412744170673,0.26311344185298846,0.9923758104685447,0.07337135983620208,0.04018845590780021,0.09047162567142275
288,3.8800000000000026,0.2518439873252207,-0.505437661169859,-1.3380700414702467,0.06384938782495761,-0.1539645357591786,-0.9860106207045776,0.032375219205164035,0.09461051450476157,0.257503956640333,0.9929797688043035,0.0742911266615433,0.03840478333070791,0.08360705918509251
289,3.8900000000000023,0.3665273524248841,-0.5722112956734242,-1.3147891437685104,0.06063074636396687,-0.15614876104147596,-0.9858697345695815,0.05387272437752025,0.10417632538127974,0.248900132480121,0.9934980114664875,0.07577400865870414,0.036365880426508436,0.07674677252630566
290,3.9000000000000026,0.4758098997370614,-0.6344903344907685,-1.2733382104595874,0.05673853890454843,-0.15955154171965305,-0.9855556228584152,0.07469373268615294,0.10859084728277311,0.2557021887439464,0.9939163294368892,0.0778648125652853,0.03402588714045451,0.07001322181446365
291,3.910000000000003,0.514846596650658,-0.6784848690285118,-1.2445276332478579,0.05231413912010565,-0.16378111024293596,-0.9851057066118518,0.09632607129044277,0.10211205568852044,0.2693271432979114,0.994246079430364,0.08035708262870353,0.03143142412865602,0.06341461099820073
292,3.9200000000000026,0.49241892035072593,-0.7235792879273915,-1.2074276726028592,0.04747214271202801,-0.16813913182991727,-0.9846162945220448,0.10699374641120155,0.09032922007625588,0.29342959766899235,0.9945145204212688,0.08289211304086087,0.028611207985908514,0.05694741890604545
293,3.9300000000000024,0.4232251663864942,-0.7709697071627307,-1.147713678820989,0.04213725783764601,-0.17211120385477063,-0.9841724925044675,0.10553020408096518,0.07395103891813315,0.32692485362824497,0.994740748880248,0.08520656681491688,0.02552151371834966,0.050708214309292524
294,3.9400000000000026,0.34271033491661607,-0.8104187556388375,-1.0770462782503063,0.036297594418629356,-0.1754234924903769,-0.9838201841077825,0.1066134509064579,0.056460262624692774,0.3520304924419478,0.9949367455408434,0.08715735342097637,0.02216279641366058,0.044785379023074265
295,3.950000000000003,0.2879839798097038,-0.8354629810010902,-1.0018631726832727,0.030041081955033747,-0.17813804388328816,-0.9835430901385783,0.11020704833628923,0.04771445096009711,0.3480392820085554,0.9951023343243527,0.08877145098997384,0.01859207903441691,0.03922121336779115
296,3.9600000000000026,0.28464932694825634,-0.8528588076272265,-0.9328376531612372,0.023484718048238606,-0.18064074565595153,-0.9832646992248063,0.1186680062444936,0.046620445635626805,0.3133933274428404,0.9952244968367978,0.09024217431821473,0.014881175735934567,0.03400708275711787
297,3.9700000000000024,0.32684981648202055,-0.8591424802266983,-0.8577273308859791,0.016706062283373707,-0.18342439480335285,-0.9828873564637389,0.13056104612034838,0.0446103825894315,0.26597152313134304,0.9952842379196474,0.09181930334341701,0.011080053174005778,0.029144096059115648
298,3.9800000000000026,0.3985705468131582,-0.8520494306908852,-0.7716781737027997,0.009790711793700346,-0.18687085627944638,-0.9823305655647009,0.1412718151526629,0.04043925681059313,0.21489072758220945,0.9952655240301052,0.0936976360806163,0.007240003313302038,0.02467297019137099
299,3.990000000000003,0.45895811457615127,-0.8167361465961511,-0.6801132587011305,0.002977042718082839,-0.19102994305207274,-0.9815741536938537,0.14719207630926215,0.040923315736887705,0.17439267389879434,0.9951673341205901,0.09590406643119205,0.003484616820322434,0.02065417086898045
300,4.000000000000003,0.4932345540803919,-0.7711516803833317,-0.5804200031165572,-0.003572807073403246,-0.19572143448193333,-0.9806473234067195,0.15121270102385279,0.044571118793739685,0.1420300049278679,0.9950016725455083,0.09835210285561473,-0.0001035060942205391,0.017132029444702473
301,4.0100000000000025,0.48460113198260724,-0.7384265527131637,-0.474806177783565,-0.009895419260189244,-0.2005572600371998,-0.9796263965969169,0.15706689768237758,0.04205500881736636,0.106502399494291,0.994792410345442,0.10085230612070976,-0.0035414779160233127,0.014139917625331466
302,4.020000000000003,0.4421620802791395,-0.7074153848212337,-0.35564149335658585,-0.01611091019025691,-0.20515769547978197,-0.9785909733457628,0.1751160429986927,0.032843400384226604,0.07266314907573614,0.9945638385004475,0.10321940136557542,-0.006884303495725387,0.011719166208585714
303,4.030000000000003,0.36288980220905365,-0.6637564920669778,-0.23697957896022115,-0.022192749948773238,-0.20917846634793996,-0.9776208658328931,0.20141566928101376,0.024130898157546724,0.043666842803701235,0.9943398903322046,0.10528447730033798,-0.010111033383271718,0.009909221530978625
304,4.040000000000003,0.22875524060037575,-0.620866421074816,-0.13134548985929592,-0.02806629993556942,-0.2121304864197507,-0.9768343889832657,0.22793829358134177,0.01666520936796475,0.007642804347829386,0.9941539244377535,0.10680330962676306,-0.013185136381518386,0.008665162671196967
305,4.0500000000000025,0.07586958659003742,-0.5912741096620281,-0.016916241382143496,-0.033804355926522665,-0.21363091723266178,-0.9763262233332565,0.25267704906600774,0.009628486468152857,-0.029197181622748015,0.9940319859809028,0.10758596823723549,-0.016140630167356288,0.007974947740627049
306,4.060000000000002,-0.06686267756215813,-0.5628019777344998,0.10661592841642265,-0.03952831346824239,-0.21365048290399893,-0.9761070318848164,0.27690015067419854,-0.0011367953062966507,-0.060879324968899515,0.9939775414881462,0.10762356211739701,-0.019029722166149978,0.007889187784270285
307,4.070000000000003,-0.19898890402557973,-0.5314472166844082,0.22026549156808456,-0.045210224928235634,-0.21224721272363872,-0.9761662872795371,0.3016976788958807,-0.01622014107581845,-0.09270309598187712,0.9939882629138271,0.10695029254842237,-0.021838391393929967,0.008397326785618069
308,4.080000000000003,-0.30728736494754044,-0.5034889886541364,0.3336484408849878,-0.050815247240018326,-0.2096042641107692,-0.9764611013313341,0.3201970614879736,-0.026008601034768004,-0.12635735548843832,0.9940527455249167,0.10566356601432658,-0.02455388811701497,0.009464483113127573
309,4.0900000000000025,-0.38196072838474104,-0.47750965067363854,0.43787686804028786,-0.05638818010676003,-0.2059943399439046,-0.9769226640862674,0.33123405419396745,-0.028321072229988985,-0.14814332310087913,0.9941519084119353,0.10390717159402502,-0.02720240367394446,0.011080491616033378
310,4.100000000000003,-0.44308523798007954,-0.44600375584051966,0.5250779601866977,-0.061890802286437355,-0.20167512570809082,-0.9774901063999382,0.338887190971621,-0.028530146773175235,-0.1467897751783575,0.9942687525207862,0.10181482025839084,-0.029774482866789825,0.013185104070846198
311,4.110000000000003,-0.5127743696763363,-0.38770156430924785,0.5813518873326038,-0.06708376709355302,-0.19664300773194823,-0.9781721442758217,0.33677671924769276,-0.028187839593575133,-0.13031028543444217,0.9944042010340639,0.09938258155065488,-0.03216682082319998,0.01565932450764454
312,4.120000000000003,-0.5978326923737551,-0.27790995145301534,0.6213935992953035,-0.07152823497776727,-0.190787864641335,-0.9790161862321555,0.3170533893054641,-0.030504323456838144,-0.10248460858793568,0.9945695025066792,0.09654779944301875,-0.03417598219826264,0.01838767838389968
313,4.130000000000003,-0.663291696947898,-0.10515470998509538,0.692932419413907,-0.07464513344852561,-0.18410330329229152,-0.9800626751877934,0.2695650791988466,-0.04412339375823235,-0.08958003610347025,0.9947713400871361,0.09330140245371925,-0.035510693679689426,0.02143171192556726
314,4.140000000000002,-0.7053469654302315,0.11361207766924437,0.8270854405827173,-0.0759460033949252,-0.17677691328453798,-0.9813105082418028,0.20414070987611124,-0.06400131514769564,-0.13475801026507123,0.9949992815864922,0.08973774614265544,-0.035905329821313677,0.02507352286398514
315,4.150000000000003,-0.7044590934098858,0.3256043926098876,1.0181225328800145,-0.07532710449877743,-0.16912030131902858,-0.982706080540675,0.14634289846335868,-0.08105701737037659,-0.2232756938586147,0.9952240329868998,0.08601555958116983,-0.03528781992789664,0.02962265147523178
316,4.160000000000003,-0.6921044771260537,0.508587569744452,1.2219387746010724,-0.07301358659897411,-0.161416691097938,-0.9841744730166838,0.12475919161421212,-0.08952460054836354,-0.3023608101757672,0.9954076846270697,0.082274838283542,-0.033765138465937546,0.035264403489826325
317,4.170000000000003,-0.7042001130108992,0.6459416136850339,1.3786616488206902,-0.06930407870690689,-0.15362302100821892,-0.9856876638060517,0.15033009013272844,-0.08504476429103677,-0.33974200182196973,0.9955304251311553,0.07847836378003788,-0.03151229533877792,0.041872794197718846
318,4.180000000000003,-0.7647602124051394,0.7344001226596013,1.4908562381274624,-0.06457781976013918,-0.14544607028241713,-0.9872460965513669,0.20216887637422928,-0.07191589051123554,-0.32257593590650924,0.9955868463858014,0.0744614860944499,-0.028760574284941377,0.04917609001224429
319,4.190000000000003,-0.9107186472180058,0.7678242182703865,1.5555310325301441,-0.05922154777471114,-0.13625418534427375,-0.9888888749911837,0.2501533681034438,-0.06189754755891008,-0.2826253566768578,0.9955850838243031,0.0698968156884973,-0.025752736582902936,0.05693634701109021
320,4.200000000000003,-1.0835746411116498,0.7044251620341858,1.5364435003889854,-0.05389312552377423,-0.12548753567404503,-0.9906132501028397,0.29086113201702396,-0.05727504957311031,-0.23222512194358022,0.9955379466561362,0.06450917207589071,-0.022878502235865135,0.06479070248371924
321,4.210000000000003,-1.216612953149863,0.5989734634569901,1.4373724412973403,-0.04917996499987526,-0.11325610394609098,-0.992328061962587,0.31901641056496965,-0.05861081010688803,-0.14583273049609044,0.9954532022817885,0.05836976382664878,-0.020473701574721694,0.0722870299196885
322,4.220000000000002,-1.248428381556107,0.5411446617752005,1.3183312263102835,-0.0449834353707554,-0.10027341890122138,-0.9939216093016214,0.3154289137753274,-0.06495299925454256,-0.05768270525406474,0.9953303210033251,0.051839268348069234,-0.018483177625924267,0.07917538639768439
323,4.230000000000003,-1.1430805176583012,0.546612303509182,1.2161308155202335,-0.04073535683708683,-0.08774106525682586,-0.9952913035383122,0.26925066278620274,-0.05610686098464897,-0.022034720632318133,0.9951519157740621,0.04550461366407328,-0.016565672130318804,0.08549902788959152
324,4.240000000000003,-0.9221288090927899,0.5931473222559629,1.1381987515234517,-0.035988315574144676,-0.076934088118204,-0.9963723159374066,0.20414044995619746,-0.02760117940145215,-0.043306084680211465,0.9949004969796775,0.0399855990359992,-0.014419923784492852,0.09138881598944525
325,4.250000000000003,-0.6465975586052474,0.6671702669864501,1.0833667851991606,-0.03047134420190912,-0.06871489041029968,-0.9971611631906337,0.1523377231307432,0.002128882793239143,-0.07693276469309257,0.9945707001379561,0.035696017272150896,-0.011843046677425279,0.09696911874392806
326,4.260000000000003,-0.38271430637457626,0.7455323406654959,1.0583448030710774,-0.024058443912083966,-0.06331136729912139,-0.9976964925783237,0.1172025693178752,0.014570767690463546,-0.08759657206202497,0.9941630862811239,0.0327364709878833,-0.008731366608635919,0.10237901991668595
327,4.270000000000003,-0.20087525514903593,0.7999967746915643,1.0493750013225436,-0.016911767924017457,-0.06024653779044795,-0.9980335090556623,0.0915316118609471,0.010464828246393009,-0.06683869403043062,0.9936823792325273,0.03087001587247607,-0.005164326071645985,0.10772962714367601
328,4.280000000000003,-0.12362739631092654,0.829389834414718,1.0464993685762076,-0.00931085034888089,-0.05855009485108167,-0.9982340732176852,0.07856560643633922,0.007253318095346697,-0.021932824542136027,0.9931410829041263,0.02962217617267595,-0.0013163404781905115,0.11305517040372556
329,4.290000000000003,-0.10834362910496124,0.8338266201928447,1.0580589492174164,-0.0015338196199826404,-0.05735846990614153,-0.9983453560909824,0.07506471555890504,0.0075278668585286885,0.0349366121295735,0.9925458105245694,0.028575211156779422,0.0026353970346718425,0.11840171353047368
330,4.3000000000000025,-0.11712839640840296,0.8185593874823881,1.0657994028336923,0.006187791320583899,-0.056258254799213994,-0.9983901508442917,0.07504017309188753,-0.0021648979988022994,0.0850402787943513,0.9918981477328941,0.02753567954659012,0.006555210474949381,0.12379995479344004
331,4.310000000000003,-0.13565973302409193,0.7989043053858831,1.0388615460576924,0.013742431045474207,-0.05509843068255631,-0.9983796951993532,0.08037199160718561,-0.026077252635410712,0.11907300731157655,0.991213244684776,0.026436650190865222,0.010375891287987292,0.12914944208551937
332,4.320000000000003,-0.16271860955416922,0.7766959368805852,0.9954289883641587,0.02111889300486055,-0.05377566088867401,-0.9983232413490482,0.0841062293293246,-0.049897837066885095,0.13800225576526454,0.9905136676502427,0.025231513828465536,0.014080904237750052,0.13430643790639418
333,4.330000000000003,-0.17959602117899381,0.7509573408269777,0.9689957653074834,0.028283776062303822,-0.05229188168008107,-0.9982250913336296,0.08109043177638334,-0.0629813961843882,0.15206293298099463,0.9898035325346548,0.02392711209730489,0.017653252063370206,0.1392689570983281
334,4.340000000000003,-0.16380144241524816,0.7229403093407872,0.9672024266429641,0.03518757070988979,-0.05086211765779997,-0.9980799500018664,0.07861088695909621,-0.06291445900003044,0.16692392491695635,0.9890675258847358,0.0226347865279962,0.021086309451479074,0.14415219069854118
335,4.350000000000003,-0.10810498257012405,0.6995524145705279,0.9800123744144829,0.04184533484295691,-0.04984384964472919,-0.997874861791221,0.07762694233300248,-0.05220783230685103,0.17676891996498828,0.9882888821556776,0.021530588796104734,0.02441726991759496,0.14905297987142382
336,4.360000000000003,-0.01867338149789187,0.6901750503041082,1.0068726046991436,0.0483369468864791,-0.04964088718630927,-0.9975918373410783,0.07388198102361683,-0.0332666946616804,0.17725781305915975,0.9874532016412205,0.020807482087047986,0.027721332488342548,0.15403250535443855
337,4.370000000000003,0.087361349721211,0.6834728786209112,1.0446386012058797,0.05472001393154578,-0.05050587230230186,-0.9972185399888974,0.06982764269858188,-0.010251836802656867,0.16280211204745332,0.9865458409994758,0.020583278668413876,0.031054452007379156,0.15915423992735295
338,4.380000000000003,0.1783556119587441,0.6699743443430894,1.0851661762770513,0.06096208274340733,-0.05246818768643312,-0.996754805106946,0.06679821650735915,0.011226442857039175,0.14405095774120413,0.985559104431651,0.020872296337891217,0.03441185894404987,0.1644496468261687
339,4.390000000000003,0.22313254176441236,0.6518776494825994,1.1266228959154247,0.06699631420371094,-0.05521822355262568,-0.9962187163901882,0.06315433323930739,0.024170697755159058,0.14004372443148963,0.9844929366113199,0.021525093922386915,0.037743039750245566,0.1699278703243403
340,4.400000000000003,0.21600586100950236,0.625197803196218,1.1696189476372114,0.07274916838695816,-0.05824169531502688,-0.9956432665041923,0.05441647812294603,0.027063835427202837,0.1554991525539878,0.9833499698433251,0.022292793183842818,0.04097343610325884,0.17560254532697459
341,4.410000000000003,0.16249297320871364,0.5875255971340788,1.2048839555597575,0.07811799336783233,-0.06104680769160578,-0.9950691256628234,0.03913189999201253,0.020465416576419225,0.18602197058549547,0.9821388525202402,0.02294290389593565,0.04401007018455962,0.18146370708920578
342,4.4200000000000035,0.07113115327221478,0.5507933929343343,1.2280265338077023,0.08306189453867106,-0.0632131823046468,-0.9945342575972098,0.02140209423294854,0.007891977425020909,0.21859458320587227,0.9808728044226234,0.023275885655453514,0.046790635698336254,0.18747398484152852
343,4.430000000000003,-0.023901372979179436,0.5132165605822571,1.243016792237821,0.08760284384701504,-0.06450226301667453,-0.994062525626752,0.004375575188358157,0.0033699681548886072,0.23722247562646642,0.9795647907767351,0.02317820631229957,0.04929606316301959,0.1935834806441345
344,4.440000000000003,-0.0849819258796198,0.4697998512952235,1.2584115521946335,0.09171252459421028,-0.06505678867579198,-0.9936561775738264,-0.010126567009778667,0.010424547145839829,0.23414620565750038,0.978217341412569,0.022728053748292298,0.051518757851846134,0.1997723975002013
345,4.450000000000003,-0.1018494661758344,0.44160155226258185,1.2692687985134727,0.09543605230063525,-0.06529985765625756,-0.9932898205659534,-0.023297797379308746,0.020643792348030567,0.216430320059496,0.9768244042838511,0.02213328279876043,0.05351820738861588,0.2060311183911943
346,4.460000000000003,-0.09535825514201188,0.42832602885966686,1.2712492238257194,0.09894423828962513,-0.06555103118785471,-0.9929300649647533,-0.03625154740030923,0.032775598710713096,0.19478217911336096,0.9753878796840675,0.021539050724942006,0.05540846452754674,0.21230513959900515
347,4.470000000000003,-0.06567526338270242,0.42443876090351207,1.272962024683646,0.10236780126746242,-0.0660316539017366,-0.992551083613777,-0.05227710707149022,0.05213634722635163,0.17437778521935862,0.9739059516016565,0.021042681688872644,0.05727781952840854,0.21856939253162685
348,4.480000000000003,-0.03790328563859998,0.43789511570622236,1.2683049740572834,0.10582204712275357,-0.06685972812616449,-0.9921331371552948,-0.07501723341420875,0.07172229184547378,0.1555240447110612,0.972376255346156,0.020689812589371966,0.05919793053829581,0.22481283699268517
349,4.490000000000003,-0.04359903017172971,0.45863460329994366,1.2508362356429135,0.10945023291266509,-0.0678331112645202,-0.9916731265762679,-0.09915449789499728,0.08100887212048415,0.13324471444163136,0.9708097890273915,0.020367480375807788,0.061216960152563095,0.2309870473351824
350,4.5000000000000036,-0.078449166583605,0.47681842287890086,1.2340158476406864,0.11327407441642519,-0.06862160767690434,-0.9911892418713756,-0.12402270464490375,0.08306552404782941,0.11119020092532646,0.9692160240659387,0.019911894944520253,0.06330653167012684,0.23707643172872
351,4.510000000000003,-0.13640884499510747,0.48682482416204903,1.2123041345479395,0.11722658910939365,-0.0689846523226517,-0.9907042908413555,-0.14828522442533526,0.07834238030341152,0.09392273567298615,0.9676012408920867,0.01921301349634372,0.06540227137797411,0.2430856296938619
352,4.520000000000003,-0.20812525181455188,0.48492186110167346,1.1773857633913969,0.12123630849828282,-0.0687189765050701,-0.9902400030176299,-0.16969029771408434,0.06509122068227419,0.07513649881916871,0.9659837503046395,0.018184417314649415,0.06743862737354812,0.24897095034885935
353,4.530000000000003,-0.2621471673768878,0.47082394150587575,1.1285055695753128,0.12520613055413773,-0.06780567327739685,-0.9898088416518304,-0.19090366355993554,0.053079258780907884,0.04980149157101888,0.9643877000294917,0.016836089439047942,0.06935928701013096,0.25466146393501315
354,4.540000000000003,-0.27576100811776444,0.44717195699030265,1.0634588636812676,0.12903821398381932,-0.06652123670269511,-0.9894038626227701,-0.20821891203175316,0.050197675461270415,0.02459899876313266,0.9628369098230313,0.01532356537197581,0.07114707075269143,0.26007611725319213
355,4.550000000000003,-0.2628347946250486,0.42192050147959714,0.9804373194661405,0.1326901005346307,-0.0651917809888268,-0.9890094388297614,-0.22492077763699253,0.04977886330706117,0.0018869903806356704,0.9613562577630389,0.013820288973171372,0.07282210839216094,0.26512757262998726
356,4.560000000000003,-0.23517945905633897,0.38732968838533555,0.8785656521523224,0.13612268101835112,-0.06396785211602031,-0.9886230621235217,-0.24868918361786557,0.04786695479999691,-0.033605540868935996,0.959978777490424,0.012415530884681624,0.07438606891002225,0.26971699081832756
357,4.570000000000003,-0.18580518041457422,0.3296203080772314,0.7613460780406552,0.13917367977684095,-0.06299547112709468,-0.9882611181107568,-0.2717632637856667,0.04948415087384683,-0.07635586439499642,0.9587422765897253,0.011213243679161211,0.0757824638191514,0.27375178065450295
358,4.580000000000004,-0.10956994440343787,0.2624852330385467,0.6337212051029473,0.1416841263460228,-0.06250205070082397,-0.98793612792264,-0.28730582833809193,0.049956014649455295,-0.11156430878377392,0.9576748780269021,0.01035446526661403,0.07696952185983294,0.2771720078272288
359,4.590000000000003,-0.0030205618827633396,0.1976021222532436,0.4975638358986466,0.1436191548740827,-0.06274942706135471,-0.9876412479528314,-0.29896833292638375,0.047591398806979934,-0.14050732796651022,0.956799568066369,0.00997966560166451,0.07797158147620945,0.2799172743318248
360,4.600000000000003,0.10501714079021221,0.13385192005520782,0.3620604307440503,0.14499279394925121,-0.06389347651717862,-0.9873670954897823,-0.314216299025287,0.04629148868012039,-0.1630223576114883,0.9561298392539428,0.010168407596686031,0.0788216611293248,0.2819549029338494
361,4.610000000000003,0.17862173850589208,0.071555742325729,0.23342046992288218,0.1458339461284971,-0.06575527059389887,-0.9871208029754798,-0.3306725588888864,0.04856233113492017,-0.18431485189484478,0.955661770259775,0.01083058126012376,0.07951117233357764,0.2833209740581831
362,4.620000000000003,0.21437465934166514,0.0027546566230742253,0.1118781436840508,0.14611630249612687,-0.06795815422226814,-0.9869297861896478,-0.3400857949660175,0.054007576267888234,-0.20531527410547923,0.9553903490525383,0.011786850370589796,0.07997416314998404,0.28406728099304723
363,4.6300000000000034,0.2257669623588543,-0.07015263258667345,0.0012701481259844091,0.1457652086790194,-0.07022899452953259,-0.9868226740090521,-0.34265800612363073,0.05282823283083319,-0.21928311606371706,0.9553085966577889,0.01291352355110036,0.0801345470030067,0.28424811122436483
364,4.640000000000003,0.20490108560620726,-0.1328011226407522,-0.11346738489796845,0.14481180903977836,-0.07230000009196419,-0.9868135603368225,-0.3379154096410188,0.040908666919739864,-0.23172815481895592,0.9554113071056938,0.014075227012075588,0.07996725656427245,0.28389445337857355
365,4.650000000000003,0.13354219699328101,-0.18089094683183318,-0.250400305000043,0.14340975372015535,-0.07372002157282943,-0.9869134372290396,-0.3246360769749576,0.028701139197039677,-0.24792165772623193,0.9557176433606935,0.01503710525216768,0.07947894263770239,0.2829490683669961
366,4.660000000000004,0.03738845366372605,-0.21605866331129733,-0.3781399140484545,0.1416902903989764,-0.07411910627355361,-0.9871318506599965,-0.31322858527744774,0.021228121521925887,-0.26186679540765523,0.9562358497355123,0.015602761372990097,0.07867885121157969,0.281386062374677
367,4.6700000000000035,-0.03341686581506122,-0.2292988058829639,-0.4573987121918042,0.13979719071577879,-0.07352812326354484,-0.9874457449830517,-0.3187291551154351,0.010204883287423052,-0.27592732071228204,0.9569137957203403,0.015751957864392603,0.07764457993316583,0.2793521785054075
368,4.680000000000003,-0.035947410021989826,-0.22050061341710023,-0.4989790479197388,0.1379322760901738,-0.0724661441949693,-0.9877865167460301,-0.3364908541982969,0.0008505623215868876,-0.2996148891967118,0.9576713610381284,0.01568738277954198,0.07655298736432702,0.2770511168410071
369,4.690000000000003,0.06927228061663748,-0.21059110926128322,-0.5215974995743686,0.13617587139119716,-0.07186630040123955,-0.9880742187612302,-0.3475851801966694,0.007047307858114403,-0.3326627028395923,0.9584573706328864,0.015838603639781772,0.07557647504364043,0.2745811953822175
370,4.700000000000003,0.285517123141385,-0.20564775485531656,-0.5262235327885173,0.1345092894254589,-0.07285569005538363,-0.9882294775837103,-0.3390339569622455,0.03171038550204638,-0.38194886595628186,0.9592392251735085,0.01674935572669185,0.07486062595105179,0.271979645938321
371,4.7100000000000035,0.5365611998857306,-0.19422318278582196,-0.5247472890768802,0.13294257755635164,-0.0762245136097845,-0.9881851360818974,-0.3034564628494337,0.07612755382987697,-0.46557875051330205,0.9599885383169177,0.01879884808807463,0.07451300321337098,0.2692817205383599
372,4.720000000000003,0.7212213096369514,-0.18788708491754874,-0.5306862219052656,0.131495176687193,-0.08180435373836095,-0.9879300698591603,-0.23819792723987276,0.1346189194793136,-0.5602818003006784,0.9607012070731468,0.021906214568074484,0.07451096254979113,0.26648879369476036
373,4.730000000000003,0.7940372395668442,-0.22075558767989215,-0.5377064040509226,0.12997474244473295,-0.08866284583790783,-0.9875381574247626,-0.1563377279921626,0.17998985690438987,-0.6044182390687278,0.9613937215053084,0.02564879461836062,0.07462676281758002,0.2636079233402801
374,4.740000000000004,0.7460138006575371,-0.30896780294742804,-0.5650993865849135,0.12790032789790465,-0.09564415342387513,-0.9871579783622934,-0.08307574710826249,0.17785899966067112,-0.5620709816719672,0.9621043071774222,0.029531428169098525,0.07446632127887427,0.26063768651193653
375,4.7500000000000036,0.5589624377765765,-0.4300711827581958,-0.6558420858851315,0.12488138098167705,-0.10141001476332952,-0.9869711254054162,-0.0266783854695451,0.132813925952013,-0.4464390919497424,0.9629229503987906,0.03296566910108394,0.0736551354577619,0.2574136014398897
376,4.760000000000003,0.2590877681725363,-0.5485473639710842,-0.7942538819943251,0.1208272583556684,-0.10460859857035386,-0.9871433561549564,0.01825036872782606,0.08732355952470355,-0.3114096650613769,0.9639560992878158,0.03531786093348063,0.07196623537305084,0.253684649122942
377,4.770000000000003,-0.0646774009817776,-0.656711535740204,-0.9260943390048373,0.1158112043515917,-0.1045253578169276,-0.9877517513413622,0.04784393910374917,0.0607828688627546,-0.20922641845531165,0.965234470255376,0.03622329716731992,0.06935118245445847,0.24938457979152084
378,4.780000000000003,-0.32357023918947625,-0.7470013100756219,-1.0378800196225384,0.10992165924569994,-0.10141387542710663,-0.9887451161624117,0.060946526114155186,0.03865481670977754,-0.15542853953203328,0.9667202556995123,0.03577387814255999,0.06590655042221909,0.24457632728572135
379,4.790000000000004,-0.42894688952625737,-0.7885704357323688,-1.1230830118412303,0.10342223637216448,-0.09640809776275928,-0.9899445675958802,0.062103943620608074,0.01876988083006431,-0.12091690278427414,0.9683425489960555,0.034470080027540234,0.06192489937836627,0.23932608651733567
380,4.800000000000003,-0.34340244500118217,-0.7661495539458484,-1.163798717748317,0.09685460983126228,-0.09129895036607638,-0.9910944898179621,0.048183767464793185,0.01840707247518942,-0.08550791102910765,0.9699968665313327,0.03310151985025145,0.05790566409860175,0.2337621117138909
381,4.810000000000003,-0.12267340513035667,-0.6976487993753329,-1.170226592023663,0.09075271484251532,-0.08777689209941934,-0.9919929147612696,0.020566831383246453,0.0430420905695106,-0.062183675409261965,0.9715900671926826,0.03241948459044227,0.05431354076976325,0.22803596644627336
382,4.820000000000004,0.15917214323645332,-0.607913428977786,-1.158905690632043,0.08540653870200456,-0.08685783770062508,-0.9925500029862606,-0.008760942705147977,0.08550236677901199,-0.045852404201847635,0.9730717500824575,0.03288755301619891,0.05139583168088136,0.22225591938247197
383,4.830000000000004,0.4205431449571981,-0.5229966832925107,-1.1411754357451114,0.08089549764257283,-0.08875584248360692,-0.9927595318544387,-0.027811453103487663,0.1281501568126932,-0.028524569360342387,0.9744247913716025,0.0346094328037303,0.049195686515734346,0.21648958798829357
384,4.840000000000003,0.597640758605965,-0.46482311448705205,-1.1260826566236446,0.07711623582518762,-0.09292384245055152,-0.9926776032103143,-0.03656514436434008,0.15166237377841715,-0.010261736742112627,0.9756607289201327,0.037339976050975755,0.04758168980108097,0.21075303747709886
385,4.850000000000003,0.6788305811593679,-0.44267862392499036,-1.1149884352791406,0.07377465971913352,-0.09841014232802901,-0.9924019779373093,-0.038018549076203695,0.15234913335364306,0.01846361846727478,0.9768057262144788,0.04065337897486905,0.04629231508724671,0.20504535724092907
386,4.860000000000003,0.6723183179618306,-0.4441478090690419,-1.106052109039254,0.07056674819187006,-0.1042903819815761,-0.9920348773589528,-0.034344314182282724,0.1361411046931611,0.06602719026817624,0.9778855300398026,0.044131958313446754,0.04507449964877482,0.19937264008538333
387,4.870000000000004,0.5895183796948543,-0.4541229859865106,-1.1052433649467153,0.06733713185216632,-0.10977372332003957,-0.9916687250916644,-0.027318401970861255,0.11598957855754549,0.1221173311637059,0.9789268182533049,0.047403806228142525,0.04377041437070783,0.19372338909946912
388,4.8800000000000034,0.4512136885339603,-0.4702136055386614,-1.113591389343742,0.06402064726355902,-0.11419982988057446,-0.991389909434078,-0.02197537685815954,0.09995051738517545,0.17442691164473884,0.9799594817472952,0.05014983835375509,0.042286167260590896,0.18805976243615083
389,4.890000000000003,0.2975582109530887,-0.49582865719066777,-1.120795531302326,0.060536150519044755,-0.11718911945207125,-0.9912607271934839,-0.017830755691608136,0.08641965239812299,0.21994197025285117,0.9810011782309611,0.0521871213979299,0.04055430511917803,0.18237109627978115
390,4.900000000000004,0.17352100743735327,-0.5193313567143065,-1.1179862068750988,0.056817156248616954,-0.11881801300719502,-0.9912872270738224,-0.012452605852666642,0.07433237551483651,0.25809782598897657,0.9820462924098669,0.053553578797852885,0.03856272033696496,0.17669462029872107
391,4.910000000000004,0.11635114964595708,-0.5423276608564774,-1.1105607065411816,0.05289715833218648,-0.11957936414960953,-0.9914124493999471,-0.0031717593292495856,0.06728387838575348,0.2831419043426954,0.983076182176591,0.05448491861100934,0.03638373479895694,0.1710551304626269
392,4.9200000000000035,0.15427484460526983,-0.5764675957786263,-1.0993839999290993,0.04869140461724494,-0.12030034315839931,-0.9915402804439967,0.01285805857132432,0.07097977428220671,0.28673754943939633,0.9840684517936172,0.05539553023682783,0.034052220387352415,0.16544484655544145
393,4.930000000000003,0.2507889628659912,-0.5961973016864933,-1.0789889475225458,0.04420158714077574,-0.12177727986215935,-0.9915696964778902,0.039282826061272556,0.0884415423735753,0.26315882565316034,0.9849946140963253,0.05667754599883977,0.03163581747062971,0.15988516254613588
394,4.940000000000003,0.36689697493153045,-0.6205735464701634,-1.065219520803971,0.03949127448191981,-0.12439072004626528,-0.9914429554407546,0.0767142466969824,0.11662376293706764,0.2193671443769131,0.9858399271471195,0.05851389802423193,0.02919010817721688,0.154382625737117
395,4.950000000000004,0.46145758973118933,-0.6605675580710595,-1.045806438874485,0.03447050439511212,-0.12813545721083558,-0.9911519987134947,0.11326488206259816,0.13875034545936682,0.20032948853252083,0.9866051184182383,0.06090937298395551,0.026660555079399573,0.1489280870177199
396,4.9600000000000035,0.49344703138577745,-0.6956421743462506,-1.019203725058257,0.029092918480121147,-0.13256217999838624,-0.9907415624209275,0.13534304015632195,0.1321195802233266,0.2250410794742579,0.9872959936730836,0.06364238546390878,0.023984993626920366,0.14356542143522943
397,4.970000000000003,0.44800440172694705,-0.7309833056145618,-1.0028664846188335,0.02339946319661842,-0.13698878412769044,-0.9902901800341023,0.14652040039810324,0.10868230744385884,0.25961914497598776,0.9879347100953462,0.06636910872474755,0.021130153591926087,0.13828917942732505
398,4.980000000000004,0.36380432510390287,-0.7829479394366058,-0.9783602216927647,0.017286910668808966,-0.14081308280209257,-0.9898791838465838,0.1519693930523704,0.09202766775584817,0.2945701630281641,0.9885449297276997,0.06879434365788992,0.018003371579291366,0.13308876808892506
399,4.990000000000004,0.28259462999201024,-0.8414921986569912,-0.9326532494877067,0.010611038458133618,-0.1438615866889562,-0.9895344745875557,0.15668229430109662,0.08492016505311584,0.3202543942898636,0.9891234628009473,0.07083604046177337,0.01453258384849597,0.12804968093012456
400,5.0000000000000036,0.2176184691941281,-0.8867154818418781,-0.8827507238825532,0.003379220309700688,-0.14624797014819158,-0.9892352348808854,0.16800149332862055,0.0782182355964168,0.31895064682074464,0.9896591782008459,0.0725462676616232,0.01073996600985971,0.12323779030203243
401,5.010000000000003,0.18725261038408947,-0.9211934725174167,-0.8392811769053943,-0.004299223162277531,-0.14822330681205756,-0.9889370619416339,0.17826403262456197,0.06842088577771525,0.2871142964724182,0.9901460400741195,0.07404214178492408,0.006699570087620522,0.118637562794311
402,5.020000000000003,0.20202322820597005,-0.9335770329383336,-0.7800433127136517,-0.012276504505338365,-0.15018662986521847,-0.9885735853451849,0.1808868079385937,0.05870900679094751,0.25276864870828475,0.9905683962510565,0.07551433182490432,0.0025132764253483143,0.11426844012470608
403,5.030000000000004,0.2477392719690062,-0.9206864709103063,-0.702104211448944,-0.020335782264442562,-0.15250713589675663,-0.988085169653974,0.17529409335035742,0.05362405324890694,0.22057889968079336,0.990902302918423,0.07713712781998411,-0.0016810645558621375,0.11023688476177677
404,5.040000000000004,0.31686390116357266,-0.8968162404629776,-0.6244868957649601,-0.02829057543157722,-0.15544006251044343,-0.9874319536201316,0.17161765112448807,0.06195364586985625,0.18069896373986594,0.9911357225581042,0.07903298488141865,-0.005772978744854513,0.10659986185988826
405,5.050000000000003,0.3935515299191605,-0.871517029030517,-0.5434172728701961,-0.036089052952378776,-0.15912450465430092,-0.9865901662043337,0.17353823291841325,0.07693598075500989,0.14392146492860866,0.9912663876057047,0.08127533319662864,-0.00973004385392261,0.10336466577417922
406,5.060000000000004,0.4512794194224115,-0.8428338880141039,-0.4640862326622819,-0.043712240968338076,-0.1635005533864741,-0.985565663017123,0.18279693913579798,0.0838718045216498,0.10997396780258736,0.9912986287713994,0.08383972499693132,-0.013546159994706404,0.10054125978800556
407,5.070000000000004,0.46418188873446015,-0.8088650460422472,-0.3932699076407343,-0.0511275884432197,-0.16824247961177993,-0.9844105744820771,0.1975456075457713,0.07996607554240172,0.06921013994165261,0.9912522325000308,0.08656651130318949,-0.01722373703148704,0.098098641957479
408,5.080000000000004,0.0479034937670314,-0.29780339432320857,0.1508160792549615,-0.06924064108849126,-0.15164903049650408,-0.9854013502454857,0.19899240513770972,0.03699718903259774,-0.033686626241016704,0.9931682175577055,0.0776892012201872,-0.028999758207888773,0.06533893592082622
409,5.090000000000003,-0.006078676913778225,-0.2977712523455723,0.18694461491328948,-0.07203524383017709,-0.15194670163101706,-0.9850506461474906,0.20465406549064458,0.028224838237640715,-0.0367969483678112,0.9931655479827171,0.07814692891672345,-0.030225328358742837,0.06643001390536071
410,5.100000000000003,-0.05401588267259233,-0.2896349353885177,0.2356743879882964,-0.07490578703366765,-0.1517820836154043,-0.9846983646209111,0.20503284022342672,0.02067371854886952,-0.047069341688971124,0.9931150165908842,0.07835612828768929,-0.031511640700561186,0.06770590786493336
411,5.110000000000004,-0.08406271838567436,-0.2622413086148892,0.2766876584005712,-0.07774033958547323,-0.15131577740814545,-0.9843529004435564,0.20568245017045225,0.011240473638052376,-0.067817334568053,0.9930205120397888,0.07840079395542823,-0.032793595897067394,0.06918428469108656
412,5.120000000000004,-0.11538518580912814,-0.23180129626353846,0.3093166989555008,-0.08042489384923358,-0.15057172700885985,-0.9840476169280795,0.20978217110808495,-0.00011720526116022756,-0.09525424129674814,0.9928982513781733,0.07829291787355422,-0.034015338620853694,0.07082422076370529
413,5.1300000000000034,-0.14378607375461505,-0.20190700120416832,0.3527156741906272,-0.08295657774327395,-0.14955447014729079,-0.9838032667862977,0.2199022184638339,-0.003714427892042748,-0.1171654921298046,0.9927555998882044,0.07803945121941992,-0.035170574515906425,0.0726465322634632
414,5.140000000000004,-0.18162692489285762,-0.17317777381992794,0.4131944817485111,-0.08535883910988858,-0.14821644723241112,-0.9836460726537174,0.2346345281116613,-0.003539969106781296,-0.1291154379141784,0.9925965785157144,0.07762315910791952,-0.036266536613002595,0.07472815111768381
415,5.150000000000004,-0.24311827384377263,-0.16043848014794215,0.46557859355077413,-0.08772703003178589,-0.1463344495077606,-0.9836191830686424,0.2495619973260917,-0.01154026672844676,-0.14415408490820802,0.9924340852713214,0.0769383698817642,-0.0373618051496183,0.07707512274916557
416,5.160000000000004,-0.3026466903331006,-0.1414887774350293,0.5011063852939233,-0.09009099022205139,-0.14379469042822035,-0.9837348200262053,0.2568825182415336,-0.02555781038151315,-0.14710045061938376,0.99227663255235,0.07592954937297361,-0.038481371965057395,0.07963336192247397
417,5.1700000000000035,-0.3650420327114111,-0.10581757908452066,0.5296428778197846,-0.0923219563424293,-0.14057423033440952,-0.9839830530099629,0.2513592765350253,-0.0438341870165561,-0.12763439529876416,0.9921265282565634,0.07457919297556592,-0.03956346612075612,0.0823363138088333
418,5.180000000000003,-0.4047977250257525,-0.021626386581834356,0.5656944339753536,-0.09406946920951427,-0.13677949423401406,-0.9843709235261794,0.22709188138444145,-0.05621205065743336,-0.09399606963483864,0.991983726477248,0.07292359500032508,-0.040426901674204985,0.085200971542675
419,5.190000000000004,-0.43022588351844626,0.12444131291351526,0.639597408925675,-0.09480647213220351,-0.13257548914359135,-0.9849306335448662,0.17860775493279618,-0.06208478750386423,-0.08338660642022713,0.9918390965888391,0.07102330482465548,-0.040789502297498156,0.08838576200835203
420,5.200000000000004,-0.46060580689207753,0.29309799618626,0.7491558826547416,-0.09409734196383045,-0.12792208082955717,-0.9857132706353736,0.12035387632582395,-0.06999140981867556,-0.12880462427380657,0.9916790678130474,0.06884313390164228,-0.04042367173236839,0.09209163095719833
421,5.2100000000000035,-0.47077871855070835,0.4305105014585828,0.8791163359486991,-0.09203360264703017,-0.12285653651016835,-0.9866908915638869,0.08195906938154036,-0.0766378221512779,-0.18578651299268537,0.9914722365300831,0.06640910555195492,-0.039371953151189396,0.09647465575665334
