time,seconds_elapsed,rotationRateX,rotationRateY,rotationRateZ,gravityX,gravityY,gravityZ,accelerationX,accelerationY,accelerationZ,quaternionW,quaternionX,quaternionY,quaternionZ
1681573973624073200,0.2150732421875,-0.13163088262081146,0.07595168054103851,0.09431527554988861,-0.03289877250790596,-0.2831006646156311,-0.9585257768630981,-0.015822529792785645,0.030918747186660767,0.021926045417785645,0.9895771369881471,0.14304123607930924,-0.016622642572618626,-6.65969066866853e-18
1681573973634118100,0.2251181640625,-0.127387136220932,0.07769632339477539,0.07955549657344818,-0.03251815214753151,-0.28166577219963074,-0.9589613676071167,-0.017606962472200394,0.029163390398025513,0.0158919095993042,0.9896870276223688,0.14230840800505498,-0.016359082745275276,0.0004827879521214738
1681573973644164000,0.2351640625,-0.1304917335510254,0.08520125597715378,0.07203739881515503,-0.03210198134183884,-0.28021809458732605,-0.9593994617462158,-0.020815487951040268,0.032873183488845825,0.014773547649383545,0.9897973496968179,0.14156813530578516,-0.016085588821472388,0.0009148765149895917
1681573973654209000,0.245208984375,-0.1430160403251648,0.09550768882036209,0.06863920390605927,-0.03166057541966438,-0.2786877751350403,-0.9598597288131714,-0.02568194642663002,0.03695806860923767,0.008443713188171387,0.9899132186919555,0.14078517043482397,-0.015800594463047477,0.001342975802770378
1681573973664254200,0.255254150390625,-0.1434563845396042,0.09944558888673782,0.06486363708972931,-0.031138116493821144,-0.2770746946334839,-0.9603437185287476,-0.02869158796966076,0.03764909505844116,0.0025495290756225586,0.9900347961970044,0.13995914818760183,-0.01547846089172499,0.0017493940856709049
1681573973674299100,0.265299072265625,-0.14973585307598114,0.11864058673381805,0.05440407618880272,-0.030503999441862106,-0.2754116654396057,-0.9608423113822937,-0.03411698341369629,0.03285789489746094,0.002544581890106201,0.9901622673226784,0.139074008134185,-0.01540353522295953,-4.940157537460646e-18
1681573973684344300,0.27534423828125,-0.15937063097953796,0.13627484440803528,0.03697475418448448,-0.029653415083885193,-0.27366548776626587,-0.9613677263259888,-0.0395757220685482,0.031157463788986206,-0.0055664777755737305,0.9902947963740384,0.13817866063713738,-0.014926478847365946,0.00032634266058047826
1681573973694389000,0.285388916015625,-0.16238293051719666,0.15476784110069275,0.0348985530436039,-0.028651071712374687,-0.2718542218208313,-0.9619118571281433,-0.04649847745895386,0.033450812101364136,-0.01074439287185669,0.9904320676712182,0.13724911910784385,-0.014378888471954595,0.0006136542902134735
1681573973704434200,0.29543408203125,-0.1715771108865738,0.1692362278699875,0.034838899970054626,-0.02758786268532276,-0.2699810862541199,-0.9624703526496887,-0.051147498190402985,0.03140982985496521,-0.01412266492843628,0.9905727936928669,0.13628799868983005,-0.013799185966026853,0.0009159525639260732
1681573973714480000,0.305480224609375,-0.17587412893772125,0.18125081062316895,0.02336413599550724,-0.02655404806137085,-0.26800811290740967,-0.9630506634712219,-0.055217813700437546,0.024798214435577393,-0.020363032817840576,0.9907189665952515,0.1352756122101941,-0.01323579287543339,0.0012128790974039864
1681573973724525300,0.315525390625,-0.1858968585729599,0.1744605302810669,0.006156653631478548,-0.025786271318793297,-0.26575782895088196,-0.9636948704719543,-0.05496324971318245,0.021128833293914795,-0.02138197422027588,0.9908811220945561,0.13412068723989862,-0.01281378234895469,0.001462865587878008
1681573973734570200,0.3255703125,-0.19475319981575012,0.16752779483795166,-0.014852491207420826,-0.02553902566432953,-0.2630493640899658,-0.9644442796707153,-0.045994192361831665,0.022219806909561157,-0.017870724201202393,0.9910699628984431,0.1327307975830095,-0.012664406150615587,0.0016439322003540858
1681573973744616200,0.3356162109375,-0.20886307954788208,0.14908051490783691,-0.03655139356851578,-0.02579699456691742,-0.2600051462650299,-0.9652625918388367,-0.037526991218328476,0.022395193576812744,-0.01302415132522583,0.9912761004090175,0.13116916289741334,-0.012781317267640419,0.0017434192346692092
1681573973754661000,0.3456611328125,-0.2245435118675232,0.13338197767734528,-0.06105088070034981,-0.0263059101998806,-0.25716331601142883,-0.9660098552703857,-0.0330965630710125,0.015967577695846558,-0.011788547039031982,0.9914645476195146,0.1297112060909934,-0.013041434707018495,0.001717930833979643
1681573973764706000,0.3557060546875,-0.24299214780330658,0.11616532504558563,-0.08807344734668732,-0.027024120092391968,-0.2542206943035126,-0.9667686223983765,-0.030425231903791428,0.007959038019180298,-0.00787121057510376,0.9916562044261743,0.1282008619653981,-0.013425114355731049,0.0015519568124780063
1681573973774752300,0.365752197265625,-0.2545148432254791,0.09818286448717117,-0.1085725873708725,-0.02800803631544113,-0.25106921792030334,-0.9675638675689697,-0.028754672035574913,-0.0026082098484039307,-0.0018117427825927734,0.99185712405015,0.12658289997285654,-0.013958618194724362,0.0012565954691834583
1681573973784797200,0.375797119140625,-0.258023738861084,0.08738546073436737,-0.12159357964992523,-0.02911256067454815,-0.2479948252439499,-0.968323826789856,-0.029282832518219948,-0.012304931879043579,0.008912205696105957,0.992048976794868,0.12500397165089006,-0.014563495545843822,0.0008686097200446361
1681573973794842400,0.38584228515625,-0.25601571798324585,0.07653813809156418,-0.1291140764951706,-0.0302854236215353,-0.2452017217874527,-0.968998908996582,-0.03332848101854324,-0.017707273364067078,0.016682684421539307,0.9922193393947271,0.12356877959451465,-0.01520848781750646,0.00042531699954710315
1681573973804887300,0.39588720703125,-0.23577801883220673,0.06673536449670792,-0.13298845291137695,-0.031382396817207336,-0.24267949163913727,-0.9695987701416016,-0.03378789871931076,-0.0208551287651062,0.024942457675933838,0.9923705925982139,0.1222714172514669,-0.015821056952086666,-0.00007485931294312265
1681573973814933200,0.405933349609375,-0.2167462706565857,0.06187962740659714,-0.13167017698287964,-0.03197955712676048,-0.24035611748695374,-0.9701578617095947,-0.03406049683690071,-0.026428624987602234,0.03662514686584473,0.9925113043879532,0.12107466742197148,-0.016186431140846336,-0.0006230697592133737
1681573973824978200,0.415978271484375,-0.18789507448673248,0.05448692664504051,-0.13073274493217468,-0.032200176268815994,-0.23828944563865662,-0.9706602096557617,-0.0355335995554924,-0.027762874960899353,0.043246328830718994,0.992637311334862,0.12000876911227376,-0.01636387989851905,-0.001194161947761691
1681573973835023000,0.426023193359375,-0.16025198996067047,0.05018379166722298,-0.11856450140476227,-0.03228573501110077,-0.23668010532855988,-0.971051037311554,-0.035371746867895126,-0.030028343200683594,0.05041205883026123,0.9927348831239022,0.11917711078536816,-0.016470768415739308,-0.0017473108102025344
1681573973845069000,0.436069091796875,-0.14181280136108398,0.05543527752161026,-0.10381245613098145,-0.032213520258665085,-0.23550502955913544,-0.9713391065597534,-0.03591698780655861,-0.03703227639198303,0.06336486339569092,0.9928064003966951,0.11856832045002937,-0.01649231568010453,-0.0022511667520389014
1681573973855114200,0.4461142578125,-0.13272476196289062,0.055345531553030014,-0.09015150368213654,-0.031958263367414474,-0.23454676568508148,-0.971579372882843,-0.04003271088004112,-0.04430766403675079,0.07375228404998779,0.9928657965317922,0.11807161635468408,-0.016413547733539417,-0.002687514555028139
1681573973865159200,0.4561591796875,-0.1364007145166397,0.055221397429704666,-0.07413738965988159,-0.03167833015322685,-0.2337271273136139,-0.9717860221862793,-0.042509909719228745,-0.04804176092147827,0.07662922143936157,0.9929168056566373,0.11764699970924775,-0.016314418240797563,-0.0030574027340377332
1681573973875205400,0.466205322265625,-0.1414354145526886,0.054015520960092545,-0.054655831307172775,-0.03149089217185974,-0.23286467790603638,-0.9719991683959961,-0.041156210005283356,-0.05200172960758209,0.0821065902709961,0.992969507575989,0.11720203143691708,-0.016251269404968856,-0.003340968403229368
1681573973885250000,0.47625,-0.14762035012245178,0.058949850499629974,-0.026676926761865616,-0.03132052719593048,-0.23196525871753693,-0.972219705581665,-0.041509684175252914,-0.05728042125701904,0.08597397804260254,0.9930245031719008,0.11674028165550804,-0.016181988590065702,-0.0035022026273003946
1681573973895295200,0.486295166015625,-0.13738875091075897,0.07201851904392242,-0.0005848723230883479,-0.031036946922540665,-0.23099838197231293,-0.9724589586257935,-0.04540959373116493,-0.06331323087215424,0.09083670377731323,0.9930846820788007,0.11624648523990265,-0.016039493112988742,-0.00352785721530156
1681573973905341200,0.496341064453125,-0.14275003969669342,0.07820509374141693,0.026180695742368698,-0.03065292350947857,-0.22998149693012238,-0.9727121591567993,-0.049333661794662476,-0.0668172836303711,0.08478796482086182,0.9931487037018832,0.11572940746071927,-0.01583143328144394,-0.003426146089533162
1681573973915386000,0.50638623046875,-0.1422347128391266,0.08340997993946075,0.0519891232252121,-0.030221732333302498,-0.2289055436849594,-0.9729794263839722,-0.05023787543177605,-0.06612321734428406,0.07696807384490967,0.9932168464020363,0.11518435407472012,-0.015584146145021386,-0.0031911487238766335
1681573973925431300,0.516431396484375,-0.12927965819835663,0.0826558917760849,0.081660196185112,-0.02981986664235592,-0.22791101038455963,-0.9732252359390259,-0.05041085556149483,-0.06418804824352264,0.07573384046554565,0.993279903978785,0.11468324149046667,-0.015334146459043983,-0.002800465393714767
1681573973935476200,0.526476318359375,-0.11093686521053314,0.07871893793344498,0.10109648108482361,-0.029506631195545197,-0.22710253298282623,-0.9734237790107727,-0.0467568039894104,-0.06743794679641724,0.0684555172920227,0.9933310922603684,0.1142787017614517,-0.015116296884574063,-0.0022941486793594625
1681573973945522400,0.5365224609375,-0.09791355580091476,0.07222050428390503,0.11894312500953674,-0.029277656227350235,-0.22644579410552979,-0.9735836386680603,-0.04463592916727066,-0.07369464635848999,0.0611080527305603,0.9933725235088713,0.11395278469351333,-0.014931140844530795,-0.0016968178370628281
1681573973955567000,0.546567138671875,-0.08954323828220367,0.06285815685987473,0.13422061502933502,-0.029125751927495003,-0.22586144506931305,-0.9737239480018616,-0.04376549646258354,-0.07923811674118042,0.05952411890029907,0.9934087322693469,0.11366478305775188,-0.014776689354647576,-0.0010242067269834328
1681573973965612300,0.5566123046875,-0.08329998701810837,0.04736720398068428,0.1490650773048401,-0.02913852222263813,-0.22538653016090393,-0.9738335609436035,-0.041296057403087616,-0.08580128848552704,0.05786377191543579,0.9934368641471855,0.11343356424554547,-0.014698004428447337,-0.0002845575605116956
1681573973975658200,0.566658203125,-0.07256878167390823,0.029922431334853172,0.16171535849571228,-0.029367685317993164,-0.22505277395248413,-0.9739038944244385,-0.03810669109225273,-0.09445106983184814,0.05796462297439575,0.993454379663482,0.11327559976269562,-0.014720508347822467,0.0005269414337664201
1681573973985703200,0.576703125,-0.06824228167533875,0.008928142488002777,0.17663465440273285,-0.029838968068361282,-0.22479663789272308,-0.9739487171173096,-0.037330225110054016,-0.10174150764942169,0.053340256214141846,0.9934648544106224,0.11315853807431846,-0.014858859395525389,0.0013938790006467815
1681573973995748400,0.586748291015625,-0.07053952664136887,-0.013742282055318356,0.19359606504440308,-0.030578231438994408,-0.22453178465366364,-0.9739868640899658,-0.03097573295235634,-0.10009904205799103,0.046008408069610596,0.9934728467043779,0.11303873225162032,-0.015126123494118786,0.002315340546392088
1681573974005794300,0.596794189453125,-0.07549658417701721,-0.041500024497509,0.21708433330059052,-0.03164811059832573,-0.2242661416530609,-0.9740139245986938,-0.025648653507232666,-0.10051725804805756,0.04034388065338135,0.993476645279757,0.11292157009311819,-0.015548792965753159,0.00333588433278898
1681573974015839000,0.6068388671875,-0.08813781291246414,-0.05417826771736145,0.23637628555297852,-0.032945647835731506,-0.22397711873054504,-0.9740374088287354,-0.024763107299804688,-0.10958008468151093,0.03467583656311035,0.9934782364628303,0.11279564033445974,-0.01607633463466715,0.004444632114160615
1681573974025884200,0.61688427734375,-0.10656764358282089,-0.06632450222969055,0.2585601508617401,-0.034450091421604156,-0.22365115582942963,-0.9740602374076843,-0.02734801545739174,-0.11745913326740265,0.033996760845184326,0.9934778968283814,0.11265465588281638,-0.01669752348814247,0.005649342582555488
1681573974035929000,0.62692919921875,-0.11266522109508514,-0.07875959575176239,0.2842748165130615,-0.036172833293676376,-0.22339196503162384,-0.9740572571754456,-0.03186611831188202,-0.12182295322418213,0.03619104623794556,0.9934687225484019,0.11255242752321155,-0.017416017239390208,0.006966963841354455
1681573974045975300,0.636975341796875,-0.10739748924970627,-0.08550497889518738,0.3006833493709564,-0.038065697997808456,-0.22334818542003632,-0.9739951491355896,-0.03250621631741524,-0.11922696232795715,0.043895721435546875,0.9934421398133783,0.11256502291231,-0.01820798284583752,0.008388675666891299
1681573974056020200,0.647020263671875,-0.09046031534671783,-0.08102474361658096,0.3166484832763672,-0.04000172019004822,-0.22371776401996613,-0.9738327264785767,-0.03693310543894768,-0.11730098724365234,0.055970847606658936,0.99338760504319,0.11279250253829666,-0.019012512245003825,0.009877125142586445
1681573974066065400,0.6570654296875,-0.0698181539773941,-0.07017196714878082,0.3254643380641937,-0.04189952090382576,-0.22454707324504852,-0.9735620617866516,-0.048859771341085434,-0.11583080887794495,0.06142216920852661,0.9933027124884334,0.11325843555338604,-0.01978651813356115,0.011440721383008248
1681573974076111000,0.667111083984375,-0.044846225529909134,-0.06393298506736755,0.32847505807876587,-0.043646153062582016,-0.22575654089450836,-0.9732055068016052,-0.05686350539326668,-0.11030310392379761,0.0560760498046875,0.9931934760199962,0.11392035435885674,-0.020478976909956054,0.013022164905686194
1681573974086156000,0.677156005859375,-0.014321149326860905,-0.05005265027284622,0.3328660726547241,-0.04522516578435898,-0.22747869789600372,-0.9727323055267334,-0.05676458775997162,-0.09825074672698975,0.052612125873565674,0.9930520779713796,0.11484558200056826,-0.021079354166024383,0.014625610292354818
1681573974096201200,0.687201171875,-0.009741311892867088,-0.03241799771785736,0.33058398962020874,-0.04662220552563667,-0.2297222912311554,-0.9721388816833496,-0.05729015916585922,-0.09278754889965057,0.048982203006744385,0.9928775968913999,0.11603808425786381,-0.02158033330477563,0.016240131413114214
1681573974106247200,0.6972470703125,-0.010236050002276897,-0.017531249672174454,0.33372095227241516,-0.047948695719242096,-0.23234602808952332,-0.9714505672454834,-0.0612279511988163,-0.09486351907253265,0.045059025287628174,0.9926763788443446,0.11742658846140512,-0.02203864074972839,0.017858894791289638
1681573974116292400,0.707292236328125,0.0017867903225123882,-0.004614120814949274,0.3369385600090027,-0.04879113286733627,-0.23210260272026062,-0.9714668393135071,-0.06593971699476242,-0.09510694444179535,0.04371720552444458,0.9926493136327298,0.11734850749065207,-0.02226902126612554,0.019516555260425866
1681573974126337300,0.717337158203125,0.01990339905023575,0.013552691787481308,0.3310029208660126,-0.04947233945131302,-0.23199889063835144,-0.9714571237564087,-0.06579256802797318,-0.09722481667995453,0.03978604078292847,0.9926127381154726,0.11734100578509755,-0.022416789406488436,0.021177409903552075
1681573974136382200,0.72738232421875,0.034926291555166245,0.02691510319709778,0.3207255005836487,-0.04997497424483299,-0.23205360770225525,-0.9714183807373047,-0.067105732858181,-0.10081696510314941,0.03301811218261719,0.9925667363184407,0.11741237507782395,-0.022475597086612367,0.02281664784257521
1681573974146428200,0.73742822265625,0.046181343495845795,0.034479811787605286,0.30880919098854065,-0.05036229267716408,-0.23224636912345886,-0.9713522791862488,-0.07076199352741241,-0.0992661714553833,0.020790815353393555,0.9925122654189094,0.11755208800183897,-0.022480210946995507,0.024408431910498858
1681573974156473000,0.74747314453125,0.06487912684679031,0.03750569373369217,0.2980886399745941,-0.05065774917602539,-0.23259079456329346,-0.9712545275688171,-0.0685744434595108,-0.0956258475780487,0.0021077990531921387,0.9924485712442774,0.11776703614090676,-0.022442563584869745,0.02594770396998
1681573974166518300,0.757518310546875,0.08077314496040344,0.03932584822177887,0.2847009301185608,-0.05090615525841713,-0.23309265077114105,-0.9711211919784546,-0.06156638637185097,-0.09112615883350372,-0.021783411502838135,0.9923751925531756,0.11806046358138585,-0.022385863456339205,0.027425802433852092
1681573974176564200,0.767564208984375,0.09252221137285233,0.03949948400259018,0.2668774724006653,-0.05109108239412308,-0.23376356065273285,-0.970950186252594,-0.062052853405475616,-0.09053155779838562,-0.04385077953338623,0.992292399632978,0.11843757118668342,-0.022303349245163855,0.02882612813719096
1681573974186609200,0.777609130859375,0.1049460843205452,0.039736416190862656,0.2509157955646515,-0.051251910626888275,-0.2345457673072815,-0.9707530736923218,-0.06407403200864792,-0.09116841852664948,-0.06478464603424072,0.9922033907466906,0.1188694648315741,-0.022215170291919748,0.030150625393596156
1681573974196654000,0.787654052734375,0.1111413985490799,0.02864088863134384,0.2299671173095703,-0.05142596364021301,-0.23543798923492432,-0.9705278873443604,-0.06566999852657318,-0.08757539093494415,-0.08444952964782715,0.9921085870191634,0.11935563152152916,-0.022142799771471496,0.03137614593792843
1681573974206700000,0.797699951171875,0.10914554446935654,0.01819564774632454,0.20358450710773468,-0.051640890538692474,-0.2363574206829071,-0.9702929258346558,-0.06560765951871872,-0.08329902589321136,-0.10491758584976196,0.9920140562525526,0.11985372587977666,-0.022104612874814862,0.03247591136781148
1681573974216745200,0.8077451171875,0.10899641364812851,0.006155761890113354,0.1841072142124176,-0.05191148817539215,-0.23727352917194366,-0.9700548648834229,-0.06468093395233154,-0.0849769115447998,-0.11882752180099487,0.9919216298913635,0.1203485812289034,-0.022108294068633547,0.033453234505951064
1681573974226790100,0.8177900390625,0.1032632365822792,0.00019356561824679375,0.16642676293849945,-0.05223594233393669,-0.23816658556461334,-0.9698185920715332,-0.0649820864200592,-0.09185057878494263,-0.1234583854675293,0.9918318267769793,0.12083085809329426,-0.02214967687332663,0.034339048199886674
1681573974236835300,0.82783544921875,0.1038653776049614,-0.008744535967707634,0.1565919667482376,-0.05258379131555557,-0.23904328048229218,-0.969584047794342,-0.06387130916118622,-0.0964975655078888,-0.12337243556976318,0.9917442760660435,0.12130378381542196,-0.02221168136606571,0.03514801707590379
1681573974246881300,0.83788134765625,0.11154193431138992,-0.009018456563353539,0.15727214515209198,-0.05298931524157524,-0.2399597316980362,-0.9693355560302734,-0.05992574244737625,-0.10025030374526978,-0.12418550252914429,0.9916535792594684,0.1217978571142886,-0.02230453858067227,0.035930695433176014
1681573974256926200,0.84792626953125,0.1306155025959015,-0.010248037055134773,0.15583190321922302,-0.05339408665895462,-0.2410091608762741,-0.9690529704093933,-0.05205942317843437,-0.10496869683265686,-0.12340003252029419,0.9915538598033334,0.12236008801120041,-0.02239478222555652,0.03670650013448574
1681573974266971100,0.85797119140625,0.1646910160779953,-0.00987561047077179,0.1673830896615982,-0.05379808694124222,-0.24230755865573883,-0.9687067866325378,-0.043491970747709274,-0.10843104124069214,-0.12647753953933716,0.991436451678615,0.12305062058919361,-0.0224757287784982,0.03751127926714682
1681573974277017000,0.86801708984375,0.1952420026063919,0.0037531168200075626,0.17884400486946106,-0.054169345647096634,-0.24390974640846252,-0.9682838916778564,-0.03437742590904236,-0.10762231051921844,-0.12735813856124878,0.9912962254474531,0.12389798121220674,-0.022524126589187135,0.038391188815020905
1681573974287062300,0.878062255859375,0.20248259603977203,0.030829740688204765,0.1788613200187683,-0.05451926589012146,-0.24582591652870178,-0.9677795767784119,-0.021561075001955032,-0.09374326467514038,-0.12171322107315063,0.9911325603942117,0.12490717083453949,-0.022548140895823264,0.039320684823058054
1681573974297107200,0.888107177734375,0.19403505325317383,0.07157504558563232,0.21758314967155457,-0.05438960716128349,-0.2475747913122177,-0.9673409461975098,-0.019173037260770798,-0.07643041014671326,-0.11171483993530273,0.9909811313552144,0.12582250193222977,-0.022321006665756125,0.04033544478399235
1681573974307153200,0.898153076171875,0.19471459090709686,0.09735073894262314,0.29275593161582947,-0.05409467965364456,-0.24924345314502716,-0.9669288992881775,-0.03347552940249443,-0.06704080104827881,-0.1253867745399475,0.9908217808711839,0.12670013363824012,-0.021968942415584725,0.04167346636524629
1681573974317198300,0.9081982421875,0.17918196320533752,0.11430948227643967,0.3195185661315918,-0.053739145398139954,-0.25088414549827576,-0.9665243029594421,-0.03712696209549904,-0.0637674331665039,-0.15318083763122559,0.9906499024295893,0.127567849661977,-0.02154732355881955,0.04330023643223524
1681573974327243000,0.918242919921875,0.13075268268585205,0.1415029615163803,0.3427780866622925,-0.05322409048676491,-0.2521313428878784,-0.9662282466888428,-0.019117843359708786,-0.07077521085739136,-0.14430642127990723,0.9904978743847697,0.1282315294287874,-0.021037186746205597,0.045033829826525255
1681573974337288200,0.9282880859375,0.05874134227633476,0.1818503886461258,0.4011697471141815,-0.05246715247631073,-0.2528213560581207,-0.9660893082618713,-0.005439966917037964,-0.08332982659339905,-0.11728471517562866,0.9903714789754706,0.1286070901170577,-0.020385309157488558,0.047000114814857365
1681573974347334100,0.938334228515625,-0.08744451403617859,0.20030523836612701,0.4393661320209503,-0.05153466388583183,-0.2524262070655823,-0.9662428498268127,0.002553936094045639,-0.11122134327888489,-0.09573835134506226,0.990302788677167,0.12842488285083195,-0.019637641153458642,0.04921259624934814
1681573974357379000,0.948379150390625,-0.23930354416370392,0.20131750404834747,0.4808656573295593,-0.05059577152132988,-0.2505112290382385,-0.9667906761169434,0.020108696073293686,-0.13262179493904114,-0.07002878189086914,0.9903190224933092,0.12746514877227075,-0.018902398480081097,0.05161004265323354
1681573974367424300,0.95842431640625,-0.3421536386013031,0.20400501787662506,0.5358063578605652,-0.049754686653614044,-0.2473110556602478,-0.9676578640937805,0.04235415533185005,-0.12442365288734436,-0.023949801921844482,0.9903975773518433,0.12585256764435376,-0.018226465616885672,0.05423723853231053
1681573974377470200,0.96847021484375,-0.3898410201072693,0.21740365028381348,0.5562599897384644,-0.048901475965976715,-0.24336540699005127,-0.968701183795929,0.05907906964421272,-0.1153840571641922,0.017102062702178955,0.9905027892269189,0.12386035142396333,-0.017550897213484046,0.05705235483054254
1681573974387515400,0.978515380859375,-0.3462768495082855,0.24593068659305573,0.570938766002655,-0.04786450415849686,-0.23937198519706726,-0.9697474241256714,0.06754831969738007,-0.09499393403530121,0.05524241924285889,0.990595352461152,0.12183821484060198,-0.016785151167591827,0.059956222219043745
1681573974397560000,0.98856005859375,-0.24225109815597534,0.3010445535182953,0.5955749154090881,-0.046433545649051666,-0.23613394796848297,-0.970610499382019,0.058091241866350174,-0.0566975474357605,0.07479751110076904,0.9906245371723371,0.12018871485076521,-0.015793545678395172,0.062995083316594
1681573974407606000,0.99860595703125,-0.10468757152557373,0.3504001796245575,0.6125280261039734,-0.044525716453790665,-0.23408593237400055,-0.9711957573890686,0.04710443690419197,-0.011229678988456726,0.05916273593902588,0.9905646151516949,0.1191276426225994,-0.014516100462063912,0.06617879068669212
1681573974417651200,1.008651123046875,0.02873680181801319,0.36941275000572205,0.6231313943862915,-0.0422818623483181,-0.23337654769420624,-0.9714667201042175,0.04501316696405411,0.02930542826652527,0.033859968185424805,0.9904080058570766,0.118731449066889,-0.013018135112415978,0.06946488421672022
1681573974427696000,1.018696044921875,0.13595996797084808,0.35180506110191345,0.6080496907234192,-0.0400426872074604,-0.23387624323368073,-0.9714414477348328,0.05669000744819641,0.05794234573841095,0.014364480972290039,0.9901651966259676,0.11894317755365252,-0.011480281222720826,0.07275716213411669
1681573974437741300,1.0287412109375,0.18058016896247864,0.30064839124679565,0.5655858516693115,-0.03809267282485962,-0.23516209423542023,-0.9712094068527222,0.07858948409557343,0.06789517402648926,0.015032708644866943,0.9898722603713943,0.11955648678778658,-0.01007649617563544,0.07587955632062565
1681573974447787300,1.038787353515625,0.1705056130886078,0.24334321916103363,0.5089502334594727,-0.03656560927629471,-0.23665572702884674,-0.9709052443504333,0.09226016700267792,0.07192178070545197,0.043048858642578125,0.9895738101990278,0.12028312107243551,-0.008907371321839146,0.07871681497465952
1681573974457832200,1.048832275390625,0.1353609412908554,0.1835147738456726,0.4408266246318817,-0.03547881543636322,-0.23791562020778656,-0.9706376194953918,0.09591885656118393,0.07205250859260559,0.08222520351409912,0.9893047330207587,0.12090110124121457,-0.008006725085469783,0.08120948598268053
1681573974467877000,1.058877197265625,0.09855267405509949,0.1480412632226944,0.3627139627933502,-0.0347144678235054,-0.23884862661361694,-0.9704360961914062,0.08491586148738861,0.06791959702968597,0.11597448587417603,0.9890793247605918,0.12136004487248678,-0.007327047128275331,0.08330750488742149
1681573974477923000,1.068923095703125,0.08162534981966019,0.13139010965824127,0.29745054244995117,-0.03401710093021393,-0.23951609432697296,-0.9702962636947632,0.06816625595092773,0.05573916435241699,0.12918609380722046,0.9888978293330994,0.12168182567223415,-0.006737365733035948,0.08502489155861524
1681573974487968300,1.07896826171875,0.10220801085233688,0.12803150713443756,0.25400054454803467,-0.03330529108643532,-0.24026726186275482,-0.9701352715492249,0.051875218749046326,0.04730454087257385,0.12185341119766235,0.9887322498629549,0.12204224755481304,-0.006169834120414772,0.08646458293511754
1681573974498013200,1.08901318359375,0.09720686078071594,0.13149335980415344,0.22106550633907318,-0.032500412315130234,-0.24111813306808472,-0.9699514508247375,0.04554665833711624,0.04722462594509125,0.09325772523880005,0.9885755030908833,0.12244682163436943,-0.005573174146628504,0.08771729049166238
1681573974508059100,1.09905908203125,0.10964348167181015,0.134531632065773,0.22736068069934845,-0.03163677453994751,-0.2419877052307129,-0.9697633981704712,0.05009989067912102,0.06095735728740692,0.05046719312667847,0.988422608180891,0.12285662484725063,-0.004954155878065962,0.08889701998501366
1681573974518104000,1.10910400390625,0.13516481220722198,0.1411900669336319,0.26605722308158875,-0.030793679878115654,-0.24304477870464325,-0.9695261716842651,0.05815266817808151,0.08125577867031097,0.027433335781097412,0.9882447137288204,0.12336226585879544,-0.004320728611370775,0.09019696739288763
1681573974528149200,1.119149169921875,0.13920053839683533,0.1658843457698822,0.30274996161460876,-0.029890473932027817,-0.24428193271160126,-0.9692434668540955,0.06968537718057632,0.08723840117454529,0.01849883794784546,0.9880343392780853,0.12395625821118654,-0.0036210487297386345,0.09170587330444382
1681573974538194200,1.129194091796875,0.10218978673219681,0.18721121549606323,0.33724668622016907,-0.028836673125624657,-0.24535532295703888,-0.969004213809967,0.07462827861309052,0.0870911031961441,0.023050904273986816,0.9878149103426695,0.12445835252971275,-0.00282810561429274,0.09340226582225637
1681573974548240100,1.139240234375,0.019125642254948616,0.2030981481075287,0.3737700879573822,-0.027705160900950432,-0.24584494531154633,-0.9689131379127502,0.07041449099779129,0.08278945088386536,0.04137718677520752,0.9876121408905472,0.12465723141436821,-0.001999511915763377,0.09528398550131176
1681573974558285300,1.149285400390625,-0.11196286976337433,0.20490537583827972,0.3927890658378601,-0.02654578536748886,-0.24526526033878326,-0.9690924882888794,0.07102513313293457,0.06922455132007599,0.06719130277633667,0.9874605409303703,0.12430739499610834,-0.0011922951421722459,0.09730353144661683
1681573974568330200,1.159330322265625,-0.25399208068847656,0.2040441930294037,0.4098284840583801,-0.025432763621211052,-0.2433156818151474,-0.9696136713027954,0.07065979391336441,0.04899491369724274,0.09581911563873291,0.9873824774629341,0.12325967059233277,-0.00046875363185212073,0.09941242543333419
1681573974578376200,1.169376220703125,-0.35740235447883606,0.20940007269382477,0.4290919303894043,-0.024345437064766884,-0.24017353355884552,-0.9704246520996094,0.06403352320194244,0.03367626667022705,0.12954330444335938,0.9873642202845972,0.12160445653779899,0.0001857496351012653,0.10160911540845985
1681573974588421000,1.179421142578125,-0.4200420081615448,0.22668896615505219,0.43784016370773315,-0.023162223398685455,-0.23620536923408508,-0.9714270830154419,0.047484710812568665,0.021743029356002808,0.1571875810623169,0.9873805581190781,0.11952301072854174,0.0008469539186586599,0.1038911051891526
1681573974598464800,1.18946484375,-0.43510961532592773,0.24502216279506683,0.44254595041275024,-0.021802280098199844,-0.2318660318851471,-0.9725033640861511,0.025510143488645554,0.021843984723091125,0.17564362287521362,0.9874063898959863,0.11724267400899871,0.0015709427066701598,0.1062096156662271
1681573974608510700,1.1995107421875,-0.4152533710002899,0.27174273133277893,0.4439385235309601,-0.020211633294820786,-0.22756783664226532,-0.9735524654388428,0.0013822652399539948,0.03509339690208435,0.18677878379821777,0.9874165401452163,0.11496950651851903,0.002405382363407617,0.10855861750214789
1681573974618556000,1.209555908203125,-0.37284332513809204,0.29554420709609985,0.42455044388771057,-0.018332423642277718,-0.22355754673480988,-0.9745182991027832,-0.016930660232901573,0.049225807189941406,0.18814140558242798,0.9874029618690732,0.11282452728278947,0.0033865354362357008,0.11088091780383341
1681573974628600800,1.219600830078125,-0.2928065359592438,0.3161837160587311,0.3976280093193054,-0.016176236793398857,-0.2201920449733734,-0.975322425365448,-0.036405570805072784,0.053459182381629944,0.185802161693573,0.9873549787092705,0.11098806132804304,0.004521728613298431,0.11309928230463935
1681573974638645800,1.229645751953125,-0.21746757626533508,0.34332531690597534,0.3556385040283203,-0.013700325973331928,-0.21760746836662292,-0.9759402275085449,-0.05841273069381714,0.04509150981903076,0.18597745895385742,0.9872736306480181,0.10952546264192513,0.005836670408534465,0.11515636199335434
1681573974648692000,1.23969189453125,-0.150247260928154,0.3624907433986664,0.3023068308830261,-0.010855103842914104,-0.21574053168296814,-0.9763903617858887,-0.08225405216217041,0.03121592104434967,0.18337589502334595,0.9871724237288124,0.10840115021408023,0.0073481834552066964,0.1169865430287362
1681573974658736600,1.249736572265625,-0.1099320575594902,0.3774265646934509,0.24315136671066284,-0.007736471481621265,-0.2144361436367035,-0.976707398891449,-0.1032254621386528,0.015949741005897522,0.18007653951644897,0.9870674033251139,0.10754245847451577,0.00899623901320715,0.11854043639502108
1681573974668781800,1.25978173828125,-0.10415060073137283,0.3792325556278229,0.19240322709083557,-0.004407444503158331,-0.2133617252111435,-0.9769633412361145,-0.11978386342525482,-0.004152357578277588,0.17732656002044678,0.9869769121796544,0.10678560361215836,0.010731732907826357,0.11982602924963448
1681573974678827800,1.269827880859375,-0.08709119260311127,0.36247754096984863,0.14862751960754395,-0.0010413354029878974,-0.21239237487316132,-0.9771839380264282,-0.13013850152492523,-0.01705409586429596,0.17386972904205322,0.986905901850215,0.10607872851895817,0.012463884157162835,0.12086634817805784
1681573974688872700,1.279872802734375,-0.056419260799884796,0.34020373225212097,0.10696369409561157,0.002200745977461338,-0.21165157854557037,-0.9773427248001099,-0.13206832110881805,-0.026629745960235596,0.15892231464385986,0.986845341921008,0.10549489168809029,0.014123506515541643,0.12168687442266067
1681573974698918000,1.28991796875,-0.009275713935494423,0.3191695511341095,0.062151480466127396,0.005315395537763834,-0.21131065487861633,-0.9774044752120972,-0.12985765933990479,-0.036339566111564636,0.13400548696517944,0.9867878070885484,0.1051220469716075,0.015719587859097613,0.12227881919549971
1681573974708963800,1.2999638671875,0.04680090770125389,0.3048056662082672,0.020144641399383545,0.008355816826224327,-0.21147330105304718,-0.9773480892181396,-0.13036511838436127,-0.03867936134338379,0.09961676597595215,0.986728868070449,0.1050103546119813,0.01728568381118404,0.12263909630198351
1681573974719008800,1.3100087890625,0.09725183248519897,0.2824140787124634,-0.01171661913394928,0.01130464393645525,-0.21217986941337585,-0.9771652221679688,-0.13152866065502167,-0.039254531264305115,0.07039648294448853,0.9866618430547207,0.10518162751861576,0.01882026318064514,0.1228057955131039
1681573974729053700,1.3200537109375,0.12093441188335419,0.2643325924873352,-0.04391476884484291,0.01411345787346363,-0.21324194967746735,-0.9768974781036377,-0.13305574655532837,-0.044173866510391235,0.04840022325515747,0.9865956127819053,0.1055444258794727,0.020288761558072695,0.1227925996675246
1681573974739099000,1.330098876953125,0.12470678240060806,0.2370322346687317,-0.07667377591133118,0.016780728474259377,-0.2144172042608261,-0.9765980243682861,-0.13677586615085602,-0.05314573645591736,0.03290295600891113,0.9865424600965587,0.10597713699654786,0.021675843399234937,0.12260923555025253
1681573974749144800,1.340144775390625,0.12488962709903717,0.21031318604946136,-0.10971428453922272,0.01923942007124424,-0.2156076282262802,-0.9762905240058899,-0.14506341516971588,-0.06393344700336456,0.024523615837097168,0.9865098253921976,0.10643533580718088,0.02294025869872753,0.12224399013079576
1681573974759189800,1.350189697265625,0.14481139183044434,0.17796750366687775,-0.1324174702167511,0.0214795283973217,-0.2168630063533783,-0.975965678691864,-0.1567029356956482,-0.07729600369930267,0.009428262710571289,0.9864906735467741,0.10694445808692152,0.02408379669127964,0.12173306701600152
1681573974769235000,1.36023486328125,0.18991869688034058,0.15288904309272766,-0.1564096212387085,0.023480895906686783,-0.21843218803405762,-0.9755696058273315,-0.17017892003059387,-0.08396655321121216,-0.017426609992980957,0.9864706192786343,0.10763164784243066,0.02511237737203126,0.12108124877035407
1681573974779280600,1.37028076171875,0.24050596356391907,0.1241506040096283,-0.1828087419271469,0.025271272286772728,-0.2204781174659729,-0.9750645160675049,-0.18222320079803467,-0.08352281153202057,-0.04252886772155762,0.9864397361012156,0.10857798220780418,0.02604943801813675,0.12028741496051547
1681573974789325800,1.380325927734375,0.2667686641216278,0.09390685707330704,-0.20387646555900574,0.026827372610569,-0.22290094196796417,-0.9744718670845032,-0.1874566674232483,-0.0821070671081543,-0.07061779499053955,0.9864027166233824,0.10973470913349494,0.026876538447862995,0.11935516010922773
1681573974799370800,1.390370849609375,0.27899736166000366,0.06506988406181335,-0.20548608899116516,0.028115399181842804,-0.22549358010292053,-0.9738388657569885,-0.1917201578617096,-0.08477869629859924,-0.0988234281539917,0.9863651042208065,0.11099787771421667,0.02756863390710722,0.11833594352813044
1681573974809416700,1.400416748046875,0.26588210463523865,0.029833868145942688,-0.20860224962234497,0.029132893308997154,-0.2280956208705902,-0.9732027649879456,-0.1969033032655716,-0.09514664113521576,-0.11883819103240967,0.9863286261895402,0.11228454907904861,0.028120924263896136,0.11729152528052866
1681573974819462000,1.4104619140625,0.24092614650726318,-0.02623819001019001,-0.19475461542606354,0.029696643352508545,-0.23046930134296417,-0.9726263284683228,-0.20027466118335724,-0.1095881462097168,-0.14478999376296997,0.9863065083448749,0.11348387583787577,0.028429471457812067,0.1162442795349778
1681573974829506800,1.4205068359375,0.23276187479496002,-0.0937037244439125,-0.1849304735660553,0.029636725783348083,-0.23268413543701172,-0.9721006751060486,-0.19463002681732178,-0.10799892246723175,-0.16921091079711914,0.9862915115352777,0.11463876487040206,0.02841845010491416,0.11523600633928936
1681573974839551700,1.4305517578125,0.23215654492378235,-0.16308200359344482,-0.19222114980220795,0.02890564315021038,-0.23486684262752533,-0.9715976715087891,-0.17242982983589172,-0.09490618109703064,-0.19171714782714844,0.9862852858545021,0.11581715390054535,0.028063338349931105,0.11419410159062936
1681573974849597700,1.44059765625,0.22416870296001434,-0.2551180124282837,-0.20377899706363678,0.027415283024311066,-0.23701059818267822,-0.9711201786994934,-0.15134719014167786,-0.08450742065906525,-0.2005106806755066,0.98629482686714,0.11702112103684127,0.027312478839093463,0.11306091451381685
1681573974859642600,1.450642578125,0.18918514251708984,-0.35013508796691895,-0.2586475610733032,0.02509123831987381,-0.23895320296287537,-0.9707068800926208,-0.1341305673122406,-0.0804591029882431,-0.19393545389175415,0.9863424134924481,0.11817403552994714,0.026104963554376585,0.11172347194078965
1681573974869687800,1.460687744140625,0.1407899111509323,-0.4233867824077606,-0.3214542269706726,0.022061705589294434,-0.2404492050409317,-0.9704110026359558,-0.11726131290197372,-0.07391242682933807,-0.1715567708015442,0.986459469071435,0.11914583384520384,0.024470019544507882,0.11001500465675361
1681573974879733800,1.470733642578125,0.12135842442512512,-0.44974327087402344,-0.3428327441215515,0.01866791397333145,-0.24159878492355347,-0.9701966643333435,-0.11795687675476074,-0.05741250514984131,-0.149813711643219,0.9866194537085611,0.11996186483264565,0.02260144312867353,0.10807656649058246
1681573974889779000,1.480779052734375,0.12221257388591766,-0.4549846947193146,-0.36758044362068176,0.015210309065878391,-0.24267616868019104,-0.9699881076812744,-0.1299564242362976,-0.03700222074985504,-0.1580330729484558,0.9867878045047763,0.12074031318519032,0.02068145502404825,0.10603793300229233
1681573974899823600,1.49082373046875,0.13781523704528809,-0.4380006492137909,-0.4084618389606476,0.011876032687723637,-0.24386116862297058,-0.9697374701499939,-0.12767499685287476,-0.012135609984397888,-0.1840253472328186,0.9869612965872139,0.12156373206927124,0.018802610281533468,0.10380918666837353
1681573974909869600,1.50086962890625,0.18096229434013367,-0.3938058018684387,-0.39672714471817017,0.008903617970645428,-0.24529336392879486,-0.9694080352783203,-0.122841015458107,0.01845613121986389,-0.2005596160888672,0.9871167556112006,0.12248827669767363,0.017106078779703847,0.1015108408983971
1681573974919914800,1.510914794921875,0.27484938502311707,-0.3339398205280304,-0.344769150018692,0.006365861743688583,-0.24744482338428497,-0.9688810706138611,-0.12562857568264008,0.055092453956604004,-0.22707223892211914,0.9871955863444822,0.12374718235383325,0.015687467357019123,0.09942584108421275
1681573974929959700,1.520959716796875,0.3471205234527588,-0.26911216974258423,-0.34860488772392273,0.004384666681289673,-0.25043290853500366,-0.9681240320205688,-0.10654228180646896,0.08969676494598389,-0.24951207637786865,0.9871947993584342,0.12539782714548492,0.014607157307753655,0.09751186747501553
1681573974940004900,1.5310048828125,0.3637985587120056,-0.19384218752384186,-0.3600998818874359,0.0031266603618860245,-0.25384843349456787,-0.9672389626502991,-0.06802231073379517,0.11647346615791321,-0.2545627951622009,0.9871623752204278,0.1272295044287961,0.013898676401872968,0.09555110893190037
1681573974950050800,1.54105078125,0.35665658116340637,-0.11032460629940033,-0.3259911835193634,0.002647411311045289,-0.2573133409023285,-0.9663243889808655,-0.04476168751716614,0.13821843266487122,-0.25509583950042725,0.9871070273330711,0.12904671315473903,0.013592180735024438,0.09371204574522046
1681573974960096000,1.551095947265625,0.27212467789649963,-0.056372154504060745,-0.3205394446849823,0.0028177492786198854,-0.2603788673877716,-0.9655024409294128,-0.02895607240498066,0.13632482290267944,-0.27862292528152466,0.9870563496315645,0.1306277876382014,0.013607844991314143,0.09203887906886428
1681573974970140700,1.561140625,0.10225842148065567,-0.052148617804050446,-0.3634198009967804,0.0033222888596355915,-0.2621268630027771,-0.9650276899337769,0.005588825326412916,0.11591705679893494,-0.29418855905532837,0.987096490680597,0.1315220238446646,0.01371492521991374,0.09030282408717108
1681573974980186600,1.5711865234375,-0.05174446105957031,-0.07373806089162827,-0.4151783287525177,0.003876464208588004,-0.2622697651386261,-0.9649868011474609,0.04478379711508751,0.11427471041679382,-0.2522525191307068,0.9872651032115806,0.1315975285512676,0.013736323248436804,0.08832354652299258
1681573974990231800,1.581231689453125,-0.12972459197044373,-0.09099102765321732,-0.4667232632637024,0.00438318308442831,-0.2612471282482147,-0.9652619957923889,0.06068027764558792,0.11660897731781006,-0.18529647588729858,0.9875327618335572,0.13108317296210859,0.013645601145544833,0.08608188512154596
1681573975000276700,1.59127685546875,-0.14216101169586182,-0.09191887080669403,-0.5152319669723511,0.004941536113619804,-0.25977519154548645,-0.9656564593315125,0.05629196763038635,0.1259250044822693,-0.15136313438415527,0.9878463797064414,0.13034062508792346,0.013530809434870393,0.083593223847562
1681573975010322700,1.60132275390625,-0.09032529592514038,-0.10223548859357834,-0.5745624303817749,0.005612520035356283,-0.25850167870521545,-0.9659944772720337,0.042452648282051086,0.1589074730873108,-0.16062289476394653,0.9881623186159003,0.1296992308795124,0.013448310476647445,0.08082433176962217
1681573975020368000,1.611367919921875,-0.020902009680867195,-0.1305725872516632,-0.6396157145500183,0.0062467725947499275,-0.2578136622905731,-0.9661744832992554,0.040277257561683655,0.18609729409217834,-0.17495405673980713,0.9884557467829809,0.1293637837129075,0.013333302796078871,0.07773422500052338
1681573975030412800,1.621412841796875,0.04117509350180626,-0.16107670962810516,-0.6909734606742859,0.006763350684195757,-0.2577601969242096,-0.9661852717399597,0.04441461339592934,0.18711191415786743,-0.17358523607254028,0.988721278464928,0.12936235107675498,0.013143621143834893,0.07431607877632086
1681573975040458800,1.631458740234375,0.08068282157182693,-0.19637531042099,-0.7278323769569397,0.007098267320543528,-0.25818946957588196,-0.9660682082176208,0.03980723395943642,0.17507478594779968,-0.15516281127929688,0.9889602249079001,0.12961786405014622,0.012848946187940356,0.07065355649606693
1681573975050503700,1.641503662109375,0.07920940965414047,-0.22521935403347015,-0.7497121095657349,0.007200177758932114,-0.25879743695259094,-0.9659047722816467,0.03482251241803169,0.17034214735031128,-0.1275094747543335,0.9891851717758758,0.12997444290733592,0.012419708305617363,0.06682315627255994
1681573975060548900,1.651548828125,0.04228627681732178,-0.25990062952041626,-0.7662056088447571,0.007060087285935879,-0.259207546710968,-0.9657958149909973,0.03407759219408035,0.16417574882507324,-0.09029543399810791,0.9894161716796741,0.1302374262989269,0.011844505308075575,0.06287824990113815
1681573975070593800,1.66159375,-0.02945425733923912,-0.29426729679107666,-0.7849798202514648,0.00663357600569725,-0.2590731978416443,-0.96583491563797,0.033176589757204056,0.1496829092502594,-0.050217270851135254,0.9896754123373049,0.13022871018164517,0.011091760499066445,0.05882308592760108
1681573975080639700,1.6716396484375,-0.12634405493736267,-0.3245495557785034,-0.7890944480895996,0.005916380789130926,-0.25811612606048584,-0.9660958051681519,0.030384264886379242,0.11845234036445618,-0.010542988777160645,0.9899780620879904,0.12980329856495754,0.010159319484461311,0.05469285478867367
1681573975090685000,1.681684814453125,-0.20830126106739044,-0.3502039313316345,-0.7839998006820679,0.004915065597742796,-0.2562656104564667,-0.9665939211845398,0.027036825194954872,0.0940646231174469,0.031871020793914795,0.9903239999580888,0.12892213152133852,0.009062477554213879,0.0505518805994291
1681573975100729600,1.6917294921875,-0.2728773355484009,-0.3653181791305542,-0.7748925685882568,0.0036517255939543247,-0.2537287771701813,-0.9672685265541077,0.023753046989440918,0.08299809694290161,0.07017379999160767,0.9906956252394733,0.1276889086071211,0.007828454854612558,0.04643906206785489
1681573975110775800,1.70177587890625,-0.3017312288284302,-0.3846556842327118,-0.7702397704124451,0.002154818270355463,-0.2507602274417877,-0.9680468440055847,0.02363252080976963,0.07735928893089294,0.09779232740402222,0.9910751301118426,0.12623223033637554,0.006481359904263472,0.04235135049143651
1681573975120820700,1.71182080078125,-0.2964206337928772,-0.40885528922080994,-0.7648367285728455,0.0003997039748355746,-0.24768388271331787,-0.9688408374786377,0.021679751574993134,0.0773041695356369,0.1201012134552002,0.9914409568413868,0.12471735350084782,0.00501698757647631,0.038280117779196016
1681573975130866000,1.721865966796875,-0.25794896483421326,-0.4177893400192261,-0.7705004811286926,-0.0015671310247853398,-0.24485470354557037,-0.9695585370063782,0.023524515330791473,0.0867735892534256,0.13911420106887817,0.9917708717137237,0.12332373662824608,0.003463321421257143,0.034205797869900745
1681573975140911900,1.731911865234375,-0.19395291805267334,-0.43310144543647766,-0.7814865708351135,-0.0036658868193626404,-0.24253708124160767,-0.9701352119445801,0.025257060304284096,0.0967545360326767,0.15024995803833008,0.9920498780001984,0.12218407150629015,0.0018568352178932822,0.030077705875285556
1681573975150956800,1.741956787109375,-0.10434417426586151,-0.44456300139427185,-0.7911961674690247,-0.00590954814106226,-0.24102704226970673,-0.9705004096031189,0.02588329091668129,0.10224829614162445,0.16967344284057617,0.9922602378032634,0.12144858217819648,0.00019015031659138414,0.025882991457270736
1681573975161001700,1.752001708984375,-0.005941170733422041,-0.4505884051322937,-0.8101629614830017,-0.00821965653449297,-0.24044758081436157,-0.9706273078918457,0.0243939608335495,0.1027216762304306,0.19488579034805298,0.9923942164405025,0.12117790080290844,-0.0015010204444008623,0.021622954002469986
1681573975171046700,1.762046630859375,0.06640473753213882,-0.4615686535835266,-0.8256556391716003,-0.010582022368907928,-0.24074439704418182,-0.9705308675765991,0.021629374474287033,0.10166046023368835,0.21978318691253662,0.9924552386741851,0.12134331141945973,-0.003219847244803859,0.01726882953852505
1681573975181092900,1.7720927734375,0.11863651871681213,-0.4721542000770569,-0.8314576148986816,-0.013029061257839203,-0.24167360365390778,-0.9702701568603516,0.020826291292905807,0.0940142273902893,0.24303627014160156,0.9924567657363317,0.12181976795258397,-0.004987880083594702,0.012840896759652377
1681573975191137800,1.7821376953125,0.1594921499490738,-0.486623615026474,-0.8283201456069946,-0.015600690618157387,-0.24310354888439178,-0.9698748588562012,0.02187204360961914,0.08482405543327332,0.26147037744522095,0.9924045880634652,0.12253986786478627,-0.006821923608129867,0.0084073628635902
1681573975201182700,1.7921826171875,0.1774442493915558,-0.5009753704071045,-0.8153382539749146,-0.018314985558390617,-0.24481980502605438,-0.9693955779075623,0.021473543718457222,0.07292947173118591,0.27281665802001953,0.9923114004906727,0.12339355913020394,-0.0087308617186039,0.004001496903616836
1681573975211229000,1.80222900390625,0.18977920711040497,-0.5149595737457275,-0.7905453443527222,-0.021213486790657043,-0.24671803414821625,-0.968855082988739,0.022937724366784096,0.06577923893928528,0.2775099277496338,0.9921832361993944,0.12432755068110363,-0.010728925149223847,-0.0003081872247463728
1681573975221273600,1.812273681640625,0.19923396408557892,-0.5202190279960632,-0.7534573078155518,-0.024269593879580498,-0.24873732030391693,-0.9682669043540955,0.021980762481689453,0.06145086884498596,0.27742522954940796,0.9920250476293202,0.12531078737378687,-0.012797146864220066,-0.00447122928974032
1681573975231318800,1.82231884765625,0.2086513638496399,-0.5232690572738647,-0.7168124914169312,-0.027446582913398743,-0.2508774399757385,-0.9676296710968018,0.022960489615797997,0.05736541748046875,0.26757174730300903,0.9918383799561542,0.12634378410558575,-0.014913339173443776,-0.00845574731094137
1681573975241364700,1.83236474609375,0.22220711410045624,-0.5269753932952881,-0.662880003452301,-0.030746884644031525,-0.25310105085372925,-0.9669511318206787,0.022842826321721077,0.058536142110824585,0.2519090175628662,0.9916281800760777,0.12740861076789728,-0.01707273485781146,-0.012215521396190249
1681573975251409700,1.84240966796875,0.24424435198307037,-0.5218653082847595,-0.6039272546768188,-0.03416229411959648,-0.2555173337459564,-0.9662007093429565,0.025434263050556183,0.059335023164749146,0.23135274648666382,0.9913899537439825,0.1285632806295878,-0.01926459284479641,-0.015693253000279492
1681573975261454800,1.852454833984375,0.2564956843852997,-0.5141419172286987,-0.5501753091812134,-0.037659019231796265,-0.25811171531677246,-0.965380847454071,0.03329499438405037,0.055444419384002686,0.20769041776657104,0.9911276065935998,0.1298021047424728,-0.021470932728343457,-0.018882009779043946
1681573975271500800,1.862500732421875,0.28068915009498596,-0.5048262476921082,-0.47857779264450073,-0.04120141267776489,-0.2608627378940582,-0.9644962549209595,0.043246079236269,0.05380091071128845,0.18576401472091675,0.9908454610449985,0.131116675652191,-0.023670198377933802,-0.021757743390200073
1681573975281546000,1.8725458984375,0.31997743248939514,-0.49455517530441284,-0.4081241488456726,-0.04481952637434006,-0.2639271318912506,-0.9635007381439209,0.05827777460217476,0.05627018213272095,0.1662747859954834,0.9905361923248022,0.13259071190321617,-0.025871408794750833,-0.024261151723865747
1681573975291590700,1.882590576171875,0.34552261233329773,-0.48268717527389526,-0.35287925601005554,-0.04849892482161522,-0.26729336380958557,-0.9623939394950867,0.07900123298168182,0.05209857225418091,0.14054036140441895,0.9902009868312575,0.13421965614439443,-0.02807327313109361,-0.026439647862764447
1681573975301635800,1.8926357421875,0.35270756483078003,-0.47232773900032043,-0.28668373823165894,-0.05221236124634743,-0.27080345153808594,-0.9612176418304443,0.10525190830230713,0.04907792806625366,0.11197453737258911,0.9898522017546783,0.13592436527074633,-0.030261256340259696,-0.028309791684359962
1681573975311681800,1.902681884765625,0.3511618971824646,-0.46888479590415955,-0.20782753825187683,-0.056032970547676086,-0.27429476380348206,-0.9600118398666382,0.1339748650789261,0.05607873201370239,0.07570397853851318,0.9895037659423487,0.13762451975040538,-0.032458937515932554,-0.02980395672571738
1681573975321726700,1.912726806640625,0.32178109884262085,-0.4479092061519623,-0.11780416965484619,-0.05995452031493187,-0.27760133147239685,-0.9588237404823303,0.16194425523281097,0.05946159362792969,0.04025989770889282,0.9891705594043436,0.13923845051136,-0.03465229657894695,-0.03088062838668914
1681573975331772000,1.92277197265625,0.27433517575263977,-0.4105530381202698,-0.01512226928025484,-0.06385427713394165,-0.28047677874565125,-0.9577345252037048,0.18323904275894165,0.04890933632850647,0.01226949691772461,0.9888766843054866,0.1406460773714844,-0.036761692253690526,-0.03146650542334576
1681573975341817900,1.93281787109375,0.2147323042154312,-0.3686103820800781,0.090177521109581,-0.06766989827156067,-0.28276777267456055,-0.9567983746528625,0.19437888264656067,0.034522444009780884,-0.016910672187805176,0.9886385477031706,0.1417737470157256,-0.03874281186020817,-0.03151279458254759
1681573975351862800,1.94286279296875,0.13077017664909363,-0.3258071839809418,0.19781556725502014,-0.0713852271437645,-0.28430458903312683,-0.9560726881027222,0.2109878808259964,0.021212458610534668,-0.03710657358169556,0.9884708989903148,0.14253723912455848,-0.04058049913579391,-0.031009642018857208
1681573975361907700,1.95290771484375,0.0516122542321682,-0.28285467624664307,0.313754677772522,-0.07499433308839798,-0.28495875000953674,-0.9556015729904175,0.22480511665344238,0.00331193208694458,-0.04589378833770752,0.988384771004668,0.14287337630087368,-0.04226591727359871,-0.02994135563940264
1681573975371953700,1.96295361328125,-0.031240858137607574,-0.23489028215408325,0.4384646713733673,-0.07849349826574326,-0.28471800684928894,-0.9553923010826111,0.23591841757297516,-0.013927072286605835,-0.05142831802368164,0.9883814110038743,0.1427805451248417,-0.04379005856812708,-0.028256876761461488
1681573975381998800,1.972998779296875,-0.10443544387817383,-0.20569005608558655,0.552785336971283,-0.0819757804274559,-0.2836400866508484,-0.9554204940795898,0.2490747720003128,-0.022237658500671387,-0.06704044342041016,0.9884514621537901,0.14228956070896406,-0.045204450099436216,-0.025964756270200808
1681573975392043800,1.983043701171875,-0.17171435058116913,-0.19162683188915253,0.6547391414642334,-0.08555306494235992,-0.28175801038742065,-0.9556636810302734,0.26975715160369873,-0.02321949601173401,-0.07270234823226929,0.9885832609506835,0.1414160448265296,-0.04657952598437434,-0.02313178915945587
1681573975402089000,1.9930888671875,-0.23323550820350647,-0.17628702521324158,0.7339290380477905,-0.0892328992486,-0.2791563868522644,-0.9560905694961548,0.2848353087902069,-0.02487504482269287,-0.06263190507888794,0.9887626705823525,0.1402023652606081,-0.04793749456984666,-0.019845289696535682
1681573975412135000,2.003135009765625,-0.2771303951740265,-0.1409759372472763,0.7577890753746033,-0.09283577650785446,-0.2759767472743988,-0.9566704630851746,0.28988778591156006,-0.02672716975212097,-0.039301156997680664,0.9889739331593299,0.13871505158300926,-0.04922298904430366,-0.01630943627365321
1681573975422179600,2.0131796875,-0.27749553322792053,-0.028244584798812866,0.777225136756897,-0.09576500207185745,-0.2725076377391815,-0.9573759436607361,0.27179038524627686,-0.027678608894348145,0.002511441707611084,0.9892059435175824,0.13709980412483608,-0.05015656706459296,-0.012638030360273275
1681573975432224800,2.023224853515625,-0.23372285068035126,0.16721989214420319,0.8426280617713928,-0.09727701544761658,-0.2692205607891083,-0.9581531286239624,0.21747048199176788,-0.03182017803192139,0.011299550533294678,0.9894450591593957,0.13560548879075957,-0.050344553680671804,-0.00866233820307043
1681573975442270700,2.033270751953125,-0.18851782381534576,0.3964131474494934,0.9553972482681274,-0.09691399335861206,-0.26628631353378296,-0.9590095281600952,0.14294974505901337,-0.03704318404197693,-0.04782634973526001,0.9896909698302875,0.1343268394936801,-0.04951301001089015,-0.004061607342234033
1681573975452316000,2.04331591796875,-0.17571575939655304,0.5757646560668945,1.0916539430618286,-0.09485217183828354,-0.263540118932724,-0.9599738121032715,0.08859604597091675,-0.046686381101608276,-0.15382623672485352,0.9899420688310859,0.13317142900312348,-0.04773339051709125,0.0012975221351342304
1681573975462360800,2.05336083984375,-0.18359339237213135,0.6947253942489624,1.264236569404602,-0.09174370020627975,-0.2606743574142456,-0.961057722568512,0.07778189331293106,-0.06177446246147156,-0.24331843852996826,0.9901880271763258,0.13197321278585994,-0.0453232895137592,0.0075263108028127655
1681573975472406800,2.06340673828125,-0.212309792637825,0.7769028544425964,1.405380368232727,-0.08804705739021301,-0.25751569867134094,-0.9622543454170227,0.12065506726503372,-0.05940943956375122,-0.2920333743095398,0.9904104370866615,0.1306332037684037,-0.04251827707633842,0.014643926092106864
1681573975482451700,2.07345166015625,-0.34112638235092163,0.8146337270736694,1.4079620838165283,-0.08390437066555023,-0.25367310643196106,-0.9636441469192505,0.21029290556907654,-0.038548052310943604,-0.300561785697937,0.9906219087479868,0.1289195711522759,-0.039467421166818464,0.022144751215046065
1681573975492496600,2.08349658203125,-0.5717043876647949,0.815048336982727,1.3805855512619019,-0.07944297045469284,-0.24809780716896057,-0.9654720425605774,0.27689167857170105,-0.04874676465988159,-0.23956024646759033,0.9908916030357279,0.12627051697479022,-0.036328029969577125,0.02949498334903327
1681573975502542800,2.09354296875,-0.7840089201927185,0.7993684411048889,1.412488341331482,-0.07495827972888947,-0.24035125970840454,-0.9677874445915222,0.27388709783554077,-0.08459998667240143,-0.15075808763504028,0.9912305224869741,0.12247440389153294,-0.03326106187349442,0.036822048067101515
1681573975512587800,2.103587890625,-0.9014251232147217,0.7952912449836731,1.3959424495697021,-0.07047884166240692,-0.230998232960701,-0.9703981280326843,0.24331513047218323,-0.11211097240447998,-0.0946958065032959,0.991588298095278,0.11782838340347705,-0.030288632103752294,0.04417921895513987
1681573975522633000,2.113633056640625,-0.9002397060394287,0.833246111869812,1.3085963726043701,-0.06555670499801636,-0.2211747020483017,-0.973028302192688,0.22916142642498016,-0.11433561146259308,-0.08614528179168701,0.9919105633460805,0.11289549079993023,-0.027211355631923603,0.05126087134592398
1681573975532678000,2.123677978515625,-0.8050709962844849,0.8894844055175781,1.2460274696350098,-0.059812452644109726,-0.2119147926568985,-0.9754561185836792,0.21317851543426514,-0.08578425645828247,-0.1166459321975708,0.9921531559766822,0.10818723279401293,-0.02382170823521145,0.05796841754335475
1681573975542723800,2.133723876953125,-0.631346583366394,0.9384061694145203,1.2429128885269165,-0.05335172265768051,-0.20409908890724182,-0.9774953722953796,0.18855983018875122,-0.04992932081222534,-0.15525609254837036,0.9922598059162447,0.10415386716286093,-0.020107126623162937,0.06456185952266147
1681573975552768800,2.143768798828125,-0.43173718452453613,0.9861522316932678,1.2670224905014038,-0.0463251955807209,-0.1982039511203766,-0.979065477848053,0.1681513488292694,-0.02318587899208069,-0.18434089422225952,0.9921968797635485,0.10103683746324438,-0.01608813690144645,0.07126112411100692
1681573975562813700,2.153813720703125,-0.2631814479827881,1.0040010213851929,1.2686728239059448,-0.03890679031610489,-0.19423258304595947,-0.9801836609840393,0.1583067923784256,-0.0009273886680603027,-0.1975659728050232,0.9919669809020546,0.09883395332725677,-0.01183339853666098,0.07806077410990894
1681573975572859600,2.163859619140625,-0.187946617603302,0.9851379990577698,1.2424883842468262,-0.03140822798013687,-0.191593199968338,-0.9809717535972595,0.15852917730808258,0.014408066868782043,-0.18010002374649048,0.991612768276258,0.09724998853235219,-0.007520881535571919,0.08479499627085328
1681573975582904800,2.17390478515625,-0.22160017490386963,0.9358252882957458,1.2010328769683838,-0.024148087948560715,-0.1892419308423996,-0.9816335439682007,0.15741832554340363,0.012300938367843628,-0.13215124607086182,0.9911988793428441,0.09577042140768474,-0.003356629537189535,0.0913325425707709
1681573975592949800,2.18394970703125,-0.3154187500476837,0.8630627393722534,1.1409447193145752,-0.017348045483231544,-0.18632327020168304,-0.9823353290557861,0.1476123034954071,-0.009508103132247925,-0.07404589653015137,0.9907798081520366,0.09397917760566543,0.0005017732625953125,0.09758725302581293
1681573975602995700,2.19399560546875,-0.39920899271965027,0.7746908068656921,1.05779230594635,-0.0111721595749259,-0.182569220662117,-0.9831295013427734,0.1336391717195511,-0.04893718659877777,-0.019266068935394287,0.9903856888782914,0.09175882678472608,0.0039439293487918805,0.1034460794747922
1681573975613040400,2.204040283203125,-0.43880337476730347,0.7015562057495117,0.9640610218048096,-0.00560284499078989,-0.17825788259506226,-0.9839678406715393,0.11702249944210052,-0.07789146900177002,0.019887089729309082,0.990021486227829,0.0892599164602259,0.006981377946414385,0.108818571844767
1681573975623085600,2.21408544921875,-0.42438527941703796,0.6437680125236511,0.8802646994590759,-0.00045432799379341304,-0.17386846244335175,-0.984768807888031,0.09959065914154053,-0.07809998095035553,0.043545663356781006,0.9896751439791903,0.0867229083113479,0.009733726878788743,0.11369996391837987
1681573975633131500,2.224131591796875,-0.35769492387771606,0.6030877828598022,0.82818603515625,0.004341281019151211,-0.16995738446712494,-0.9854418635368347,0.08039075136184692,-0.054484203457832336,0.06500118970870972,0.989316416679245,0.08442876704206384,0.012282387356062269,0.11821239830600676
1681573975643176400,2.234176513671875,-0.2771598696708679,0.5841045379638672,0.7983993887901306,0.008955572731792927,-0.16681958734989166,-0.985946774482727,0.06390511989593506,-0.023778006434440613,0.07304394245147705,0.9889202711252447,0.08251683981792449,0.01475087160952513,0.12251619939889107
1681573975653221600,2.2442216796875,-0.17730359733104706,0.5705150365829468,0.7824004292488098,0.013483453541994095,-0.16461524367332458,-0.9862657189369202,0.051915694028139114,0.007266536355018616,0.07652145624160767,0.9884751353850167,0.08106159567489779,0.017209597276829927,0.12668801028907187
1681573975663266300,2.254266357421875,-0.0818529799580574,0.5581774115562439,0.7765393257141113,0.017908183857798576,-0.16341061890125275,-0.9863955974578857,0.038564570248126984,0.018375754356384277,0.09302401542663574,0.9879731494319896,0.08009633729297205,0.019666698593105807,0.13079347639737954
1681573975673312500,2.2643125,-0.016234517097473145,0.5568097829818726,0.768405020236969,0.02227615937590599,-0.163077250123024,-0.9863618016242981,0.02789471670985222,0.018439114093780518,0.1093323826789856,0.9874184866866377,0.07955320332638445,0.022144789958028682,0.13485434480041344
1681573975683357400,2.274357421875,-0.016464879736304283,0.5641590356826782,0.7591148018836975,0.02668576128780842,-0.16311977803707123,-0.986245334148407,0.02040284126996994,0.02505818009376526,0.13388937711715698,0.9868342058658555,0.07917786765217776,0.0246619090080181,0.13885616625512762
1681573975693402600,2.284402587890625,-0.06766392290592194,0.5568150877952576,0.7574154734611511,0.031114839017391205,-0.16290712356567383,-0.9861506819725037,0.008619025349617004,0.02510492503643036,0.15784257650375366,0.9862434877494922,0.07865569389146408,0.027165192309802046,0.1428259509452455
1681573975703448600,2.294448486328125,-0.12889717519283295,0.5287448167800903,0.7734668850898743,0.03534820303320885,-0.16215434670448303,-0.9861320853233337,-0.005624104291200638,0.015761449933052063,0.18438953161239624,0.9856496539453604,0.077858346892195,0.029530308882976277,0.14683636345746565
1681573975713493500,2.304493408203125,-0.15455734729766846,0.5101804137229919,0.7780181765556335,0.039330631494522095,-0.16101273894309998,-0.9861683249473572,-0.013009246438741684,0.0085468590259552,0.20531511306762695,0.985045100160949,0.07686651906642009,0.031739029775132925,0.15089871948112238
1681573975723538700,2.31453857421875,-0.15544843673706055,0.4931587874889374,0.7646909356117249,0.043147146701812744,-0.15974558889865875,-0.986214816570282,-0.016062822192907333,0.013093307614326477,0.21141934394836426,0.9844307952450629,0.07580935472750691,0.03384569953930082,0.15493041794751425
1681573975733584600,2.324584716796875,-0.14382721483707428,0.4827302396297455,0.7557946443557739,0.046843837946653366,-0.15858611464500427,-0.9862332940101624,-0.024871204048395157,0.030641093850135803,0.21413856744766235,0.9838034788968892,0.0748020660870294,0.035888803842590855,0.15889415623231629
1681573975743629600,2.334629638671875,-0.11570289731025696,0.4772587716579437,0.7462834715843201,0.050491321831941605,-0.15765224397182465,-0.9862030148506165,-0.0375824049115181,0.04546955227851868,0.22002869844436646,0.9831569950514648,0.07389822648654794,0.03791492156274326,0.16280038776638928
1681573975753674500,2.344674560546875,-0.0897362008690834,0.4807381331920624,0.7337732315063477,0.0541464239358902,-0.15699851512908936,-0.986113429069519,-0.05312411114573479,0.04745560884475708,0.22004592418670654,0.9824896564968624,0.07312074201928641,0.03995819507286943,0.1666462957091251
1681573975763720400,2.354720458984375,-0.0737987831234932,0.4897997975349426,0.7229597568511963,0.057869020849466324,-0.1566082239151001,-0.9859640002250671,-0.07064065337181091,0.048194482922554016,0.21882843971252441,0.9818030599476679,0.07245653617223817,0.042048090927757575,0.17042539509089644
1681573975773765600,2.364765625,-0.062119755893945694,0.49900105595588684,0.7162762880325317,0.0617145411670208,-0.15635395050048828,-0.985771119594574,-0.08741036057472229,0.050747811794281006,0.21117401123046875,0.981097154775959,0.07183599004922905,0.04420426410382723,0.1741662925485133
1681573975783810600,2.374810546875,-0.05585040897130966,0.5048693418502808,0.7170475125312805,0.06562091410160065,-0.1562233716249466,-0.9855394959449768,-0.10329488664865494,0.042636871337890625,0.19365417957305908,0.9803686766180872,0.07125660236357945,0.04639757073106251,0.17789603287652703
1681573975793855500,2.38485546875,-0.0705590471625328,0.5001088380813599,0.6958082914352417,0.06954918801784515,-0.15607690811157227,-0.9852933287620544,-0.11622584611177444,0.02192157506942749,0.16626256704330444,0.9796315324135108,0.07065433520141429,0.04859329988930571,0.18157320989149012
1681573975803901400,2.3949013671875,-0.08946375548839569,0.4993141293525696,0.6732403635978699,0.07349789887666702,-0.15574932098388672,-0.9850584864616394,-0.12469116598367691,0.0019864439964294434,0.14213252067565918,0.9789045574280832,0.06995091804699281,0.05077036070682951,0.18513535475086448
1681573975813946400,2.4049462890625,-0.08864296972751617,0.49176910519599915,0.666054368019104,0.07740243524312973,-0.15536023676395416,-0.9848208427429199,-0.13474498689174652,0.002680733799934387,0.12388944625854492,0.9781781676426485,0.06921038888199776,0.05291037872524385,0.18862139600080868
1681573975823991600,2.414991455078125,-0.08823524415493011,0.4769347608089447,0.6310737729072571,0.08124479651451111,-0.15499597787857056,-0.98456871509552,-0.146109938621521,0.008252128958702087,0.10450279712677002,0.9774555560993922,0.06847957988863541,0.05501086145276571,0.19200281739107913
1681573975834037500,2.42503759765625,-0.11595049500465393,0.45618435740470886,0.575782299041748,0.08496952801942825,-0.15450212359428406,-0.9843319058418274,-0.15902045369148254,0.004187732934951782,0.09079247713088989,0.9767712098191464,0.0676959565283448,0.05702025841109854,0.19515174831122065
1681573975844082700,2.435082763671875,-0.1365436613559723,0.4283519387245178,0.5099308490753174,0.08856011182069778,-0.1537148356437683,-0.9841386675834656,-0.17773249745368958,-0.004549384117126465,0.07372301816940308,0.9761484523756467,0.06678647284912366,0.05890880157342777,0.19799936400491822
1681573975854127600,2.445127685546875,-0.13756981492042542,0.3890666365623474,0.44343385100364685,0.09193351119756699,-0.15277186036109924,-0.9839761257171631,-0.18929988145828247,-0.011183902621269226,0.043332815170288086,0.9755942942778988,0.0658323499360555,0.06064688327527281,0.20050927944272676
1681573975864173300,2.45517333984375,-0.1215096116065979,0.36622124910354614,0.3771834671497345,0.09508377313613892,-0.15185345709323883,-0.9838188886642456,-0.2006746232509613,-0.010713756084442139,0.013069987297058105,0.9751047685635671,0.06492586488680381,0.062250996534293994,0.20268279645386694
1681573975874218500,2.465218505859375,-0.1057140976190567,0.34412238001823425,0.2929503321647644,0.09813614934682846,-0.15104636549949646,-0.9836433529853821,-0.21266864240169525,-0.004166111350059509,-0.024977803230285645,0.9746843550660869,0.06410202080768486,0.06379059879930771,0.2044806759517449
1681573975884263400,2.475263427734375,-0.10139764845371246,0.3090330958366394,0.20652064681053162,0.10104414075613022,-0.15025046467781067,-0.9834708571434021,-0.2250523418188095,-0.0041075050830841064,-0.0600472092628479,0.9743554302921612,0.06332292621080028,0.06522874638230737,0.20583244155950445
1681573975894309600,2.4853095703125,-0.11210983246564865,0.28634586930274963,0.14899849891662598,0.10377174615859985,-0.14937171339988708,-0.9833206534385681,-0.24110087752342224,-0.010708287358283997,-0.07873678207397461,0.9741067415408999,0.06254229169327434,0.06654421138193752,0.20682472004226246
1681573975904354600,2.4953544921875,-0.11102806031703949,0.25227364897727966,0.08604934811592102,0.10632319748401642,-0.14839136600494385,-0.983196496963501,-0.255950927734375,-0.011536046862602234,-0.10333603620529175,0.9739275768063419,0.06174805074563409,0.06774157766792774,0.20751734144532133
1681573975914399700,2.505399658203125,-0.09578858315944672,0.20614567399024963,0.029294729232788086,0.10855653882026672,-0.14739413559436798,-0.9831024408340454,-0.2593744397163391,-0.007665723562240601,-0.12340384721755981,0.9738224713989051,0.06099895394704608,0.06875971190521299,0.20789670212346534
1681573975924444400,2.5154443359375,-0.07435545325279236,0.14660272002220154,-0.023951446637511253,0.11033497750759125,-0.14654144644737244,-0.9830319285392761,-0.25863519310951233,-0.003849238157272339,-0.1476900577545166,0.9737826234472445,0.06038733400775351,0.06955141572675265,0.207998417005706
1681573975934490400,2.525490478515625,-0.06807317584753036,0.10126426070928574,-0.1068924069404602,0.11170477420091629,-0.145791158080101,-0.9829887747764587,-0.24756905436515808,0.0003748387098312378,-0.18490362167358398,0.9738255939662341,0.059893941246308154,0.07013070497534078,0.2077453731850474
1681573975944535600,2.53553564453125,-0.1207244023680687,0.051667142659425735,-0.19454102218151093,0.1127399355173111,-0.1446956843137741,-0.9830324649810791,-0.23206369578838348,-0.011005029082298279,-0.21417206525802612,0.9739811131404158,0.05929608822304144,0.07048213818776805,0.20706770608343486
1681573975954580500,2.54558056640625,-0.18119482696056366,0.00440866919234395,-0.2861140966415405,0.1133965328335762,-0.1429232954978943,-0.9832162261009216,-0.219048410654068,-0.02539646625518799,-0.22524935007095337,0.9742655212364074,0.05843607182491292,0.07054863176680304,0.20594869262950036
1681573975964626400,2.55562646484375,-0.2127695381641388,-0.027479754760861397,-0.350713312625885,0.11377425491809845,-0.1405641883611679,-0.9835126399993896,-0.21315476298332214,-0.03758224844932556,-0.21477532386779785,0.9746580174868381,0.057343396593909815,0.07039468000795869,0.20444572236085023
1681573975974671600,2.565671630859375,-0.1757255345582962,-0.04752924665808678,-0.3803742825984955,0.11397064477205276,-0.1381704956293106,-0.9838290810585022,-0.22783175110816956,-0.04191380739212036,-0.2175106406211853,0.975100001050815,0.0562679993508076,0.07013832104650573,0.2027182974972547
1681573975984716300,2.57571630859375,-0.10172240436077118,-0.07169583439826965,-0.4359571039676666,0.11401139199733734,-0.13630999624729156,-0.9840838313102722,-0.23705828189849854,-0.025631606578826904,-0.24879580736160278,0.9755700284380232,0.05548698483226598,0.06985182305140208,0.20076148501995683
1681573975994762500,2.585762451171875,0.0038510062731802464,-0.10571176558732986,-0.5058448910713196,0.11384034156799316,-0.13526232540607452,-0.984248161315918,-0.21485355496406555,0.005104809999465942,-0.30354779958724976,0.9760869702729654,0.055153023180701574,0.06952735107252803,0.19844008024431645
1681573976004807400,2.595807373046875,0.1452086716890335,-0.15246009826660156,-0.5347047448158264,0.11334571242332458,-0.13537698984146118,-0.9842895269393921,-0.18904459476470947,0.027756676077842712,-0.3607574701309204,0.9766289835728752,0.055445105600651926,0.0691454250904292,0.19580755453543422
1681573976014852600,2.6058525390625,0.2629168629646301,-0.18387457728385925,-0.5194456577301025,0.11246169358491898,-0.1368303745985031,-0.9841899275779724,-0.17404618859291077,0.04124926030635834,-0.4136677384376526,0.977141775588492,0.05643912991621143,0.06869978598596073,0.1931033210831711
1681573976024898600,2.615898681640625,0.26577362418174744,-0.21536804735660553,-0.5379756689071655,0.11130306124687195,-0.13891790807247162,-0.9840291738510132,-0.14427733421325684,0.05574220418930054,-0.46402984857559204,0.9776380837876736,0.057773023928629326,0.06817392045339712,0.1903637886681596
1681573976034943500,2.625943603515625,0.16335487365722656,-0.28417089581489563,-0.5849604606628418,0.10971333086490631,-0.14044050872325897,-0.9839916229248047,-0.0905635803937912,0.0606827437877655,-0.4526386260986328,0.978189943677923,0.058876683296292635,0.06736274559373762,0.18745779359848808
1681573976044988700,2.63598876953125,-0.01747509278357029,-0.3609524965286255,-0.642244815826416,0.10747192054986954,-0.14051806926727295,-0.9842278361320496,-0.04649782180786133,0.029754459857940674,-0.35152655839920044,0.9788477372148437,0.05933661466602916,0.06606996933826617,0.18431248582526327
1681573976055034600,2.64603466796875,-0.22288566827774048,-0.41339975595474243,-0.7133959531784058,0.1046825498342514,-0.1385696977376938,-0.9848045706748962,-0.020652420818805695,-0.023753374814987183,-0.23927074670791626,0.9796308964734914,0.05885205804281415,0.06429743235496445,0.18090234050580178
1681573976065079600,2.65607958984375,-0.3929910659790039,-0.45583775639533997,-0.8079980611801147,0.10152063518762589,-0.13466626405715942,-0.9856767058372498,-0.005237698554992676,-0.05065178871154785,-0.18363481760025024,0.980542170262638,0.05744312221309235,0.06214448826331012,0.17713125508773525
1681573976075124500,2.66612451171875,-0.46741288900375366,-0.4862046241760254,-0.9027930498123169,0.09809127449989319,-0.12943732738494873,-0.9867238998413086,0.01099378615617752,-0.04590146243572235,-0.17010587453842163,0.9815651548008844,0.05541378312785369,0.05972734455743863,0.1728927999171633
1681573976085170400,2.67617041015625,-0.39932864904403687,-0.46853962540626526,-0.9355461597442627,0.09462665766477585,-0.12412851303815842,-0.9877438545227051,0.025048010051250458,-0.019380472600460052,-0.15419340133666992,0.9826156494744012,0.05334749428051239,0.057289797870389965,0.16834013727549416
1681573976095215600,2.686215576171875,-0.2149001657962799,-0.40010830760002136,-0.946865439414978,0.09159500896930695,-0.12011471390724182,-0.9885255694389343,0.014377258718013763,0.009290061891078949,-0.13758832216262817,0.9836044065192061,0.05187499420374668,0.05519237042031159,0.16366180717276424
1681573976105260500,2.696260498046875,0.014291205443441868,-0.32169046998023987,-0.9558181762695312,0.08929311484098434,-0.11818680167198181,-0.9889684915542603,-0.012648239731788635,0.03681161254644394,-0.14121949672698975,0.9844993630145726,0.05136696073854616,0.05363957430237711,0.15888754799548643
1681573976115306500,2.706306396484375,0.2539425492286682,-0.24077853560447693,-0.9734411239624023,0.08781466633081436,-0.11862993240356445,-0.9890477657318115,-0.03269995003938675,0.07621044665575027,-0.1414148211479187,0.9852952206872327,0.0519653973577359,0.052684949229348514,0.15400430372939708
1681573976125351400,2.716351318359375,0.4136877655982971,-0.17980866134166718,-0.993718683719635,0.08708887547254562,-0.12107350677251816,-0.9888158440589905,-0.03746730834245682,0.11319990456104279,-0.12377876043319702,0.9860073694765834,0.05350123734833082,0.052246574924436816,0.1489885332959557
1681573976135396600,2.726396728515625,0.4759673476219177,-0.16501405835151672,-1.02069890499115,0.08681976795196533,-0.12461893260478973,-0.9883989095687866,-0.035184040665626526,0.11860689520835876,-0.0990949273109436,0.9866678820837288,0.05555748857604388,0.05209508256950698,0.1438269120952832
1681573976145441500,2.736441650390625,0.4452129006385803,-0.17542169988155365,-1.0509393215179443,0.08665605634450912,-0.12826907634735107,-0.9879462122917175,-0.02823016792535782,0.1020238995552063,-0.051940202713012695,0.9873129839830225,0.05766684613906797,0.051975134215012805,0.13851455200162452
1681573976155487500,2.746487548828125,0.35171645879745483,-0.20859497785568237,-1.0825830698013306,0.08636514097452164,-0.1312447339296341,-0.9875808358192444,-0.01385539025068283,0.08026504516601562,0.015046656131744385,0.9879713088336881,0.059456631248320534,0.051715539006188735,0.13305324498231444
1681573976165532700,2.75653271484375,0.27148526906967163,-0.2680809497833252,-1.1085871458053589,0.08563303202390671,-0.13327939808368683,-0.9873720407485962,-0.0054633766412734985,0.05468131601810455,0.07950466871261597,0.9886570718587634,0.06081083922626752,0.05114695876687232,0.12744912212209586
1681573976175577600,2.76657763671875,0.2543521821498871,-0.33163905143737793,-1.1299539804458618,0.08432619273662567,-0.13478393852710724,-0.9872803092002869,-0.00032657384872436523,0.03905023634433746,0.12547916173934937,0.9893550300524429,0.061936191614554666,0.05023702992477366,0.12172468258447536
1681573976185623600,2.77662353515625,0.30450084805488586,-0.3839733600616455,-1.15946364402771,0.08247733861207962,-0.13648489117622375,-0.9872028231620789,0.010799624025821686,0.043009474873542786,0.13007086515426636,0.990041214160629,0.06318988254287623,0.04904731330874576,0.11584437169627587
1681573976195668500,2.78666845703125,0.3766692280769348,-0.4296538531780243,-1.1728458404541016,0.08017923682928085,-0.13883616030216217,-0.9870642423629761,0.02635759860277176,0.0635492354631424,0.11296457052230835,0.9906926102027713,0.06478840143277335,0.04764812004004001,0.10981936563353537
1681573976205713400,2.79671337890625,0.4357791543006897,-0.4810997545719147,-1.1649130582809448,0.07742968946695328,-0.14188161492347717,-0.9868506789207458,0.04338938742876053,0.0870414525270462,0.09256356954574585,0.9912932031906462,0.0667454568461786,0.04604027232387441,0.10374585058419163
1681573976215759600,2.806759521484375,0.47623729705810547,-0.5387881398200989,-1.146579623222351,0.0741371363401413,-0.14548325538635254,-0.9865791201591492,0.06081157922744751,0.09696023166179657,0.10242384672164917,0.9918382975722888,0.06898908586634245,0.04416966770833826,0.09770530481228167
1681573976225804500,2.816804443359375,0.48785215616226196,-0.5897123217582703,-1.1362049579620361,0.07032789289951324,-0.14940281212329865,-0.9862721562385559,0.07186874747276306,0.09155666828155518,0.1440480351448059,0.9923328067548902,0.07139359760290202,0.042034148635619974,0.09171576354038738
1681573976235849700,2.826849609375,0.4581524431705475,-0.6509010791778564,-1.1451252698898315,0.06601034849882126,-0.1532796025276184,-0.9859756827354431,0.08128273487091064,0.08414196968078613,0.19022983312606812,0.9927953296502234,0.07377623065297732,0.039613610452695645,0.08570557802937544
1681573976245895700,2.836895751953125,0.40483278036117554,-0.720125675201416,-1.1616379022598267,0.061094366014003754,-0.15678155422210693,-0.9857418537139893,0.09187497943639755,0.07732897996902466,0.23099637031555176,0.9932439007813303,0.07597090072731937,0.03684411742871687,0.0796095889854298
1681573976255940400,2.8469404296875,0.356312096118927,-0.793803870677948,-1.1719099283218384,0.055503685027360916,-0.15981918573379517,-0.9855846762657166,0.10311141610145569,0.06289529800415039,0.26387453079223633,0.9936811352822595,0.07792885958779466,0.033686060086691214,0.0734177272647705
1681573976265985500,2.856985595703125,0.32746821641921997,-0.852908730506897,-1.1776195764541626,0.04929208755493164,-0.1625290811061859,-0.985471785068512,0.11387012898921967,0.045585647225379944,0.28835874795913696,0.9940951823115621,0.07970841763949069,0.03017761332501805,0.06716200002215272
1681573976276031500,2.867031494140625,0.34919264912605286,-0.8840965032577515,-1.1684662103652954,0.04265102744102478,-0.1652655303478241,-0.9853264689445496,0.11881746351718903,0.03298701345920563,0.29932183027267456,0.9944625064859118,0.08147445252012654,0.02643281892403004,0.06088942941027256
1681573976286076700,2.87707666015625,0.40272459387779236,-0.886742353439331,-1.1378809213638306,0.035859283059835434,-0.16849464178085327,-0.9850500822067261,0.11517219990491867,0.027030333876609802,0.2915533781051636,0.9947522546033407,0.0834480877811685,0.022613601452322846,0.05470813401733635
1681573976296121600,2.88712158203125,0.4748982787132263,-0.867419958114624,-1.0949382781982422,0.02913293056190014,-0.1724330335855484,-0.9845903515815735,0.11414708942174911,0.034691885113716125,0.273790180683136,0.9949488656386175,0.08573211838688206,0.018837119580945787,0.048704096338754596
1681573976306167600,2.89716748046875,0.5469021797180176,-0.8276647925376892,-1.0350525379180908,0.022669130936264992,-0.17719082534313202,-0.983915388584137,0.11202018707990646,0.04611775279045105,0.26315128803253174,0.9950435835216718,0.08838006169508333,0.015207281320075221,0.04296605337033921
1681573976316212500,2.90721240234375,0.6353606581687927,-0.8004857897758484,-0.9654374718666077,0.01647496595978737,-0.18279819190502167,-0.9830124378204346,0.10464929044246674,0.0423714816570282,0.24003148078918457,0.9950355716335214,0.0914123737274241,0.011729056920883153,0.03755887030576347
1681573976326257400,2.91725732421875,0.7221347093582153,-0.7635732889175415,-0.8881629705429077,0.010519703850150108,-0.18935105204582214,-0.9818531274795532,0.10108307003974915,0.032765284180641174,0.21819651126861572,0.9949214291695483,0.09488454770712072,0.008388710697038787,0.03252643430906906
1681573976336302600,2.927302490234375,0.7939064502716064,-0.7235666513442993,-0.7952072024345398,0.0048695215955376625,-0.1967359185218811,-0.9804444313049316,0.10452072322368622,0.026615604758262634,0.19850778579711914,0.9947071008802595,0.09874479382730465,0.005220462691359345,0.027931300642265133
1681573976346348500,2.9373486328125,0.8435885310173035,-0.702146053314209,-0.7023305296897888,-0.0005976019310764968,-0.20478366315364838,-0.9788070917129517,0.11175786703824997,0.030345112085342407,0.16949617862701416,0.9944027613874875,0.10291635979156395,0.0021637097037161116,0.02380962428294615
1681573976356393500,2.9473935546875,0.846057653427124,-0.671013355255127,-0.5954309701919556,-0.005952275358140469,-0.21311837434768677,-0.9770082831382751,0.12559643387794495,0.0351397842168808,0.14836448431015015,0.9940302654780003,0.10721570603380928,-0.0008150888992794246,0.020201468951120096
1681573976366438700,2.957438720703125,0.8163242936134338,-0.6380777359008789,-0.48470520973205566,-0.011169704608619213,-0.22130148112773895,-0.9751414656639099,0.1460726410150528,0.03413709998130798,0.12080192565917969,0.9936181156696207,0.11142524609750153,-0.003697969878636534,0.017145868511709576
1681573976376484600,2.967484619140625,0.7931185960769653,-0.5948235392570496,-0.3414881229400635,-0.016236670315265656,-0.22919563949108124,-0.9732449650764465,0.16357553005218506,0.03015992045402527,0.08867770433425903,0.9931793335308001,0.11548072827978963,-0.006459503708696923,0.014746096922818735
1681573976386529500,2.977529541015625,0.7615646719932556,-0.5375962257385254,-0.17990508675575256,-0.02113388478755951,-0.23681773245334625,-0.9713242053985596,0.17878767848014832,0.022218063473701477,0.052790939807891846,0.9927182622978163,0.11939742530087427,-0.009063461122384278,0.013144996400454235
1681573976396574500,2.987574462890625,0.6875596642494202,-0.47257253527641296,-0.039304304867982864,-0.025768863037228584,-0.2439245730638504,-0.9694517850875854,0.20643290877342224,0.017392531037330627,0.0007323622703552246,0.9922569205798262,0.12305638237669153,-0.011455738569605661,0.012330896048075584
1681573976406620400,2.997620361328125,0.553516149520874,-0.40910249948501587,0.1056310385465622,-0.030101828277111053,-0.24995237588882446,-0.9677901268005371,0.24163441359996796,0.018262848258018494,-0.04214334487915039,0.9918390549301486,0.12617278959922498,-0.013615230456794303,0.012259351896388127
1681573976416665600,3.00766552734375,0.3752799332141876,-0.36539021134376526,0.26768654584884644,-0.03430212289094925,-0.25441354513168335,-0.9664869904518127,0.27429234981536865,0.016864657402038574,-0.07045447826385498,0.9915014366221582,0.12850148670752073,-0.01561629226602751,0.01297639466873381
1681573976426710500,3.01771044921875,0.1876527965068817,-0.33047404885292053,0.4211280047893524,-0.03852032870054245,-0.25699809193611145,-0.9656438827514648,0.30812785029411316,0.010995835065841675,-0.07886594533920288,0.9912678736008808,0.129887277413583,-0.017531097283238626,0.014490645218386234
1681573976436756700,3.0277568359375,0.0012384073343127966,-0.3096618950366974,0.5358369946479797,-0.04283110052347183,-0.25768834352493286,-0.9652783274650574,0.33670011162757874,0.004636496305465698,-0.07317382097244263,0.9911412620375055,0.1303224738364748,-0.01941383808941188,0.0166793480714759
1681573976446801400,3.037801513671875,-0.1477675884962082,-0.2816739082336426,0.6125879883766174,-0.04716206341981888,-0.2566550076007843,-0.9653517007827759,0.3500947952270508,-0.0028817951679229736,-0.06481486558914185,0.9911113454234554,0.1298933135044057,-0.021257130573572345,0.01934548413581544
1681573976456846600,3.0478466796875,-0.22429393231868744,-0.22228004038333893,0.6583709120750427,-0.05124153941869736,-0.2544538080692291,-0.9657264351844788,0.34988653659820557,-0.004655778408050537,-0.049715399742126465,0.991143206435876,0.12888069195625,-0.022946519541120803,0.022326714584902298
1681573976466892500,3.057892578125,-0.24718832969665527,-0.08300498127937317,0.6861972212791443,-0.05445673689246178,-0.2517801523208618,-0.9662511348724365,0.3294811248779297,-0.004537045955657959,-0.027874231338500977,0.9911979765978371,0.12763110910699815,-0.02418140321256864,0.025540883799039005
1681573976476937500,3.0679375,-0.2366599440574646,0.15146957337856293,0.751305341720581,-0.05593336001038551,-0.24899807572364807,-0.9668874740600586,0.2763007879257202,-0.002955123782157898,-0.02006620168685913,0.9912605222879702,0.12631594722642123,-0.024505800085115218,0.029094085693385643
1681573976486982700,3.077982666015625,-0.2453591525554657,0.42482706904411316,0.8935195207595825,-0.05510683357715607,-0.24616225063800812,-0.9676607847213745,0.19649475812911987,0.0048596858978271484,-0.05588352680206299,0.9913229092800638,0.1249512797092432,-0.023596310688256874,0.03330781679763703
1681573976497028600,3.088028564453125,-0.2638329863548279,0.6537563800811768,1.1209380626678467,-0.05224277451634407,-0.2431296706199646,-0.9685859084129333,0.12212800979614258,-0.0018502622842788696,-0.14028555154800415,0.9913639280543277,0.12346273677661437,-0.021540618283125756,0.03860918711407455
1681573976507073500,3.098073486328125,-0.2779237627983093,0.807201623916626,1.3398165702819824,-0.04804978519678116,-0.2398415207862854,-0.9696222543716431,0.08964522182941437,-0.02755357325077057,-0.23501336574554443,0.9913469844935715,0.12181910117067013,-0.01868135380656266,0.04519151282830882
1681573976517118500,3.108118408203125,-0.345880925655365,0.8860807418823242,1.409281611442566,-0.04302041977643967,-0.23619842529296875,-0.9707520604133606,0.13507667183876038,-0.04076392948627472,-0.3079039454460144,0.9912682331099184,0.11995292878283297,-0.01533841832675382,0.05256830831187562
1681573976527164400,3.118164306640625,-0.4786650836467743,0.9211409687995911,1.4432052373886108,-0.037480682134628296,-0.2316017746925354,-0.9720883965492249,0.2303365021944046,-0.02749253809452057,-0.30595725774765015,0.9911736315943528,0.117546637571615,-0.01177275753225127,0.06015905656295283
1681573976537209600,3.128209716796875,-0.6519222259521484,0.9216806888580322,1.5049362182617188,-0.0317697748541832,-0.22558185458183289,-0.973706066608429,0.2738351821899414,-0.014469489455223083,-0.27055656909942627,0.9910737294455072,0.11436810988589646,-0.008179102542326983,0.06801540959161306
1681573976547254500,3.138254638671875,-0.8209205865859985,0.8691530227661133,1.4950532913208008,-0.02625609189271927,-0.21786293387413025,-0.9756261110305786,0.27552366256713867,-0.02606414258480072,-0.2462518811225891,0.990978902800959,0.11029043404480171,-0.004790674126551344,0.07598654242226587
1681573976557300500,3.148300537109375,-0.8664491176605225,0.8224093914031982,1.4303983449935913,-0.021056972444057465,-0.2091333568096161,-0.9776604175567627,0.2694090008735657,-0.037525027990341187,-0.1642158031463623,0.9908690524072721,0.10567366050316725,-0.0016970864682986932,0.0837190227882069
1681573976567345700,3.158345703125,-0.8122053146362305,0.8289600014686584,1.345085859298706,-0.015732917934656143,-0.20056581497192383,-0.9795538783073425,0.24160875380039215,-0.03753240406513214,-0.0928490161895752,0.9906989679754871,0.1011000567384801,0.0013527019696629378,0.09106403413924341
1681573976577390300,3.168390380859375,-0.7122657299041748,0.8271730542182922,1.2348688840866089,-0.010023768059909344,-0.19284315407276154,-0.9811784029006958,0.20651116967201233,-0.02909599244594574,-0.09720593690872192,0.990456266703381,0.0969039783710117,0.004518807159825482,0.09790686693908367
1681573976587435500,3.178435546875,-0.5856843590736389,0.8065037727355957,1.141636848449707,-0.004130740649998188,-0.18632058799266815,-0.9824802875518799,0.18288743495941162,-0.0029800236225128174,-0.13426464796066284,0.9901420626176575,0.09327421761493082,0.007730566315142614,0.1042059587106752
1681573976597481500,3.1884814453125,-0.44700393080711365,0.7876089215278625,1.091572642326355,0.0017672983231022954,-0.18118706345558167,-0.9834470748901367,0.1712978631258011,0.02571520209312439,-0.16180133819580078,0.9897450664825054,0.09031466246320913,0.01094211510302614,0.1101289093250515
1681573976607526700,3.198526611328125,-0.3187980353832245,0.744977593421936,1.051588535308838,0.007519733626395464,-0.1774531751871109,-0.9841005206108093,0.16322609782218933,0.04372507333755493,-0.18116742372512817,0.9892607759861571,0.0880381387553284,0.01410767638475838,0.11581689633456696
1681573976617571300,3.2085712890625,-0.2354251891374588,0.6766898036003113,1.0025945901870728,0.012836025096476078,-0.17483648657798767,-0.9845138192176819,0.1484188437461853,0.0437786728143692,-0.17761081457138062,0.9887137765163245,0.08632179608211817,0.017077503028967576,0.12125269038484233
1681573976627617300,3.2186171875,-0.21555852890014648,0.6122058629989624,0.9370374083518982,0.017631348222494125,-0.17276901006698608,-0.9848045706748962,0.13037888705730438,0.03733193874359131,-0.14292675256729126,0.9881476568492521,0.08489169003330999,0.019776888467717215,0.12635879864534388
1681573976637662500,3.228662353515625,-0.23190179467201233,0.539850652217865,0.8657382130622864,0.021911174058914185,-0.17072032392024994,-0.9850758910179138,0.11056561022996902,0.034703418612480164,-0.10383707284927368,0.9875989952611158,0.08348837660508053,0.0221755737819839,0.13109594246128167
1681573976647707400,3.238707275390625,-0.26777321100234985,0.46233081817626953,0.7934432029724121,0.025577440857887268,-0.16840358078479767,-0.9853862524032593,0.08881767839193344,0.0171736478805542,-0.06048166751861572,0.9870911156272,0.08198173727480818,0.024204894529637696,0.1354413305503463
1681573976657753300,3.24875341796875,-0.28889310359954834,0.40472161769866943,0.7139569520950317,0.028717968612909317,-0.16579864919185638,-0.985741376876831,0.0702810287475586,-0.007724359631538391,-0.01810377836227417,0.9866323597083808,0.08036270863104317,0.02590638869350111,0.1393817771893475
1681573976667798500,3.258798583984375,-0.297369122505188,0.36867520213127136,0.6439698338508606,0.03155035153031349,-0.1630537211894989,-0.9861125946044922,0.054829634726047516,-0.018800586462020874,0.015638351440429688,0.9862191326721781,0.07869507323969095,0.027400458218965387,0.14292738792895165
1681573976677843500,3.268843505859375,-0.2545551359653473,0.33390575647354126,0.6079386472702026,0.03413637727499008,-0.16046558320522308,-0.9864509701728821,0.04263056814670563,-0.014522269368171692,0.04522782564163208,0.9858271522208916,0.07712299603894217,0.02874997905503496,0.14618624660822604
1681573976687889400,3.278889404296875,-0.18723253905773163,0.32670801877975464,0.6049750447273254,0.03656282648444176,-0.1584543138742447,-0.9866890907287598,0.030346941202878952,0.0066293030977249146,0.07705163955688477,0.985414545133377,0.07584621006189006,0.0300466259845684,0.14934126105560733
1681573976697934300,3.288934326171875,-0.08661383390426636,0.33083227276802063,0.6078965663909912,0.03898065164685249,-0.15729433298110962,-0.9867821335792542,0.022222325205802917,0.026923194527626038,0.10410702228546143,0.9849573432189312,0.07498779300203648,0.031396781912875364,0.15248034260491528
1681573976707979500,3.2989794921875,0.017135728150606155,0.3462754189968109,0.6194552183151245,0.041478123515844345,-0.1571778804063797,-0.9866988658905029,0.013209350407123566,0.04259958863258362,0.1247146725654602,0.9844424162170191,0.07463488645672184,0.03286628925109256,0.15563642851269005
1681573976718025500,3.309025390625,0.1111573725938797,0.3598276674747467,0.6381266117095947,0.04408803954720497,-0.15807488560676575,-0.9864423871040344,0.004526440054178238,0.05256029963493347,0.14015942811965942,0.9838617292377596,0.07476675495171643,0.034478102973551625,0.15886293204463764
1681573976728070400,3.3190703125,0.1584804207086563,0.3687702715396881,0.6572478413581848,0.046769097447395325,-0.15971551835536957,-0.986054539680481,0.002760905772447586,0.0589464008808136,0.15309256315231323,0.9832233913936489,0.07525045024498445,0.036195130285946626,0.16216978493794398
1681573976738115600,3.329115478515625,0.1446170210838318,0.37165167927742004,0.6727088093757629,0.04946177452802658,-0.16154608130455017,-0.9856248497962952,0.004264403134584427,0.059693604707717896,0.16754019260406494,0.9825488013536711,0.07581390596603335,0.037944867212627825,0.16556062070264196
1681573976748161500,3.33916162109375,0.08901368826627731,0.36266085505485535,0.7030432820320129,0.052059099078178406,-0.16305801272392273,-0.9852420687675476,-0.000194501131772995,0.05430854856967926,0.1966220736503601,0.9818551875576181,0.07621144617977767,0.039633060980303475,0.16906090581126193
1681573976758206500,3.34920654296875,0.011775661259889603,0.35749366879463196,0.7328003644943237,0.05451594293117523,-0.16392956674098969,-0.9849645495414734,-0.009136326611042023,0.047810107469558716,0.2336980700492859,0.9811465135390449,0.07628479630003775,0.04121124893605842,0.17272514637940944
1681573976768251400,3.35925146484375,-0.05715946480631828,0.35451412200927734,0.7586772441864014,0.056894123554229736,-0.1641129106283188,-0.9847995042800903,-0.016656722873449326,0.04541471600532532,0.26463043689727783,0.9804252506818542,0.07600584886439146,0.04270095153332579,0.17653942131985434
1681573976778297300,3.36929736328125,-0.09537924826145172,0.3400329351425171,0.7679197788238525,0.05913950502872467,-0.1637844741344452,-0.9847218990325928,-0.02399853616952896,0.04687155783176422,0.2908132076263428,0.9796949554799985,0.07547035355828834,0.04408276029385381,0.18044046557588
1681573976788342500,3.379342529296875,-0.09657926857471466,0.32940879464149475,0.765494167804718,0.06122887134552002,-0.1632913500070572,-0.9846760630607605,-0.03359523043036461,0.045829132199287415,0.313731849193573,0.9789537096332487,0.07485685632988684,0.04536976297431738,0.18435802628017936
1681573976798387500,3.389387451171875,-0.09759226441383362,0.32611602544784546,0.7567299604415894,0.06327568739652634,-0.16280436515808105,-0.9846273064613342,-0.04073847830295563,0.046929046511650085,0.31154686212539673,0.9782003977801286,0.07424250667130479,0.04663044047832963,0.1882489194236087
1681573976808433400,3.399433349609375,-0.10147248953580856,0.32194259762763977,0.7417307496070862,0.06531272828578949,-0.1623038500547409,-0.984576940536499,-0.03989160805940628,0.06437286734580994,0.276386022567749,0.9774449555790276,0.0736170172652167,0.04787561919873985,0.19206726984141045
1681573976818478300,3.409478271484375,-0.09716763347387314,0.32834333181381226,0.7575134634971619,0.0673488974571228,-0.1618053913116455,-0.9845218062400818,-0.041729412972927094,0.07888905704021454,0.2491549849510193,0.9766763285126919,0.0729848421760761,0.04911538728615397,0.19586791857087624
1681573976828523500,3.4195234375,-0.06827127188444138,0.3473782539367676,0.7918000817298889,0.0694529190659523,-0.16149240732192993,-0.9844269752502441,-0.05588787794113159,0.06966495513916016,0.23483896255493164,0.9758538802486163,0.0724218180566891,0.0504141406267869,0.199806838092522
1681573976838569500,3.429569580078125,-0.04173025116324425,0.3762066960334778,0.8100003600120544,0.07176556438207626,-0.16154669225215912,-0.9842522144317627,-0.07463424652814865,0.04770080745220184,0.2158958911895752,0.9749647951486007,0.07200208276799155,0.05186141173480344,0.20388672994566415
1681573976848614400,3.439614501953125,-0.054401036351919174,0.40239062905311584,0.8098243474960327,0.07434622198343277,-0.16167961061000824,-0.984038770198822,-0.09172601997852325,0.022580444812774658,0.1934199333190918,0.9740400075489234,0.07158031441825176,0.05344963092544545,0.2080036415705484
1681573976858659600,3.44965966796875,-0.09481754899024963,0.41885244846343994,0.8312891721725464,0.07713090628385544,-0.16156987845897675,-0.9838424921035767,-0.10783161222934723,0.01076720654964447,0.16917574405670166,0.9730890579542563,0.0710018499480872,0.05511355349572246,0.21217678751347516
1681573976868705500,3.45970556640625,-0.134926900267601,0.4106701612472534,0.8456249237060547,0.07992114126682281,-0.16108952462673187,-0.9836985468864441,-0.1181291714310646,0.009447619318962097,0.1401011347770691,0.9721094630691539,0.07022102212483129,0.05674281994743722,0.21645459863608132
1681573976878750500,3.46975048828125,-0.1839018017053604,0.39737507700920105,0.8282792568206787,0.08260271698236465,-0.16020837426185608,-0.9836208820343018,-0.12099386006593704,0.0050417035818099976,0.12197238206863403,0.9711265543680576,0.06924173308879264,0.05826778221650382,0.22073439864153402
1681573976888795400,3.47979541015625,-0.22512274980545044,0.3682241141796112,0.7892061471939087,0.08512485027313232,-0.15886177122592926,-0.983624279499054,-0.1298789083957672,-0.006452023983001709,0.10885316133499146,0.9701769442615363,0.06804791934560717,0.0596434875526809,0.22487552163342242
1681573976898841300,3.48984130859375,-0.24131366610527039,0.3329388499259949,0.7220332026481628,0.08742966502904892,-0.1571834683418274,-0.9836917519569397,-0.1480528712272644,-0.011472001671791077,0.0896793007850647,0.9692874724970059,0.06672214055610003,0.06084645638383496,0.22875278712564073
1681573976908886500,3.499886474609375,-0.23925504088401794,0.2976927161216736,0.6343124508857727,0.08952133357524872,-0.15538541972637177,-0.9837892651557922,-0.1729106307029724,-0.01339210569858551,0.061425983905792236,0.9684834931927915,0.0653788833125193,0.061894843977853865,0.23223810122930943
1681573976918931500,3.509931396484375,-0.20917680859565735,0.26672983169555664,0.5348337888717651,0.09143239259719849,-0.15368863940238953,-0.9838800430297852,-0.19606193900108337,-0.01667580008506775,0.017388343811035156,0.9677814869215998,0.06413099465685813,0.0628267290654487,0.23524269807004577
1681573976928977400,3.519977294921875,-0.1599525362253189,0.2348049283027649,0.43110182881355286,0.09319581836462021,-0.15230108797550201,-0.9839303493499756,-0.221278116106987,-0.01720885932445526,-0.029558420181274414,0.9671872979830364,0.06308109695208208,0.0636836143937877,0.23772689644120035
1681573976939022600,3.530022705078125,-0.11935485154390335,0.20680689811706543,0.33134594559669495,0.09481614083051682,-0.15129484236240387,-0.983930766582489,-0.2405833899974823,-0.014202028512954712,-0.07327437400817871,0.9667037455567703,0.06226588963087812,0.06447923209368409,0.23968570102033207
1681573976949067300,3.5400673828125,-0.10374633222818375,0.18610349297523499,0.23517732322216034,0.09637963026762009,-0.15046022832393646,-0.9839068651199341,-0.25668850541114807,-0.01529604196548462,-0.10611999034881592,0.9663317614248158,0.06157142018802071,0.06523447658954672,0.24115620473225607
1681573976959113500,3.550113525390625,-0.07243486493825912,0.14665700495243073,0.1486901044845581,0.09776010364294052,-0.1497478038072586,-0.9838793277740479,-0.2698182463645935,-0.008974164724349976,-0.12798279523849487,0.9660737899496133,0.060988537906527036,0.06588420100751559,0.24215937691115216
1681573976969158400,3.560158447265625,-0.020261140540242195,0.11001404374837875,0.0793837308883667,0.0988825112581253,-0.14940592646598816,-0.9838191270828247,-0.2829188108444214,-0.004280641674995422,-0.13419228792190552,0.9659073102115453,0.06064437977676869,0.06642803453411952,0.24276062583024385
1681573976979203600,3.57020361328125,0.02205527201294899,0.07711095362901688,-0.021056590601801872,0.09979773312807083,-0.14946125447750092,-0.9837183356285095,-0.2835288345813751,0.0009931623935699463,-0.17076164484024048,0.965837185469436,0.06054829827812439,0.06689348978169679,0.24293586167272355
1681573976989249500,3.58024951171875,0.03636417165398598,0.027941010892391205,-0.14764834940433502,0.1004713848233223,-0.14968116581439972,-0.983616292476654,-0.2747725546360016,0.005973845720291138,-0.22297239303588867,0.9659102314938567,0.060601541496534295,0.06722570862831524,0.2425401868699171
1681573976999294500,3.59029443359375,-0.0030823813285678625,-0.03272242471575737,-0.28364452719688416,0.10080810636281967,-0.14963385462760925,-0.9835890531539917,-0.26705265045166016,-0.006066873669624329,-0.2510605454444885,0.966168041720414,0.06061134106316456,0.06731816384402092,0.24148294751971974
1681573977009339400,3.60033935546875,-0.04671534523367882,-0.07940711081027985,-0.40053439140319824,0.10080589354038239,-0.14900997281074524,-0.9836840033531189,-0.26773709058761597,-0.02867870032787323,-0.2721295952796936,0.9666085638878559,0.06042281672338082,0.06713482421917161,0.23981254645678052
1681573977019385300,3.61038525390625,-0.0209696926176548,-0.12531031668186188,-0.47943881154060364,0.10048282146453857,-0.14815251529216766,-0.9838465452194214,-0.28253546357154846,-0.04772461950778961,-0.2979069948196411,0.9671867335892204,0.06019230188053863,0.06673537582470809,0.23764101166748883
1681573977029430300,3.62043017578125,0.08981887251138687,-0.15142500400543213,-0.5287365913391113,0.09987903386354446,-0.1479586958885193,-0.9839372038841248,-0.29650381207466125,-0.03975500166416168,-0.33477312326431274,0.9678262469439216,0.0603420478933576,0.06625887968387825,0.2351190883244062
1681573977039475500,3.630475341796875,0.22302843630313873,-0.16758126020431519,-0.5814445614814758,0.09917166084051132,-0.14894767105579376,-0.9838595390319824,-0.2831926941871643,0.0002812296152114868,-0.4152340888977051,0.9684819388372835,0.061099870627600646,0.06585621300158463,0.23231998167285647
1681573977049521400,3.640521484375,0.29115980863571167,-0.1996430605649948,-0.6377466917037964,0.09833097457885742,-0.15092778205871582,-0.9836421012878418,-0.2332949936389923,0.05946655571460724,-0.5100254416465759,0.9691678613870784,0.06237840725359936,0.0654818497421229,0.2292046059747992
1681573977059566600,3.650566650390625,0.26695600152015686,-0.25437018275260925,-0.6682023406028748,0.09713027626276016,-0.1530890315771103,-0.9834274053573608,-0.17685747146606445,0.09881345927715302,-0.5377212762832642,0.9698991023821166,0.0638005552343934,0.06492909293103859,0.22585276151705252
1681573977069611500,3.660611572265625,0.18174149096012115,-0.3187025487422943,-0.6929172873497009,0.09539453685283661,-0.15465936064720154,-0.9833515882492065,-0.1249203309416771,0.10299305617809296,-0.4990244507789612,0.9706837671212298,0.06499722071534635,0.06402782346171672,0.2223710421663337
1681573977079657500,3.670657470703125,0.04132803902029991,-0.3685418963432312,-0.7520157694816589,0.09314839541912079,-0.1550856977701187,-0.9834997653961182,-0.08062095940113068,0.09734638035297394,-0.42719054222106934,0.9715513791094993,0.06569218281613855,0.06272679606964433,0.21871866788189948
1681573977089702400,3.680702392578125,-0.12337329983711243,-0.41951799392700195,-0.8746282458305359,0.09058750420808792,-0.15393668413162231,-0.9839193820953369,-0.04343786835670471,0.08525680005550385,-0.3605782389640808,0.9725682817462125,0.06566302015411558,0.06106277707294543,0.21464089838225403
1681573977099747300,3.690747314453125,-0.2685907185077667,-0.4993176758289337,-1.0094059705734253,0.08756427466869354,-0.15110993385314941,-0.9846310615539551,-0.018243618309497833,0.06714075803756714,-0.3022036552429199,0.9737775084087337,0.06488087178289223,0.05894872286196459,0.20993559216611196
1681573977109793500,3.70079345703125,-0.3244190812110901,-0.538631796836853,-1.1004201173782349,0.08403798192739487,-0.14717410504817963,-0.9855340719223022,-0.005775682628154755,0.04729001224040985,-0.24877989292144775,0.9751275687773402,0.0636165169410159,0.056443815537005636,0.20467841517595492
1681573977119838500,3.71083837890625,-0.2769256830215454,-0.5098942518234253,-1.1801204681396484,0.08057311922311783,-0.14316636323928833,-0.9864133596420288,-0.002371847629547119,0.048271894454956055,-0.22920852899551392,0.9765273144297414,0.06230917604051833,0.05395251864603713,0.1990003705482336
1681573977129883600,3.720883544921875,-0.14752349257469177,-0.4599514305591583,-1.2512497901916504,0.07757029682397842,-0.14001521468162537,-0.9871061444282532,-0.004663825035095215,0.07522633671760559,-0.22781383991241455,0.9779216874154509,0.06137479062008691,0.051769205875126505,0.192930692850429
1681573977139929600,3.7309296875,0.026407066732645035,-0.3861245810985565,-1.2776126861572266,0.07524074614048004,-0.13837406039237976,-0.9875178337097168,-0.018798507750034332,0.10855832695960999,-0.1910862922668457,0.9792568544515228,0.0611137931404629,0.050061890095421224,0.1865875922172788
1681573977149974300,3.740974365234375,0.22019465267658234,-0.305952787399292,-1.2792154550552368,0.07371974736452103,-0.13858261704444885,-0.9876033067703247,-0.04442289471626282,0.12925942242145538,-0.1486881971359253,0.9804825900738844,0.06168076575525447,0.04892686100229722,0.18015441035837107
1681573977160019500,3.75101953125,0.37173590064048767,-0.24240659177303314,-1.2991994619369507,0.07297154515981674,-0.14053526520729065,-0.9873828887939453,-0.06262610852718353,0.14038261771202087,-0.12252616882324219,0.9815990345716127,0.06303648295856822,0.048321328820149625,0.17365178428994213
1681573977170065400,3.7610654296875,0.44979768991470337,-0.20913678407669067,-1.33870530128479,0.07281100004911423,-0.14361527562141418,-0.986951470375061,-0.06586827337741852,0.1527552306652069,-0.10080182552337646,0.9826494436020253,0.06490692046689191,0.04807655495399509,0.16696060096753046
1681573977180110300,3.7711103515625,0.45677995681762695,-0.20450368523597717,-1.364395260810852,0.0729358121752739,-0.14706532657146454,-0.9864340424537659,-0.055052533745765686,0.15565596520900726,-0.08235257863998413,0.9836588139101907,0.06694657713396555,0.04797004216258331,0.1601015052803567
1681573977190155500,3.781155517578125,0.400959849357605,-0.21761922538280487,-1.3846172094345093,0.07311095297336578,-0.15023735165596008,-0.9859429597854614,-0.04204408824443817,0.1499626338481903,-0.0585058331489563,0.9846446666351167,0.06885164816379402,0.047832706417847634,0.1531225800177709
1681573977200200400,3.791200439453125,0.32057151198387146,-0.23767948150634766,-1.3978121280670166,0.07316593080759048,-0.1526883840560913,-0.985562264919281,-0.029312200844287872,0.13215000927448273,-0.03106975555419922,0.9856199662469045,0.07041119344087113,0.04755127157032431,0.14606366827432077
1681573977210246700,3.80124658203125,0.23313753306865692,-0.254616916179657,-1.408246397972107,0.07305855304002762,-0.154267355799675,-0.9853243231773376,-0.02163645625114441,0.11564730107784271,0.009326457977294922,0.9865879534797488,0.07154847794602462,0.04710254644723938,0.13894814691666726
1681573977220291300,3.811291259765625,0.15148741006851196,-0.26678702235221863,-1.41698157787323,0.07281946390867233,-0.15501682460308075,-0.9852244257926941,-0.020085103809833527,0.10675320029258728,0.05707806348800659,0.9875441196337599,0.07227847576387078,0.046514769313938345,0.1317910104330261
1681573977230337300,3.821337158203125,0.09304434061050415,-0.2779635190963745,-1.4126973152160645,0.07245470583438873,-0.15507079660892487,-0.9852427840232849,-0.023077279329299927,0.0974840521812439,0.10444444417953491,0.9884770422378233,0.07266281443857776,0.045811762410007936,0.1246376654587638
1681573977240382500,3.831382568359375,0.0672379732131958,-0.29590749740600586,-1.4077603816986084,0.0718853548169136,-0.15477894246578217,-0.9853304028511047,-0.0264294371008873,0.0956052839756012,0.14968281984329224,0.989372300198016,0.07287807220087761,0.04498435838615961,0.11750587862047528
1681573977250427400,3.841427490234375,0.0319145992398262,-0.31359222531318665,-1.4010299444198608,0.07111489772796631,-0.15421073138713837,-0.9854753613471985,-0.0204709991812706,0.09485398232936859,0.18667781352996826,0.9902268565614978,0.07295602041375612,0.04404235161776796,0.11040173760778156
1681573977260472600,3.85147265625,0.014559767208993435,-0.3531665802001953,-1.3970162868499756,0.07004623115062714,-0.15337437391281128,-0.9856824278831482,-0.01238328218460083,0.09455166757106781,0.2143506407737732,0.9910446087959206,0.07290426631802657,0.04293900888631968,0.10330477765405069
1681573977270518500,3.8615185546875,0.06528819352388382,-0.4151676297187805,-1.3596394062042236,0.06839583069086075,-0.1527138203382492,-0.98590087890625,-0.004644624888896942,0.09421154856681824,0.24420166015625,0.9918056240134302,0.07295252594339177,0.04156320762151452,0.09629150966298516
1681573977280563500,3.8715634765625,0.16758789122104645,-0.4650794565677643,-1.3377801179885864,0.06613709032535553,-0.15293289721012115,-0.9860209822654724,0.01090451329946518,0.09223337471485138,0.2665996551513672,0.9924809191058086,0.07344856801839993,0.03993503305303318,0.08939878349865676
1681573977290609400,3.881609375,0.2679169178009033,-0.5131365060806274,-1.3381253480911255,0.06341297924518585,-0.15416133403778076,-0.9860086441040039,0.03647103160619736,0.09506398439407349,0.2557688355445862,0.99307493077943,0.07445185552413133,0.03811286857872424,0.0825022135237039
1681573977300654300,3.891654296875,0.3859694004058838,-0.5838584899902344,-1.3101881742477417,0.06008220091462135,-0.15654060244560242,-0.9858423471450806,0.057303644716739655,0.10597291588783264,0.24754589796066284,0.9935814261177764,0.07603468456768499,0.036021443982159236,0.07561202892183912
1681573977310699500,3.901699462890625,0.49410441517829895,-0.6448006629943848,-1.2658343315124512,0.056057658046483994,-0.16016466915607452,-0.985497236251831,0.07823493331670761,0.10912394523620605,0.25736308097839355,0.9939845268978166,0.07823748752992599,0.033619525357893025,0.0688731183662313
1681573977320745500,3.911745361328125,0.5192080736160278,-0.6855676770210266,-1.2400474548339844,0.0515269860625267,-0.16454154253005981,-0.9850233793258667,0.1001301109790802,0.10063765943050385,0.2718428373336792,0.9943010763142482,0.08080277177724123,0.030971330135074346,0.06226684579410721
1681573977330790400,3.921790283203125,0.4866088330745697,-0.7318233251571655,-1.2003530263900757,0.04659271985292435,-0.1689193844795227,-0.9845280051231384,0.10848234593868256,0.08809350430965424,0.2981113791465759,0.9945608126231197,0.0833452537195186,0.02809933978562456,0.05579373053923916
1681573977340835300,3.93183544921875,0.4090544581413269,-0.7797216773033142,-1.1359450817108154,0.041141148656606674,-0.17282480001449585,-0.9840930104255676,0.10487019270658493,0.07078920304775238,0.3333666920661926,0.9947809772913786,0.08562270122628829,0.024945188254474195,0.04957124368994858
1681573977350881300,3.94188134765625,0.32742273807525635,-0.8174922466278076,-1.0634742975234985,0.035181500017642975,-0.17602230608463287,-0.9837573170661926,0.10701514780521393,0.053158462047576904,0.3563311696052551,0.9949726390319735,0.08751098148784585,0.02152165319479591,0.04368257796085102
1681573977360926500,3.951926513671875,0.27862536907196045,-0.8397273421287537,-0.9872431755065918,0.02882128767669201,-0.17864009737968445,-0.9834922552108765,0.11096446961164474,0.04642261564731598,0.34607166051864624,0.9951331103378296,0.08907055379989977,0.017896906432639446,0.038162554920573626
1681573977370971400,3.961971435546875,0.28612029552459717,-0.8560653328895569,-0.9195525646209717,0.022181600332260132,-0.18112927675247192,-0.9832091331481934,0.12054910510778427,0.046668753027915955,0.30541372299194336,0.9952468121768192,0.0905282681125653,0.014144775319355573,0.03299237297696577
1681573977381017300,3.972017333984375,0.3370839059352875,-0.8599156737327576,-0.842192530632019,0.01533022616058588,-0.18400108814239502,-0.9828065037727356,0.1330767422914505,0.04409317672252655,0.2560608983039856,0.9952936418701717,0.09214370121820835,0.010309981740617183,0.0281771411504294
1681573977391062500,3.9820625,0.4144569933414459,-0.8500170111656189,-0.7534592151641846,0.008359454572200775,-0.18761232495307922,-0.9822075963020325,0.14338919520378113,0.039495185017585754,0.20425349473953247,0.9952582591583162,0.09409912984816694,0.006446805840937137,0.023767589383893995
1681573977401107500,3.992107421875,0.47077324986457825,-0.8079000115394592,-0.660639762878418,0.0015480017755180597,-0.19193732738494873,-0.9814059734344482,0.14820174872875214,0.04130248725414276,0.16646456718444824,0.9951431933440875,0.09638328064700925,0.002698149804269813,0.019827552124495714
1681573977411153700,4.002153564453125,0.49936333298683167,-0.7611245512962341,-0.5585312843322754,-0.004970068112015724,-0.19675396382808685,-0.9804403185844421,0.15203426778316498,0.045462995767593384,0.13536280393600464,0.994963057259556,0.0988893145823557,-0.0008679643558063863,0.016396530633813532
1681573977421198300,4.0121982421875,0.4804653823375702,-0.7320675253868103,-0.4513499140739441,-0.011275296099483967,-0.20162278413772583,-0.9793983697891235,0.1584768295288086,0.04110023379325867,0.09841692447662354,0.9947446022364566,0.1014022540285885,-0.004290484297558587,0.013507709295005636
1681573977431243500,4.022243408203125,0.43114790320396423,-0.7003266215324402,-0.3281203806400299,-0.01750139892101288,-0.20617416501045227,-0.978358805179596,0.17990067601203918,0.0304691344499588,0.06525760889053345,0.9945118595928814,0.10374192505062815,-0.007630160443150426,0.011204867722508578
1681573977441289500,4.03228955078125,0.3427417278289795,-0.6529619097709656,-0.21007710695266724,-0.02357751876115799,-0.21006526052951813,-0.9774030447006226,0.2077663540840149,0.022260010242462158,0.03729379177093506,0.9942891293323424,0.10573979992152584,-0.010843324668797096,0.009526779367239722
1681573977451334400,4.04233447265625,0.19424384832382202,-0.6111489534378052,-0.10750812292098999,-0.029425356537103653,-0.21275576949119568,-0.9766622185707092,0.23404569923877716,0.014971286058425903,-0.001334547996520996,0.9941129888034664,0.1071253056941895,-0.013894160623080274,0.00840429322507115
1681573977461379600,4.052379638671875,0.039122216403484344,-0.5851042866706848,0.01120653934776783,-0.035163745284080505,-0.21390259265899658,-0.9762219190597534,0.2584608495235443,0.007969900965690613,-0.03784668445587158,0.9940068399680508,0.10772897345435327,-0.016838010212200712,0.00784166439656471
1681573977471425500,4.062425537109375,-0.1005973368883133,-0.5557032227516174,0.1369844377040863,-0.040917541831731796,-0.213570237159729,-0.9760704636573792,0.2827693223953247,-0.004035428166389465,-0.06821054220199585,0.9939682158738876,0.10759001001946802,-0.01972733720675675,0.007904314329519269
1681573977481470500,4.072470458984375,-0.23107993602752686,-0.523535966873169,0.24742813408374786,-0.046610310673713684,-0.2118156999349594,-0.9761975407600403,0.3078712821006775,-0.020194262266159058,-0.10069149732589722,0.9939948013827118,0.10674164464868022,-0.022526925070641475,0.008558125916746416
1681573977491515400,4.082515380859375,-0.33274585008621216,-0.49679192900657654,0.3624519109725952,-0.05221998319029808,-0.20886549353599548,-0.9765491485595703,0.3243147134780884,-0.027950987219810486,-0.1349315047264099,0.9940721028251709,0.10530341413307341,-0.02523103218714107,0.009767268307975412
1681573977501561300,4.092561279296875,-0.39880234003067017,-0.4709111452102661,0.4636877179145813,-0.05781456083059311,-0.20501181483268738,-0.9770504832267761,0.3336018919944763,-0.028447717428207397,-0.15266448259353638,0.9941792183382409,0.1034293694451801,-0.0278770182242276,0.011529884111216216
1681573977511606500,4.1026064453125,-0.4586014747619629,-0.4372764825820923,0.5465884208679199,-0.06331907212734222,-0.20050598680973053,-0.977644145488739,0.34073910117149353,-0.02855902910232544,-0.144731342792511,0.994300124306301,0.10124910011273017,-0.030439333453417764,0.013765074804673599
1681573977521651500,4.1126513671875,-0.5322010517120361,-0.36992374062538147,0.5938182473182678,-0.06843380630016327,-0.19525772333145142,-0.9783614873886108,0.3353557884693146,-0.028054729104042053,-0.12513881921768188,0.994441523490262,0.09871323828080601,-0.03278630678396497,0.016338612308933485
1681573977531697400,4.122697509765625,-0.6219245195388794,-0.244133859872818,0.6315158605575562,-0.07266412675380707,-0.18914708495140076,-0.9792565107345581,0.3103350102901459,-0.03140351176261902,-0.0941687822341919,0.9946164805848315,0.09575291792412598,-0.034686099263131535,0.019139842206566497
1681573977541742600,4.13274267578125,-0.6788284182548523,-0.05295679718255997,0.7159993052482605,-0.07538916170597076,-0.18220895528793335,-0.9803654551506042,0.25425267219543457,-0.04890073835849762,-0.08785659074783325,0.9948295023568324,0.09238066009156111,-0.035820395584527126,0.022292494394332046
1681573977551787300,4.142787353515625,-0.7155320644378662,0.17758694291114807,0.8697507977485657,-0.07615987211465836,-0.1746906042098999,-0.9816734790802002,0.18489398062229156,-0.06980106234550476,-0.15277165174484253,0.9950644894673045,0.08872267016355903,-0.0359379508998776,0.0261416451151455
1681573977561833500,4.15283349609375,-0.70010906457901,0.3837532103061676,1.0764105319976807,-0.07499995082616806,-0.16693200170993805,-0.9831117391586304,0.13119806349277496,-0.08547893166542053,-0.25097328424453735,0.9952867098338151,0.0849520682153923,-0.03503241526145115,0.03099016864732352
1681573977571878400,4.16287841796875,-0.6888894438743591,0.5587271451950073,1.2803900241851807,-0.07221576571464539,-0.1592014729976654,-0.9846013188362122,0.12217302620410919,-0.09114953875541687,-0.32300055027008057,0.9954562740122462,0.08119953199150426,-0.03325613821319227,0.036981144949015825
1681573977581923600,4.172923583984375,-0.7104855179786682,0.6817452907562256,1.4190045595169067,-0.06810875982046127,-0.15133292973041534,-0.9861336350440979,0.16188925504684448,-0.08253860473632812,-0.3466147780418396,0.9955608659830214,0.07736125752936039,-0.030796405094654422,0.04388093611589309
1681573977591969500,4.182969482421875,-0.787535548210144,0.7564957141876221,1.5210074186325073,-0.06309612840414047,-0.14297576248645782,-0.9877129197120667,0.21907144784927368,-0.06745827198028564,-0.31248849630355835,0.9955977485641354,0.07324465256114804,-0.027906276884958746,0.0513980999084393
1681573977602014000,4.193013916015625,-0.9635260701179504,0.7726806402206421,1.5703309774398804,-0.057560551911592484,-0.1333727091550827,-0.9893929958343506,0.2634778916835785,-0.05951371788978577,-0.2698233127593994,0.9955796545707966,0.06846162986383479,-0.024829534338612305,0.059310540867468335
1681573977612059100,4.20305908203125,-1.1361417770385742,0.6745373010635376,1.5216047763824463,-0.05228722468018532,-0.12203475832939148,-0.9911475777626038,0.30285176634788513,-0.05629477649927139,-0.21576154232025146,0.9955196835014727,0.0627784610473089,-0.02202417994869452,0.06719036787080748
1681573977622105000,4.21310498046875,-1.2526112794876099,0.565170407295227,1.3996915817260742,-0.04778994992375374,-0.10932902246713638,-0.9928561449050903,0.32624757289886475,-0.05964687466621399,-0.11455047130584717,0.9954234622834789,0.05639755801404637,-0.019780103827266162,0.07456699291432779
