,seconds_elapsed,rotationRateX,rotationRateY,rotationRateZ,gravityX,gravityY,gravityZ,accelerationX,accelerationY,accelerationZ,quaternionW,quaternionX,quaternionY,quaternionZ
0,0.0,-0.6960726094619861,-0.29601018216029024,0.22581245406567696,-0.03676776687454236,0.08071827935779413,-0.9961297427347229,-0.01868288176730018,0.06472788343449294,0.050287928243334695,0.999037789111374,-0.040666628907320174,-0.017969687793128422,-0.010911567368759048
1,0.01,-0.6357333773627994,-0.28096218431133985,0.22261533424120455,-0.03776114185714399,0.0805723099423881,-0.9960928837166036,-0.016915819253741717,0.06520759881460687,0.046807476939146504,0.9990280548473885,-0.0405702728681892,-0.018505172951663165,-0.009949388625267317
2,0.02,-0.5753941452636128,-0.2659141864623894,0.21941821441673215,-0.03875451683974562,0.08042634052698207,-0.9960560246984844,-0.01514875674018325,0.06568731419472079,0.043327025634958306,0.9990183205834031,-0.040473916829058224,-0.019040658110197905,-0.008987209881775583
3,0.03,-0.5150549131644261,-0.25086618861343907,0.21622109459225974,-0.03974789182234725,0.08028037111157604,-0.9960191656803652,-0.013381694226624786,0.06616702957483472,0.039846574330770115,0.9990085863194176,-0.04037756078992724,-0.019576143268732644,-0.008025031138283852
4,0.04,-0.4547156810652393,-0.23581819076448865,0.21302397476778734,-0.040741266804948884,0.08013440169617,-0.9959823066622459,-0.01161463171306632,0.06664674495494864,0.036366123026581924,0.9989988520554322,-0.040281204750796266,-0.020111628427267388,-0.007062852394792118
5,0.05,-0.3943764489660526,-0.22077019291553826,0.20982685494331493,-0.041734641787550514,0.07998843228076398,-0.9959454476441266,-0.009847569199507855,0.06712646033506257,0.03288567172239373,0.9989891177914467,-0.040184848711665284,-0.020647113585802127,-0.006100673651300386
6,0.06,-0.334037216866866,-0.2057221950665879,0.20662973511884253,-0.04272801677015214,0.07984246286535795,-0.9959085886260074,-0.008080506685949392,0.06760617571517649,0.029405220418205546,0.9989793835274613,-0.04008849267253431,-0.02118259874433687,-0.005138494907808654
7,0.07,-0.27369798476767926,-0.19067419721763748,0.20343261529437012,-0.04372139175275377,0.07969649344995192,-0.9958717296078881,-0.006313444172390925,0.06808589109529042,0.02592476911401735,0.9989696492634759,-0.039992136633403334,-0.02171808390287161,-0.004176316164316921
8,0.08,-0.21335875266849263,-0.1756261993686871,0.20023549546989775,-0.0447147667353554,0.07955052403454589,-0.9958348705897688,-0.004546381658832461,0.06856560647540434,0.02244431780982916,0.9989599149994904,-0.03989578059427235,-0.02225356906140635,-0.003214137420825189
9,0.09,-0.15301952056930598,-0.1605782015197367,0.19703837564542534,-0.04570814171795703,0.07940455461913985,-0.9957980115716496,-0.0027793191452739965,0.06904532185551827,0.018963866505640973,0.9989501807355049,-0.03979942455514138,-0.022789054219941093,-0.002251958677333457
10,0.1,-0.09268028847011923,-0.1455302036707863,0.19384125582095293,-0.04670151670055866,0.07925858520373383,-0.9957611525535303,-0.0010122566317155302,0.0695250372356322,0.015483415201452778,0.9989404464715195,-0.039703068516010395,-0.023324539378475832,-0.0012897799338417236
11,0.11,-0.03234105637093259,-0.13048220582183592,0.19064413599648053,-0.04769489168316029,0.07911261578832779,-0.995724293535411,0.0007548058818429338,0.07000475261574612,0.01200296389726459,0.998930712207534,-0.03960671247687942,-0.023860024537010572,-0.0003276011903499918
12,0.12,0.027998175728254058,-0.11543420797288553,0.18744701617200812,-0.04868826666576192,0.07896664637292176,-0.9956874345172918,0.002521868395401398,0.07048446799586006,0.0085225125930764,0.9989209779435486,-0.039510356437748445,-0.024395509695545315,0.0006345775531417402
13,0.13,0.055356722175894116,-0.10616343614455416,0.18626830423051866,-0.0496078584257296,0.07858405688560555,-0.9956723068596668,0.0004766624357587742,0.06831513223174991,0.0051828048833944184,0.9989161199781397,-0.03929484482075393,-0.02489346702548196,0.001593532804588096
14,0.14,0.04924223488493084,-0.10547812469778316,0.1831469398458743,-0.050486138579447504,0.07807143726285418,-0.9956685001518706,0.001362642767959657,0.05282596954019954,0.0010034020205904712,0.9989132272053047,-0.0390135841615975,-0.02536965829351097,0.002539599708795666
15,0.15,0.018265351146999564,-0.11576590947396345,0.1773342889614761,-0.05141285349537657,0.07776546522864293,-0.9956450361944184,0.0028179547284769907,0.02694988110733403,0.0035044332134116533,0.9989092722352723,-0.03889858495578748,-0.025775030656538786,0.0010405196490517188
16,0.16,-0.030223982093102786,-0.1466213476440576,0.17150421385699854,-0.05253293140028249,0.07786650269643493,-0.9955785923080998,0.0011616105726021035,-0.0009721037731804799,0.006019870828839741,0.9988939171000906,-0.0389613308147125,-0.02631763315057735,0.0005654584791696915
17,0.17,-0.09589703267100119,-0.1836346590854316,0.1761360883013248,-0.05399532589481439,0.07856417033023622,-0.9954453181630749,-0.0006717947521528005,-0.028503533665969166,0.0059374764151489436,0.9988596394423768,-0.039287165185835686,-0.02708601715164296,0.0014600628124302175
18,0.18,-0.17981777042537478,-0.20768335134196758,0.21104209560745674,-0.055772621318405276,0.08007554230318985,-0.9952264409375299,0.001040075493023544,-0.05270718127812417,0.0037464845533790106,0.9988029623454728,-0.04001743873917721,-0.028017222794505383,0.0024275275914206313
19,0.19,-0.2404965967371781,-0.23948964290641866,0.21023998240764377,-0.05785737924756831,0.08233683967086715,-0.9949223369431583,0.005025910781122468,-0.06729781691782208,0.0065591834049154064,0.9987236296174373,-0.04111862680842186,-0.029110261424434205,0.0035036075843587304
20,0.2,-0.26390969423567107,-0.25082707077923744,0.184500746056989,-0.06014010840715635,0.0850407000801892,-0.9945591821728051,0.010812294986159076,-0.06869805514742303,0.014101081215806593,0.9986287109096635,-0.04244169715338841,-0.030303284906580245,0.004508210474919264
21,0.21,-0.2563569902677865,-0.23719370855567193,0.1648015877993858,-0.06240895594410999,0.08780775178676925,-0.9941789890859853,0.0020684343447025678,-0.05666057054567432,0.01205982778064307,0.9985291565030572,-0.04379832191559789,-0.03148723897435291,0.005391644827841725
22,0.22,-0.22891463132257672,-0.21354589545824865,0.14583259722918432,-0.06452091740532645,0.09034308839953403,-0.9938172432347822,-0.011397142405778792,-0.025086885415185035,0.0062714810900690015,0.9984340562587655,-0.04504053293523368,-0.03259003660680011,0.00617904940929326
23,0.23,-0.19467705242811925,-0.1794505833097344,0.12799802468021565,-0.06636484277074486,0.09254572593741343,-0.9934934462040641,-0.009904222844604703,0.008210412658473816,0.0012694629490750055,0.9983483799393804,-0.046118203613487244,-0.033555100962033346,0.006875361687292943
24,0.24,-0.1614513965673056,-0.14133174987468708,0.10924634120371321,-0.06785319713747512,0.09440333043578707,-0.9932184030439178,-0.008977434779797375,0.024716681931671477,0.0008757852357512148,0.9982752400628018,-0.04702598627955034,-0.03433751311657053,0.007475968672187054
25,0.25,-0.13401231904451338,-0.11450479667537751,0.09579760617565733,-0.06901681593927463,0.09593691601159411,-0.9929914557264301,-0.015281224702074145,0.030129359182174482,0.002058232483322846,0.9982144324018085,-0.04777451505459151,-0.03495251759039341,0.007987728975721814
26,0.26,-0.12980125449770172,-0.1038628098454794,0.08969115593132988,-0.06999744186293357,0.09730484880186367,-0.9927897499008713,-0.01601865215912415,0.02953357459375403,-0.0007568338968137853,0.9981600025477655,-0.04844150295890963,-0.03547374899290125,0.008457115473852738
27,0.27,-0.1435324254172787,-0.1085258663855187,0.09492924209022044,-0.07094931777032626,0.09871690079357857,-0.9925826889382698,-0.009437795723200398,0.02082721403116295,-0.0024213771014729097,0.9981040945227877,-0.04913035204808712,-0.035981538125705655,0.008926655257420998
28,0.28,-0.1619557143375197,-0.13180439547581307,0.10397883619164429,-0.07203647519975331,0.10029598399412687,-0.9923458949002301,-0.004212592578915278,0.004675475375591716,-0.0021914686143586983,0.9980401915826215,-0.049901039372048366,-0.0365604585747727,0.009427702245085516
29,0.29,-0.19381647645703795,-0.16238667739103135,0.11344477339638663,-0.07338608872615593,0.1021315746002116,-0.9920594984755934,0.0006273981328438843,-0.0141741601073915,-0.0041121231988795436,0.997963103508044,-0.050797388276517204,-0.03727576215125383,0.009973709313326645
30,0.3,-0.23786973457144517,-0.19579179489636878,0.13012090260467218,-0.07503892587521066,0.10436295718135478,-0.9917031786003023,0.007530171090123962,-0.026386653843409345,-0.0019641212076983313,0.9978675241157715,-0.05188819805949986,-0.0381502591941385,0.010584727514056891
31,0.31,-0.27433385835197693,-0.23494645311829176,0.15030673587123455,-0.07703000827272931,0.10701223555841542,-0.991267659081663,0.01230623145878407,-0.03205482028874111,0.0020544966292413863,0.9977506567490781,-0.05318285089206951,-0.039204066775990476,0.011292737625092426
32,0.32,-0.3118543593287381,-0.27098114224503156,0.1722371342101255,-0.07936033511656311,0.11004606264851478,-0.9907510416577976,0.01665149151857881,-0.03458385627901782,0.003816484509408336,0.997611651300538,-0.054663819399379664,-0.04043888584604921,0.01210578471088874
33,0.33,-0.34961002971296645,-0.2950107062622126,0.2129167185979363,-0.08195680719965405,0.11347686939126464,-0.9901519367652208,0.02309055636916443,-0.028554741146270567,0.005813534783815845,0.9974493764739008,-0.05633547884351915,-0.04182154933409391,0.01306370037882032
34,0.34,-0.36605678766965866,-0.31522366579296524,0.28890404548459875,-0.08468763943363736,0.11726625116198387,-0.9894800052191447,0.026494924663339945,-0.01823869972770068,0.012505051262170367,0.9972633717178337,-0.0581713806609804,-0.043296727768510374,0.014330792464425392
35,0.35000000000000003,-0.3630906091204788,-0.3254489994449243,0.32135543072899864,-0.08750302912807767,0.12114634646362792,-0.9887673629048108,0.027704010898301462,-0.010100556670564642,0.019910151383990132,0.9970612015338673,-0.06003721463462372,-0.044837279557818494,0.015876249582531747
36,0.36,-0.3559165918819245,-0.32551254501580257,0.3243233134629601,-0.0903424656627169,0.12497135883760531,-0.9880357099613495,0.030412340578441204,0.0009292812432013745,0.01873705388186016,0.9968506564702649,-0.06186820750340609,-0.04640058104016967,0.01749499272004255
37,0.37,-0.340151159267195,-0.3293843866436176,0.3563592312584906,-0.09314186773294786,0.1287397148177945,-0.9872917987138263,0.02122560899704147,0.01741768859160831,0.011534654479612137,0.9966324308383189,-0.0636624458337649,-0.04795620804434812,0.01920894317337798
38,0.38,-0.3128182568782932,-0.3298399318520975,0.38298453393383425,-0.09590226686009932,0.13232157122704843,-0.9865539543451659,0.013584317312624355,0.024690546811727995,0.008083273084788005,0.996409369287582,-0.0653510052221778,-0.0495075701609975,0.02108293758879557
39,0.39,-0.2663490515414672,-0.3246659976734831,0.3970256046107005,-0.09859935148466509,0.1355448267390631,-0.9858507057471269,0.016860430108867473,0.01764266534582596,0.008600180609006698,0.9961888776467737,-0.06684911290085692,-0.051037111957477226,0.02306890569312568
40,0.4,-0.22101373250244177,-0.31062152281675887,0.40905946873354654,-0.10117232727970164,0.13834211747093206,-0.9852016619442244,0.012897165107386706,0.017640311235958966,0.00822164951509319,0.9959761886001796,-0.06812507399347263,-0.052509923868350385,0.025126950692333894
41,0.41000000000000003,-0.18911486940438468,-0.28509856807555106,0.4199465908881765,-0.10352718053494882,0.14078109744700323,-0.9846117069777873,0.00521799851771226,0.024144962608665207,0.005776476765722804,0.9957724483180841,-0.06921472546122179,-0.05387757589806732,0.027242841193423024
42,0.42,-0.16468799632198344,-0.2591292460325487,0.42370536571439915,-0.10561369149440478,0.14294992360604175,-0.9840777250674331,-0.0006678169315187778,0.02633271111495213,0.0027734435974327044,0.9955772193175341,-0.07016470425724071,-0.055113540450354534,0.0293936741257914
43,0.43,-0.16809147471715705,-0.22920421310930042,0.4183110964809844,-0.10738485030647059,0.14502833091033804,-0.9835819538352554,-0.005740479581416201,0.026190341234042156,-0.0011034030692885315,0.9953871696245571,-0.07106941587550414,-0.0561933939177352,0.031535631622649524
44,0.44,-0.1583801555746961,-0.18635763486888945,0.4005755125719692,-0.10885363227381853,0.14707877000799321,-0.9831160686833843,-0.008876960843216998,0.023934045512767805,0.00044549807698563825,0.9952023886051489,-0.07196464590251518,-0.0571198189114365,0.03360658427943215
45,0.45,-0.1227929706555169,-0.16058169360230035,0.39478881795653226,-0.11000468336829536,0.1489275768037542,-0.9827098040561884,-0.011567113688204305,0.01808543669917896,0.011915594635961611,0.9950309976175065,-0.07276450195204281,-0.05788076021117157,0.035600123266422826
46,0.46,-0.0852824696560623,-0.15327248726492115,0.4105285683781113,-0.11089106211919567,0.15042745836988902,-0.9823818852411266,-0.014790940888102844,0.024197227259199663,-0.0051265706417298225,0.9948738654654752,-0.0733880735261126,-0.058507239087683835,0.03762875304147328
47,0.47000000000000003,-0.032618351204342796,-0.1309250088359356,0.4036454608058706,-0.11166113285916406,0.1514395826261618,-0.9821393183025845,-0.0027396511983163105,0.03949587855866274,-0.020135975965281397,0.9947326921047466,-0.07376336731035926,-0.05906977598612702,0.03969377857509402
48,0.48,0.013235513906892277,-0.12710160652079774,0.38365263688089174,-0.11233827706329264,0.1519616170223838,-0.9819815030658852,0.004049598735564283,0.03001227877957073,0.004008494009004684,0.994611479536141,-0.07389531303061485,-0.059570788323715415,0.041689016809487646
49,0.49,0.032209503550993876,-0.15056210276172238,0.3804727236605372,-0.11311598795100647,0.15219051093192185,-0.981856721146484,-0.014954891382665604,0.016688796350716528,-0.0028097319639999747,0.9944964088579216,-0.07387824980337075,-0.06011282582753692,0.043639578852585126
50,0.5,0.03915831139582451,-0.14585589333934681,0.3634198363906549,-0.1140138325218147,0.15225490022776192,-0.981742888978384,-0.009422029927372868,0.006996175599763664,-0.0158404044011263,0.9943816193863437,-0.07377565684032458,-0.06070930335601225,0.045561728178693146
51,0.51,0.04106015437025128,-0.11961764838148461,0.32371986862426627,-0.11480043776366966,0.15222818563329263,-0.9816553872837315,0.003666420468508972,-0.013285904083965412,0.0028947260872972183,0.9942766484218372,-0.07363637258543015,-0.06123662931783962,0.047340474769874574
52,0.52,0.020817916482744833,-0.10943546025721244,0.28908112269310987,-0.11547230564364871,0.15225998251150313,-0.9815716626985428,-0.014200976434989302,-0.01446194753421857,0.004969214011231512,0.9941795597578225,-0.07354030794357064,-0.061692308177482356,0.04891303810065314
53,0.53,-0.027483078604498553,-0.09465437943789634,0.2596324973372078,-0.11605945154982929,0.15259813940436506,-0.981449880107941,-0.018011751545847936,-0.007284754161597729,-0.001655749510216388,0.9940789284640824,-0.0736100434274417,-0.06210135535550636,0.05031715645587093
54,0.54,-0.09243595887063132,-0.08144376450261769,0.22902375526829855,-0.11653450795193014,0.1534569540028259,-0.9812595150995737,-0.0038842091546287903,-0.01931868419165087,0.011670946149060068,0.9939679727817514,-0.07395494515047846,-0.062456440023706726,0.051548781769477664
55,0.55,-0.14430208788117746,-0.08411947232897134,0.20079047464702304,-0.11701293757492763,0.15488649701826201,-0.9809777245504185,-0.006135670077598174,-0.029551371349727046,0.015082214367621062,0.9938412051128379,-0.07459736236175392,-0.06281855230909851,0.0526157405161092
56,0.56,-0.1744134235572763,-0.09037477811913967,0.17305802624620092,-0.11758542034683964,0.15669626068759596,-0.980621677348763,-0.0024712781174693584,-0.0305596636291088,0.010168895155409098,0.993702650208351,-0.0754382327397104,-0.06322956367814954,0.05353354830019377
57,0.5700000000000001,-0.18923090983529664,-0.08851763922604955,0.1406187745323978,-0.11820706894363968,0.15867551279863376,-0.9802285884845049,0.011054550148618085,-0.026323731207190143,0.011146192601177189,0.993562745374217,-0.07637329525341773,-0.06365976532644682,0.054289542748373144
58,0.58,-0.18931585283369934,-0.08537249475190174,0.11388588269671207,-0.11884831256341054,0.16068923267222462,-0.9798229298933179,0.011614609685223817,-0.012528182570253281,0.010685174374666363,0.9934277551985135,-0.07733492600382987,-0.06409043302388334,0.054890120788856765
59,0.59,-0.15882525648141474,-0.08656636696522407,0.09782021772446439,-0.11952224283546828,0.1625459436369714,-0.9794347920303095,0.00665249972725409,0.002465789153297418,0.0058151871901935956,0.9933023558907288,-0.07822280915932672,-0.0645260851893544,0.055389141271419466
60,0.6,-0.09493736589072399,-0.08573027619680007,0.08883165590518231,-0.1202268511844236,0.16388879009312685,-0.979124933633114,0.007035539056719643,0.00896078258540162,0.005547308786118628,0.9931988587699466,-0.0788530958930766,-0.0649587420699714,0.05584396790248637
61,0.61,-0.05265407983375168,-0.07984545572332037,0.08357346365604906,-0.12091463149213119,0.1646923660599749,-0.9789054659123131,0.004938439576602608,0.015496037013568636,0.0021751387280523234,0.9931189289601401,-0.07921237160257384,-0.06536530637836865,0.05628128370320353
62,0.62,-0.02564490407996723,-0.061177780114774136,0.08731398368190782,-0.1214687136257291,0.16518340493483413,-0.9787541679414637,0.0002149043689769152,0.02661200273844491,-0.007336699253164236,0.9930558830084597,-0.07941691164077816,-0.0656951168188118,0.056720286524786064
63,0.63,0.0026329438604185884,-0.03205890858154668,0.09435055117400269,-0.12177727860732594,0.16539479315571723,-0.9786801644748029,-0.002390218054479645,0.029152298694438514,-0.005559407329577819,0.9930105144277555,-0.07948469121332198,-0.06589462247791339,0.05718601834517787
64,0.64,0.014760592271633986,-0.007155398300443245,0.10184711256162071,-0.12178239604042024,0.16538487629572815,-0.9786811884089202,-0.010293519659375822,0.023200308369245318,-0.0026957076687551098,0.9929818447647235,-0.07944629053098202,-0.06593697452433304,0.057687206866087984
65,0.65,0.0022297229823166186,0.013585876793655822,0.10466613160179288,-0.12150672911218999,0.16529246666972058,-0.9787310431402381,-0.017822634295467373,0.019832988871928393,-0.002211009233381264,0.9929639318453137,-0.07937245028955518,-0.0658367604848534,0.05820866859495656
66,0.66,-0.04101818848589031,0.033759199556085695,0.10436021770443361,-0.1210417147859467,0.16551704380464663,-0.9787506687030022,-0.01916255908978204,0.008257423388873485,0.001270955059098848,0.9929387064863278,-0.07946459522233856,-0.06565070474784895,0.05872099368251162
67,0.67,-0.1109206913622871,0.04836926453144829,0.09440334321980863,-0.12044533699145463,0.1663676621013294,-0.9786798105879647,-0.020784764707613576,-0.008366258793547188,0.005195416951884872,0.9928939124727758,-0.0798805983239152,-0.06541450385679683,0.05917504169434924
68,0.68,-0.1831089416264975,0.05570741276100844,0.0767963356417891,-0.11975186602182758,0.1679527065848574,-0.9784938915607416,-0.023027272434097756,-0.020932837393455524,0.008335893030835253,0.9928257491277683,-0.08067684059998363,-0.06514629078323364,0.05953285265202267
69,0.6900000000000001,-0.24391565888762767,0.06771007836905313,0.06123808111488324,-0.11901172781685951,0.1701722028847458,-0.9782003299514463,-0.02173224362996035,-0.028812245569717326,0.012180162354086914,0.992736790831429,-0.0818022769662013,-0.0648674938857806,0.05978361524045956
70,0.7000000000000001,-0.308131075367877,0.08049373565857376,0.048332326320861894,-0.11821182180622158,0.17302278431240797,-0.977796743143977,-0.017998168538664705,-0.028267862540921534,0.015645762553183826,0.9926261323879111,-0.08325537614316719,-0.06457182391718623,0.05993302369835538
71,0.71,-0.36286595453480314,0.09859217166138148,0.037672125473124755,-0.1173185151854623,0.1764603555882489,-0.9772895139525387,-0.014879597652119578,-0.021201782049167853,0.017424242419577473,0.9924947112306314,-0.08501426650686272,-0.06424164056229269,0.05999273216191721
72,0.72,-0.4082110894433484,0.11581658937516372,0.02658140059688112,-0.11631987892997796,0.18033575346004274,-0.9767009117762957,-0.012453674168072375,-0.017060480115830327,0.02108273679968625,0.9923472850529299,-0.08700303079904492,-0.06386706534458451,0.059979673007527975
73,0.73,-0.4534597821773461,0.13137567088512075,0.024211621920086163,-0.11522232396092769,0.18459847902121523,-0.9760340648677462,-0.011891974389848112,-0.009410963010703417,0.022995628136974106,0.9921838348889565,-0.08919554897005419,-0.06345022942843068,0.05990425222693689
74,0.74,-0.44634411159535564,0.12807837085053755,0.02105397989219126,-0.1140714241559101,0.18901875662684142,-0.9753233195378438,-0.010154362810525492,-0.005170985504365953,0.025533419112648413,0.992010791826745,-0.09147202489458936,-0.06300942616383577,0.05980391047292839
75,0.75,-0.3380508512280948,0.09126844179984903,0.011598471595339643,-0.11314991736034191,0.19274362823851662,-0.9747027536591543,-0.005187490423592227,-0.011137700327084481,0.01983383420086375,0.9918611397181151,-0.09339166871102837,-0.06265962806130557,0.059691907317105816
76,0.76,-0.21445788403702662,0.04896906996040717,0.0053508260927680375,-0.11267913245150206,0.19511221570328152,-0.9742863913426795,0.0015793829606226158,-0.011357953508155763,0.0028945096548700956,0.9917618614388389,-0.0946111421812542,-0.06249292894349395,0.05959711232672996
77,0.77,-0.1737312552308858,0.025089749010201192,0.008560222802475556,-0.11251609569007726,0.19673770600908602,-0.9739784665582619,0.006309770006792949,0.0012010135097646106,-0.014650339371105107,0.9916876732232655,-0.09544339577837509,-0.06245987297997741,0.05953940445354544
78,0.78,-0.1115437571462678,0.004670783520291334,0.012981863128604698,-0.11253054641724806,0.19788046756220895,-0.9737453742000202,0.012396862550498293,0.01822912594830304,-0.017135746516474287,0.991630039901859,-0.09602368488812833,-0.06250381555157063,0.05952057497083135
79,0.79,-0.05192699537730454,-0.011141465396455982,0.018969106524755915,-0.11264415582623914,0.19855718674073938,-0.9735945472830831,0.010844943189017815,0.02210102048752603,-0.006440504588562761,0.9915893676083709,-0.09636102448890928,-0.06258816721375389,0.059564334173318745
80,0.8,-0.025168420709129672,-0.011935464194652858,0.026153922969302194,-0.1127831379124222,0.1988181217250333,-0.9735251936340142,0.0020777940469117796,0.022691580189335304,-0.0101048231119091,0.9915662641066781,-0.09648363885391874,-0.0626761883909864,0.05965803554173366
81,0.81,-0.01456617835473031,-0.010445652851415667,0.036137125606857445,-0.11288055992544407,0.1989929023386422,-0.9734782112726572,-0.0005087958185094165,0.028922788072756684,-0.00566127785710237,0.9915457714078004,-0.09656052917249776,-0.06274521756104949,0.059801593942386815
82,0.8200000000000001,-0.0069891146318938465,-0.013622338117280062,0.04393682067861075,-0.11296103624451118,0.1991300655355198,-0.9734408357035298,-0.0019034753848848741,0.025096036919132876,0.0009497123610320147,0.9915243412781121,-0.09661532236212143,-0.0628097886497945,0.0599999571767909
83,0.8300000000000001,-0.005244741618026542,-0.011858016275890493,0.04977056028076859,-0.11301638637812125,0.19919873118958986,-0.973420351515846,-0.0018271996264277086,0.019151650889429377,0.0027109746597237558,0.9915047919138561,-0.0966335408683767,-0.06286322697822826,0.06023786890632945
84,0.84,0.007591221561586864,-0.009617390981691518,0.056761762617649855,-0.11300803133773417,0.19922144126299485,-0.9734166697383106,0.0025103685230738306,0.02048406575662342,0.0027970918012281947,0.9914876110252903,-0.09662833673055723,-0.06288583611994839,0.060505174535524855
85,0.85,0.009545965293006685,-0.010260358532635544,0.060671241735203836,-0.11296765892964987,0.19918354740507613,-0.9734291172887494,0.004126984271346971,0.02491568354031912,0.006814565181975204,0.9914723939843908,-0.09659123293677119,-0.06289338736632309,0.060804990020450915
86,0.86,0.010315263211957417,-0.01190419812923551,0.06113425652956871,-0.11288596625869436,0.19920175942715443,-0.9734348861481951,0.005024387724025737,0.023109951531864136,0.006854012856259905,0.9914546278636114,-0.09658291147040568,-0.06288330518253966,0.06111806802753757
87,0.87,0.012042848234803765,-0.01628229492855206,0.06194527561974575,-0.11281999215177299,0.19925633054695494,-0.9734313587200573,0.009275924249187455,0.019845935158174857,0.010002438174574878,0.9914338145668358,-0.09659202166110091,-0.06288330702526156,0.061440256816860675
88,0.88,0.0090954943411169,-0.02330725091206373,0.06587496263656487,-0.11287007835603663,0.19933182369004504,-0.9734100839521193,0.008825331915857342,0.01624527326275629,0.01169520679751267,0.9914080485871654,-0.0966081298741905,-0.06294307624062068,0.06176737112677132
89,0.89,0.025304380565654996,-0.03151829022156238,0.07021628061183638,-0.11300326137125462,0.19939796959830466,-0.9733810812973371,0.008965873192491489,0.012783340818079953,0.010578271405452618,0.9913785510445413,-0.09661527717374056,-0.06304718849844822,0.06212272136599671
90,0.9,0.03421257213310572,-0.03609254018330619,0.06932138526745828,-0.11320846078656764,0.19930039782734302,-0.9733771955255675,0.009785171677592179,0.008558667897787406,0.008973593821350961,0.9913543936271659,-0.09653634134700856,-0.06318325595848102,0.06249223926802568
91,0.91,0.03147637252187397,-0.046573895875334566,0.08316846082862986,-0.11347622254043918,0.19917842382067188,-0.9733710200280914,0.007658025578173921,0.0066655938557720635,0.001939879752268959,0.9913271286661204,-0.09644077946367108,-0.06335353031924645,0.06289838018027565
92,0.92,0.030464778690639863,-0.05254338418385639,0.09405874037523711,-0.11377307162874112,0.19905187032020308,-0.9733622479280212,0.005751878636599221,0.002404205728049388,-0.0005500536912690236,0.9912942580427855,-0.09633717433106338,-0.06354547461520879,0.06337872753866372
93,0.93,-0.007067443502721855,-0.054115940374717224,0.09552375380651355,-0.11406454940486258,0.1991692167264171,-0.9733041176396445,0.007647408838910058,-0.00693161906689639,0.004434868304556472,0.9912467322454822,-0.09635523417685511,-0.06374645182225325,0.06389037248893924
94,0.9400000000000001,-0.03665827462069993,-0.054752149536004546,0.09314712784721269,-0.11438179678895433,0.19962337200568953,-0.9731738197295159,0.0013956772577827464,-0.006381937689730042,-0.0002084551507244665,0.9911820592913303,-0.09654432403576392,-0.06397088301097656,0.06438359273976338
95,0.9500000000000001,-0.05359953133728834,-0.048722473994737975,0.08340321278885171,-0.11463734116114065,0.20027435034063495,-0.973009943995375,-0.0020913581623114423,-0.012669598496527937,0.0045450426401565285,0.9911106473643333,-0.0968370041655707,-0.06416847205476732,0.06484465862326735
96,0.96,-0.06820115061504894,-0.04498825088939703,0.08105080907561454,-0.11485769698786949,0.20104014676006293,-0.9728260341438337,-0.004261013459552194,-0.015124312902765268,0.008300896329219869,0.9910362630450094,-0.09719116205546265,-0.06434937921311486,0.06527027510904569
97,0.97,-0.06968227901137634,-0.04362404781227951,0.08209840507682513,-0.11507104392666143,0.2018791033194324,-0.9726270741687861,-0.005836052163033325,-0.007163301668030253,0.0025927227803231342,0.9909589237451971,-0.09758341634765423,-0.0645284665592034,0.06568243852912826
98,0.98,-0.05244059438829836,-0.044195936409102805,0.07105641409964873,-0.11528459375349112,0.20260314418254444,-0.9724512426878582,-0.0005883016286247187,-0.008173680762898768,0.007150601907294065,0.9908891809334114,-0.09791936303908082,-0.0647006482777298,0.06606316663255216
99,0.99,-0.04275089822469238,-0.043433779306270154,0.06040172787409462,-0.11550694943560039,0.20315755188951173,-0.9723091771876733,-0.0021123749595490784,-0.006254310019125632,0.00895370667592311,0.9908309506372328,-0.09817183453878656,-0.06486675142415163,0.06639890129379851
100,1.0,-0.03806461191983677,-0.039423663130804774,0.05052773816857409,-0.11576053680431164,0.20360517967164546,-0.9721853931580922,-0.0022402980448300025,0.002126506289689285,-0.0019704346217313115,0.9907803828413082,-0.09837219871910512,-0.06504008773946117,0.06668723085526786
101,1.01,-0.02600237569770302,-0.024579139838734623,0.04487530676142867,-0.11592624674055577,0.2039196241597638,-0.9720997098976359,0.006348706392174256,0.0074963609944627245,-0.005098312651958834,0.990742097554356,-0.09851045335329117,-0.06515998359075076,0.06693311333875634
102,1.02,-0.022072457514613144,-0.010725347514083279,0.037049647404822125,-0.11599353132146048,0.2041504558011788,-0.9720432735199454,-0.001154739592143201,0.007849601519599002,0.009478077158627642,0.9907139406749097,-0.09861192401320303,-0.06522314338763201,0.0671390473977391
103,1.03,-0.023277519339004373,-0.0021443099469509903,0.024675170322589954,-0.11599245764286004,0.20432759617919705,-0.9720061607180508,-0.00986055804237348,0.011924960570453875,0.009908824251193198,0.9906946903400042,-0.09869219987595605,-0.06524388314706205,0.06728533915697729
104,1.04,-0.03644964320592478,0.008610651033191545,0.01575473916760395,-0.11593974368773954,0.20454358167266054,-0.9719670219974814,-0.005430118099030701,0.01998140542800887,0.004700364670032007,0.990678966128415,-0.09879775887357496,-0.06523409220821724,0.06737166031718865
105,1.05,-0.0713680078052563,0.019418685747882577,0.010161787481012118,-0.1158020176585539,0.20501358539576414,-0.971884378666866,-0.000999550368159237,0.014332276516020979,0.006521067368624791,0.9906553333276615,-0.09903787295859388,-0.06518655596674845,0.06741260477468164
106,1.06,-0.11883256988065652,0.02275656977431639,0.00824979638035637,-0.11557607813392544,0.20590011251036108,-0.9717237902903989,-0.008267786532762651,9.109229496799434e-05,0.006094042341881738,0.9906144021204768,-0.09949447448562204,-0.06510686034424376,0.06741836297872682
107,1.07,-0.16692301470613274,0.02323842290234635,0.007022979853205769,-0.11535899647614202,0.20725959811635772,-0.9714604783426193,-0.006339297984998767,-0.014228449931052569,0.0062007284136652956,0.9905492792438259,-0.10019261916940465,-0.06504707880341958,0.0673986036920854
108,1.08,-0.22001813298539546,0.021304603144578743,0.002878951193351366,-0.11514168651606103,0.2091378342879033,-0.9710835702405335,-0.0009580469338799286,-0.02361409851394272,0.011002964956608664,0.9904578182121884,-0.10115651136907329,-0.06500351308852469,0.06734515417144737
109,1.09,-0.2508662111012367,0.013389476366843792,-0.004433021541357862,-0.1149343204041296,0.21146459330659395,-0.9706041089516637,-0.0031677914946919203,-0.02777372339684247,0.013418605802568557,0.9903417957803549,-0.10234956858324017,-0.06497988701026161,0.06727091486836592
110,1.1,-0.22464324213548797,0.004933318296586777,-0.014894171928576982,-0.11490389901286181,0.21376404670498494,-0.9701039904245758,-0.0019737290936167186,-0.029851100967401296,0.018904023471055194,0.990224278179027,-0.10352725475208603,-0.06503876194086113,0.06714198222710603
111,1.11,-0.17152228346886753,-0.002509947057439733,-0.017992772217115177,-0.11500501300623217,0.21570566926859572,-0.9696621891726064,-0.0003817723147837213,-0.02344757952540181,0.019096686227764673,0.9901235265560251,-0.10452145961938596,-0.06514699390451544,0.06698215728485472
112,1.12,-0.10695118920818877,-0.011677329584008243,-0.021496394779752796,-0.1151584347268877,0.2170797412232498,-0.9693373355186828,-0.0007302161020611102,-0.004984054323304706,0.003651580585275302,0.990050818389669,-0.10522436499939376,-0.06526217347540601,0.06684434029835833
113,1.1300000000000001,-0.07433965067171375,-0.010458194929231482,-0.02158391657194846,-0.1153187284509621,0.21794599458723898,-0.9691239035824855,2.2453874911777057e-05,0.011741763386767948,-0.009268189608499549,0.9900059548511694,-0.10566870422716824,-0.06536185361308264,0.0667109661953533
114,1.1400000000000001,-0.038914015790791096,-0.009536789080797112,-0.019828756767713902,-0.11551952387667393,0.21839700977634452,-0.9689984676560153,0.0026403064099908753,0.024558452184049853,-0.012554699645458963,0.9899825506065815,-0.10589997776040913,-0.0654673102890547,0.06658862952098657
115,1.1500000000000001,-0.0274232412132105,-0.007630809470591477,-0.022038084140234497,-0.11571372020569216,0.2185412480863724,-0.9689427824178012,0.0009543413247426525,0.029600984221650188,-0.00567347312701506,0.9899761094898636,-0.10597494170827874,-0.06555862668275028,0.06647434059031337
116,1.16,-0.0004555328682058105,-0.0011036053128905905,-0.022131067667158603,-0.11581766323283454,0.21852044529906692,-0.968935015854258,-0.0006971410034502996,0.024759305473811805,0.0016241641080148954,0.9899817821304431,-0.10596866257041873,-0.06559821763976188,0.06636121792741313
117,1.17,0.00839766419586339,-0.010957126134789356,-0.0149795484179296,-0.11591795449190838,0.21836707566375957,-0.9689576343569175,-0.004827728619141941,0.019976007725583597,0.008708536412251834,0.9899937907027734,-0.10589380113012994,-0.06563302150357886,0.06626740297637274
118,1.18,0.03194983266084214,-0.012622067260995462,-0.009084729169631834,-0.11608539869410849,0.2179653677288042,-0.969028000174995,-0.0015979485575524923,0.017107787211590342,-0.004686064070894571,0.9900147644362958,-0.10568762224863235,-0.06569719050135649,0.06621862092743577
119,1.19,0.012517234531578422,-0.009712042272118346,-0.00016348902572344763,-0.11619237105569098,0.21767681844315306,-0.9690800369449885,0.0015416642298921512,0.009793645308285661,0.007596256232331623,0.9900283532398558,-0.10553808442000644,-0.06573954573254677,0.06621143495664612
120,1.2,0.012768068246105416,-0.013032230999597218,0.00268056770742966,-0.11629070674387622,0.21755173766643676,-0.969096365727115,-0.005945782958202619,0.005048531630069133,0.006730919526356006,0.9900314143376446,-0.10547038434303563,-0.0657862181119895,0.0662277663004061
121,1.21,0.011634637265965987,-0.013590767744739753,0.0090113424557201,-0.11641251679537812,0.21748514067858438,-0.9690966450418895,-0.0017161180379885517,0.0030711510478631954,0.004709098170786658,0.9900289017261827,-0.10543018958255408,-0.06584938445016797,0.0662669197578297
122,1.22,0.022811571950219094,-0.006744942274829229,0.009604627644226812,-0.11648292814012558,0.21741212177821403,-0.9691045957262839,0.0029058870548988045,0.004200008334912165,0.004717760986371236,0.9900267874172601,-0.105386809849883,-0.06588872592684329,0.06632841789794416
123,1.23,0.011323426935547613,-0.005213717985676193,0.007761219097949035,-0.11649896841958579,0.21736614087519077,-0.9691129915574848,-0.0016126106637517706,0.006911544719781073,0.009782673535822808,0.9900252122083774,-0.105359310894343,-0.065900894127346,0.06638295866868803
124,1.24,0.00541082648719307,0.0006945831369213877,0.009844229875002617,-0.11650555301048499,0.21742314373724106,-0.9690994166427467,-0.006007442008664535,0.009051513343912684,0.008624574321643921,0.9900180572944833,-0.10538439300278649,-0.06591229363875706,0.06643854487242885
125,1.25,0.008779876080170789,0.0033514326113052995,0.004058201390088764,-0.11649975332997435,0.21749239918139743,-0.9690845433880019,-0.001098305032885734,0.010256484002240185,0.010232900537937163,0.9900117127321584,-0.1054172585367374,-0.06591605271492273,0.0664766784888922
126,1.26,-4.1691309896549344e-05,0.001775257145445824,0.004207766765531312,-0.11647099858898251,0.21750937595086084,-0.9690842058327492,-2.4053616278621025e-05,0.010727169276336958,0.009087509116202428,0.9900107596291958,-0.10542581481767022,-0.06590368997796822,0.06649093643969295
127,1.27,0.02397267936157981,-0.011695121279459129,0.00482443559423273,-0.11650776172620043,0.21746056127622865,-0.969090723645323,-0.001797355286105359,0.00822374447178297,0.007008700045204068,0.9900104397905852,-0.1053979442491654,-0.0659234800222254,0.0665198275428773
128,1.28,0.010249331895326792,-0.017271242403865593,-0.0019555135422857396,-0.11666733321699482,0.21732816460235246,-0.9691012134505939,0.002461376487962816,0.0020401303590099895,0.005897522633788795,0.9900117672303584,-0.105324373348779,-0.0660011783557383,0.06653994242232057
129,1.29,-0.0034723297957379995,-0.014852635343320993,0.0008480157316691846,-0.11684006047753134,0.21731440578277902,-0.9690834934775339,0.005245728785588273,0.0009726939090802015,0.0030339288006163744,0.9900068534021068,-0.10531161367711857,-0.06608861539267016,0.06654681849186954
130,1.3,0.003284564615696464,-0.01638423312914502,-0.0034777793005955674,-0.11698006905837235,0.21737698846732356,-0.9690526029185527,0.0048775861214415414,0.0031002551699898517,0.007993633821988259,0.989998719131965,-0.10533889784163819,-0.06616209372156931,0.06655046522066642
131,1.31,-0.01309449962895626,-0.01597885192798616,-0.0005556179119867721,-0.11715309265497366,0.2174381203260487,-0.9690179919497516,0.0015373321506046353,0.000968695488330589,0.008082163318847698,0.9899905180039369,-0.10536517177785303,-0.06625100024292352,0.06654300872328273
132,1.32,-0.023961144430984627,-0.01792386593878101,-0.0009276669487595654,-0.11735568991457809,0.21767088889141062,-0.9689411949466701,-3.1876819889750186e-05,0.0011040875554819063,0.0038152744141681707,0.9899710430058161,-0.1054772404379284,-0.06636229794498291,0.06654428984004872
133,1.33,-0.0365409030472814,-0.01698505093263146,0.002456256478956539,-0.11752021902181288,0.21802676455868567,-0.9688412098105574,0.002248305456034658,-7.242140364946805e-05,0.006671886202959283,0.9899453852784342,-0.1056527057656743,-0.06645966062077929,0.06655130921070722
134,1.34,-0.029575300162163323,-0.015580035483305457,0.0013251345820568825,-0.11768173642843868,0.21839601796650776,-0.9687384380761191,0.00027503838146810625,-0.0038873328004587404,0.006819311533557032,0.9899184891768998,-0.10583469688483066,-0.06655665274148526,0.06656411975938901
135,1.35,-0.02390098668804519,-0.020438929239576388,0.001308541529161292,-0.11787256030659463,0.21871070737439324,-0.9686442391597929,-0.0030181268412958193,-0.000919941481900043,0.004266069817564398,0.9898939393939317,-0.105988145425626,-0.06666621465845236,0.06657537213191583
136,1.36,-0.02661090405612677,-0.01948271051130601,0.003957209859791508,-0.11804786273649014,0.21895564892917002,-0.9685675710873697,0.0004840343264700363,0.0019377057775131262,0.003203175588718846,0.989873471604163,-0.10610622721374648,-0.0667658807678855,0.0665921709842922
137,1.37,-0.013857113586357498,-0.013083744147269732,0.0017370262890312308,-0.11817839979674083,0.21914366230560653,-0.9685091546353555,0.00021813690182823748,0.00414887782423781,0.005377393532611682,0.989857427346911,-0.1061965495103968,-0.06684105568143647,0.06661153058080192
138,1.3800000000000001,-0.017359862464596525,-0.00895681564389299,0.00021215097724135937,-0.11825006166264142,0.21929881476818594,-0.9684652572960538,-0.00216555974654858,0.005543835838768845,0.008452040063824395,0.9898456992195361,-0.10627264748919799,-0.066884170268773,0.06662089215263262
139,1.3900000000000001,-0.009413830404154768,-0.008215317894387224,-0.0006746784837696337,-0.11832815509085699,0.21943916555087736,-0.9684239437678942,-0.001691764461732842,0.009544463790864531,0.008158377500524885,0.9898353343098395,-0.10634172497362601,-0.0669288476228533,0.06661977274799767
140,1.4000000000000001,0.0004038529590624264,-0.0082137299927812,-0.003239399949341202,-0.11840082058235706,0.21946970362215684,-0.9684081364024628,-0.0010639347647458206,0.010551318010127406,0.008609824774884325,0.989831915995132,-0.10635559725530724,-0.06696582255253279,0.06661141754127382
141,1.41,0.0005795588434117702,-0.007259166583116649,-0.004157114187009696,-0.11846045192064976,0.21947912888402094,-0.9683987261042404,0.00025903718647610446,0.008345929778147928,0.005754833830371929,0.989830033191239,-0.10635908643336232,-0.06699548158132332,0.06660373730166085
142,1.42,-0.0007194133157861179,-0.00990729271571894,-0.005926701942768122,-0.11854735745172128,0.21943480865488715,-0.9683981234023572,0.0009271478722826854,0.008410228562525072,0.0038294075218301238,0.989831411789694,-0.1063354101950066,-0.06703525026036372,0.06658098654229681
143,1.43,-0.004246718838525188,-0.01591584459367644,-0.004622659654384052,-0.11870473159762034,0.21945877821143145,-0.9683734233086883,0.0015851481331135616,0.005651957323565136,0.003675626663277595,0.9898264157827377,-0.1063440312280443,-0.06711368414895719,0.06656254966015428
144,1.44,-0.0032422537169821157,-0.027124592748764637,-0.0006360925511078603,-0.11892316360539246,0.21950327665225652,-0.9683365179701838,0.002277110112109165,0.0014189870311162745,0.00398343608805368,0.9898172935159838,-0.10636016567893003,-0.06722542221667786,0.0665597356606698
145,1.45,-0.009723421106955607,-0.029831645061301273,-0.0013144876288700314,-0.119205075286313,0.21960722421776258,-0.968278263562408,0.0034458944290737944,-0.000898947442700854,0.0029069935505483873,0.989802303358972,-0.10640413331583257,-0.06737224378728583,0.0665638056173052
146,1.46,-0.0050999419779055154,-0.024999552702826923,-0.001274496917926033,-0.1194818524776195,0.2197074830692655,-0.9682214219319422,0.003128102226856588,0.0009701993967507878,0.003934297271499354,0.9897877256203712,-0.1064464383705804,-0.06751625578250967,0.0665671499078208
147,1.47,-0.005328908357598337,-0.01877801454239096,-0.0039865418830409985,-0.11970713458281511,0.21980335472608142,-0.9681718111975633,0.000176062531583779,0.002860137824149684,0.008449186972521725,0.9897749175812544,-0.10648803062150548,-0.067634176302436,0.06657128483646531
148,1.48,-0.011316403497938728,-0.016310198960173928,-0.005473965180271777,-0.11989558270895811,0.21992745249269882,-0.9681203294838566,-0.0016272425734016232,0.0038836320338708975,0.006346464689521286,0.9897626223592526,-0.10654613496626492,-0.0677329675698186,0.06656054484058377
149,1.49,-0.020624402783256612,-0.01109782082696082,-0.005115267835371366,-0.12003163852093779,0.22012501178835264,-0.9680585598119295,-0.0001505865780950489,0.0069675427784613025,0.006456255183671898,0.9897486906923679,-0.10664421053012069,-0.06780654526920596,0.06653544179184524
150,1.5,-0.01984113934243807,-0.005034082368884539,-0.0056189817604015155,-0.12009084990862422,0.2203568756325014,-0.9679984633432037,-0.00034756534643696655,0.0044780403414685435,0.007847483741239083,0.9897353047539464,-0.10676217387625249,-0.06784247028746304,0.06650917540286055
151,1.51,-0.01754938940040119,-0.0037174488034993638,-0.007490584292631674,-0.12012854165584896,0.22055349069798452,-0.9679490386921779,-0.0012908969786124564,0.003099526320766958,0.007001532985259031,0.9897254221161423,-0.10686371946109688,-0.0678648304663536,0.06647044775736424
152,1.52,-0.025035242537710375,-0.0016806378472762101,-0.0007155765661478221,-0.12015258102606534,0.2207478459565773,-0.9679017467295202,-0.0010961918065607015,0.006096928723677015,0.0037416057596391045,0.9897152721582981,-0.10696370401275325,-0.06788151535974683,0.0664438816003929
153,1.53,-0.036891498086831426,0.001977141835016078,-0.001396040007051863,-0.12014817910743533,0.22102456399495,-0.9678391062424562,-0.0015842661878611667,0.001210110089959279,0.004260187953691711,0.9897005078810888,-0.10710569946960749,-0.06788818167872536,0.06642857883881687
154,1.54,-0.029018539785980645,-0.0028165889729532914,-0.0006819997811635492,-0.12014786733445,0.22135489476373452,-0.9677636363385317,-0.0024896051752497945,-0.002627910587143071,0.006222340099233004,0.9896828981294266,-0.10727528557850402,-0.06789829514492045,0.06640717300882458
155,1.55,-0.03569028232152426,-0.007597754093038986,-0.0007295297362599309,-0.12019921435334076,0.22166899197763054,-0.9676853570739746,-0.0029296710089765023,-0.0003539929379364629,0.005038367553877711,0.9896640427078073,-0.10743457213884618,-0.06793464934103803,0.06639272335490261
156,1.56,-0.026013635700329777,-0.007966479156343924,0.0014279164970794794,-0.1202864838132158,0.22198695977252556,-0.9676016432897145,0.0007873686710162843,0.0016921346653560696,0.003039948332468527,0.9896434589519045,-0.10759432801701141,-0.06798994131077224,0.0663841725524209
157,1.57,0.0063476545727151265,-0.010547008039881855,-0.0009603996815394768,-0.12039384195237478,0.22208511800441924,-0.9675657830192047,0.002728296534239616,0.0033973254335736467,0.005428927037322392,0.9896342273991353,-0.10764085567307223,-0.06804819261030111,0.06638649207441537
158,1.58,0.011957412441384622,-0.011126368443665964,-0.0010761373447026046,-0.12051001236490416,0.222015702541533,-0.9675672542246568,-0.0009740137703525263,0.00437611070526507,0.0020647499192886776,0.9896342598525442,-0.10760162306410273,-0.06810482371407822,0.06639175613906738
159,1.59,0.01580502939250611,-0.007491340227220684,-0.0004940457954243241,-0.12061283288255749,0.22188873190656952,-0.9675835665170436,0.0018522458251672579,0.011458396113338133,-0.003208899245081726,0.9896381392066538,-0.10753361852901605,-0.06815233124872846,0.06639531963244702
160,1.6,0.016475326767593272,-0.0030520454636416804,-0.005111902046681575,-0.12066802151090855,0.2217612631447364,-0.9676059195247166,0.004062148512107018,0.01406269487880451,0.003655297383356816,0.9896442890568455,-0.10746754034851655,-0.06817459625729261,0.06638830675640062
161,1.61,0.008243790668729751,0.00114501689869346,-0.006358469302698779,-0.12070086320294815,0.2216361154608392,-0.9676304874933704,-0.0009446918681185355,0.010325799288774225,0.008390043452485164,0.9896517099035556,-0.1074041044919189,-0.06818443839216452,0.0663700456133729
162,1.62,-0.0016347815009123612,0.0029017011345662176,-0.003812776541662809,-0.12071616198976057,0.22159900718811645,-0.9676370681489556,-0.0018039747927952054,0.008801195734334159,0.008204101358802512,0.9896552284302551,-0.10738663447105624,-0.06818778031292566,0.06634264868347176
163,1.6300000000000001,-0.01718322021703768,0.002211394505223935,-0.0007487629355093029,-0.12072036698519162,0.2216768327721241,-0.9676187408589013,0.0008813099359073022,0.005811891190913378,0.008642581190728905,0.9896519100066682,-0.10742746046229701,-0.0681907550994699,0.06632316708873771
164,1.6400000000000001,-0.0377104999917555,2.929894590441521e-05,0.0002876581589311238,-0.1207089493785143,0.2219453736574732,-0.9675585936994204,-0.0004216659868554317,0.001120752206421144,0.007107873096981716,0.9896371588747992,-0.10756505775316522,-0.06819434391719927,0.06631506061609567
165,1.6500000000000001,-0.029820080158668442,-0.006336161898112983,0.00432616646027652,-0.12072258566762394,0.22230977591342885,-0.967473191885941,-0.0005572764885134784,-0.0030531416147184607,0.006322181813317869,0.9896152898582862,-0.10774979801720685,-0.06821563028786218,0.06631973712571053
166,1.6600000000000001,-0.028281437459269688,-0.009908036666538776,0.0070887823237398805,-0.12079569505261016,0.2226069633516477,-0.9673957427521156,0.0009519834310009086,-0.005453855688255161,0.005153929818900668,0.9895941498495832,-0.10789724250563225,-0.06826644447685581,0.06634299301393119
167,1.67,-0.022871581988090983,-0.010141122628306593,0.008742357537676042,-0.12086898674710524,0.22289843573175966,-0.967319451991178,0.00041675747679330093,-0.004689483024381378,9.962912178534001e-05,0.9895721839808482,-0.10804060144715717,-0.06831901062997689,0.06638336082238004
168,1.68,-0.008399151819292532,-0.00683003021937377,0.005906633409467308,-0.12091608817668614,0.22311361713483607,-0.9672639700154744,0.0014604124929128767,0.0017152384322451936,0.003936324588928554,0.9895556616371152,-0.10814612995305853,-0.06835511298454891,0.06642072723072955
169,1.69,0.004296014746999556,-0.00440670943661776,0.005899818352731832,-0.1209638632819128,0.22317463532180604,-0.9672439316677997,0.0010677104717006836,0.007242607619844663,0.008775044430273814,0.989548539999007,-0.10817363830050664,-0.06838491450630371,0.06645112216310717
170,1.7,0.017305817892527463,0.0020091350657199802,0.005737995050622673,-0.12096651022470169,0.22309693854909213,-0.9672615090612474,-0.0013167202056052765,0.012348086929374422,0.008413406950334585,0.9895506728056168,-0.1081315838111784,-0.06838709373981962,0.06648602501402869
171,1.71,0.022253634022440558,0.004915507788824131,0.005065949210823687,-0.12092204444000623,0.22292796853288782,-0.9673060223661647,-0.0021539772401497964,0.016624907741387137,0.00604900033817522,0.9895598335062261,-0.10804474568772177,-0.0683615979050175,0.06651751909619869
172,1.72,0.009556808153778134,0.004706956356777421,0.005688107829723482,-0.12087357125473049,0.22278068770875964,-0.9673460131970572,-0.0009057220500063004,0.01638763763616141,0.004437090909354558,0.9895681058270264,-0.10796936733238979,-0.06833444059002017,0.06654477333509713
173,1.73,-0.009714883999193822,0.0026497823930145643,0.009668668798595901,-0.12082617038372648,0.22278383086824297,-0.96735123682948,0.000742629614920838,0.009553622962201636,0.0045279292140191964,0.9895671012630767,-0.10797007212798544,-0.06831431642664296,0.06657877259517941
174,1.74,-0.03155554127975834,0.002518569637454539,0.009322128518537887,-0.12077908091419046,0.22296255922462452,-0.9673159300385523,0.0017192477713746503,-0.002626273559096978,0.008382614580742341,0.9895552964299683,-0.10805955345239383,-0.06830201651423137,0.06662141295812317
175,1.75,-0.06667241349313942,-0.006568993725398255,0.009146170792088858,-0.12077361442894859,0.2234363187495276,-0.9672072724139401,-0.0008185402606348418,-0.011762901549244007,0.009283873658891082,0.9895260398159661,-0.1082990145995821,-0.06832038518312417,0.06664872210049078
176,1.76,-0.06742027687957708,-0.015514574965453016,0.009633217258288421,-0.12085108135221066,0.22414992756490562,-0.9670324466182191,-0.0021041367354901696,-0.0119906362558452,0.005516931119474323,0.9894798010936697,-0.10865781028569156,-0.06839031387255799,0.06667988496756845
177,1.77,-0.03854932394763471,-0.0178707047248306,0.005660775258046409,-0.12099680752784613,0.22469238163866506,-0.9668883588719784,0.004061264489513813,-0.012726609800671376,0.00812617096149436,0.9894410966802558,-0.10892716878955173,-0.0684885797136746,0.06671438461765367
178,1.78,-0.02685512425396044,-0.020925276308293356,0.004917209521342858,-0.12119077715661043,0.2250612038091837,-0.9667782763775112,0.0026002201716441914,-0.005689854908336605,0.0030948347200467023,0.9894112686290659,-0.10910708004414815,-0.06860394598301332,0.06674292355804928
179,1.79,-0.01242979668492901,-0.012490377905338535,0.003963295880518753,-0.12136627373501695,0.2253261269085691,-0.9666945669247891,-0.00017215585044910546,0.011010261535560631,-0.001097890807509309,0.9893880350790639,-0.10923454775436488,-0.06870614980435508,0.06677286661188252
180,1.8,0.007953948998324516,0.001347835042788995,0.001431533198252113,-0.12142057302314434,0.22540864538523706,-0.966668512360125,0.0016567351366488597,0.014553450198258171,0.004596504364545579,0.9893803418116178,-0.10927367554452075,-0.06873871536005245,0.06679052746027615
181,1.81,0.021658323078784084,0.009604048731546837,-0.0015955244038569447,-0.12136160559482626,0.2252870297350063,-0.9667042383583208,-0.004992752977771385,0.017459184090847065,0.005929349037383376,0.9893889206533986,-0.10921305351604603,-0.06870501086648291,0.06679763891730482
182,1.82,0.024753037579098972,0.01792539027746697,0.000925703919249002,-0.12121994770196425,0.22504415399637284,-0.9667785894690796,-0.0077349917523637825,0.022933061599433428,0.003368746407731744,0.9894075991189408,-0.10909363128678791,-0.0686241901990592,0.06679878363552248
183,1.83,0.013779104975522522,0.024193242042933015,0.0025298689338257717,-0.12101290611109573,0.2248136019044388,-0.9668581790122901,-0.0027025421213550758,0.015521607746171576,0.0025130530643059637,0.9894276478775759,-0.10898247796973744,-0.06851080485122339,0.0668000212771671
184,1.84,-0.006070935989089029,0.022024007932108857,0.001416346583806568,-0.12080032940854328,0.22473841487947616,-0.9669022342790233,-0.0030887949358062074,0.0032100751706710924,0.0027361068194493086,0.9894391354977236,-0.10895108439995908,-0.06839986820427574,0.06679459022454651
185,1.85,-0.013093855744762357,0.010895649143235805,0.00022897420040263172,-0.1206345000661533,0.2247956339490064,-0.9669096246403329,-0.003972734446551232,-0.004785571292100185,0.001579367566415972,0.9894417255906501,-0.10898605248218227,-0.06831705379494257,0.06678373264154383
186,1.86,-0.020829386870356483,-0.0021375748894639866,-0.0013533933982390351,-0.12058253697937052,0.22493045572997072,-0.9668847466057918,-0.0008204880624272989,-0.01223964984194413,0.002315127564879247,0.989435969307386,-0.10905684905755411,-0.06829509581730837,0.06677577276325568
187,1.87,-0.03386418170191178,-0.006487360295806174,0.0006622586932429871,-0.12062940157168534,0.22524099758185154,-0.9668065982707937,-0.0002594101075561844,-0.01360476489700827,0.0023282595011901576,0.9894170152771771,-0.10921434590514764,-0.0683294503776833,0.06676431312640231
188,1.8800000000000001,-0.03722570197254989,-0.0028579512969697032,0.0024075396397227064,-0.12067471157438053,0.22565092367067502,-0.9667053567902533,-0.001369274550820683,-0.01122846834126802,0.004757389641078964,0.9893914923875511,-0.10942175017575262,-0.06836805737433403,0.06676385682851929
189,1.8900000000000001,-0.030870876528420396,0.0025579633845014818,-0.0002620324658156306,-0.12070662180621253,0.22605277807636573,-0.9666074780404477,0.0006608888770908868,-0.007547287089636893,0.010111116173226811,0.9893670483439674,-0.10962576969128646,-0.06839911425682636,0.0667591098777942
190,1.9000000000000001,-0.012341266851334838,0.00666826635820746,-0.005502532267640848,-0.1207178667897269,0.22633733695314076,-0.9665394799060413,0.0013202701593410097,0.001930450783800922,0.010568194676125965,0.9893516409351678,-0.10977222453986864,-0.06841276575729403,0.0667322596432947
191,1.9100000000000001,-0.0007009713788235258,0.010039451258065067,-0.006556521764794472,-0.12067709374889737,0.22644433232292002,-0.9665195271428857,-0.0001712682733327459,0.01279393793766987,0.007591030084611333,0.9893489199615744,-0.10983036694969196,-0.06839242127960701,0.06669759983287624
192,1.92,0.001362770123523613,0.013198521641847078,-0.0074397952292448635,-0.12060037956491684,0.22644025241431678,-0.9665300720380348,0.0017820358520500347,0.017582306663677487,0.004207290303938526,0.9893540871313979,-0.10983319667920907,-0.06834936533449433,0.06666049725415998
193,1.93,0.0017353491646738615,0.01257944712882138,-0.009074892835144142,-0.12051001491755739,0.22638976108777858,-0.9665531747844451,0.0022314184571201254,0.01645111693368409,0.003651496177651429,0.9893632461461048,-0.10981366696050655,-0.06829624550252658,0.06661091217798151
194,1.94,0.006284707637630246,0.009042103717429119,-0.009871372877647222,-0.120426279697748,0.226296919235616,-0.9665853383761007,-2.7157725784332683e-05,0.013031935959475726,0.004153208443262031,0.9893749391881562,-0.10977256268662067,-0.0682445126269138,0.06655825817278294
195,1.95,0.006070423410601496,0.0033106318298705417,-0.009408695283935682,-0.12038966763638126,0.22617293535712626,-0.9666189049134088,0.001328285365911228,0.008202752143964145,0.007622188229446552,0.9893868344243985,-0.10971402863439178,-0.06821562360761618,0.06650749219975587
196,1.96,0.009986752598319215,-0.0030435864261405747,-0.005450352525384264,-0.12041567865896753,0.22604884835261846,-0.966644679941861,0.0022542264926123127,0.0037329933379620693,0.008688953180175128,0.9893958946613786,-0.1096526822608803,-0.06821976928546075,0.06646913443329028
197,1.97,0.015332510531766933,-0.0053120877998383146,-0.002776050828148556,-0.12047558250629056,0.2259105957737102,-0.9666695491926185,0.0018809331960758804,0.0011235071707841574,0.006376128253138103,0.9894032841185161,-0.10958151732892239,-0.0682430166021107,0.06645347497199064
198,1.98,0.01639305352225279,-0.005278886604095774,0.00011636281462056247,-0.1205389474108144,0.22577178606772202,-0.9666940967651796,0.002994474147536839,-3.1111525542372865e-06,0.0056738157331706965,0.9894094628496303,-0.10950880771310158,-0.06826985027946851,0.06645459094710454
199,1.99,0.013576759106848,-0.004371352945587279,0.0034468960868703257,-0.12058944603550151,0.22568866212313832,-0.9667072132458431,0.0015382716657583598,0.0025317580879579762,0.00516835540955583,0.9894114012015908,-0.10946352817702361,-0.06829444763631122,0.0664749579145363
200,2.0,0.006360101269030381,-0.0029246204006836453,0.005972243540868905,-0.12061281746645283,0.22567213805742434,-0.9667081493610451,-0.0008955162528220439,0.0038024997337069554,0.004617632899433978,0.9894092309755682,-0.10945191347252871,-0.06830960916956465,0.06651094429070703
201,2.0100000000000002,-0.0038034722498828276,-0.0009195080131013682,0.00727258201482767,-0.1206093355476192,0.22573828780754387,-0.9666931328618639,-0.0007994429708212234,0.0019521682202350429,0.005204941304020093,0.989402612213017,-0.10948284408992973,-0.06831498735687233,0.066552513864657
202,2.02,-0.017937900457820486,0.002073707823071868,0.008036300962682295,-0.12058545782872773,0.22590816216272055,-0.9666564371979353,-0.001091221835717378,0.0014507270698408032,0.005264447152035842,0.9893908619169393,-0.10956757575367618,-0.06831347318380973,0.0665890048192915
203,2.0300000000000002,-0.02636430768875982,0.0013803629014038912,0.008850582000474356,-0.12054905279441218,0.22616770981178522,-0.9666002882359326,-0.0025493692688692083,0.0015547533072224244,0.005331684049407184,0.9893745958898329,-0.10969873359133413,-0.06830846894614365,0.06662006865235645
204,2.04,-0.019913962513545026,-0.003128130042961041,0.007947115954041907,-0.12052635653472751,0.22641876885689094,-0.966544331145882,-0.0024452422393925425,-0.0013944509260329545,0.006660142452603303,0.9893582186955866,-0.10982500550364678,-0.0683103262088325,0.06665335219959512
205,2.05,-0.007206728193860352,-0.008147665205352799,0.005415166170065003,-0.1205569601130279,0.22656148796442968,-0.966507067964364,-0.0021544610271811353,-0.0024534892747427126,0.006001152622949138,0.9893467284154667,-0.10989464654031258,-0.06833468833133817,0.06668405833698292
206,2.06,0.0015874937856328148,-0.007989360073430783,0.002402666484167475,-0.12061324787658956,0.22660008608992532,-0.9664910036783618,-0.0007819644574232935,0.0018451203004657326,0.0028894078656019452,0.9893410186365235,-0.10991090038272654,-0.06836733705947444,0.06670845881706566
207,2.07,0.008782887269760443,-0.0024384665973331858,0.0008227955872550436,-0.12065176321168475,0.22655703463444304,-0.9664963003697666,0.0020394918637028528,0.005654836032961547,0.002308623880212215,0.9893410286179369,-0.10988644512914796,-0.0683873223636788,0.06672799382270762
208,2.08,0.013710929685006748,0.0020194196890220657,0.00022537355954207604,-0.12065951676883613,0.22645246947855835,-0.9665198338869934,0.0015745146360408053,0.006962740871986268,0.004500648225912921,0.9893461392236562,-0.10983210192872805,-0.06838857742199814,0.0667402120185914
209,2.09,0.013489819353906463,0.005129618425669884,-0.0014102235932481244,-0.1206328921404894,0.22631473753592993,-0.9665554021487411,-0.00047537271743261825,0.00911570666045887,0.006189979722064799,0.989355036498894,-0.10976268094093446,-0.06836995610167496,0.06674139596417522
210,2.1,0.008272348730995468,0.007651409340659206,-0.0013713998534925337,-0.12058305832776695,0.22620673979333805,-0.9665869025412404,0.000571056344039176,0.00980437516788565,0.006395845944923642,0.9893634881790769,-0.10970971413874596,-0.068339790266887,0.06673396381218007
211,2.11,-0.001985316732680987,0.005986744356662542,-0.0005224203521033748,-0.1205318243521986,0.22618851724634384,-0.9665975636502632,0.0016538101798836528,0.005829411167050581,0.0059738323131881986,0.989366783601229,-0.1097026405885732,-0.06831216687349906,0.06672472042306128
212,2.12,-0.010952173612635247,0.0017533062793242962,5.027600413084446e-05,-0.12050911324655077,0.22626051051330834,-0.9665835440604453,0.0012611667659740606,-5.4185821122407045e-05,0.00535781823539561,0.9893636945591758,-0.10974046505305403,-0.0683027111324406,0.06671801682615823
213,2.13,-0.015670963241734198,-0.001171105894383061,0.0004892178032792996,-0.12052266543628828,0.2263893924704524,-0.9665516794283385,0.0012393075681476858,-0.0045268977538576675,0.005131587006387056,0.9893559056181823,-0.10980595324739238,-0.0683141004767479,0.06671428315322145
214,2.14,-0.018294707578666337,-0.00312025044954712,0.0005388225919381717,-0.12055336145203925,0.22656477105530143,-0.9665067640171312,0.0010750611387686374,-0.006278487365327692,0.004247639662235305,0.9893445938734015,-0.10989439694068291,-0.0683362808575098,0.06671359444898896
215,2.15,-0.013300931513141882,-0.0029282141581311464,0.0020823219620058524,-0.12057567348700891,0.2267474309291776,-0.9664611328234703,-9.82385888407489e-05,-0.0045346983715199435,0.003594059978818597,0.9893327439068311,-0.10998642401544854,-0.06835511983898661,0.0667184429429148
216,2.16,-0.0046765433922943845,-0.00021430107995390013,0.0017983438697375875,-0.1205876140246585,0.22685841420485764,-0.9664335962143434,-0.0016181043426445351,-0.0017045864141471577,0.005138474378344811,0.9893255015678557,-0.11004226907873119,-0.06836593312885116,0.06672304742198798
217,2.17,0.00356924169284695,0.0041826412380138855,0.0002814153352647534,-0.12058269041535911,0.22689783544070258,-0.966424955594678,-0.001944197752415355,0.0028336812433752087,0.0038743830229496837,0.989323450613242,-0.11006258016631186,-0.06836481989684547,0.06672182260724163
218,2.18,0.010223375634466557,0.01017513631353803,0.0001716531758593856,-0.12051381031759921,0.22687053921472902,-0.9664399436496912,-0.0016864156730472338,0.00853845392147927,0.002624890582427988,0.9893273913062236,-0.11005093882626858,-0.06832870396144289,0.06671959422807103
219,2.19,0.010262695143803796,0.014352730652914768,-0.002017512471186013,-0.12038535064958937,0.22678875818024397,-0.966475151706181,-0.0011893949150153136,0.010458140920496716,0.0038032652920745626,0.9893367648003908,-0.11001371398547856,-0.06825981113818905,0.06671226703305069
220,2.2,0.005876122786597436,0.014099192731054321,-0.0038977180749008703,-0.12025293448830635,0.22671223386811443,-0.96650960231593,-0.001152206125201684,0.010262904316747435,0.00424442751753648,0.989346785652281,-0.10998010681096368,-0.06818779371035413,0.0666930250876334
221,2.21,-0.005234978930334674,0.011490423006318466,-0.0030166530205572063,-0.12014056607433107,0.22669161803551496,-0.9665284361056006,-0.0004029634573506156,0.007444328531756294,0.0061502042075608715,0.9893533062515631,-0.10997483692905724,-0.06812730363453326,0.06666697270386732
222,2.22,-0.015991265681020238,0.006801259555438801,-0.00291469243048041,-0.12005790830556937,0.2267664038522859,-0.9665211454439304,0.0010307756743328437,0.002977404897602208,0.007881416183972935,0.9893531149335796,-0.11001713374163738,-0.06808568591943842,0.0666426362950799
223,2.23,-0.023926510345009797,0.0018921657204085153,-0.003841323816393744,-0.1200249249061334,0.2269418472796678,-0.9664840303346949,0.001325098167272945,-0.0008756208390864974,0.007861282709732806,0.9893452047720145,-0.11010903915402256,-0.06807328670665842,0.06662049104335246
224,2.24,-0.023240222140243544,-0.0012555360770380726,-0.004489142716575854,-0.12004895201029508,0.2271653303714544,-0.9664285361811661,0.002021881271419204,-0.0030048432075128837,0.007159148865879341,0.989332875660257,-0.11022394523582298,-0.06809112191957106,0.06659451023143613
225,2.25,-0.013821131336957273,-0.002172613523299655,-0.004226385503547069,-0.12008847922150374,0.22735247746452494,-0.9663796296113208,0.002334282104201074,-0.002262134728817718,0.009237825079103357,0.9893225011742791,-0.11032007467815085,-0.06811504272725198,0.06656545602868146
226,2.2600000000000002,-0.005425916993322938,0.0009417025968721039,-0.004517895580742141,-0.12012044194694986,0.2274615355463469,-0.9663500189636525,0.0016283726256469623,0.0006016383072247918,0.009685107689043505,0.9893170417083389,-0.11037667542401776,-0.0681321053837867,0.06653609094271322
227,2.27,0.009790121313520472,0.005507400302707048,-0.006009510425137032,-0.1201210563759087,0.22746529244293334,-0.9663490541848931,0.0002910977122875955,0.004696037739111648,0.008060784332613672,0.9893186392932158,-0.11038044940382284,-0.06812951649656937,0.06650880839421275
228,2.2800000000000002,0.025541048916730695,0.008935671905114394,-0.007863691904847685,-0.12007312203830436,0.22732429674645974,-0.9663881647759287,8.234077619135216e-06,0.008846833120591346,0.005993268544007754,0.9893305320491457,-0.11031216884187746,-0.0680965042581901,0.06647850889342176
229,2.29,0.03759204667056431,0.006383390225244078,-0.0044460912661875305,-0.12001296790901715,0.2270435969626976,-0.966461623718654,-0.0004521486063540709,0.0112379375086899,0.0029568453467308554,0.9893505217943938,-0.1101724582657547,-0.06805298506132451,0.06645737815420129
230,2.3000000000000003,0.042561807142180566,0.002025816113500576,-0.002730691233009204,-0.11997913173237677,0.2266618428314974,-0.9665554250557705,-0.0012306093604325542,0.010748430768993851,0.0019512948447420876,0.9893743669707219,-0.10997917764103225,-0.06802101147202452,0.06645511161968767
231,2.31,0.032816339634393975,-0.0002036224807447065,-0.0020119471296125404,-0.11998190585263599,0.22629829482509295,-0.9666402408194615,0.0015819228278085814,0.007385347439447715,0.00147676589136078,0.9893959276948564,-0.10979408473813054,-0.06800822256743107,0.06645262481502705
232,2.32,0.024581344414023685,-0.002703479829719792,-0.0023830085316942466,-0.12000073537500656,0.2260072143392474,-0.9667060134732078,0.003584543779000155,0.00453702934488325,0.0018606409699946569,0.989412572455758,-0.1096453039323571,-0.06800651933531773,0.06645190205760015
233,2.33,0.009731151464624903,-0.0026238409833648953,-0.0002199650875635618,-0.12002588615625844,0.22583989562111642,-0.9667420178699554,0.00133510187081616,-0.00042323956293270496,0.0043534939208303945,0.9894215602385954,-0.10955923493501848,-0.068012971973199,0.06645316973869475
234,2.34,-0.005059606138998138,-0.002780548620125951,0.0034597128008010867,-0.12005496481537933,0.2258381751111847,-0.966738821686104,-0.0011052165295633062,-0.003180804929176674,0.0039226033940348674,0.9894198740342317,-0.10955658016606411,-0.06802904611237365,0.06646618273144608
235,2.35,-0.007953820277872446,-0.004240083158806186,0.0046658944041206565,-0.12008959611471016,0.22593775077186667,-0.9667112465524179,-0.0013236487282041697,-0.003485486039397365,0.004423011294511184,0.9894114975034213,-0.1096047447640044,-0.06805275339207682,0.06648780610919736
236,2.36,0.0008390755723682243,-0.004131030563253187,0.005268700465153932,-0.1201186225159679,0.22603033760239127,-0.9666859914956313,-0.0006769233331401303,-0.004995486734604779,0.005471734915884601,0.9894034754984603,-0.10964925789430324,-0.06807378873779914,0.06651327262508568
237,2.37,0.007284186054671654,-0.005175934710517758,0.006002001789700227,-0.12015142411424684,0.22604722695674295,-0.9666779682183797,-0.0016900071378908178,-0.003259384881445733,0.005043792544063729,0.9893991736307511,-0.10965458653164108,-0.06809469109766235,0.06654640395089172
238,2.38,0.013645199339084493,-0.0030186784802480764,0.002369415204531762,-0.12019159034318753,0.22599147024789548,-0.9666859925095586,-1.9774345951688782e-05,0.0021039814529432545,0.006158969438362648,0.9893991397114863,-0.1096228777159892,-0.06811622187707772,0.06657676260112547
239,2.39,0.02304329188266559,0.0023713047698992098,0.0003611241010499788,-0.12018107227427859,0.22584350324329286,-0.9667218848363021,2.3643013295019278e-05,0.007441138136872208,0.005962459515040191,0.989407019529954,-0.10954658270009528,-0.06810724278818643,0.06659493337646033
240,2.4,0.03086518632128421,0.005618829929263147,-0.0011289807903027776,-0.120123564366617,0.22559653426863246,-0.9667866851272446,-0.0006720260218559616,0.011012030017951067,0.006045207234414059,0.9894228829698504,-0.10942207591151688,-0.06806949252388106,0.06660200774369296
241,2.41,0.03419777026279376,0.00840482075173542,-0.00443019892510923,-0.12005272923139995,0.2252677274292284,-0.9668721409073402,-0.000532311522434262,0.012979311216258553,0.006097751576469245,0.9894448956219256,-0.10925722611394567,-0.0680203827842055,0.06659564372594351
242,2.42,0.02277872185267238,0.009558133527629081,-0.005948197212569211,-0.11998165667195194,0.22497597425739896,-0.9669489164710731,0.0005600055381888491,0.011024188247861978,0.005916231279103911,0.9894656895735465,-0.10911224456724455,-0.06797099515760549,0.06657492033533396
243,2.43,0.003662248819957673,0.007419652877632069,-0.003245557962965947,-0.11992362288657027,0.22483665733662248,-0.9669885298446195,0.0008754092074596846,0.006670012074115751,0.006591597222658052,0.9894777441579083,-0.10904517257477674,-0.06793296281293726,0.06654438386509091
244,2.44,-0.018678068690213913,0.005429901918286877,0.0006509501697567635,-0.11987782408976065,0.22489879214135122,-0.9669797677984052,0.0016850334907668155,0.0005545044367214779,0.005846303358206664,0.9894770828058782,-0.10907975344384001,-0.06790970650014463,0.06652184848239517
245,2.45,-0.03724706109753403,0.002298240014673388,0.0016127168875447796,-0.11985295281265144,0.2251742297742672,-0.9669187135338578,0.0005695686461080205,-0.007051753579153953,0.004636131465526128,0.9894626984110795,-0.10922182733584708,-0.06790598823908477,0.06650655515434244
246,2.46,-0.04139732206529405,-0.004181180509946799,0.0020778912308889847,-0.11986588244291937,0.22557248148308284,-0.9668242787985555,-0.002511123886034822,-0.012537712235030722,0.004837124422219675,0.9894393650545982,-0.10942478018077624,-0.06792690540332413,0.06649876365015908
247,2.47,-0.03293914885566513,-0.004925277591843076,0.0016850254275549057,-0.11991358798805078,0.22597395943547285,-0.9667245997688806,-0.0013709189086794043,-0.013450744291076087,0.00501354309047118,0.9894143398089739,-0.10962794948069557,-0.06796614412509819,0.06649656265516066
248,2.48,-0.015885626288653,-0.002736877546542169,0.0014141910752864945,-0.11996055209132095,0.22625700451394234,-0.9666525917078451,-4.6176806328786265e-05,-0.009853656724016393,0.005705871279277433,0.9893961376797937,-0.1097707523550746,-0.06800062277294748,0.06649563147745759
249,2.49,5.982786488572438e-05,-0.003586286387456442,0.0012401144409477708,-0.11998342273290408,0.22638809897139733,-0.9666190670535469,-0.00043200205529258547,-0.001505640380000623,0.005655651792473594,0.989387120677392,-0.10983624795327802,-0.06801813296714185,0.06650401801605664
250,2.5,0.012410066362887912,-0.0008746430220267856,0.0024352498401736746,-0.12000215173807179,0.22636560256233412,-0.9666219840660997,-0.0006350407930610397,0.008277102253748135,0.002856780108969844,0.9893869772777371,-0.109823224389374,-0.06802832050109682,0.06651833339384515
251,2.5100000000000002,0.02192951977473213,0.0033467393593170462,-0.0002528218431855485,-0.11999552333338452,0.2262154291340634,-0.9666579681453634,0.0010896539652160717,0.0158735641352989,0.002308863372045326,0.989395169893639,-0.10974604056303135,-0.06802067096261218,0.06653143080026394
252,2.52,0.018527363207478754,0.007769303755960602,-0.00020766242332738026,-0.11993591064729466,0.2260197907819337,-0.9667111391829972,0.002408994859723425,0.01605175649956577,0.0030731307261718816,0.9894083645051512,-0.10964807279713841,-0.06798329586819792,0.06653365582427019
253,2.5300000000000002,0.00452575311885627,0.007625512497409014,0.001636012006743525,-0.11985252987909684,0.22588211973499517,-0.9667536402250931,-0.00019863044003041698,0.011261555006952712,0.005208166251685576,0.9894190708754403,-0.10958045578493905,-0.0679359460558541,0.06653426672967025
254,2.54,-0.011953062950424975,0.003058152034894717,0.00260999005328096,-0.1198073960535098,0.22586811098561838,-0.9667625232238423,-0.000760513233270998,0.00514494125475356,0.0067602128960786295,0.9894210583169706,-0.10957444841046741,-0.06791300174531997,0.06653791185438321
255,2.5500000000000003,-0.02176530348801617,-0.0008286441147257372,0.0046347529324521144,-0.11978790349711267,0.22599063396206448,-0.9667362975756497,0.002354128481970065,6.659132423115772e-06,0.007095419102121029,0.9894140453647091,-0.10963696372776875,-0.06790859865927679,0.06654478600020917
256,2.56,-0.025099294004630623,-0.004339259987252382,0.002600838646323971,-0.11980329292608134,0.2262062842208901,-0.9666839509278001,0.00202138888108091,-0.0037935089753394534,0.006377333473808514,0.9894000809592518,-0.1097455821198195,-0.06792585095675256,0.0665557036544164
257,2.57,-0.013275227443603094,-0.006463827041676531,0.0032265887346961944,-0.11986030103075367,0.22639727799182674,-0.9666321703055837,0.0020495085018792875,-0.007260020532289606,0.005865148604777,0.9893862000846775,-0.10984030432591156,-0.06796331308932331,0.0665676784910118
258,2.58,-6.357652519414867e-05,-0.0014247623524526684,-0.0009874266983712773,-0.11989768871596787,0.22648680353370967,-0.9666065838781884,0.0015828037398818143,-0.004363429669396228,0.005992814865578911,0.9893792982554952,-0.10988431223927284,-0.06798636737745795,0.06657419496290688
259,2.59,0.015205589477240447,0.005998493888729246,-0.0012766907984058445,-0.11987681624493171,0.22646597294461057,-0.9666140342043422,0.0019252253697904344,0.0035865609861037697,0.006893113009938834,0.9893814989402706,-0.1098746915797959,-0.06797445648988013,0.06656911504825894
260,2.6,0.02585232578449288,0.008808268288954592,-0.003920245158438801,-0.11980543052435157,0.22632563630391644,-0.9666557734787,0.0012224376526078357,0.010923336518662372,0.006102419641465359,0.9893925182446519,-0.10980593471338672,-0.06793212711939486,0.06656127837327606
261,2.61,0.03479835069170706,0.005938338854379869,-0.006359403160223379,-0.11974646024285518,0.22606307894395083,-0.966724504519363,-5.031146301155405e-05,0.012488828984187995,0.0026737953076043357,0.989411076162515,-0.10967518079494472,-0.06789034871889547,0.06654405822330836
262,2.62,0.048654035506009066,0.0027672065616715555,-0.0023932125536624068,-0.11972326229091206,0.22568341978478382,-0.9668160877432165,0.0034701226953727433,0.011700581569523005,0.003011079773348059,0.9894347222678838,-0.10948301936854204,-0.0678632790606074,0.0665368391244459
263,2.63,0.04674462911984838,0.0021097439557570233,-0.0033863711515070695,-0.11969724798304078,0.2252267439279243,-0.9669258008362741,0.002670802299159227,0.00720525269079008,0.004352606604202631,0.9894627105239998,-0.10925150476606897,-0.06783222884940888,0.06653305012737998
264,2.64,0.04406661024685743,-0.0015140712584162878,-0.0031525846914647157,-0.11969557005316583,0.2247971579165581,-0.9670259633675795,0.00047620006249562345,0.003950739451811254,0.004457590962016406,0.9894884672485398,-0.1090332862303161,-0.06781416118275653,0.06652596089631585
265,2.65,0.036646907830951814,-0.0017443756203057575,-0.004186414786615123,-0.11972887720627885,0.22437603827671693,-0.9671196489159121,-0.0006480116857717314,0.0015608498418941009,0.004697631258483255,0.9895124000386821,-0.1088181479424468,-0.06781439319953221,0.06652148734903972
266,2.66,0.03209318982131014,-0.006545508026773405,0.0007703846402834454,-0.11976486276370864,0.22403932739203186,-0.967193223580685,-0.00227082700581154,-0.002712116900886617,0.005237934077038074,0.9895307988462417,-0.10864537147036787,-0.06782007438675709,0.06652488131574966
267,2.67,0.029720432814397336,-0.0052301873419303094,0.002870679549530501,-0.1197917203973101,0.22376950899028872,-0.9672523816636845,-0.0023765553328131675,-0.002123658820432978,0.005774874510236962,0.9895438867661592,-0.10850528823100972,-0.06782635102167942,0.06655244963721257
268,2.68,0.023634846086909807,0.00033521450182689267,0.0019378474655302907,-0.11981849012752364,0.22357256623432875,-0.9672945795565464,-0.001296204912531673,-0.0013964094832496507,0.004819724755273448,0.9895529558555692,-0.1084025596068913,-0.06783497433929325,0.06657641908559939
269,2.69,0.02346723954922985,0.0021095063254268137,0.0008984139263473056,-0.11979968058978183,0.22339506608471407,-0.9673379413289159,-0.0010216430973892807,0.0024003715167883687,0.0043700384078722695,0.9895627885655213,-0.10831163099074459,-0.06782050444934985,0.06659308723565223
270,2.7,0.024704070873824258,0.0005987831369015887,0.0008931044851156157,-0.11977065881887547,0.22322050094153134,-0.967381844210524,-0.0003918812462243602,0.0032088108457330815,0.0035520763537483183,0.9895731429807496,-0.10822289393744015,-0.06780036522099143,0.06660411870783235
271,2.71,0.023909983094659082,0.0012070278775892758,-0.0010783308986208502,-0.11974859766682555,0.22301714963729735,-0.9674314816799557,0.0005991238777239025,0.005100052499651303,0.0028812514435513762,0.9895847433327354,-0.10811907729337383,-0.06778298172744357,0.06661826950415932
272,2.72,0.023080886483338045,0.0022471242271488567,-0.003911070735612519,-0.11973161774738034,0.22280145224134698,-0.9674832843735404,0.0007402219155127211,0.006842800252374034,0.005335576107327091,0.9895978636783404,-0.10800985981540018,-0.06776605401568256,0.06661737296794064
273,2.73,0.019513290885807832,0.003508646408627462,-0.004431136479202284,-0.11972802694737461,0.22260602071320368,-0.9675286752250136,0.0017916256070434845,0.005276005102040627,0.0048840662112203895,0.989610504855871,-0.10791165278181485,-0.06775491313500709,0.06660040356334405
274,2.74,0.010599019449124409,0.004920798912221664,-0.00809852556390667,-0.11973074353329077,0.2224560178960819,-0.9675628481554917,0.0003155497371329534,0.003288917155043726,0.006401387366819844,0.9896215082261036,-0.10783761511888261,-0.06774672938825173,0.0665653620064329
275,2.75,0.0006821669858001773,0.006654204586779754,-0.008679791273489789,-0.11971347358279026,0.22239220344605393,-0.9675796775642885,0.0003489748465887192,0.0003371572145575903,0.008000936790447954,0.9896285846777407,-0.10780859023977932,-0.06773091132089878,0.06652260368260732
276,2.7600000000000002,-0.0143280934008428,0.0061876367526274905,-0.00771810177299163,-0.11968977322696071,0.2224419864064472,-0.9675711602136051,0.0008725128081647836,-0.0010572728439590402,0.004967181004168178,0.9896296966294719,-0.10783798585321275,-0.06771553669611408,0.06647397657160091
277,2.77,-0.025010370804229697,0.0007054421262515733,-0.007360173313436481,-0.11968198942637373,0.22264841874260616,-0.9675246476143238,0.0021128230802245646,-0.0025326712947013517,0.004174443708506717,0.9896209905080482,-0.10794641330894683,-0.06771452132938997,0.06642848984903517
278,2.7800000000000002,-0.022875393380934715,-0.011318757870468647,-0.014019554444450244,-0.11976242166387381,0.22288613742959998,-0.9674599526747415,0.0009599458653179084,-0.005213927020639307,0.003621787336241685,0.9896081341618891,-0.10806849613485692,-0.06775860091586793,0.06637691709362172
279,2.79,-0.018571786156280596,-0.010003265638410011,-0.00863409074783774,-0.11990348764627672,0.22311117503430689,-0.9673905884111862,0.0007104037170581212,-0.0046599503045539606,0.0019475761470035997,0.9895943818563233,-0.10818259417678865,-0.06783234778895156,0.06632090502331212
280,2.8000000000000003,-0.009655137581513906,-0.0078362823962986,-0.0033806380799077124,-0.1199956542654494,0.22326835950929796,-0.967342889411928,-0.0019323986615960962,-0.002225057113747316,0.005006294403770932,0.9895838263079562,-0.10826133700792288,-0.0678824803035364,0.066298611832081
281,2.81,0.0019320419152477572,0.0019075575160268463,-0.004292922000983922,-0.12003488424271269,0.22333766046380454,-0.9673220291883835,-0.003419644359734825,-0.0061797786189646915,0.005026798733391603,0.9895801094056448,-0.1082970171397548,-0.06790240118077422,0.06627536899997992
282,2.82,0.02050923586241276,0.005244550043625666,-0.00468986049020297,-0.12001318633852949,0.22322219102537405,-0.967351365188666,-7.511252625350996e-05,0.004555660487450671,0.007904951367206287,0.9895891789562365,-0.10824066656879752,-0.06788422840458246,0.06624964378795044
283,2.83,0.02584664978607372,0.005979919185783477,-0.0058908170498379354,-0.11996643005149533,0.222989856575474,-0.9674107433059806,-0.0019598483678006044,0.015969509610310545,0.005894299509930205,0.9896055120378031,-0.10812514188939801,-0.06784962720772518,0.06623020183819885
284,2.84,0.02354674343859496,0.0077947196094972785,-0.0033835369030944273,-0.11990016349906632,0.22274505862923052,-0.9674753839269692,-0.0032081246642943237,0.011792170719555654,0.0021911792720753563,0.9896230341732548,-0.10800371206913549,-0.06780494506632573,0.06621303734726207
285,2.85,0.02119926636337358,0.01467011488195873,-0.0040436369693449626,-0.11979096205584737,0.22250807226061553,-0.9675434379029929,-0.0005724219803405065,0.008378466937435788,0.003731958325934676,0.9896414487151465,-0.1078876584983782,-0.06773873385421016,0.06619458861258659
286,2.86,0.012746389509128006,0.012182990050135057,-0.0015658868504629705,-0.11965926768491755,0.22231299986619862,-0.9676045957661783,-0.001710121742059124,0.005994693127617524,0.007249567709607483,0.9896578024609158,-0.10779329266968916,-0.0676632903270446,0.06618102163144027
287,2.87,0.013214795737184256,0.004783169932014475,-0.0007809907967186831,-0.11957598324434801,0.22219061002445223,-0.9676429769653786,-0.0030198475609852127,0.0019766072256669964,0.007304311406250353,0.9896681113533465,-0.10773409739489637,-0.06761563979527807,0.06617263890728742
288,2.88,0.0032465187516284508,0.001273955890050759,-0.005195160073424975,-0.11957465855440812,0.22211346119791275,-0.9676608307768787,0.00163033565215073,-0.004090286513180158,0.00684894340044891,0.9896736710466051,-0.10769597718454457,-0.06761027893024775,0.06615644030307134
289,2.89,0.011254895711894006,-0.004523953568834214,-0.004109670702948177,-0.11963657232619045,0.22202645567600707,-0.9676731667552294,0.004497520286533948,-0.007149884428704674,0.006970637387473819,0.9896779171629264,-0.10765103080310974,-0.06763633326747699,0.06613868787312728
290,2.9,0.011636097723653826,-0.003776980521226516,-0.004685919639107676,-0.11969022897619913,0.22193851417335342,-0.967686727066817,0.0025077672149829314,-0.003972135067715246,0.007753319639538778,0.9896819417614987,-0.10760523893879899,-0.06765915186236479,0.0661299237155219
291,2.91,0.009265063642915843,-0.00579027135474303,-0.0008474285432655836,-0.11975442787497532,0.22188784189594232,-0.967690393037168,0.0023114525566870344,0.001850972933177004,0.005602513905908427,0.9896833389884714,-0.10757801771300286,-0.06768884969614476,0.06612236790143398
292,2.92,0.007799315995171452,-0.005232196231647298,-0.002021303373967798,-0.11981543185929233,0.2218484593688512,-0.9676918430204767,0.002994232203759426,0.0058762272346552305,0.005405360501076663,0.989683762439001,-0.10755620281410437,-0.06771806124749004,0.0661212523530916
293,2.93,0.0005351581342308479,-0.002277947142864034,-0.0012578158756218016,-0.11985899800492172,0.22182543504797173,-0.9676917495231453,0.002986818295749095,0.007248538488594739,0.005109579728888496,0.9896840353655983,-0.10754342056300736,-0.06773877709642226,0.06611734565449177
294,2.94,-0.0003377524206008733,-0.007801182992640726,0.001991001858797834,-0.11991509421737633,0.22185995302268716,-0.9676769002219622,0.0002749541551156553,0.00678335875489747,0.0027878775387606774,0.9896797342789972,-0.10755866522418105,-0.06776940538382077,0.06612633829823271
295,2.95,-0.004576729564997462,-0.010515814977102234,0.0014819141895708872,-0.12001576687443413,0.22190235493579577,-0.9676546918119361,0.0006997735917673712,-0.0013810788465239351,0.002812649160012314,0.9896734337448377,-0.10757651594945752,-0.06782296502214448,0.06613622372174785
296,2.96,-0.0011602715353482276,-0.008883108144876566,0.00563121270600184,-0.12009353534778261,0.22190919184986838,-0.9676434314362636,0.0019582116903046547,-0.0035243875834598693,0.003076553011965908,0.989669114806485,-0.10757615610459935,-0.06786488608503403,0.06615789822212936
297,2.97,-0.009908365299698211,-0.004189031398638756,0.0003074883954164911,-0.12012483960652241,0.22195436302114038,-0.9676292089618718,-0.0012114963616448762,-0.0015063369878605894,0.006839819736078781,0.9896641928306351,-0.10759679074950428,-0.06788463234063995,0.06617827614957424
298,2.98,-0.008270091025664022,-0.0012724552999568589,0.004066388829637935,-0.1201418908943563,0.22204341436380273,-0.9676066766195601,-0.0025239989619354197,-0.0011620912226210883,0.00550905195962252,0.9896576019238068,-0.10764065353807144,-0.06789813339891841,0.06619209095122668
299,2.99,-0.009058146123069506,-0.0030569218011041585,0.0013439857417930673,-0.12015533859193367,0.2221405155989117,-0.9675826914759489,-0.0028552753192016434,0.0017459437283283022,0.004120073670174411,0.9896512186843729,-0.1076893088252255,-0.06790918358467726,0.06619725400718682
300,3.0,-0.019251770738179012,-0.002121945291878693,0.0028142206223180904,-0.12016218384591539,0.22230404511215235,-0.9675443078444256,-0.0020041395130195503,0.0028266933390764582,0.0018069052114718454,0.9896409186918241,-0.10777172497019821,-0.0679198306948103,0.06620616958376135
301,3.0100000000000002,-0.021858063341615674,-0.0019479911254586414,0.00013389185434270435,-0.12016416907459486,0.22253035099107782,-0.9674920088553156,-0.0015376765460982387,0.002568873441849105,0.002799051065056795,0.9896276237043129,-0.1078867316992163,-0.06792964108074781,0.06620798421339791
302,3.02,-0.017100777336687707,-0.005302246785344491,0.0011902644470075524,-0.12017715120622699,0.22275829017871246,-0.9674379469465934,-0.002513518714380693,0.0014993512556386503,0.005620900094668296,0.9896133741456988,-0.10800188786075356,-0.06794566372388751,0.06621516746225482
303,3.0300000000000002,-0.01629050299375159,-0.008655085391858362,-0.00591698381670055,-0.12024499328485058,0.22290748911127758,-0.9673951728847812,-0.00103153505583338,0.000426907670552512,0.005606191293877475,0.9896036684677562,-0.10807693467561422,-0.06798378860117296,0.0661983130396529
304,3.04,-0.01263112384627299,-0.007532444775683627,-0.0009572655205524108,-0.12032818967066049,0.2230310607045593,-0.9673563318093668,0.002474614436877022,0.00030955819962906353,0.005928149715869111,0.9895947834993475,-0.1081382694770973,-0.06802902547477055,0.0661844531422164
305,3.0500000000000003,-0.0032319262927532847,-0.010377608149041501,-0.0030501240759939893,-0.1204302114757279,0.22309340514819218,-0.967329274872771,0.0014082663083497897,0.000712264482561635,0.006193570654500279,0.9895887112810393,-0.10816764864886264,-0.0680817749423311,0.06617366794236483
306,3.06,0.01284084201154388,-0.008826494286062312,-0.002215215777334219,-0.12053938150012401,0.22303504985133882,-0.9673291283380238,-0.0001656468353250682,-0.00107309972686132,0.005676499504523704,0.9895888970356923,-0.10813482136549196,-0.06813440476031274,0.06617072515793984
307,3.0700000000000003,0.01734423721118758,-0.005811060759356356,-0.003825063543231492,-0.12062069646001439,0.22287889556253992,-0.9673549902670592,0.0034319233764144165,0.005741185383889454,0.004598116353877444,0.9895954116713098,-0.10805292127563906,-0.06816948017910969,0.06616996690657236
308,3.08,0.020427990513347104,0.0007362909279747167,0.00019335944340567648,-0.12064634495326576,0.22269273552320387,-0.967394627256355,0.0017008320342753735,0.008474736736638927,0.003812419933580357,0.9896053139969595,-0.10795721145099589,-0.06817561047059717,0.06617227397784324
309,3.09,0.01766004820663703,0.0018954882517591958,-0.00142075402587145,-0.12064908317652141,0.2225223073461746,-0.9674334990365747,-0.0017051834872478706,0.006373783924989087,0.005657764793851248,0.9896151549822245,-0.10787041150295391,-0.06817045910160661,0.06617179335299134
310,3.1,0.008760696753557538,0.004981236182372409,-0.0015321556840768766,-0.12062249146202936,0.22239807429153285,-0.9674654096011941,-0.002642103423929466,0.0031874211395998076,0.0059814371290872245,0.9896233566582656,-0.10780812047274736,-0.06815206513368893,0.06616969668246553
311,3.11,-0.010455830554321546,0.003913156064961991,0.002904050106560713,-0.12059319137722599,0.22242096251170757,-0.9674638273359933,0.0009639920745517722,-0.0010250215716660137,0.004752173066859611,0.9896226641201373,-0.1078203582163109,-0.06813860906042833,0.0661740963792969
312,3.12,-0.016947106140873684,0.0001250284106823073,0.00183715419798575,-0.12056416943669312,0.22255682345588226,-0.9674361783323936,0.00035874878680238235,-0.003928456404834064,0.004468088705562829,0.989614942274075,-0.10788964143488303,-0.06813031011184194,0.06618511887984846
313,3.13,-0.02596134112464643,-0.0032269494216878567,0.0003092802270370865,-0.12057527481884613,0.22277771553998085,-0.9673839592971849,0.00013751586737622125,-0.006581210883057896,0.004635564872757192,0.9896018830068157,-0.10800185330019546,-0.0681441520468152,0.06618351504659173
314,3.14,-0.028676279783793134,-0.0027001779799073174,-0.00021005775665954674,-0.12061940336951751,0.22303819363426564,-0.9673183945077558,0.0006859114395490109,-0.0038692171063203673,0.005073918303172098,0.9895858111385328,-0.10813365865621233,-0.06817551464224221,0.06617571051047959
315,3.15,-0.023175968442423412,-0.004041919329419845,-0.002674864193932393,-0.12064252169998758,0.2233253011674326,-0.9672492796832336,0.0006745201648431329,-0.0018676990588304913,0.005386345774388835,0.9895695264971152,-0.10828031657251144,-0.06819622477206999,0.06615834202769935
316,3.16,-0.017836918583098653,-0.006830766271430698,-0.0010150773360250408,-0.12069444312955963,0.22355715674453294,-0.96718926506486,-0.00041835125975366657,-0.0009721539785481838,0.004651811167570933,0.9895551395611126,-0.10839755859393294,-0.06823005867982497,0.06614709234630023
317,3.17,-0.007104115479139597,-0.002831964833971961,-0.002082476968016981,-0.1207617371303315,0.22368708387447994,-0.9671508362998007,0.00021039073668944976,0.002967545930246833,0.004331961443046791,0.9895467533922417,-0.10846297004345073,-0.06826693094322629,0.06612809727518244
318,3.18,0.000272210693196856,-0.0007434612215600927,-0.00035472922075668466,-0.12079339824382915,0.22371814015186392,-0.9671396974174554,0.0013122137587664104,0.007331548990754817,0.004760628136944492,0.9895443913194109,-0.10847839437499232,-0.06828322948938852,0.06611994893865462
319,3.19,0.005102943239243966,-0.0001974583314506657,-0.0015105913757486361,-0.12078415902353307,0.2236905475306557,-0.9671472294149975,0.0008899491813560041,0.008120757832001559,0.0049421521264100005,0.9895464519053295,-0.10846474687746922,-0.06827730758305298,0.06611813878568612
320,3.2,0.009352372011094217,0.0011772044279492772,0.0009209047999653686,-0.12078447489277802,0.22359521472968774,-0.9671692150014032,8.24410053977152e-05,0.006605150917879764,0.006057256433138252,0.9895522347291879,-0.10841643152050305,-0.06827347354146884,0.06611481018684465
321,3.21,0.010771325275092605,-0.0020938650632918304,0.003512013658179356,-0.1207841727241953,0.2234661610777651,-0.9671991094123982,0.0006043130632415818,0.0031421755194550242,0.003809300139334687,0.9895589446000546,-0.10834983551083838,-0.06826982673866616,0.06612776334173887
322,3.22,0.005090427108174702,0.0012471442359281676,0.003169752562350788,-0.12077572834327964,0.22337284596620927,-0.9672216830278252,0.0015464702164086645,-6.279300067646041e-05,0.0041539476729749916,0.9895630770950206,-0.10830090531031313,-0.06826466039293574,0.06615202490221264
323,3.23,-0.0005280297705909662,-0.00021189256092437182,0.001698067210589377,-0.1207608789271373,0.22334237861270767,-0.9672305747670609,-0.00017122115400433732,-0.0012260508888971048,0.005825090906549519,0.9895645011119535,-0.1082850210784076,-0.0682573118243209,0.06616402834153949
324,3.24,-0.0027162615429960485,-0.0036262521611316826,0.0023346244755390005,-0.12078882511886459,0.22336388619236244,-0.9672221481983825,0.0011092032365962378,-0.0013919664506561653,0.006753120495688138,0.9895618041561276,-0.10829463405908529,-0.06827304952074177,0.06617123790287546
325,3.25,0.003967637682074517,-0.006585037725953675,0.0010877113362546978,-0.12083982381954947,0.22336390679715495,-0.9672157467995628,0.0006584003963704494,-0.0018004809773159041,0.005909073901946577,0.9895595646621489,-0.10829243908527604,-0.06829986088197985,0.06618069789507303
326,3.2600000000000002,0.007600858027739417,-0.003412016017556707,-0.0009358856204410852,-0.12087750465256496,0.22334058261286574,-0.9672164467946418,0.0013126256134252223,-0.0020358171939704895,0.0057521178884413155,0.9895592023579853,-0.10827891914768357,-0.0683188276645428,0.06618808070388564
327,3.27,0.008849302345969137,-0.002370752561638038,-0.001829309315583869,-0.12090945574182677,0.22329373891968357,-0.9672232401489925,0.001234301193047956,0.0014890816806227038,0.005754371798065381,0.98956050174435,-0.10825357743217733,-0.06833399989933903,0.06619549008185192
328,3.2800000000000002,0.009960987745395404,-0.0018896235527415563,-0.004315015346001741,-0.12095778294450159,0.22321516012465484,-0.9672353319172721,-0.0004174304540152012,0.006091255570210366,0.004770075317146617,0.9895641705399408,-0.10821271809511694,-0.06835445681234441,0.06618658424951337
329,3.29,0.00634656836889767,-0.0018708588003663513,-0.005501551631000498,-0.12098914421224138,0.2231265512039582,-0.9672518841323929,0.0006081316175007461,0.008356306912470603,0.004584237850340413,0.989569650271265,-0.1081680402032904,-0.06836475658422009,0.0661666296729935
330,3.3000000000000003,0.0058725293137249085,-0.002743566647043354,-0.0007856356061250198,-0.12100731517338846,0.2230714108660919,-0.9672623125926588,0.0008655585469050689,0.005859860452762194,0.004355701454183765,0.989573103388573,-0.10814023432315317,-0.06837054849090153,0.06615481072026907
331,3.31,0.006379840356383622,-0.0001439626856471637,-0.000595293787272864,-0.12103098359628059,0.22301343123781156,-0.9672727444666682,-0.0011980812341987127,0.0021857464154368027,0.004609629792495813,0.9895756583710325,-0.10810988563336205,-0.06838047345374491,0.06615638088503611
332,3.3200000000000003,0.008172398739076782,-0.0015012211180767399,0.0003282917332477059,-0.1210369750410307,0.2229419837610915,-0.9672884432554054,-0.00029617320993845925,0.00022930050615850963,0.004775327291733705,0.9895794758646297,-0.10807321157374314,-0.06838098029092618,0.0661581805961093
333,3.33,-0.00161403148911771,-0.0006598955779950491,0.002839464930468702,-0.12104297295143665,0.22291919389654047,-0.967292946438625,0.00035012015759431335,0.0009978567143267263,0.0038169274118692123,0.9895802614891427,-0.10806103892075326,-0.06838375407013898,0.06616377177291992
334,3.34,-0.001885501910401864,-0.0008389419068811069,0.00206279466011063,-0.12105013322054216,0.222933434035661,-0.9672887917470773,0.0005959107705871818,0.0002330038124199801,0.004732298398792054,0.9895784348986042,-0.10806727117122462,-0.06838917583923596,0.06617531882083855
335,3.35,-0.005641488735610688,-0.0029618185033607157,0.0031695355046397642,-0.12106384631477625,0.2229800395625234,-0.9672763412137871,0.0017894677730290896,-0.001030613822571571,0.004939059754518423,0.9895746536158855,-0.10808990890666893,-0.06839893839491104,0.06618502920465905
336,3.36,-0.012611030808162761,-0.0009931346229466527,0.0030203297667737348,-0.12108335035168326,0.223097993790869,-0.9672466653593246,0.0011693244094460801,-0.00078619528332355,0.0054602331212119685,0.9895663140683473,-0.10814857255654656,-0.0684145613678568,0.06619661682548642
337,3.37,-0.01935772271445987,-0.004117909377085367,0.003878790087807037,-0.1210996906726352,0.22329452067301842,-0.96719926647913,0.0009258933623396138,-0.0008491246815326568,0.005660038537352474,0.9895534684115574,-0.10824724275939104,-0.06843170913775747,0.06620943656408323
338,3.38,-0.023265788375258493,-0.005509605308523563,0.004493544131379824,-0.12112854208148763,0.22352047755699017,-0.967143459085915,0.0011271081379606279,-0.0025232136669119756,0.0047843040727129525,0.9895382221741271,-0.10836020922298273,-0.06845679144012838,0.0662267055656301
339,3.39,-0.017547412455658034,-0.007030998816605431,0.004743415590635228,-0.12118153366174374,0.22373542115385223,-0.9670871259760992,0.001197949385489328,-0.0028570526165178694,0.005268267886822994,0.9895229167171772,-0.10846692170405055,-0.06849353540026805,0.06624283616776838
340,3.4,-0.01757810085071353,-0.004920825042082452,0.0043054684116480765,-0.12124212010882952,0.22391098366715698,-0.967038875388444,0.0012016781080431708,-0.0003296186383154728,0.005956484779235567,0.9895093862708919,-0.10855311176391039,-0.06853301209861641,0.0662624920815958
341,3.41,-0.018787120831664325,-0.004010451837684028,0.005583160712355756,-0.12128427510608142,0.22409320007397965,-0.9669913985667932,0.00013556270632615174,0.0012009660753046726,0.004807503830359611,0.9894958011114987,-0.10864289986537196,-0.06856396761426489,0.06628708658852898
342,3.42,-0.018814374239509445,-0.0008864250086085715,0.005832114141915858,-0.12129629217540312,0.22427688002839535,-0.9669472974480934,0.0010564921658883899,0.002940513564327946,0.004260134349748871,0.9894831531266327,-0.10873446527891845,-0.06857957859565193,0.06631007553816984
343,3.43,-0.026834082629623578,0.0008617468641514145,0.005811856944657614,-0.1212674690454531,0.22450725247318387,-0.9668974412043724,0.0009358741863501463,0.0033506275231012547,0.005387326608705798,0.9894688552565796,-0.10885093795809556,-0.0685765361100383,0.06633485816935486
344,3.44,-0.04294883915153875,0.003698617393404987,0.005749723019052438,-0.12121286713673822,0.2248542288659721,-0.9668236760101576,0.0006355297024644933,0.001799593861133694,0.004873245055445782,0.9894490549152843,-0.10902813788627798,-0.06856403714259918,0.06635155555547377
345,3.45,-0.05845607618399258,0.004940196220186531,0.007846407325169537,-0.12114451652252278,0.2253487074828108,-0.9667170878964222,0.00021623371487277326,-0.0007604554157020762,0.0038869899542150993,0.9894209714353374,-0.10928083131476381,-0.06855030861029017,0.06636894537496102
346,3.46,-0.07086363514274292,0.0032769338594206263,0.009817799850272868,-0.12108133792482222,0.2259813932680876,-0.9665772800315579,-0.00046870450677436164,-0.0049172130090221755,0.004940584327267235,0.9893840084818384,-0.10960327804646078,-0.06854530141883272,0.06639359502697217
347,3.47,-0.07104948764323306,-0.001175862726262807,0.009514955743283747,-0.12105630547965608,0.22669648532800882,-0.9664129596746085,0.00025085077702423884,-0.00756869430753212,0.00474165416168928,0.989341136042566,-0.10996688292134797,-0.06856227497337634,0.0664138700744793
348,3.48,-0.06352691169606396,-0.004168370620794628,0.00613118542168049,-0.1210671772720298,0.22735413389336354,-0.9662570991096712,0.0012880026336864864,-0.008990209730039476,0.003529606481907623,0.9893004048609711,-0.11030015421039982,-0.06859525217072183,0.06643437116718333
349,3.49,-0.050537173058130956,-0.002867977234982696,0.002372140998395946,-0.1210922326778137,0.22792064459979333,-0.9661204984416208,0.0011106087630468565,-0.007217975369592922,0.0038487196252197453,0.9892658184595875,-0.11058800951248926,-0.06862966947853882,0.06643459226046833
350,3.5,-0.027172097046248043,-0.0005823079398880832,0.001926189356208276,-0.12110043613431846,0.22830576985175335,-0.966028552375538,-0.00035908904340452394,-0.0006662218430410188,0.004846901032089055,0.9892428285794351,-0.11078429664854901,-0.06864811287376744,0.06643031078925146
351,3.5100000000000002,-0.0013889869346273495,-0.0001158254184553141,-0.0010622837471563206,-0.1210993082662198,0.22845663112742365,-0.9659930316470976,0.0006987893270499492,0.005703459797370088,0.004576421024723983,0.9892341330600667,-0.11086148200247932,-0.06865287495722215,0.0664262485633724
352,3.52,0.02345823359324417,0.004225981450659964,-0.003292088806308572,-0.12107725907548912,0.22834743543988037,-0.966021618604469,0.0025079320821147703,0.011620670351212021,0.0038426331525566117,0.9892417852929054,-0.11080697422002615,-0.068636797562211,0.06641963070786829
353,3.5300000000000002,0.03874666683669328,0.010020721103244132,-0.005496405571350345,-0.1210175683461103,0.22803263155306736,-0.9661034527610286,0.001746950428724432,0.015598278178322855,0.00426702482695773,0.9892635862094037,-0.11064957605961638,-0.0685926321571252,0.0664024899068377
354,3.54,0.044546190270692995,0.013407501026983284,-0.006200183660155559,-0.12092286033852837,0.22758662268493718,-0.9662204316014158,-0.0004561331755764137,0.014357672500779878,0.005582243138292886,0.9892946974609541,-0.11042677238670909,-0.06852513174800626,0.06637989806236333
355,3.5500000000000003,0.042999688341516865,0.014366268219441685,-0.00514577603027244,-0.12080437912571293,0.2271213879514634,-0.9663447027322395,-0.0017429031323165887,0.00982775532215188,0.006230256584548375,0.9893276004923788,-0.11019486480351193,-0.06844497737176654,0.06635804129998366
356,3.56,0.03584849284043835,0.010336041315823528,-0.00016815652624474226,-0.12068958851077254,0.22671367743049084,-0.9664548021164777,-0.0010941259550129583,0.0060975046884039884,0.005815664666280084,0.9893560871544715,-0.1099913009682356,-0.068370299258234,0.06634868459050806
357,3.5700000000000003,0.03617136577976749,0.006489176520386643,0.0014555511726115288,-0.12061056828532257,0.22635359939727306,-0.9665490752698879,0.00012652551266442138,0.0025288843875507774,0.004794678046213128,0.9893797440697244,-0.10981010633716765,-0.06831685932118273,0.0663512054496523
358,3.58,0.031933860593364144,0.0036899603379821158,-0.0009285373247239618,-0.12057668665425204,0.22602694597110523,-0.9666297491052591,0.001300815086984332,-0.0011817777041963657,0.004445214859880996,0.9893998056675409,-0.10964443689716817,-0.06828774870482916,0.0663557728711251
359,3.59,0.027834589695779007,0.003754784714060313,-0.0007177663116692135,-0.12054166581282233,0.22576647765222352,-0.9666949890231712,0.0012714738426529643,-0.0013135273050587195,0.005236562577435443,0.989415966414112,-0.1095125542316641,-0.06826055278960438,0.06635995296443453
360,3.6,0.029750981723657914,0.004515140442745035,-0.00035495343855716744,-0.12049035051408531,0.22553055921583162,-0.9667564702777084,-0.00015187319950918788,0.0006126414933916491,0.0067653137393219,0.9894310145326694,-0.10939346449418365,-0.06822639124341084,0.06636715804072098
361,3.61,0.029265310393416646,0.004932104068170326,-0.0004773347978222578,-0.12043294125937277,0.22530523683713133,-0.9668161713979488,-0.0021454435135636898,0.0027475797312805812,0.006122258741795771,0.9894455576477176,-0.10927986400978595,-0.06818970907314562,0.06637576961762832
362,3.62,0.021810835661759814,0.005971975121615909,0.0019090964112804523,-0.12037340053456742,0.2251189727131563,-0.9668669564626814,-0.001841644631160747,0.004246630101323331,0.003983600357824378,0.9894573498242109,-0.10918577150624617,-0.06815417576786059,0.06639098048222143
363,3.63,0.016167902596297076,0.0051928701380913244,0.0033443734819659124,-0.12032417206364769,0.22497744939939895,-0.9669060350717393,-0.000995325661760878,0.002233745987634808,0.00308639704833869,0.9894660738686099,-0.10911395806174252,-0.06812585601631962,0.06640888979587052
364,3.64,0.01087379687410406,0.0017497028436346093,0.004812847200975543,-0.12029957367516432,0.22487431247765305,-0.9669330812867883,-0.0003754340076585871,-0.0019498742004594074,0.003416143804575173,0.989471626202564,-0.10906088765259643,-0.06811156537621268,0.06642779479445232
365,3.65,0.002402992063760683,-0.0007047447772456202,0.005013442147054847,-0.12029423303673388,0.22483175654044837,-0.9669436287559937,7.306141758260304e-05,-0.003433683401536941,0.004660419575991694,0.9894729242915258,-0.10903801909893492,-0.06810942777503627,0.06644762899410368
366,3.66,-0.0016494878215937377,-0.0008713917922170272,0.0035377368651225063,-0.1203018713025793,0.22483901285375454,-0.9669409754643874,0.0008865386150700579,-0.0038963217365838914,0.005133172780994313,0.9894710226046444,-0.10904023586951116,-0.06811556251571695,0.06646572858992972
367,3.67,0.00024750832908298896,-0.0012570169700212427,0.0024643567837888247,-0.1203077748212792,0.22486141096196768,-0.9669350545766036,0.0014587816469956028,-0.004019309659312796,0.004677136617576867,0.9894685378523029,-0.1090504232109147,-0.06812106011964683,0.06648078463382802
368,3.68,0.001938222883546095,-0.0014071293882448157,0.00015338275422894804,-0.12031067866345758,0.22486270678035547,-0.9669344102064446,0.0006550907286519337,-0.001693273235406563,0.004721569585878838,0.9894679264760775,-0.10905052021081352,-0.06812333351501584,0.06648766702064518
369,3.69,0.004265212520952747,0.0025316948430408022,-0.0020197087630996202,-0.12031428673795332,0.2248387223347288,-0.9669395072163809,0.0007903350462761971,0.0014522852212024583,0.004041274712236574,0.9894696446735444,-0.10903867737561361,-0.06812348333794424,0.06648076687345959
370,3.7,0.007279693103968437,0.008769640871805581,-0.0041711457877760426,-0.12028125212638456,0.22479408128225803,-0.9669540060879794,0.001438832783968938,0.002544814000438984,0.004397275805117478,0.9894746705374146,-0.10901838400031465,-0.06810279585455713,0.0664600263305865
371,3.71,0.004561813190223964,0.010881618655095116,-0.006411271070925577,-0.12020053259319076,0.22474273418814783,-0.9669759770760091,0.0002446710196037068,0.0023362508131447987,0.0058219684484577755,0.9894824136688433,-0.10899694073136237,-0.06805643925211,0.066427403539755
372,3.72,-0.005868649684205283,0.010366124190019553,-0.00856591918350032,-0.12010887112656721,0.22473952594075255,-0.9669881067422517,-0.0012883517158262029,0.0018281970388489169,0.005013356115753006,0.9894883928786975,-0.10900106137118253,-0.06800523568156186,0.06638427984250174
373,3.73,-0.018489180536857615,0.004961959814043332,-0.010237788509057204,-0.12005107517053869,0.22483890794275813,-0.9669721767260759,-0.001239444251636425,-0.0008292379546967277,0.003178205208190181,0.9894877217834468,-0.10905685066827044,-0.0679743257629555,0.06633443727931605
374,3.74,-0.03105886652043885,0.0021713775020544934,-0.006061426076714008,-0.12003315047084677,0.22506807961019637,-0.9669210920707837,-0.0006386694332494874,-0.004825663979439502,0.0020214812652628355,0.9894779692337268,-0.10917735195480403,-0.06796879346335206,0.06628710380817204
375,3.75,-0.041630334346891236,0.003916202693309053,-0.00010546436095932882,-0.12000656147170523,0.22540943587861564,-0.9668448799785048,-0.0011182755956281737,-0.007078335330019305,0.0028782331643470785,0.989460784846915,-0.1093541156548106,-0.06796497931785725,0.06625632838416064
376,3.7600000000000002,-0.044726380996764556,0.005478317651954998,0.0029394537662823937,-0.11995965758084007,0.22582682776631358,-0.9667532619343763,-0.0013644095488815943,-0.007658736294089429,0.005961303526871003,0.9894385114200784,-0.10956897108737648,-0.06795581615826184,0.06624388163516137
377,3.77,-0.03423915747403008,0.004075212252099059,0.004864452466604996,-0.11991021725334564,0.22623616592411114,-0.9666636792134632,-0.0005258185920471379,-0.005119807153711594,0.006931267229489098,0.9894158725886515,-0.1097789208719353,-0.06794650507513508,0.0662444251743278
378,3.7800000000000002,-0.01978412701536059,0.0021189994217838517,0.005185003829522965,-0.1198721419984332,0.22651218992405,-0.966603801637744,-0.0013150262770220277,-0.0009600666411491892,0.005122564245340135,0.9893999827141229,-0.10991990405025558,-0.0679390401923251,0.0662556388543319
379,3.79,-0.004853534227926774,0.0032645688589083097,0.0031718277382399513,-0.11984013881676193,0.22663510834864622,-0.9665789584801504,-0.0009275096330763589,0.0020402963546400387,0.0036593166382195737,0.9893926204183575,-0.10998235141342771,-0.0679293886354083,0.06627214903422249
380,3.8000000000000003,0.009104201425565365,0.0062559711370663035,0.0007916886814800011,-0.11979654546543321,0.22663060584223504,-0.9665854076394943,0.0007992952735083496,0.0065141111927720565,0.0045536733453751845,0.9893937022877709,-0.10998080450049756,-0.06790811206038293,0.0662805340783997
381,3.81,0.018045570494671415,0.007960378476766396,-0.002405378188141043,-0.11973531817949822,0.22649380965048485,-0.9666250495735659,0.000174516013690362,0.01044459389697623,0.00641821541604957,0.9894038692870412,-0.109913214411546,-0.06787158896307083,0.06627732197512544
382,3.8200000000000003,0.021844567979173536,0.004338147836692558,-0.00299200099443954,-0.11968902413274228,0.22626210462815266,-0.9666850326353535,0.0002798407742568062,0.010525138453703283,0.007006442420115335,0.9894196908594861,-0.10979726680930127,-0.06783826155435342,0.06626757415465875
383,3.83,0.017348252158739197,-0.0009068489371117678,-0.00189032980191917,-0.11969041266930759,0.22603508802726258,-0.9667379743564221,0.0022379377469564153,0.008224121677544992,0.005793894782298477,0.9894338055783305,-0.10968231696027551,-0.06782911890041374,0.06625696432764966
384,3.84,0.00855630802101337,-0.003060295344893081,-0.0021679977078973116,-0.11972182303810286,0.22588842607431886,-0.9667683600777577,0.0040483327508290135,0.0032794483862978873,0.005531859511886462,0.9894418269052437,-0.1096070699275809,-0.06783875453448276,0.06625110709276501
385,3.85,-0.003486992777279458,-0.005461478231058714,8.823685590423876e-06,-0.11977434955214321,0.2258549975237167,-0.96676968012257,0.004266777746818774,-0.0021520825915385187,0.006886879740030324,0.9894423608280648,-0.10958868487828993,-0.06786365668627375,0.06624772632048909
386,3.86,-0.017208473850785215,-0.010324979349469812,0.0033758393750830873,-0.11985584557648116,0.22596514433255624,-0.9667338376551449,0.0030647829483861125,-0.004095357980245702,0.0069546833457519485,0.9894329917496759,-0.10964199581276833,-0.06790956361114373,0.06625233892012194
387,3.87,-0.026075863021702395,-0.013436195859338541,0.006988780239408735,-0.11995888844595695,0.2262033866751186,-0.9666653273435623,0.0019454695815091208,-0.0049609486524032406,0.006073063916784781,0.9894140780325973,-0.10975853729184944,-0.06797343596309172,0.06627665145638824
388,3.88,-0.02538600680105778,-0.012620769996322327,0.00976127135677976,-0.12006749096562197,0.22649806563087746,-0.966582868827947,0.001981893469103088,-0.005481322474985071,0.0043185220128266425,0.9893905725646306,-0.1099025703047238,-0.06804404174769434,0.06631679306716119
389,3.89,-0.01271102617072906,-0.011634566394804648,0.00836548727179487,-0.1201684494091407,0.22673249956439007,-0.9665153763255565,0.0021843224138919197,-0.002916452198356858,0.003361532605219175,0.989370293084636,-0.11001560827250642,-0.0681093833301554,0.06636488582353832
390,3.9,0.0036352782811469183,-0.008767199788140976,0.006683881738999144,-0.12024681975758567,0.22682347110120912,-0.9664842670688508,0.0009538291910487506,0.00112656179769147,0.003755972407453817,0.989359355252584,-0.11005637157711255,-0.06815763081591286,0.06641122827762072
391,3.91,0.020151126087540328,-0.004306820373296945,0.005104225169727765,-0.12028883945725045,0.22674088586947114,-0.9664983868593151,-0.0001794738061544646,0.006125755672284489,0.0037655077313474587,0.9893604049762753,-0.11001042297939935,-0.06817990642503305,0.06644898815677204
392,3.92,0.038615144799525845,-0.0009103157012514611,0.0006795795167349218,-0.12028732440567007,0.2264617360312623,-0.9665640150679317,-0.0005932011901340871,0.011131040558630817,0.004051576073741425,0.9893749233164012,-0.1098661830362044,-0.06817183022232783,0.06647940992096922
393,3.93,0.04901282572160361,0.002212095640201816,-0.0031508153733725373,-0.12025514264202226,0.22602823586429202,-0.966669469649352,-0.00021668947003416719,0.013095347694690913,0.004577017490146199,0.989400660058159,-0.10964544612044672,-0.06814043865936412,0.06649271437963326
394,3.94,0.04457338751507141,0.0014160248714536736,-0.005449093139872923,-0.12022591378178016,0.22556771440235032,-0.9667806782396433,-0.0009021249695895734,0.012065990364633395,0.004493192968537692,0.9894290451977701,-0.10941208787322579,-0.06810754914600112,0.06648835059521914
395,3.95,0.02714574565808202,0.0005137321700071229,-0.004978120597834761,-0.12022039733823854,0.22521108307418503,-0.966864537277891,-0.0015522590430824942,0.007156365652635813,0.003761205104512864,0.989451243184618,-0.10923168396436027,-0.06808942519262025,0.06647309261047786
396,3.96,0.005410111434782186,-0.0009487465937934008,-0.0030808076512520554,-0.1202280208031178,0.22503218841367267,-0.9669052514473572,-7.677689035174716e-06,-0.0010436668379735325,0.004539454965023606,0.9894624023329086,-0.10914123761395025,-0.06808500870640316,0.0664601764324091
397,3.97,-0.015643151519026923,-0.004683620868124931,-2.3111955945273057e-05,-0.12024647383273143,0.2250779160323771,-0.9668923112436246,0.0005323984409959404,-0.008232521119005111,0.006109127709457974,0.9894594208448366,-0.10916421992042949,-0.06809566348520268,0.06645636727143912
398,3.98,-0.034506771539351035,-0.00989402101316,0.0005474024803393962,-0.12030968275729959,0.22534683816304368,-0.9668218062408966,0.0006935366362637736,-0.01228196976940061,0.005942575274930077,0.9894418828533503,-0.1092995006019752,-0.06813748697258554,0.06645264711196944
399,3.99,-0.046198073174583354,-0.012230120864519104,0.000670059869436609,-0.12041583962261769,0.22578580427492734,-0.9667061536300413,0.0011227031503603492,-0.014250350484328015,0.005585497075729582,0.9894131538962618,-0.10952035761923828,-0.06820710071996819,0.0664450215931414
400,4.0,-0.039725385655157035,-0.015634092269550072,-0.0003474754233039146,-0.12055516513261823,0.2262518603814081,-0.9665798090952182,0.001240332417262915,-0.013155955808346562,0.005053685101635735,0.9893817372012103,-0.10975404570801307,-0.06829448764950727,0.06643705642454212
401,4.01,-0.02470796735649814,-0.014742860674442018,-0.002639016629088148,-0.1207121849689379,0.22660053018227358,-0.966478535585033,0.001369117907818064,-0.007933057794003667,0.004152584104861976,0.9893566650876018,-0.10992742426793642,-0.06838632409267481,0.06642904388174806
402,4.0200000000000005,-0.009182770670550202,-0.0076727848708436144,-0.0030973871044842026,-0.12083300096854757,0.22680248554047805,-0.9664160841917249,0.0016908933406252751,0.0006958623878117113,0.005084013888555858,0.9893415939973191,-0.11002735609540244,-0.0684539566478966,0.06641844773890684
403,4.03,0.0030092298575617915,-0.0022545658996693274,-0.005152170995298192,-0.12089971006379525,0.22684532954371325,-0.9663976735259857,0.0011951931016061972,0.009128270693963787,0.006572213029054686,0.9893382404355191,-0.11004851094461413,-0.06848714045069135,0.066398824408127
404,4.04,0.008076307494650386,0.0011544440367364725,-0.006415766370395202,-0.12091456158801386,0.22677849334704922,-0.9664114831194219,-0.000807431036205189,0.013057519368327096,0.0059151962731486965,0.9893436875061368,-0.11001602473198384,-0.06848885128862507,0.06636972034399562
405,4.05,0.0026400908862713995,0.002160104058541686,-0.006251656955112216,-0.1209131404086553,0.22669403245437028,-0.9664314833478596,-0.0009838639727737775,0.012819669731303232,0.00499388006244039,0.9893509318282632,-0.10997529254507166,-0.06848128425441646,0.0663371899043623
406,4.0600000000000005,-0.011825861363375038,-0.0009919959103160294,-0.003200997854384397,-0.12092036145799222,0.22669376429821464,-0.966430642846944,0.0007320846934154644,0.007205570977187079,0.003567394816827128,0.9893526518758947,-0.10997693178007709,-0.06848171983649405,0.06630836317832658
407,4.07,-0.030741972623639542,-0.004249146211196149,0.0019943363792135505,-0.12094790979653475,0.22686751840513983,-0.966386409058952,0.0028206308284931857,-0.0017718267583438025,0.004310986442037329,0.989342566502488,-0.11006572081433219,-0.06850050721431244,0.06629232378206013
408,4.08,-0.040940093643620765,-0.01052490377569808,0.002554981739653704,-0.12101702406315949,0.22717424888906906,-0.9663056888489581,0.002273478104024258,-0.007965801798682092,0.006053876938174695,0.9893221808454973,-0.11021989385491195,-0.06854716681015266,0.06629219731564476
409,4.09,-0.04172533426359109,-0.016939201809002418,0.0010770416591979492,-0.12115069997733925,0.2275398344540733,-0.9662029150996208,0.001981653594622251,-0.010994750713961762,0.006727516468876307,0.9892961223195339,-0.11040202053684678,-0.06862885387501931,0.0662932485038375
410,4.1,-0.03897428560096707,-0.018992314256308266,-0.0002947330022523743,-0.12132191061915701,0.2279360689158977,-0.9660880657102393,0.0034711284213978224,-0.008553312034552969,0.006678551559161566,0.9892675305244015,-0.11059914142542564,-0.06872988055555279,0.06628697506904697
411,4.11,-0.02952136565151217,-0.01994877864692388,-0.001809080043209416,-0.1215050451899323,0.22829616692505042,-0.9659800254005446,0.0035324956928130436,-0.0028282246879137657,0.007374579677518791,0.9892408491185695,-0.1107776860555726,-0.0688352692297014,0.06627811464511804
412,4.12,-0.020815215318596345,-0.020681711368294886,-0.007841970495038608,-0.12170915821524043,0.2285664766400504,-0.9658903856832051,0.0015235579565429037,0.002284159429339282,0.007044037157086099,0.9892197636788025,-0.11091087080689262,-0.06894621001509726,0.06625476978856953
413,4.13,-0.013098495408189827,-0.019388212323149735,-0.009376835705392585,-0.12193059714249825,0.2287749064937331,-0.9658131272108494,0.0015339937798316144,0.006799654383334327,0.00494660196891775,0.9892029213615168,-0.11101319496876098,-0.06906163600409243,0.06621441725848505
414,4.14,-0.0033419725198743,-0.017441652322304293,-0.01002057073781813,-0.12213136972821295,0.22886189956119526,-0.9657671562438422,0.00369097757449277,0.0075889381686961134,0.0036459350700525704,0.989193740235754,-0.1110540267050818,-0.06916236196389655,0.06617762787129894
415,4.15,-0.006165713093466415,-0.01460027716607501,-0.011364197296283157,-0.1222987910953692,0.22888776156171578,-0.9657398207772908,0.0032628257425959843,0.006574745486950951,0.0037424128328467287,0.9891898875619975,-0.1110652866308103,-0.06924296275456296,0.06613266536526538
416,4.16,-0.018884196128068208,-0.014684429379333182,-0.008027476210357312,-0.12244603073117628,0.22897107905554848,-0.965701401253928,-0.000659258841681331,0.0030123386189357133,0.005926127416183936,0.9891832934221162,-0.11110655737562751,-0.06931538592352478,0.06608616578430117
417,4.17,-0.03531970564842987,-0.017644905416744152,-0.009089335117469434,-0.12261059489725501,0.22918006057063772,-0.9656309279240246,-0.0024240918620077895,-0.005345000953443519,0.005597272578010461,0.9891684521894651,-0.11121124943406975,-0.06940156064790003,0.06604132260708605
418,4.18,-0.05154803066195759,-0.023009770797345293,-0.009040190813865139,-0.12281008490277319,0.22955360749116088,-0.9655168269839162,0.00011864006497600411,-0.008772251451312383,0.002449394322663859,0.989143043854684,-0.11139923697754561,-0.06951095408642635,0.06599000505561121
419,4.19,-0.07166341612995852,-0.029155328220649545,-0.010212143896333884,-0.12306112252552158,0.23013124434734475,-0.9653473344651183,0.0037334142130048624,-0.00865327916142547,0.001295437382405097,0.9891034193414483,-0.11168950446785314,-0.06965457890004524,0.06594194664863491
420,4.2,-0.0836227068714705,-0.03427417290329491,-0.012180734156955853,-0.12337885719483624,0.23087926705714465,-0.9651281220473963,0.005215876201528153,-0.012454010026138706,0.003894555193146099,0.9890521869745371,-0.1120656986425545,-0.06983681652112893,0.06587949111673876
421,4.21,-0.08022019671708643,-0.03839143995580979,-0.015203904813083825,-0.12374826331170954,0.2316643273140798,-0.9648926787616894,0.0032845000936639742,-0.013232502263006892,0.00592231526258385,0.9889976944759257,-0.1124602689134873,-0.07004508265926228,0.06580367238883904
422,4.22,-0.06609467434752435,-0.04209274478884443,-0.019675080111657337,-0.12416145641153335,0.23237608469559512,-0.9646684362445204,0.0037570676900640747,-0.007486620811530018,0.005446173502241014,0.9889468211755975,-0.11281712886232766,-0.07027127218789456,0.06571544969560174
423,4.23,-0.050988699969610723,-0.03834155553926198,-0.02456948349166307,-0.12457715592491991,0.23293010395707295,-0.9644812308934476,0.004174613295225045,0.0005283460729497144,0.005599525272361596,0.9889061744483921,-0.11309440689338017,-0.07049130537027186,0.0656152183513622
424,4.24,-0.03773929142859696,-0.03027518159364673,-0.02511989460902122,-0.12494935367213632,0.233319847216343,-0.9643389017517533,0.0025744741145871134,0.003909616258788889,0.007346242585953704,0.9888778510751223,-0.11329033142295276,-0.0706813205263104,0.06550001878284345
425,4.25,-0.02461293016143454,-0.024714675900217375,-0.025668657564060178,-0.12528011396035008,0.23354992558820895,-0.9642402665384805,0.0003377492041899883,0.006982610079592239,0.006974732997067313,0.9888608121353035,-0.11340638638687178,-0.07084381578541295,0.06538096263805815
426,4.26,-0.015316652922504633,-0.01719657280848756,-0.022015669958375773,-0.12553353074276757,0.2336659215332454,-0.9641792190884464,-0.001036530057959571,0.012663071340125452,0.003644599358344843,0.988852860420744,-0.11346626178427165,-0.07096334429935183,0.06526645595797703
