time,seconds_elapsed,rotationRateX,rotationRateY,rotationRateZ,gravityX,gravityY,gravityZ,accelerationX,accelerationY,accelerationZ,quaternionW,quaternionX,quaternionY,quaternionZ
1681140150363404800,0.11340478515625,-0.011796844191849232,-0.1253586858510971,0.1895555853843689,-0.04803311452269554,0.07906291633844376,-0.9957117438316345,0.0013564527034759521,0.07016808539628983,0.010817945003509521,0.9989273978997816,-0.039573905315704615,-0.024042345728927782,1.6358323793848675e-19
1681140150373463000,0.123463134765625,0.04889446496963501,-0.11022288352251053,0.18633981049060822,-0.04903228580951691,0.07891609519720078,-0.9956746697425842,0.003133825957775116,0.0706505998969078,0.007317185401916504,0.9989176068367459,-0.0394769870428492,-0.02458095542244513,0.0009677930188749659
1681140150383521800,0.133521728515625,0.05883825570344925,-0.10397641360759735,0.18622978031635284,-0.04991794750094414,0.07840517163276672,-0.9956710338592529,-0.0009548813104629517,0.06705690175294876,0.004032909870147705,0.9989153189348008,-0.03919671591118441,-0.02506183228687531,0.001930649383819201
1681140150393580000,0.143580078125,0.043939199298620224,-0.10630801320075989,0.18144327402114868,-0.0508001372218132,0.07788700610399246,-0.9956670999526978,0.0026433728635311127,0.04496154934167862,-0.0006707906723022461,0.998912071255754,-0.03891238031852455,-0.025539771749750185,0.0028761230766289237
1681140150403639000,0.15363916015625,0.003712020581588149,-0.1211271584033966,0.17500509321689606,-0.051760174334049225,0.07769656926393509,-0.995632529258728,0.0029169172048568726,0.016739889979362488,0.005871176719665527,0.998907685598548,-0.03889076499545291,-0.02590838817344608,-6.243876900905473e-17
1681140150413698000,0.163697998046875,-0.049953337758779526,-0.16144289076328278,0.16946890950202942,-0.05298218876123428,0.07796529680490494,-0.9955472350120544,0.00014112889766693115,-0.01126931607723236,0.006106317043304443,0.9988859125155302,-0.03900235562719145,-0.02655555568334047,0.000894198771792146
1681140150423756000,0.173756103515625,-0.12328027933835983,-0.19686134159564972,0.18010984361171722,-0.05459917336702347,0.0789211094379425,-0.9953845739364624,-0.0011563114821910858,-0.038775429129600525,0.005836844444274902,0.9988439802307211,-0.03945691666996162,-0.027402181475426966,0.0017973276892449322
1681140150433815000,0.18381494140625,-0.21436145901679993,-0.21429546177387238,0.22994130849838257,-0.05648958310484886,0.08078088611364365,-0.9951298236846924,0.002382040023803711,-0.06121930480003357,0.002469301223754883,0.9987779009388299,-0.040359910600509155,-0.028393005224688014,0.0028125717232446216
1681140150443873300,0.193873291015625,-0.2568632960319519,-0.25526708364486694,0.1979023516178131,-0.05871393904089928,0.08331122994422913,-0.9947924017906189,0.006681591272354126,-0.07110438495874405,0.009120404720306396,0.9986896430967972,-0.041593760330113576,-0.02955943129926541,0.003936357404228322
1681140150453932000,0.20393212890625,-0.268432080745697,-0.24797746539115906,0.17589958012104034,-0.06105542555451393,0.08615067601203918,-0.9944095015525818,0.01346338540315628,-0.06715366989374161,0.017297685146331787,0.9985896045615474,-0.042985903986449414,-0.03078069101135861,0.0048752264365271155
1681140150463991000,0.213990966796875,-0.24841494858264923,-0.23010100424289703,0.1575022041797638,-0.06329920142889023,0.08889764547348022,-0.9940273761749268,-0.005426265299320221,-0.04975903779268265,0.008614778518676758,0.9984893985400678,-0.04433266632244552,-0.031951950471539294,0.005731304095678772
1681140150474049000,0.224049072265625,-0.21577471494674683,-0.20239055156707764,0.1379692554473877,-0.06534414738416672,0.0913170725107193,-0.9936756491661072,-0.015420503914356232,-0.008462026715278625,0.004692494869232178,0.9983967649194164,-0.04551751533368546,-0.033019998763111964,0.006480754037997532
1681140150484108000,0.23410791015625,-0.18011339008808136,-0.1636151820421219,0.12111490964889526,-0.06706942617893219,0.09339386224746704,-0.9933676719665527,-0.006096348166465759,0.019719354808330536,-0.001093447208404541,0.9983149799117256,-0.04653285719280812,-0.03392448063789191,0.007147758335787154
1681140150494166000,0.244166015625,-0.14825639128684998,-0.1255761981010437,0.10085464268922806,-0.06840736418962479,0.09511707723140717,-0.9931128621101379,-0.011014513671398163,0.02825005352497101,0.0022681355476379395,0.9982471419115614,-0.04737465433027428,-0.03462954867703183,0.0077080305425910765
1681140150504225000,0.25422509765625,-0.1236964538693428,-0.10648664832115173,0.09213519096374512,-0.06945819407701492,0.09653066098690033,-0.9929035305976868,-0.01837126910686493,0.03149039298295975,0.0019062161445617676,0.9981907434674352,-0.04806410283895022,-0.03518641866231491,0.008190292630047318
1681140150514284000,0.264283935546875,-0.1343299150466919,-0.10191639512777328,0.08787812292575836,-0.07039746642112732,0.09787915647029877,-0.9927053451538086,-0.01427343487739563,0.028081968426704407,-0.0027323365211486816,0.9981371983320961,-0.04872146575188031,-0.03568689625386341,0.008655049879883676
1681140150524342000,0.274342041015625,-0.150522843003273,-0.11354655772447586,0.10028541833162308,-0.0713685154914856,0.09935326874256134,-0.9924895167350769,-0.0057645440101623535,0.015316352248191833,-0.0021851658821105957,0.9980789481832094,-0.049440950552253185,-0.036205354197576665,0.009132972330820537
1681140150534401300,0.2844013671875,-0.17084942758083344,-0.14600729942321777,0.1068519726395607,-0.07255608588457108,0.10102932900190353,-0.9922341704368591,-0.0030053183436393738,-0.00360213965177536,-0.002196371555328369,0.9980100425429065,-0.05025894579031244,-0.036836696836351664,0.009656974775586958
1681140150544460000,0.2944599609375,-0.2121123969554901,-0.17543475329875946,0.11869670450687408,-0.0740472823381424,0.10300964117050171,-0.9919203519821167,0.003521278500556946,-0.022596001625061035,-0.005638241767883301,0.9979257111179834,-0.05122632022043795,-0.03762552864229845,0.01022602513991965
1681140150554518000,0.30451806640625,-0.25887560844421387,-0.21239356696605682,0.13943767547607422,-0.07584764063358307,0.10546662658452988,-0.9915260672569275,0.01079954206943512,-0.0294780433177948,0.0010322332382202148,0.9978200708871917,-0.052427979096415195,-0.03857819254476228,0.010877259954378883
1681140150564577000,0.314576904296875,-0.28724005818367004,-0.25377601385116577,0.15938138961791992,-0.07801717519760132,0.10830267518758774,-0.9910519123077393,0.013564176857471466,-0.03420618921518326,0.002907991409301758,0.9976927024047649,-0.05381309857859018,-0.03972661350320335,0.011639622807815745
1681140150574635000,0.324635009765625,-0.33289170265197754,-0.28568601608276367,0.18322467803955078,-0.08050830662250519,0.11153610050678253,-0.990493893623352,0.019290156662464142,-0.03490664064884186,0.004592955112457275,0.9975423785677353,-0.05539091320853158,-0.04104765055270433,0.012504203822663033
1681140150584694300,0.3346943359375,-0.3642384707927704,-0.30316975712776184,0.23889708518981934,-0.08322423696517944,0.1151750311255455,-0.9898527264595032,0.026415884494781494,-0.022996865212917328,0.006881535053253174,0.9973680001708178,-0.05716196840117755,-0.04249870636565527,0.013553256682883747
1681140150594753000,0.3447529296875,-0.3676856756210327,-0.32602182030677795,0.33370137214660645,-0.08599858731031418,0.11913961172103882,-0.9891461133956909,0.026565730571746826,-0.013976231217384338,0.017542719841003418,0.9971696432656577,-0.05907563419833741,-0.044011612761644295,0.015027325990794595
1681140150604811300,0.354811279296875,-0.35887718200683594,-0.3249237537384033,0.3100348711013794,-0.08888252079486847,0.12298641353845596,-0.9884200692176819,0.02874775230884552,-0.006546773016452789,0.022080957889556885,0.9969617663389861,-0.06091893181580253,-0.04559437129205489,0.016654666538718554
1681140150614870000,0.3648701171875,-0.3531377911567688,-0.32606518268585205,0.3377344012260437,-0.09171276539564133,0.1268344223499298,-0.9876749515533447,0.03197471797466278,0.007946282625198364,0.015598475933074951,0.9967463690914833,-0.06275919472480151,-0.0471572870136979,0.018283720272155385
1681140150624929300,0.37492919921875,-0.3276725709438324,-0.3325737416744232,0.3742554485797882,-0.09451506286859512,0.13057047128677368,-0.9869236350059509,0.010897010564804077,0.0265185683965683,0.007629811763763428,0.9965229499068805,-0.0645303613053988,-0.04872387488276562,0.02009797088971563
1681140150634987000,0.384987060546875,-0.2982092499732971,-0.32715126872062683,0.39156946539878845,-0.09726656228303909,0.13404375314712524,-0.9861903786659241,0.016227245330810547,0.02289271354675293,0.008529245853424072,0.9962976643617076,-0.06615809685857865,-0.05027832333617531,0.0220516383476837
1681140150645046000,0.3950458984375,-0.23427937924861908,-0.322164386510849,0.4025176167488098,-0.09994090348482132,0.13705576956272125,-0.9855087995529175,0.017497777938842773,0.012358099222183228,0.008671581745147705,0.9960793756828982,-0.06754467222301197,-0.05180088944859245,0.024092861349658812
1681140150655104300,0.405104248046875,-0.20734603703022003,-0.2987288236618042,0.4157995879650116,-0.10244107246398926,0.13966745138168335,-0.9848852157592773,0.008157119154930115,0.023082613945007324,0.007758080959320068,0.9958698741738836,-0.0687230662965981,-0.05324044735612292,0.02619238070846383
1681140150665163000,0.4151630859375,-0.1698881834745407,-0.27072402834892273,0.4243200421333313,-0.10467259585857391,0.14195555448532104,-0.984323263168335,0.0021183863282203674,0.025265321135520935,0.003686666488647461,0.9956697024945941,-0.06973323182004408,-0.05454949503261286,0.0283506623840637
1681140150675222300,0.42522216796875,-0.1590736210346222,-0.24661095440387726,0.4230417311191559,-0.10662974417209625,0.14402349293231964,-0.9838126301765442,-0.0036759376525878906,0.027485117316246033,0.0017874836921691895,0.9954773699758569,-0.070630542912179,-0.05572251135109631,0.03051976039449505
1681140150685280000,0.435280029296875,-0.17805719375610352,-0.20996785163879395,0.4130832254886627,-0.10821932554244995,0.14613878726959229,-0.9833270311355591,-0.008022025227546692,0.02475947141647339,-0.004298150539398193,0.9952874883267768,-0.07155441871545473,-0.05671377088598766,0.03265828093543942
1681140150695339000,0.445339111328125,-0.1361219882965088,-0.15965035557746887,0.386427104473114,-0.10957114398479462,0.14814205467700958,-0.9828774333000183,-0.009844042360782623,0.02300034463405609,0.0058113932609558105,0.9951061259551577,-0.07242868450768902,-0.057579130154830814,0.034679281006778
1681140150705397200,0.455397216796875,-0.10735823214054108,-0.16166016459465027,0.4044715166091919,-0.11050671339035034,0.1498371958732605,-0.9825156927108765,-0.013562396168708801,0.012394070625305176,0.01898413896560669,0.9949440004900405,-0.0731533719034508,-0.0582300418441675,0.03666644037050168
1681140150715456000,0.4654560546875,-0.05911426618695259,-0.14332988858222961,0.41770848631858826,-0.11134666204452515,0.1511271446943283,-0.9822232723236084,-0.016247235238552094,0.038188472390174866,-0.03370696306228638,0.9947907286952538,-0.07366628451976066,-0.058835823609940434,0.038769460810575085
1681140150725515000,0.475514892578125,-0.0004608064191415906,-0.11586946249008179,0.38657745718955994,-0.11204279959201813,0.15181878209114075,-0.9820374250411987,0.013654224574565887,0.04108265042304993,-0.003665149211883545,0.9946622542934977,-0.07388119468822481,-0.05935371915320635,0.04081560395563994
1681140150735573000,0.485572998046875,0.03025396168231964,-0.14105817675590515,0.3800183832645416,-0.11270542442798615,0.1521390974521637,-0.9819120168685913,-0.007884688675403595,0.016256719827651978,0.013543426990509033,0.9945483890464465,-0.07391285586452365,-0.05984050896794889,0.042774281368563594
1681140150745632300,0.49563232421875,0.03469747304916382,-0.1626536250114441,0.3810507655143738,-0.11363833397626877,0.15225592255592346,-0.9817863702774048,-0.02395007014274597,0.017238512635231018,-0.02361530065536499,0.9944302762296049,-0.07383422168718508,-0.06045928531855877,0.04474046745107298
1681140150755691000,0.50569091796875,0.044970616698265076,-0.12396907806396484,0.34044739603996277,-0.11450309306383133,0.15225356817245483,-0.9816862344741821,0.00950746238231659,-0.00634920597076416,-0.005710005760192871,0.9943182213418265,-0.0736993490381828,-0.06103506749536627,0.04663180014967297
1681140150765749000,0.5157490234375,0.035842955112457275,-0.11381212621927261,0.30140259861946106,-0.11519714444875717,0.1521943211555481,-0.9816142320632935,-0.004126489162445068,-0.02254059910774231,0.014374852180480957,0.9942211833158935,-0.07355235165005237,-0.06150554590682578,0.04828596315267961
1681140150775808000,0.52580810546875,0.00028921966440975666,-0.10345562547445297,0.2722463011741638,-0.11584825813770294,0.15234969556331635,-0.981513500213623,-0.027965739369392395,-0.0034240931272506714,-0.007881700992584229,0.9941226895277218,-0.07352385263819515,-0.06194748130055392,0.04976981004025173
1681140150785866000,0.535865966796875,-0.06634650379419327,-0.08233827352523804,0.24198125302791595,-0.11635498702526093,0.15294580161571503,-0.9813608527183533,-0.004082545638084412,-0.012687206268310547,0.007056593894958496,0.9940176910106137,-0.07373065531405959,-0.06231668045267258,0.051083090778997566
1681140150795925200,0.54592529296875,-0.12982986867427826,-0.0801616683602333,0.21045182645320892,-0.11679181456565857,0.1541895866394043,-0.9811142683029175,-0.0035999342799186707,-0.028823554515838623,0.01828467845916748,0.9938967118466256,-0.07427641886038748,-0.06265675684819151,0.0522162547712466
1681140150805984000,0.55598388671875,-0.1655551791191101,-0.0899316817522049,0.18660235404968262,-0.117337666451931,0.1559099406003952,-0.9807772040367126,-0.009859509766101837,-0.03062020242214203,0.010379254817962646,0.993759691029846,-0.0750686820273317,-0.063056156068645,0.05320240292513155
1681140150816042200,0.566042236328125,-0.18774063885211945,-0.09104141592979431,0.15268060564994812,-0.11795816570520401,0.1578792780637741,-0.9803876876831055,0.008644305169582367,-0.03046858310699463,0.009852409362792969,0.9936168323791001,-0.07599422122485694,-0.06349045516311175,0.054031756013714544
1681140150826101000,0.57610107421875,-0.19152823090553284,-0.08462712168693542,0.12202490866184235,-0.11859076470136642,0.15990294516086578,-0.9799833297729492,0.014770053327083588,-0.01993425190448761,0.013140618801116943,0.9934793677755478,-0.07695765525426508,-0.06392076470845565,0.05468693282295956
1681140150836159000,0.586158935546875,-0.185821071267128,-0.08654992282390594,0.10102907568216324,-0.11925514787435532,0.16193129122257233,-0.9795695543289185,0.006630115211009979,-0.0008291900157928467,0.006806433200836182,0.9933462254251355,-0.07793088149533105,-0.06435844946679485,0.055211086525593825
1681140150846218000,0.596218017578125,-0.11512371152639389,-0.08659298717975616,0.09262563288211823,-0.11995462328195572,0.16354095935821533,-0.9792166352272034,0.006688736379146576,0.007799789309501648,0.004210531711578369,0.9932313387184282,-0.07869538944753034,-0.06479745836788812,0.05567738104269226
1681140150856277000,0.606277099609375,-0.061433322727680206,-0.08429840207099915,0.08253464847803116,-0.12067867815494537,0.16446609795093536,-0.9789727330207825,0.007611140608787537,0.01088772714138031,0.007766008377075195,0.9931449505680611,-0.07911484725976967,-0.06522643074496101,0.05612045842938381
1681140150866335200,0.616335205078125,-0.03771457076072693,-0.07226794213056564,0.0853412002325058,-0.12131614983081818,0.16507740318775177,-0.9787909984588623,0.0003903433680534363,0.02333793044090271,-0.007338762283325195,0.9930746483709904,-0.07937832734861802,-0.06560162901010166,0.05655495771660436
1681140150876394000,0.62639404296875,-0.004586708731949329,-0.041828546673059464,0.09075593948364258,-0.12173489481210709,0.16536834836006165,-0.9786899089813232,-0.00009118765592575073,0.03232434391975403,-0.007333099842071533,0.9930231426950444,-0.07948423044776472,-0.06585822691874657,0.05700873909198887
1681140150886452000,0.636451904296875,0.015550598502159119,-0.014578730799257755,0.10078215599060059,-0.12185311317443848,0.1654421091079712,-0.9786627292633057,-0.006503723561763763,0.02347676455974579,-0.002385854721069336,0.9929879194907447,-0.07948551563115427,-0.06595974268387848,0.05750321257835518
1681140150896511000,0.646510986328125,0.013310879468917847,0.006466899532824755,0.10380137711763382,-0.12165262550115585,0.16527985036373138,-0.9787150621414185,-0.017248041927814484,0.02269299328327179,-0.003264307975769043,0.9929706972474688,-0.07937430992157642,-0.06589519347108083,0.05802484834820104
1681140150906570000,0.656570068359375,-0.018636906519532204,0.026991432532668114,0.10629452764987946,-0.12123199552297592,0.16531622409820557,-0.9787611365318298,-0.018904633820056915,0.014447391033172607,-0.0002275705337524414,0.9929511920974027,-0.0793689484662172,-0.06572672689081767,0.05855481558680032
1681140150916628200,0.666628173828125,-0.08426891267299652,0.04683757573366165,0.10062225908041,-0.1206740066409111,0.16590511798858643,-0.9787304401397705,-0.019660986959934235,-0.003704383969306946,0.004166781902313232,0.9929145786583632,-0.0796494278639457,-0.06550379570382761,0.05904212466126224
1681140150926687000,0.67668701171875,-0.16377654671669006,0.05140691250562668,0.08206997811794281,-0.11999183893203735,0.1672849804162979,-0.9785794019699097,-0.023013442754745483,-0.01761169731616974,0.007235407829284668,0.9928529272564092,-0.08033905599523264,-0.06523742010542671,0.05943864299304265
1681140150936746200,0.686746337890625,-0.2224760800600052,0.06446465104818344,0.06605745851993561,-0.11926320195198059,0.16931241750717163,-0.9783197641372681,-0.023055434226989746,-0.027695775032043457,0.010576844215393066,0.9927704054852678,-0.08136468157147113,-0.06496072139781281,0.05972469462008431
1681140150946804000,0.696803955078125,-0.28874942660331726,0.0744968131184578,0.05115995183587074,-0.11848585307598114,0.1719701588153839,-0.9779505729675293,-0.018965229392051697,-0.031146973371505737,0.015532970428466797,0.9926664969327393,-0.08271736258605093,-0.06467253946747008,0.05990682817429604
1681140150956863200,0.70686328125,-0.3497518002986908,0.09337170422077179,0.042260199785232544,-0.11762335896492004,0.17528322339057922,-0.9774664044380188,-0.015921473503112793,-0.022085174918174744,0.015887975692749023,0.992539452372312,-0.08441072234419487,-0.06435554437020156,0.05998927674031999
1681140150966921200,0.716921142578125,-0.39180222153663635,0.11011108756065369,0.02754857949912548,-0.11664588004350662,0.17905768752098083,-0.9768992066383362,-0.012580707669258118,-0.019252583384513855,0.02081400156021118,0.9923959902915355,-0.08634598144050792,-0.06399031280307678,0.06000035651954973
1681140150976980000,0.72697998046875,-0.4454111158847809,0.12875135242938995,0.024388739839196205,-0.11558081209659576,0.18323321640491486,-0.9762513637542725,-0.012165680527687073,-0.012090831995010376,0.021691977977752686,0.9922368669439985,-0.08849260665826102,-0.06358765492207315,0.059932782070354094
1681140150987039000,0.7370390625,-0.4722196161746979,0.13749243319034576,0.02379879541695118,-0.11438675969839096,0.18778063356876373,-0.9755275845527649,-0.011254020035266876,-0.003164723515510559,0.026034176349639893,0.9920602277579162,-0.09083396713768735,-0.06312991804341068,0.05983775485867483
1681140150997097000,0.747096923828125,-0.38432440161705017,0.1055142730474472,0.01447506807744503,-0.11331561207771301,0.1919863522052765,-0.9748337268829346,-0.007518649101257324,-0.009979695081710815,0.024333178997039795,0.9918923013020737,-0.09300135379757302,-0.06272062517048485,0.059722790548022237
1681140151007156200,0.75715625,-0.22398388385772705,0.05615164712071419,0.004507495556026697,-0.11274147033691406,0.1946103572845459,-0.9743798971176147,0.0005589500069618225,-0.013992249965667725,0.008742690086364746,0.9917843246185444,-0.09435381745740831,-0.06250926667334317,0.059615778373819296
1681140151017215000,0.767215087890625,-0.19028876721858978,0.030745623633265495,0.007490502204746008,-0.1125209704041481,0.19638551771640778,-0.9740491509437561,0.004168398678302765,-0.004674285650253296,-0.011943340301513672,0.9917048684486403,-0.09526401971935676,-0.062451477283961755,0.05954975332178255
1681140151027273200,0.777273193359375,-0.13048896193504333,0.010318629443645477,0.011353950016200542,-0.11250336468219757,0.1976574957370758,-0.9737938642501831,0.01190226525068283,0.016545191407203674,-0.021720051765441895,0.99164276545092,-0.09591186182327886,-0.06248179953209496,0.05951237691487184
1681140151037332000,0.78733203125,-0.060602545738220215,-0.01051554549485445,0.017359111458063126,-0.11260363459587097,0.1984800100326538,-0.9736149907112122,0.013726770877838135,0.02275700867176056,-0.004809141159057617,0.9915958225422568,-0.09632436268234108,-0.0625630137874821,0.059542618485611314
1681140151047390000,0.797389892578125,-0.027896959334611893,-0.012875174172222614,0.02342856302857399,-0.1127563938498497,0.19877095520496368,-0.9735379219055176,0.002862691879272461,0.020284026861190796,-0.010959148406982422,0.9915714883629655,-0.09646257245953667,-0.06265783861381075,0.05962448352829839
1681140151057449200,0.80744921875,-0.017381200566887856,-0.009253541938960552,0.033932071179151535,-0.11285946518182755,0.19895273447036743,-0.9734888672828674,-0.00016229599714279175,0.029562711715698242,-0.007666587829589844,0.9915513541349408,-0.09654376211885075,-0.06272855845937908,0.05975379263030721
1681140151067508000,0.817508056640625,-0.006280345842242241,-0.013954552821815014,0.04262755811214447,-0.1129426509141922,0.19911113381385803,-0.9734468460083008,-0.0015286952257156372,0.027039214968681335,0.00024121999740600586,0.9915293390180853,-0.09660988189079879,-0.06279425252981605,0.059942293956780454
1681140151077566200,0.827566162109375,-0.009141113609075546,-0.012613651342689991,0.04791206866502762,-0.11301685869693756,0.19918754696846008,-0.9734225869178772,-0.003041401505470276,0.01919606328010559,0.003100872039794922,0.9915091668919549,-0.09663184099117633,-0.06285696018837139,0.0601750371073626
1681140151087625000,0.837625,0.006962249055504799,-0.00949067808687687,0.05559305101633072,-0.11301490664482117,0.1992337703704834,-0.973413348197937,0.00197678804397583,0.019012510776519775,0.0014894604682922363,0.9914910854923514,-0.09663886643410276,-0.06288286027954369,0.06043471540500862
1681140151097683200,0.84768310546875,0.009625942446291447,-0.010027306154370308,0.06054253503680229,-0.11298578977584839,0.19918155670166016,-0.973427414894104,0.004236496984958649,0.025244534015655518,0.007027268409729004,0.9914763711529202,-0.0965942732261806,-0.06289546293918559,0.060733109243311365
1681140151107742000,0.857741943359375,0.009278720244765282,-0.011039107106626034,0.061101317405700684,-0.11290707439184189,0.1991901993751526,-0.9734348058700562,0.0037610456347465515,0.023816823959350586,0.006103813648223877,0.9914591042065999,-0.09658107375684902,-0.0628864518035159,0.06104518088703417
1681140151117801200,0.86780126953125,0.01389637403190136,-0.014892966486513615,0.0612480565905571,-0.11281304061412811,0.19924169778823853,-0.9734351634979248,0.009389057755470276,0.020667806267738342,0.00944584608078003,0.9914391627253416,-0.09658926051343639,-0.06287243404764134,0.06136988289267413
1681140151127859200,0.877859130859375,0.005417615175247192,-0.02124830335378647,0.06443741172552109,-0.11284483969211578,0.1993086338043213,-0.9734177589416504,0.008871540427207947,0.01690824329853058,0.011991918087005615,0.9914146981366267,-0.09660189109308753,-0.06292217134044852,0.061691801008898275
1681140151137918000,0.88791796875,0.022698068991303444,-0.030922234058380127,0.07119172066450119,-0.11296342313289642,0.1994175910949707,-0.9733816981315613,0.008654430508613586,0.01379328966140747,0.010597825050354004,0.9913834553395736,-0.09663120390187127,-0.06302039266465813,0.06204686594520685
1681140151147977200,0.897977294921875,0.03529045358300209,-0.03380207717418671,0.06647888571023941,-0.11315590143203735,0.19932278990745544,-0.9733787178993225,0.010159164667129517,0.00891372561454773,0.01050335168838501,0.9913597602565277,-0.09655425397467064,-0.06314985663506781,0.06241336112611759
1681140151158035000,0.908034912109375,0.0299308393150568,-0.04519108310341835,0.08061281591653824,-0.11341724544763565,0.19921144843101501,-0.973371148109436,0.008299537003040314,0.007148250937461853,0.0028968453407287598,0.9913330754450388,-0.09646518594701031,-0.06331593008435349,0.06280557161906257
1681140151168094200,0.91809423828125,0.03784245625138283,-0.05226973071694374,0.09369521588087082,-0.1137191504240036,0.1990423947572708,-0.9733704924583435,0.005015626549720764,0.004677519202232361,-0.0020018815994262695,0.9913026337588946,-0.09634024864634863,-0.06350840647624048,0.06328066059255802
1681140151178152200,0.928152099609375,-0.0010940262582153082,-0.05371396616101265,0.0956137552857399,-0.1140037253499031,0.19909240305423737,-0.9733269810676575,0.00890127569437027,-0.007320135831832886,0.005660295486450195,0.991258430021187,-0.0963240236185744,-0.06370403754478789,0.06379821939075395
1681140151188211000,0.9382109375,-0.033609651029109955,-0.05590206757187843,0.09512384235858917,-0.11433481425046921,0.19951052963733673,-0.9732025265693665,0.002075992524623871,-0.005205288529396057,-0.0010101795196533203,0.9911947544951186,-0.09649391478143923,-0.06393491489263486,0.06429984441365448
1681140151198270200,0.948270263671875,-0.050751086324453354,-0.04943644627928734,0.08400940895080566,-0.11459898203611374,0.20014500617980957,-0.9730411171913147,-0.0017492026090621948,-0.011821210384368896,0.0034976601600646973,0.9911233734250188,-0.0967773498941495,-0.06413715211698462,0.06477073446287222
1681140151208328000,0.958327880859375,-0.06731347739696503,-0.04528502747416496,0.08048465847969055,-0.11482202261686325,0.20089708268642426,-0.9728598594665527,-0.003738678991794586,-0.01675419509410858,0.009587705135345459,0.9910493772646803,-0.09712421190762419,-0.06431926307773227,0.06520056928455736
1681140151218387200,0.96838720703125,-0.0726536437869072,-0.043499644845724106,0.08389057219028473,-0.11503663659095764,0.2017577439546585,-0.9726563692092896,-0.006880998611450195,-0.0069489628076553345,0.0018463730812072754,0.9909704832373616,-0.0975269782883208,-0.06450043918025404,0.06561991358100874
1681140151228445000,0.97844482421875,-0.05412377044558525,-0.0442754402756691,0.07271435111761093,-0.11525120586156845,0.20251455903053284,-0.972473680973053,-0.0003645569086074829,-0.008285611867904663,0.006500720977783203,0.9908983965223738,-0.09787893443308329,-0.06467522209021462,0.06600982847091698
1681140151238504200,0.988504150390625,-0.04323650151491165,-0.04376118630170822,0.06199033558368683,-0.11546716839075089,0.20308755338191986,-0.9723285436630249,-0.0018118023872375488,-0.007561609148979187,0.010704338550567627,0.9908387874310051,-0.0981404383346405,-0.06483968601551895,0.06635483510731537
1681140151248563500,0.9985634765625,-0.03997090458869934,-0.041559431701898575,0.051307227462530136,-0.11573468893766403,0.2035582810640335,-0.9721983075141907,-0.003833100199699402,0.0012297481298446655,-0.0010683536529541016,0.9907860863678741,-0.09835157229896722,-0.0650216961398692,0.06665117247987414
1681140151258621400,1.008621337890625,-0.026623940095305443,-0.02660578489303589,0.04584961012005806,-0.11591566354036331,0.20388664305210114,-0.9721078872680664,0.007318951189517975,0.007508426904678345,-0.007384300231933594,0.9907461529579603,-0.09849598878952164,-0.06515046546828367,0.0669036362615017
1681140151268680400,1.018680419921875,-0.02208884246647358,-0.011818848550319672,0.03874083608388901,-0.11599288135766983,0.20412728190422058,-0.9720482230186462,0.00023978948593139648,0.007420390844345093,0.009294867515563965,0.9907165636646532,-0.09860152605823676,-0.06521991219785547,0.06711870878444243
1681140151278739500,1.028739501953125,-0.02196394093334675,-0.0034831538796424866,0.025849003344774246,-0.11599783599376678,0.20430393517017365,-0.9720104932785034,-0.010390624403953552,0.010692238807678223,0.010691463947296143,0.9906965687667048,-0.09868078906295877,-0.06524454336921073,0.06727374884828163
1681140151288797400,1.03879736328125,-0.03244534507393837,0.007199850864708424,0.01648266613483429,-0.1159549206495285,0.2044927328824997,-0.9719759225845337,-0.0061610788106918335,0.020528465509414673,0.004446566104888916,0.9906815802823388,-0.09877183908485535,-0.06523927527471952,0.06736623111582699
1681140151298856400,1.0488564453125,-0.0659380555152893,0.01900005154311657,0.010394146665930748,-0.11582797765731812,0.2049180418252945,-0.9719014763832092,-0.000047184526920318604,0.01595275104045868,0.006569385528564453,0.9906597150021997,-0.09898863712278216,-0.06519592312164893,0.0674116419876309
1681140151308914400,1.05891455078125,-0.11369705945253372,0.02268213778734207,0.008350437507033348,-0.11559964716434479,0.20575839281082153,-0.9717510938644409,-0.008423693478107452,0.0016999095678329468,0.006144404411315918,0.9906211760979253,-0.09942168963426254,-0.06511353455470001,0.06742011015605888
1681140151318973400,1.068973388671875,-0.16128773987293243,0.023371897637844086,0.007417798042297363,-0.11538123339414597,0.2070717066526413,-0.9714980721473694,-0.006978906691074371,-0.013208970427513123,0.005677700042724609,0.9905584017738472,-0.10009618550940078,-0.06505168476949826,0.06740391909594758
1681140151329032400,1.079032470703125,-0.2165040522813797,0.02206406742334366,0.003549237037077546,-0.11516334861516953,0.20891273021697998,-0.9711297154426575,-0.0007118061184883118,-0.023198172450065613,0.010802507400512695,0.9904690161657757,-0.10104107484578194,-0.06500655396940988,0.0673518369865715
1681140151339090400,1.08909033203125,-0.2530343532562256,0.014169126749038696,-0.003418657463043928,-0.1149381622672081,0.21125277876853943,-0.9706500172615051,-0.0032715797424316406,-0.02752189338207245,0.012886345386505127,0.9903526088748503,-0.10224108454803658,-0.06497494277339069,0.06728236639997834
1681140151349149400,1.0991494140625,-0.229059100151062,0.00554777542129159,-0.014635466039180756,-0.11489567905664444,0.21359501779079437,-0.9701423645019531,-0.002123892307281494,-0.0303066223859787,0.01877206563949585,0.9902330379893414,-0.10344069786485374,-0.06502961600139906,0.06715573569533727
1681140151359207400,1.10920751953125,-0.17684195935726166,-0.0017181271687150002,-0.017694640904664993,-0.11499287933111191,0.21559377014636993,-0.9696885943412781,-0.0003482252359390259,-0.02492012083530426,0.0203324556350708,0.9901294539866634,-0.10446422560314238,-0.06513776594800084,0.06699310211778639
1681140151369266400,1.119266357421875,-0.10932009667158127,-0.011768580414354801,-0.02147877775132656,-0.11514689028263092,0.21701408922672272,-0.969353437423706,-0.0007740333676338196,-0.006229370832443237,0.004647016525268555,0.9900542179824343,-0.105190688543147,-0.0652548950411491,0.06685418096510182
1681140151379325400,1.129325439453125,-0.07683965563774109,-0.010517426766455173,-0.02172032743692398,-0.11530517786741257,0.21791425347328186,-0.969132661819458,-0.00017324835062026978,0.010845348238945007,-0.009001553058624268,0.9900076056625945,-0.10565243142177554,-0.06535469073108356,0.06671925412611188
1681140151389383700,1.1393837890625,-0.0395621657371521,-0.009634222835302353,-0.01968630962073803,-0.11550723016262054,0.21838754415512085,-0.9690020680427551,0.0027448609471321106,0.024211764335632324,-0.012977361679077148,0.9899829904690012,-0.1058950746752592,-0.06546149622347675,0.06659567306953607
1681140151399442400,1.1494423828125,-0.028982222080230713,-0.008043782785534859,-0.022011516615748405,-0.11570790410041809,0.21854205429553986,-0.9689432978630066,0.001038186252117157,0.029870852828025818,-0.006078124046325684,0.9899758104643692,-0.10597510918721528,-0.06555640093893379,0.06648069913917297
1681140151409501400,1.15950146484375,-0.0008591355290263891,-0.0005939900875091553,-0.02249077893793583,-0.11581282317638397,0.21852751076221466,-0.9689339995384216,-0.00047432631254196167,0.025002583861351013,0.0012215375900268555,0.9899812047062346,-0.10597208796692621,-0.06559655203207347,0.06636599470392338
1681140151419559400,1.169559326171875,0.0072834789752960205,-0.010875389911234379,-0.015233665704727173,-0.11591047048568726,0.21838496625423431,-0.9689545035362244,-0.004969574511051178,0.020094484090805054,0.00934445858001709,0.9899928541406688,-0.10590298117950299,-0.06563015538170248,0.0662696240565728
1681140151429618400,1.179618408203125,0.0327165313065052,-0.01274114940315485,-0.009433033876121044,-0.11608130484819412,0.21797658503055573,-0.9690259695053101,-0.0017317160964012146,0.017390072345733643,-0.005171477794647217,0.99001423266246,-0.10569343193060263,-0.0656955791786852,0.06621892436327477
1681140151439676400,1.189676513671875,0.012507669627666473,-0.009602348320186138,-0.0002523190341889858,-0.11618921160697937,0.2176809161901474,-0.9690794944763184,0.0017941668629646301,0.009949520230293274,0.007623195648193359,0.9900282493089642,-0.1055402986754457,-0.06573805088144402,0.06621092631484743
1681140151449735400,1.1997353515625,0.012805091217160225,-0.013013292104005814,0.0025098584592342377,-0.11628745496273041,0.2175534963607788,-0.9690963625907898,-0.006057426333427429,0.005102574825286865,0.0067855119705200195,0.9900314810498464,-0.10547144619366977,-0.06578453341750859,0.06622674257956374
1681140151459794400,1.20979443359375,0.011397876776754856,-0.013733144849538803,0.008998384699225426,-0.11641105264425278,0.2174866497516632,-0.9690964818000793,-0.0018139481544494629,0.003048434853553772,0.004710495471954346,0.9900289453707533,-0.10543108607390494,-0.06584856734924796,0.06626565341549438
1681140151469852400,1.219852294921875,0.02298198826611042,-0.006766981445252895,0.00963237602263689,-0.1164826899766922,0.2174128144979477,-0.9691044688224792,0.002972640097141266,0.004159882664680481,0.004642128944396973,0.9900268099486984,-0.10538722294542541,-0.06588854609818352,0.06632761244778781
1681140151479911700,1.22991162109375,0.011375932954251766,-0.005266022868454456,0.007742596790194511,-0.1164989098906517,0.21736563742160797,-0.9691131114959717,-0.001573517918586731,0.006892606616020203,0.009792983531951904,0.9900252754646467,-0.10535908943198213,-0.06590079317300924,0.06638246693174274
1681140151489969400,1.239969482421875,0.005400544963777065,0.0006864750757813454,0.00986188743263483,-0.11650557070970535,0.21742293238639832,-0.9690994620323181,-0.006022423505783081,0.009047836065292358,0.00861966609954834,0.990018076656551,-0.1053842927051365,-0.06591228216696708,0.06643842849786692
1681140151500028400,1.2500283203125,0.008789417333900928,0.003358956892043352,0.004041815176606178,-0.11649973690509796,0.21749259531497955,-0.9690845012664795,-0.0010844022035598755,0.010259896516799927,0.010237455368041992,0.9900116947641597,-0.1054173516129566,-0.06591606336074397,0.06647678648448577
1681140151510087400,1.26008740234375,-0.00011909648310393095,0.0017613759264349937,0.004209221340715885,-0.11647074669599533,0.21750952303409576,-0.9690842032432556,-0.000014759600162506104,0.01073126494884491,0.00907742977142334,0.9900107514326842,-0.10542588899814445,-0.06590358152455934,0.066491060464861
1681140151520145400,1.2701455078125,0.024326324462890625,-0.0118926502764225,0.004833466373383999,-0.11650830507278442,0.21745984256267548,-0.9690908193588257,-0.00182352215051651,0.008186936378479004,0.006978332996368408,0.990010435215966,-0.10539753404596389,-0.06592377211386156,0.06652024981711259
1681140151530204400,1.280204345703125,0.00995742715895176,-0.017382774502038956,-0.0020962918642908335,-0.1166706308722496,0.21732543408870697,-0.9691014289855957,0.0025502294301986694,0.0019126683473587036,0.005875110626220703,0.990011794851408,-0.10532285626663797,-0.06600278347476647,0.06654035077408355
1681140151540263400,1.290263427734375,-0.003833486931398511,-0.014784594066441059,0.0009271949529647827,-0.11684461683034897,0.21731410920619965,-0.9690830111503601,0.005318216979503632,0.000947415828704834,0.0029575228691101074,0.9900067205151394,-0.10531131133795921,-0.06609092361088462,0.06654699242371646
1681140151550321400,1.3003212890625,0.003519447287544608,-0.016437018290162086,-0.0036231353878974915,-0.1169845387339592,0.21737906336784363,-0.9690515995025635,0.004863046109676361,0.003171294927597046,0.008159816265106201,0.9899984551009664,-0.10533980814576406,-0.0661644422049489,0.06655057981660902
1681140151560380400,1.31038037109375,-0.013747423887252808,-0.015960846096277237,-0.000435065187048167,-0.11715971678495407,0.2174404412508011,-0.9690166711807251,0.0014066323637962341,0.0008821338415145874,0.008079111576080322,0.9899902060778657,-0.1053661685627081,-0.06625440195372886,0.06654271118107209
1681140151570438400,1.3204384765625,-0.024426700547337532,-0.01801334321498871,-0.0009501204476691782,-0.11736462265253067,0.2176813930273056,-0.9689377546310425,-0.00009744614362716675,0.0011142045259475708,0.003620922565460205,0.9899701695253479,-0.10548230325422958,-0.06636721599991145,0.06654436179760227
1681140151580497400,1.330497314453125,-0.03717098757624626,-0.01693156734108925,0.002633429132401943,-0.11752831190824509,0.2180447280406952,-0.9688361883163452,0.002370312809944153,-0.0001341402530670166,0.006830573081970215,0.9899440961988978,-0.10566156874994087,-0.06646446885519638,0.06655167055991813
1681140151590556400,1.340556396484375,-0.029130561277270317,-0.015500901266932487,0.0012485319748520851,-0.11769071966409683,0.21841658651828766,-0.9687327146530151,0.00015235692262649536,-0.004107087850570679,0.006818652153015137,0.989916989847374,-0.10584483379666722,-0.06656205024622167,0.06656484867868086
1681140151600614700,1.35061474609375,-0.02356055937707424,-0.02076037786900997,0.0013124479446560144,-0.11788439750671387,0.21872985363006592,-0.9686384797096252,-0.003224514424800873,-0.000712469220161438,0.004099905490875244,0.9898924388887285,-0.10599747451954081,-0.06667299540326249,0.06657605717251065
1681140151610673400,1.36067333984375,-0.02682974934577942,-0.019391044974327087,0.004146956838667393,-0.11805959045886993,0.218971848487854,-0.9685624837875366,0.0007501021027565002,0.0021278411149978638,0.0031388401985168457,0.9898721108068363,-0.10611402961556272,-0.06677254477692858,0.06659332706079436
1681140151620732700,1.370732666015625,-0.012838033959269524,-0.012588267214596272,0.0015477115521207452,-0.11818773299455643,0.2191571593284607,-0.9685049653053284,0.0001763477921485901,0.004307642579078674,0.005553245544433594,0.9898562738716156,-0.1062030319512218,-0.06684643763066501,0.06661296057827709
1681140151630790400,1.380790283203125,-0.01774546690285206,-0.008647139184176922,0.00009825942106544971,-0.1182553768157959,0.21931089460849762,-0.9684618711471558,-0.0023652687668800354,0.005649253726005554,0.008699238300323486,0.9898447974531889,-0.10627858403906576,-0.06688738796548675,0.066621568527305
1681140151640849400,1.390849365234375,-0.008645446039736271,-0.008175493218004704,-0.0007459626067429781,-0.11833486706018448,0.21945099532604218,-0.9684204459190369,-0.001629650592803955,0.009903699159622192,0.00810849666595459,0.9898344615723661,-0.1063475481401646,-0.06693267123571499,0.06661960713242601
1681140151650907400,1.400907470703125,0.0013012741692364216,-0.00821752194315195,-0.0034866747446358204,-0.11840736120939255,0.21947155892848969,-0.9684069156646729,-0.0010078325867652893,0.010615542531013489,0.008659541606903076,0.9898316635496108,-0.10635639548803812,-0.06696911017678547,0.06661060537750253
1681140151660966400,1.41096630859375,0.0005028585437685251,-0.007157317362725735,-0.004228365141898394,-0.1184660941362381,0.21947993338108063,-0.968397855758667,0.00039367377758026123,0.008104726672172546,0.005446135997772217,0.9898298599248954,-0.10635937241358932,-0.06699828420246451,0.06660300739686857
1681140151671025400,1.421025390625,-0.0008581501897424459,-0.010219435207545757,-0.0061194756999611855,-0.11855658143758774,0.21942968666553497,-0.9683981537818909,0.0009877011179924011,0.008444905281066895,0.0036458969116210938,0.9898315879377985,-0.10633269030640476,-0.06703944618067019,0.06657848701283357
1681140151681083400,1.43108349609375,-0.004655817523598671,-0.016603566706180573,-0.004441950470209122,-0.11872261762619019,0.2194622904062271,-0.9683704376220703,0.0016572773456573486,0.005314767360687256,0.003679215908050537,0.9898257913533535,-0.10634540040677766,-0.06712264682858887,0.06656062555865291
1681140151691142700,1.441142578125,-0.0030611169058829546,-0.02847277745604515,-0.00014840252697467804,-0.11894886195659637,0.21950852870941162,-0.9683321714401245,0.0023565366864204407,0.0009197741746902466,0.004022419452667236,0.9898162045866018,-0.10636205772957559,-0.06723859205448134,0.06655962162741426
1681140151701200400,1.451200439453125,-0.010626357980072498,-0.030015811324119568,-0.001472526229918003,-0.11923979967832565,0.21962060034275055,-0.9682709574699402,0.003593534231185913,-0.0011454373598098755,0.0027558207511901855,0.9898004193364731,-0.10640983578710128,-0.06739035750201021,0.06656437267017992
1681140151711259400,1.46125927734375,-0.004309074021875858,-0.024281691759824753,-0.001246157567948103,-0.11951649188995361,0.21971991658210754,-0.9682143330574036,0.0030614957213401794,0.0012729614973068237,0.004102945327758789,0.9897859090627136,-0.10645167645080648,-0.0675342726881728,0.06656754734953636
1681140151721318400,1.471318359375,-0.005482729524374008,-0.01794789731502533,-0.004399872850626707,-0.11973588913679123,0.2198159396648407,-0.968165397644043,-0.0002591460943222046,0.0030995309352874756,0.009104728698730469,0.9897732597409135,-0.1064935139051705,-0.06764924472087692,0.06657184855998405
1681140151731376400,1.48137646484375,-0.01224132627248764,-0.016050543636083603,-0.005644261371344328,-0.11992090195417404,0.21994513273239136,-0.9681131839752197,-0.001844152808189392,0.00400795042514801,0.005909144878387451,0.9897609358137576,-0.1065544779792697,-0.0677462417380507,0.06655875264795225
1681140151741435600,1.491435546875,-0.022019920870661736,-0.010273348540067673,-0.00502720708027482,-0.12005007266998291,0.22015495598316193,-0.9680494666099548,0.00013133883476257324,0.0074602216482162476,0.006547331809997559,0.9897466522655015,-0.10665914817235517,-0.06781658390697268,0.06653156126883102
1681140151751494400,1.501494384765625,-0.019460970535874367,-0.004119899123907089,-0.005722238682210445,-0.12009796500205994,0.220392107963562,-0.9679895639419556,-0.0004311278462409973,0.003957688808441162,0.008074343204498291,0.9897333247619786,-0.10678015051061848,-0.0678469871214135,0.066505269362792
1681140151761552400,1.511552490234375,-0.017200477421283722,-0.0036439914256334305,-0.007813352160155773,-0.12013412266969681,0.22058294713497162,-0.9679416418075562,-0.001447826623916626,0.002942889928817749,0.006805717945098877,0.9897239796830969,-0.10687897291142828,-0.06786808732879152,0.06646409193231435
1681140151771611400,1.521611328125,-0.026529692113399506,-0.0013061361387372017,0.0006382952560670674,-0.12015610188245773,0.22077929973602295,-0.9678941369056702,-0.0010291188955307007,0.006698548793792725,0.0031571388244628906,0.9897136112333633,-0.10697986612566174,-0.06788407670202909,0.06644002656179057
1681140151781669400,1.53166943359375,-0.03895360603928566,0.0026305485516786575,-0.0018008940387517214,-0.12014660239219666,0.22107337415218353,-0.9678281545639038,-0.0016947463154792786,0.00011785328388214111,0.004479706287384033,0.9896979001766983,-0.10713074162344637,-0.06788899861209706,0.06642630062200394
1681140151791728400,1.541728271484375,-0.026957396417856216,-0.003946660086512566,-0.0004498723428696394,-0.12014812976121902,0.22141329944133759,-0.9677502512931824,-0.0026545077562332153,-0.0031975507736206055,0.006583869457244873,0.9896797857827694,-0.10730527287871666,-0.06790022381720988,0.0664032047662334
1681140151801787400,1.551787353515625,-0.03757728263735771,-0.008386681787669659,-0.0007899580523371696,-0.12021025270223618,0.2217242419719696,-0.9676713347434998,-0.0029891282320022583,0.00026044249534606934,0.004704415798187256,0.9896606409471803,-0.10746251109824552,-0.06794208800164275,0.06639045853354693
1681140151811845600,1.561845703125,-0.02341483160853386,-0.007872043177485466,0.0019263597205281258,-0.12030361592769623,0.22204600274562836,-0.9675859808921814,0.0016360953450202942,0.0020138919353485107,0.002665877342224121,0.9896395974850272,-0.10762395243824484,-0.0680006958224111,0.06638275984641565
1681140151821904400,1.571904296875,0.013298175297677517,-0.011171700432896614,-0.001634553074836731,-0.12041491270065308,0.22209425270557404,-0.9675610661506653,0.0029833614826202393,0.003720402717590332,0.006074190139770508,0.9896329733072203,-0.10764480313509783,-0.0680592846745389,0.06638736367257102
1681140151831963600,1.581963623046875,0.011632208712399006,-0.011115373112261295,-0.0009406929020769894,-0.12053307890892029,0.22199665009975433,-0.9675687551498413,-0.0019338801503181458,0.00453515350818634,0.0010922551155090332,0.9896345719057421,-0.10759114968319167,-0.0681158692657976,0.06639282153737958
1681140151842021400,1.592021484375,0.01685466803610325,-0.006579744629561901,-0.0003816953976638615,-0.12063289433717728,0.2218615859746933,-0.9675872921943665,0.0028046146035194397,0.013199880719184875,-0.00429081916809082,0.9896390365317913,-0.10751914704143904,-0.06816150295996182,0.06639594800766833
1681140151852080400,1.602080322265625,0.016376417130231857,-0.002132231369614601,-0.0063452585600316525,-0.12067718058824539,0.22173510491847992,-0.967610776424408,0.004390038549900055,0.014287665486335754,0.005727171897888184,0.9896456586029285,-0.10745408439287421,-0.06817801021036962,0.0663863143726169
1681140151862138600,1.612138671875,0.006047612987458706,0.002030022442340851,-0.006362036801874638,-0.12070725858211517,0.22160938382148743,-0.9676358103752136,-0.0023853108286857605,0.009255915880203247,0.009109139442443848,0.9896533440289446,-0.10739060765378068,-0.06818617429254757,0.06636565231114486
1681140151872197400,1.622197265625,-0.003782034618780017,0.003145338036119938,-0.003100250381976366,-0.12071865051984787,0.2215961068868637,-0.9676374197006226,-0.001641489565372467,0.008674100041389465,0.007951140403747559,0.9896557551262737,-0.10738552395414577,-0.06818822920060902,0.06633621909809732
1681140151882256400,1.63225634765625,-0.021058494225144386,0.001941322349011898,-0.00006877398118376732,-0.12072086334228516,0.22170017659664154,-0.9676133394241333,0.0016108378767967224,0.004984214901924133,0.008842527866363525,0.9896507980981766,-0.10743958740874053,-0.06819148552366498,0.06631939278740799
1681140151892314400,1.642314453125,-0.042687516659498215,-0.0005421740934252739,0.0003941899922210723,-0.12070538848638535,0.22201865911483765,-0.9675422310829163,-0.0010291486978530884,-0.000033974647521972656,0.006589412689208984,0.9896330823303254,-0.10760255882086017,-0.068195198245048,0.06631376579977565
1681140151902373600,1.65237353515625,-0.025846216827630997,-0.00812552496790886,0.005540482699871063,-0.12072789669036865,0.22239968180656433,-0.9674518704414368,-0.0004115477204322815,-0.003985553979873657,0.006239652633666992,0.9896097949912861,-0.1077952700460151,-0.06822194033615449,0.06632158125629313
1681140151912432400,1.662432373046875,-0.029058123007416725,-0.010476548224687576,0.007582594640552998,-0.12081731855869293,0.22267307341098785,-0.9673778414726257,0.0013868659734725952,-0.00592215359210968,0.004807651042938232,0.9895891600119883,-0.10792976544612674,-0.06828063855950542,0.06634982204720317
1681140151922490400,1.672490478515625,-0.02083561383187771,-0.010030735284090042,0.00912403129041195,-0.12088599056005478,0.22297260165214539,-0.9673002362251282,0.00009749829769134521,-0.004283815622329712,-0.0014497637748718262,0.989566597230722,-0.10807707717211483,-0.06833163873885452,0.06639439831134936
1681140151932549400,1.68254931640625,-0.004177248105406761,-0.005743461661040783,0.004814398009330034,-0.12092630565166473,0.2231614887714386,-0.9672516584396362,0.0019230917096138,0.003751784563064575,0.005764782428741455,0.9895519492450205,-0.1081695718444924,-0.06836308197162722,0.06642966531636856
1681140151942607400,1.692607421875,0.007261295802891254,-0.003938903100788593,0.006279669236391783,-0.1209770068526268,0.22317923605442047,-0.9672412276268005,0.0007683634757995605,0.008464246988296509,0.009828507900238037,0.9895473469081287,-0.10817506138688956,-0.06839255496342231,0.06645863114545104
1681140151952666600,1.70266650390625,0.02092887833714485,0.004154593218117952,0.005542613100260496,-0.1209627240896225,0.2230672538280487,-0.9672688245773315,-0.0020688101649284363,0.013748988509178162,0.007902979850769043,0.98955187245728,-0.10811590144387609,-0.0683851238757447,0.06649590598604341
1681140151962725400,1.712725341796875,0.022745952010154724,0.005198285914957523,0.0048888069577515125,-0.12090692669153214,0.22287620604038239,-0.9673198461532593,-0.002185627818107605,0.01769368350505829,0.005360007286071777,0.9895627920650313,-0.10801830212603496,-0.06835285496569973,0.06652555116053939
1681140151972783600,1.72278369140625,0.0045099034905433655,0.0045189461670815945,0.005993965081870556,-0.12086080759763718,0.2227441370487213,-0.9673560261726379,-0.0004159584641456604,0.015887871384620667,0.0040839314460754395,0.9895701391697879,-0.10795064214135912,-0.06832739421919433,0.06655212881498805
1681140151982842400,1.73284228515625,-0.01531759649515152,0.001913575455546379,0.011116023175418377,-0.12081252783536911,0.22279946506023407,-0.9673493504524231,0.0011989623308181763,0.007058754563331604,0.00470280647277832,0.9895659047237326,-0.1079777250105994,-0.06830916548067639,0.06658926677235613
1681140151992901600,1.742901611328125,-0.038138117641210556,0.0027638236060738564,0.008594915270805359,-0.12076552212238312,0.22302867472171783,-0.9673023819923401,0.0019301623106002808,-0.006552413105964661,0.009874343872070312,0.9895509960148176,-0.10809272525915851,-0.06829911844934987,0.066634444454741
1681140152002959600,1.752959716796875,-0.07856996357440948,-0.010460369288921356,0.009376020170748234,-0.12077698856592178,0.22360628843307495,-0.9671676158905029,-0.0019646286964416504,-0.013935446739196777,0.009037673473358154,0.989515634175427,-0.10838502820831662,-0.06832925247851705,0.06665467525266364
1681140152013018400,1.763018310546875,-0.06264018267393112,-0.017681414261460304,0.009743482805788517,-0.12088284641504288,0.22438299655914307,-0.9669744968414307,-0.0021639466285705566,-0.011156857013702393,0.004007518291473389,0.9894644387331688,-0.10877475743076867,-0.06841649211629106,0.06669069287773147
1681140152023076600,1.77307666015625,-0.027933070436120033,-0.01795412041246891,0.0038616256788372993,-0.12104702740907669,0.22482872009277344,-0.9668503999710083,0.006804563105106354,-0.01341836154460907,0.009941160678863525,0.9894308104071918,-0.10899433275582049,-0.06852034695856846,0.0667248249892486
1681140152033135400,1.78313525390625,-0.02636697329580784,-0.022270772606134415,0.005395233631134033,-0.12125587463378906,0.22516648471355438,-0.9667456150054932,0.0006962716579437256,-0.0021899789571762085,-0.000005543231964111328,0.9894024190799197,-0.10915813797054308,-0.06864180403618785,0.06675111954579667
1681140152043194600,1.793194580078125,-0.00594398844987154,-0.007938970811665058,0.003296928945928812,-0.12141764909029007,0.2254004180431366,-0.9666708111763,-0.0005762875080108643,0.01715312898159027,-0.0016062259674072266,0.9893813413365787,-0.10927010583179961,-0.06873609376823839,0.06678298683237249
1681140152053252400,1.80325244140625,0.014596041291952133,0.005786178633570671,0.0005400246009230614,-0.12142197042703629,0.22541257739067078,-0.9666674137115479,0.0027239397168159485,0.013311013579368591,0.007560908794403076,0.9893798641193656,-0.10927538157906325,-0.06873996826933136,0.06679413127175361
1681140152063311400,1.813311279296875,0.025124048814177513,0.011477620340883732,-0.0026435181498527527,-0.12133198231458664,0.22522541880607605,-0.966722309589386,-0.008779622614383698,0.01949484646320343,0.005128681659698486,0.9893933650332772,-0.10918246680504307,-0.0686878559618287,0.06679936025012964
1681140152073370400,1.823370361328125,0.02456608973443508,0.021174339577555656,0.002724189544096589,-0.1211634948849678,0.2249528169631958,-0.966806948184967,-0.00720861554145813,0.024665534496307373,0.0024819374084472656,0.9894147714937478,-0.1090488681985114,-0.068592109830587,0.06679849308675254
1681140152083428400,1.833428466796875,0.008200698532164097,0.025754444301128387,0.00242937752045691,-0.12093503028154373,0.2247416079044342,-0.9668846726417542,-0.00037226080894470215,0.010792896151542664,0.002529144287109375,0.9894343068007244,-0.10894814477206953,-0.06846875860466835,0.06680081156912043
1681140152093487600,1.843487548828125,-0.013644970953464508,0.020044244825839996,0.0008787254919297993,-0.12072884291410446,0.22473672032356262,-0.9669115543365479,-0.004530474543571472,-0.0008141696453094482,0.002845942974090576,0.989441698113789,-0.10895264447665429,-0.06836330768974563,0.06679128852275072
1681140152103545300,1.85354541015625,-0.012793825939297676,0.005915109068155289,-0.00012475356925278902,-0.12058313935995102,0.22482770681381226,-0.9669085741043091,-0.0036690980195999146,-0.006947621703147888,0.0008898377418518066,0.9894417405491871,-0.10900423996320495,-0.06829187294919452,0.06677961918299145
1681140152113604600,1.8636044921875,-0.02531675435602665,-0.006634504534304142,-0.0020395133178681135,-0.1205822005867958,0.22498783469200134,-0.966871440410614,0.0007702857255935669,-0.015194922685623169,0.0031110644340515137,0.9894327464231302,-0.1090862280071332,-0.0682968955913016,0.06677362477396086
1681140152123663400,1.873663330078125,-0.03876012563705444,-0.006403076462447643,0.0022098266053944826,-0.12065643817186356,0.22538600862026215,-0.9667694568634033,-0.0008492171764373779,-0.012693926692008972,0.001879870891571045,0.9894080045180909,-0.10928773150064723,-0.06834809767382231,0.06675897943913656
1681140152133721300,1.883721435546875,-0.03632455691695213,-0.0007759500294923782,0.0025236536748707294,-0.12068544328212738,0.22580650448799133,-0.9666677117347717,-0.0016746968030929565,-0.010367825627326965,0.006447315216064453,0.9893817950496272,-0.10950045742540136,-0.06837977942075678,0.06676672124949266
1681140152143780400,1.8937802734375,-0.02758725918829441,0.004565285984426737,-0.0019392718095332384,-0.12071937322616577,0.22620105743408203,-0.9665712118148804,0.0020671263337135315,-0.005849063396453857,0.012317061424255371,0.9893581694704426,-0.10970121920425323,-0.06841075560697234,0.0667545271317749
1681140152153839400,1.90383935546875,-0.0029301161412149668,0.007966408506035805,-0.007702086120843887,-0.12071693688631058,0.22642146050930023,-0.9665198922157288,0.0008592456579208374,0.006732642650604248,0.00948864221572876,0.9893476109561393,-0.10981605520040759,-0.06841400659667077,0.06671851421529033
1681140152163897600,1.913897705078125,0.0007093597669154406,0.011351020075380802,-0.0058317482471466064,-0.12065188586711884,0.22645880281925201,-0.966519296169281,-0.0008232519030570984,0.01662878692150116,0.0063904523849487305,0.9893497481406888,-0.1098394216805046,-0.06837876472151395,0.06668436776046441
1681140152173956400,1.923956298828125,0.0017863954417407513,0.014396311715245247,-0.008482339791953564,-0.12056698650121689,0.22642822563648224,-0.9665370583534241,0.0034711211919784546,0.018200501799583435,0.002791881561279297,0.989356900227795,-0.10982916082619879,-0.06833030483972931,0.06664502129678203
1681140152184014600,1.9340146484375,0.0017014406621456146,0.011372558772563934,-0.009468507952988148,-0.12047217041254044,0.22636421024799347,-0.966563880443573,0.001407921314239502,0.015289053320884705,0.004222512245178223,0.9893674615482737,-0.10980337485275299,-0.06827362091190008,0.0665882545189407
1681140152194073300,1.9440732421875,0.009403781965374947,0.007456147111952305,-0.010145536623895168,-0.12039504945278168,0.22625112533569336,-0.9665999412536621,-0.0010037794709205627,0.011495888233184814,0.004106044769287109,0.9893800279850155,-0.10975159392419004,-0.06822470341551275,0.06653784460452973
1681140152204132600,1.954132568359375,0.003746162401512265,0.00042007584124803543,-0.00889491569250822,-0.12038591504096985,0.22611841559410095,-0.9666321277618408,0.0029543712735176086,0.005906537175178528,0.01007390022277832,0.9893915803709892,-0.10968783537106942,-0.06820929250248099,0.06648632828660689
1681140152214190600,1.964190673828125,0.014443946070969105,-0.005517425015568733,-0.002990155015140772,-0.12043693661689758,0.2259991616010666,-0.9666536450386047,0.001754164695739746,0.0021805912256240845,0.007699787616729736,0.9893989760409206,-0.10962757498603344,-0.06822725207911322,0.06645685413153116
1681140152224249300,1.974249267578125,0.015982456505298615,-0.005161892622709274,-0.0026194429956376553,-0.12050385028123856,0.2258458137512207,-0.966681182384491,0.001973658800125122,0.0003502964973449707,0.005407929420471191,0.9894064352885327,-0.10954782817061119,-0.06825454766001243,0.06645100326483365
1681140152234308600,1.98430859375,0.016700683161616325,-0.0053665414452552795,0.002166097518056631,-0.12056524306535721,0.22571632266044617,-0.9667037725448608,0.0037592947483062744,-0.00026789307594299316,0.0058730244636535645,0.9894117311747522,-0.10947957260233412,-0.06828131538786009,0.06645727892913464
1681140152244365300,1.994365234375,0.011180750094354153,-0.0036080563440918922,0.00442925188690424,-0.12060800939798355,0.22566744685173035,-0.9667098522186279,-0.0001652240753173828,0.004679054021835327,0.004627883434295654,0.989411148116479,-0.10945122231203779,-0.06830451989962236,0.06648851746579675
1681140152254424000,2.004424072265625,0.0025752235669642687,-0.0023880284279584885,0.007183705922216177,-0.12061659246683121,0.2256758213043213,-0.9667068123817444,-0.0014688968658447266,0.0031142830848693848,0.004609584808349609,0.9894077257541453,-0.10945245612934236,-0.06831360495208746,0.06652855245770013
1681140152264482300,2.014482421875,-0.008931229822337627,0.0002610180526971817,0.0073440284468233585,-0.12060350179672241,0.22578850388526917,-0.9666821360588074,-0.0002612769603729248,0.0010179579257965088,0.005683541297912598,0.9893985014982261,-0.10950727260940891,-0.06831609865560928,0.06657177615423755
1681140152274541000,2.024541015625,-0.02535047009587288,0.003565567545592785,0.008606047369539738,-0.120570607483387,0.2260066419839859,-0.9666352868080139,-0.0017742738127708435,0.001806899905204773,0.004919528961181641,0.9893845744739334,-0.10961720577506438,-0.06831131239728452,0.06660318416309706
1681140152284600300,2.034600341796875,-0.02721867896616459,-0.00046113133430480957,0.009056653827428818,-0.12053088843822479,0.22630344331264496,-0.9665707945823669,-0.0032025501132011414,0.0013422667980194092,0.005679011344909668,0.9893661868352621,-0.10976743791342591,-0.06830607274087327,0.0666342973836228
1681140152294658300,2.044658203125,-0.01361229456961155,-0.005428909324109554,0.006989934481680393,-0.12052244693040848,0.22651825845241547,-0.9665215015411377,-0.001791924238204956,-0.0037553757429122925,0.00750654935836792,0.9893513447025039,-0.10987466818942764,-0.06831399561104186,0.06666979049994119
1681140152304717300,2.05471728515625,-0.0015500392764806747,-0.010548570193350315,0.0040245046839118,-0.12058743834495544,0.22659966349601746,-0.9664943218231201,-0.0024746134877204895,-0.0013038069009780884,0.004671752452850342,0.9893426518204881,-0.10991228921379524,-0.06835296185700396,0.06669665811519691
1681140152314776000,2.064776123046875,0.004424149636179209,-0.0056755682453513145,0.0009363562567159534,-0.12063658237457275,0.22660046815872192,-0.9664880037307739,0.000748366117477417,0.00469207763671875,0.0012779831886291504,0.9893395420685459,-0.10990964473515301,-0.0683803337359663,0.06671912787754535
1681140152324834000,2.074833984375,0.01281630340963602,0.0005570286884903908,0.0007177107036113739,-0.12066581100225449,0.22651684284210205,-0.9665039777755737,0.0032342523336410522,0.006545737385749817,0.003262341022491455,0.989342404216289,-0.10986497706358278,-0.06839378938376148,0.06673619804358975
1681140152334893300,2.084893310546875,0.014558330178260803,0.003404613584280014,-0.00024097395362332463,-0.12065355479717255,0.2263914942741394,-0.9665348529815674,0.000002391636371612549,0.007357731461524963,0.005673587322235107,0.9893496770664096,-0.10980096221568975,-0.06838364059073064,0.06674401410275776
1681140152344951000,2.094950927734375,0.012453899718821049,0.006802008021622896,-0.0025438093580305576,-0.12061285972595215,0.22624032199382782,-0.9665753245353699,-0.0009385645389556885,0.010820060968399048,0.006690621376037598,0.9893602324606164,-0.10972556730270908,-0.06835668901014379,0.06673885768276233
1681140152355010300,2.10501025390625,0.004122946411371231,0.008494280278682709,-0.00020800408674404025,-0.12055348604917526,0.22617341578006744,-0.966598391532898,0.0020690709352493286,0.00879649817943573,0.006103336811065674,0.9893667188668699,-0.10969398285733553,-0.06832302144482261,0.06672910756673314
1681140152365069000,2.115069091796875,-0.008190711960196495,0.0034393342211842537,-0.0008418363868258893,-0.12050981819629669,0.22620385885238647,-0.9665967226028442,0.001231946051120758,0.002815142273902893,0.005842268466949463,0.9893668493649775,-0.10971143599290281,-0.0683011396954782,0.06672026351612048
1681140152375127300,2.125127197265625,-0.013823563233017921,1.6111880540847778e-7,0.0009779015090316534,-0.12050838023424149,0.22631941735744476,-0.9665698409080505,0.0012915506958961487,-0.0030377358198165894,0.004854083061218262,0.9893604141672044,-0.10977064969890425,-0.06830434512499634,0.06671568070020416
1681140152385186300,2.135186279296875,-0.017637209966778755,-0.0024177227169275284,-0.00003090384416282177,-0.12053786963224411,0.22646386921405792,-0.9665323495864868,0.0011837035417556763,-0.006111860275268555,0.005426943302154541,0.9893511070257239,-0.10984352793953808,-0.0683244834086212,0.06671279569941355
1681140152395245300,2.145245361328125,-0.019011162221431732,-0.0038857730105519295,0.001159635721705854,-0.12057024240493774,0.22667472064495087,-0.9664788842201233,0.0009566769003868103,-0.006460055708885193,0.0029625892639160156,0.9893374966944366,-0.1099498273048153,-0.06834913616964519,0.06671446482149133
1681140152405303300,2.15530322265625,-0.006931861862540245,-0.0018601734191179276,0.003111466532573104,-0.1205817312002182,0.22682853043079376,-0.9664413332939148,-0.0012748688459396362,-0.0023871958255767822,0.004298388957977295,0.9893274427488147,-0.11002724320663602,-0.06836179389626193,0.06672288005477939
1681140152415362000,2.165362060546875,-0.002101766411215067,0.0016647037118673325,0.0002992216614075005,-0.1205943301320076,0.22689253091812134,-0.9664247632026672,-0.002009958028793335,-0.0009252876043319702,0.006097555160522461,0.9893232854249405,-0.11005942331663672,-0.0683706586702462,0.06672323849621639
1681140152425420300,2.175420166015625,0.010196711868047714,0.007125249598175287,0.0002606058260425925,-0.12056908756494522,0.226904034614563,-0.9664251804351807,-0.001867346465587616,0.007226631045341492,0.001276254653930664,0.9893236436619066,-0.11006626944459993,-0.06835799636637915,0.0667201679169681
1681140152435479000,2.18547900390625,0.01025527436286211,0.013823814690113068,0.0000652362359687686,-0.12044768035411835,0.22683046758174896,-0.9664576053619385,-0.0014699622988700867,0.010107830166816711,0.004238307476043701,0.9893318747346453,-0.11003259831043138,-0.06829366050754997,0.06671890790544041
1681140152445538300,2.195538330078125,0.010271785780787468,0.015000665560364723,-0.004568930249661207,-0.12030899524688721,0.22673766314983368,-0.9664966464042664,-0.000845693051815033,0.010887280106544495,0.0032703280448913574,0.989342755249761,-0.10999058022850952,-0.06821834483815936,0.06670413180299567
1681140152455596300,2.20559619140625,0.0003627226687967777,0.01296849176287651,-0.003055828856304288,-0.12018261849880219,0.22668033838272095,-0.9665258526802063,-0.0015366598963737488,0.009479761123657227,0.0054662227630615234,0.9893518409128315,-0.10996697019389202,-0.06814947398660312,0.06667909413663306
1681140152465655000,2.215655029296875,-0.012423112988471985,0.009592401795089245,-0.002966346452012658,-0.12008656561374664,0.2267061024904251,-0.9665317535400391,0.0010528415441513062,0.004830583930015564,0.007028520107269287,0.989355187925864,-0.10998493877996275,-0.06809883418864163,0.06665140730043287
1681140152475713300,2.22571337890625,-0.020683174952864647,0.0031310729682445526,-0.002846770454198122,-0.12002022564411163,0.22684569656848907,-0.9665071964263916,0.0010017603635787964,0.0005405843257904053,0.009002923965454102,0.9893503890716118,-0.11005946820773342,-0.06806839672486115,0.06663110294298308
1681140152485772000,2.23577197265625,-0.028293689712882042,0.0002239663153886795,-0.005180498585104942,-0.12003125250339508,0.22707131505012512,-0.9664528369903564,0.0017604753375053406,-0.0027825534343719482,0.006324052810668945,0.9893382240674307,-0.11017578686516107,-0.06807987110975973,0.06660620202802811
1681140152495831300,2.245831298828125,-0.016270475462079048,-0.0032960670068860054,-0.0035356241278350353,-0.1200733631849289,0.22729499638080597,-0.9663950204849243,0.002382412552833557,-0.0033114254474639893,0.008310914039611816,0.9893254991326355,-0.11029036530068398,-0.06810663904581804,0.06657838489585476
1681140152505889300,2.25588916015625,-0.01036092173308134,-0.0005855010822415352,-0.00520223006606102,-0.12010983377695084,0.2274336814880371,-0.9663578867912292,0.0022662878036499023,-0.0007797926664352417,0.010547280311584473,0.9893182659326116,-0.11036204537233872,-0.06812691468060787,0.06654719130634165
1681140152515948300,2.2659482421875,0.0017148631159216166,0.003151513170450926,-0.003527687396854162,-0.12013579159975052,0.22750183939933777,-0.9663386344909668,0.000705331563949585,0.0026005208492279053,0.008437573909759521,0.9893152702984221,-0.11039784459963899,-0.06813961615063856,0.06652002910286049
1681140152526007300,2.27600732421875,0.021762873977422714,0.009000347927212715,-0.009689176455140114,-0.12009920924901962,0.22741110622882843,-0.9663645029067993,-0.0003230646252632141,0.007802948355674744,0.007502138614654541,0.9893236343212887,-0.11035465847900669,-0.06811454228061224,0.06649217205069723
1681140152536065000,2.28606494140625,0.03128015995025635,0.008837427943944931,-0.00509075028821826,-0.12003349512815475,0.22719243168830872,-0.9664241075515747,0.0005114823579788208,0.010432511568069458,0.0037012696266174316,0.989341009813327,-0.11024762637119374,-0.06806910419991637,0.06645775432860365
1681140152546124300,2.296124267578125,0.04741545394062996,0.002564086578786373,-0.003442786168307066,-0.11998102068901062,0.2268119603395462,-0.9665200114250183,-0.0019518807530403137,0.01249144971370697,0.0017982721328735352,0.9893653256190036,-0.11005547154749334,-0.06802789828929481,0.06645679270098868
1681140152556183000,2.30618310546875,0.03481859713792801,0.0011670924723148346,-0.0015946587081998587,-0.11997611820697784,0.22642235457897186,-0.966611921787262,-0.00007993727922439575,0.007967725396156311,0.002195417881011963,0.9893887909879576,-0.10985746302843184,-0.06801002466672142,0.06645242972582778
1681140152566241300,2.3162412109375,0.029542339965701103,-0.0024449527263641357,-0.00269427802413702,-0.11999136954545975,0.22609543800354004,-0.9666865468025208,0.00429932028055191,0.006433069705963135,0.00030165910720825195,0.9894075973107679,-0.10969045146364792,-0.06800527585729566,0.06645294381594122
1681140152576300000,2.326300048828125,0.016266295686364174,-0.003136793151497841,-0.001861294498667121,-0.1200164332985878,0.22585934400558472,-0.9667386412620544,0.002386517822742462,0.001359105110168457,0.004473626613616943,0.9894209112201429,-0.10956963284603867,-0.0680086035098021,0.06645015598238643
1681140152586358300,2.336358154296875,-0.0014991197967901826,-0.0017423620447516441,0.002600565552711487,-0.12004213035106659,0.22580647468566895,-0.9667478203773499,-0.00047169625759124756,-0.0034860968589782715,0.004147052764892578,0.9894226755396553,-0.10954136672012595,-0.06802047892748771,0.06645834870639775
1681140152596417300,2.346417236328125,-0.011333480477333069,-0.004609920084476471,0.004973602015525103,-0.12007758021354675,0.225894033908844,-0.9667229652404785,-0.002221532166004181,-0.0026428550481796265,0.0035271048545837402,0.989414937547669,-0.10958338752856905,-0.06804414220774996,0.06647998693794854
1681140152606476300,2.356476318359375,-0.0018446382600814104,-0.003571554087102413,0.004109672270715237,-0.12011131644248962,0.22601677477359772,-0.9666900634765625,0.0002993941307067871,-0.0050086528062820435,0.00604248046875,0.9894052791692639,-0.10964335078679119,-0.06806831924465888,0.06650194029357347
1681140152616534300,2.3665341796875,0.0058156512677669525,-0.00516850221902132,0.00741795776411891,-0.12013217061758041,0.22605548799037933,-0.9666784405708313,-0.002487368881702423,-0.00497107207775116,0.0044133663177490234,0.9894001308407044,-0.10966021180724277,-0.0680839311554814,0.06653428686471674
1681140152626593000,2.376593017578125,0.01007777452468872,-0.005190073512494564,0.0033084338065236807,-0.12018804997205734,0.22603151202201843,-0.9666770696640015,-0.00017318874597549438,-0.000003248453140258789,0.0062430500984191895,0.9893973527336825,-0.10964388558999406,-0.06811515969716905,0.06656945424056185
1681140152636652300,2.38665234375,0.020610816776752472,0.0012211045250296593,0.0005359233473427594,-0.12019850313663483,0.22591328620910645,-0.9667034149169922,0.00027977675199508667,0.006218478083610535,0.0059947967529296875,0.9894026288960942,-0.10958185854358637,-0.06811829584899846,0.06659103262682518
1681140152646710300,2.396710205078125,0.027919063344597816,0.004676822107285261,0.000010747986380010843,-0.12014613300561905,0.225703626871109,-0.9667589068412781,-0.0004897639155387878,0.009891897439956665,0.005897641181945801,0.9894158203301026,-0.109475874082946,-0.06808508749527391,0.06660275222883232
1681140152656769300,2.406769287109375,0.03692731261253357,0.007557163946330547,-0.0034741577692329884,-0.12007712572813034,0.2253761738538742,-0.966843843460083,-0.0010470598936080933,0.013316884636878967,0.006348848342895508,0.9894374154976638,-0.10931137744033212,-0.0680374033385891,0.0666004758446608
1681140152666827300,2.4168271484375,0.028429696336388588,0.010196090675890446,-0.00645050685852766,-0.1200011745095253,0.2250385582447052,-0.966931939125061,0.0005554556846618652,0.012265950441360474,0.00556713342666626,0.9894607026343081,-0.10914279343117761,-0.06798441491729838,0.06658543248376037
1681140152676886000,2.426885986328125,0.010514507070183754,0.008173585869371891,-0.004858043044805527,-0.11993929743766785,0.22484014928340912,-0.9669857621192932,0.0005698800086975098,0.008329212665557861,0.006673872470855713,0.9894765126438161,-0.10904594488216988,-0.06794187047907867,0.06655210599658634
1681140152686945300,2.4369453125,-0.011620623990893364,0.005738125182688236,0.0003508336958475411,-0.11988866329193115,0.22482886910438538,-0.9669947028160095,0.0015568435192108154,0.0029694288969039917,0.006408095359802246,0.9894804908543333,-0.10904345006590041,-0.06791309567954731,0.06652716087827946
1681140152697003000,2.4470029296875,-0.03485739603638649,0.004723294172435999,0.0013389729429036379,-0.11985297501087189,0.22505909204483032,-0.9669455289840698,0.0019789114594459534,-0.0049817562103271484,0.004558384418487549,0.9894692697894232,-0.10916297963412291,-0.06790193674135428,0.0665096697129304
1681140152707062300,2.457062255859375,-0.042878035455942154,-0.0034161247313022614,0.002257763408124447,-0.11985290050506592,0.22544553875923157,-0.966855525970459,-0.002751387655735016,-0.0119294673204422,0.004819333553314209,0.9894472137042248,-0.10936049526251507,-0.06791553513341948,0.06649921605070332
1681140152717121000,2.46712109375,-0.037808071821928024,-0.006035676226019859,0.0016418809536844492,-0.11989735066890717,0.2258801907300949,-0.9667485356330872,-0.0019287243485450745,-0.01401209831237793,0.004880249500274658,0.9894203399226853,-0.10958060686538068,-0.06795446694513269,0.06649766703093911
1681140152727179300,2.47717919921875,-0.020797396078705788,-0.0021562492474913597,0.0017926158616319299,-0.11995407938957214,0.22620779275894165,-0.9666649103164673,0.000020094215869903564,-0.01205088198184967,0.005345940589904785,0.9893993771780548,-0.10974600892319496,-0.0679952637955585,0.06649380864615967
1681140152737238300,2.48723828125,-0.003281839657574892,-0.004226791672408581,0.0004431387933436781,-0.11997716128826141,0.2263832837343216,-0.9666209816932678,-0.00021623075008392334,-0.00421549379825592,0.006629467010498047,0.9893878250050104,-0.1098342449349923,-0.06801437411115324,0.06650030893135439
1681140152747297300,2.49729736328125,0.008889605291187763,-0.0018938621506094933,0.003345984499901533,-0.1199999675154686,0.22640082240104675,-0.9666140079498291,-0.0010021403431892395,0.005654677748680115,0.0030825138092041016,0.9893852596136972,-0.1098415405820404,-0.06802806509280496,0.06651381862971942
1681140152757355300,2.507355224609375,0.021990999579429626,0.0018991613760590553,-0.000043314124923199415,-0.12000809609889984,0.22626975178718567,-0.9666436910629272,0.0003640204668045044,0.015414029359817505,0.002242445945739746,0.9893916518996456,-0.10977337687930533,-0.06802901559464798,0.0665306203223742
1681140152767414000,2.5174140625,0.021757174283266068,0.007404714822769165,-0.0008401319500990212,-0.11996027827262878,0.22606314718723297,-0.9666979908943176,0.0031238123774528503,0.017161771655082703,0.0024950504302978516,0.9894050318378455,-0.10966940904335937,-0.06799727857032378,0.06653370280179224
1681140152777472300,2.52747216796875,0.009194697253406048,0.008822797797620296,0.0016198831144720316,-0.11986549943685532,0.2258945107460022,-0.9667491316795349,0.00034350156784057617,0.012844324111938477,0.004743516445159912,0.9894179943782212,-0.10958642087570375,-0.0679428923012359,0.06653352008087535
1681140152787531300,2.53753125,-0.009384579956531525,0.004058402497321367,0.0016840653261169791,-0.11981388926506042,0.22584520280361176,-0.9667670726776123,-0.0018138214945793152,0.006545960903167725,0.006592512130737305,0.9894222781176865,-0.10956268380117368,-0.06791525088707516,0.06653649124406348
1681140152797590300,2.54759033203125,-0.019850030541419983,-0.00001718290150165558,0.005456805694848299,-0.11978743225336075,0.22593854367733002,-0.9667485356330872,0.0024779513478279114,0.0008374154567718506,0.007275819778442383,0.9894173079605373,-0.1096106194649517,-0.0679060866130843,0.06654227961297134
1681140152807648300,2.557648193359375,-0.027844306081533432,-0.0034041907638311386,0.0020255891140550375,-0.11978939920663834,0.22615596652030945,-0.9666974544525146,0.0019611194729804993,-0.0026301294565200806,0.006522834300994873,0.9894036900111624,-0.10972057940368264,-0.06791657179717676,0.06655274117680506
1681140152817707300,2.567707275390625,-0.016103416681289673,-0.007403642870485783,0.00448603043332696,-0.1198488250374794,0.2263711839914322,-0.9666396975517273,0.002218902111053467,-0.007606104016304016,0.0059005022048950195,0.989388253474588,-0.10982752032658022,-0.06795626036074413,0.06656541220374831
1681140152827765200,2.57776513671875,-0.0036965471226722,-0.0032808026298880577,-0.0010389636736363173,-0.11989916861057281,0.22648565471172333,-0.9666066765785217,0.001475796103477478,-0.006087884306907654,0.005745410919189453,0.9893792455410191,-0.10988360193881042,-0.06798719969194182,0.0665753540881477
1681140152837824000,2.587823974609375,0.012654995545744896,0.005073000676929951,-0.0008070022449828684,-0.11989250779151917,0.2264908254146576,-0.9666062593460083,0.001957423985004425,0.001673668622970581,0.006858944892883301,0.9893794828022303,-0.10988679891164771,-0.0679834535493758,0.06657013701156402
1681140152847883300,2.59788330078125,0.024445876479148865,0.009351368993520737,-0.002978277625516057,-0.11981996893882751,0.22637593746185303,-0.9666422009468079,0.0018085762858390808,0.010516583919525146,0.007016897201538086,0.9893888030014529,-0.10983082916024084,-0.06794186195929394,0.06656541268147789
1681140152857941200,2.607941162109375,0.031128862872719765,0.006770732346922159,-0.007454198785126209,-0.11975088715553284,0.2261369228363037,-0.9667066931724548,-0.0009765625,0.012449339032173157,0.0026715993881225586,0.9894064566201464,-0.10971253890337264,-0.06789560518889948,0.06654576780316332
1681140152868000300,2.618000244140625,0.04905726760625839,0.0027038194239139557,-0.002105240011587739,-0.11972925812005997,0.22577613592147827,-0.9667937159538269,0.003548920154571533,0.012642279267311096,0.002682328224182129,0.989429026806874,-0.10953001444191819,-0.0678699230974608,0.06653741512805565
1681140152878059300,2.628059326171875,0.04702894762158394,0.0030226665548980236,-0.0035537865478545427,-0.11969909816980362,0.22530975937843323,-0.9669062495231628,0.0031525567173957825,0.007905393838882446,0.004335999488830566,0.9894576758588242,-0.10929362193633395,-0.06783650256194214,0.06653451774059058
1681140152888117200,2.6381171875,0.045555420219898224,-0.0017087049782276154,-0.002686128718778491,-0.11968950927257538,0.22487951815128326,-0.967007577419281,0.0006557852029800415,0.00427679717540741,0.0044220685958862305,0.9894837688392291,-0.10907534277374689,-0.06781435334377249,0.06652691159372509
1681140152898176300,2.64817626953125,0.03760132938623428,-0.000668858177959919,-0.005178208462893963,-0.11972188949584961,0.22443950176239014,-0.9671058058738708,-0.00030366331338882446,0.002534806728363037,0.004611849784851074,0.9895088704808804,-0.10885065220029885,-0.06781332670759829,0.06652183241392065
1681140152908235300,2.6582353515625,0.03233706206083298,-0.006601049564778805,0.0002921908744610846,-0.1197604313492775,0.22408945858478546,-0.9671821594238281,-0.0022029727697372437,-0.0028372108936309814,0.005084991455078125,0.9895283383310202,-0.108671369679279,-0.06781920911732582,0.06651992915244515
1681140152918293200,2.668293212890625,0.03094707801938057,-0.006284482777118683,0.0030177233275026083,-0.11978568881750107,0.22380372881889343,-0.9672452211380005,-0.0025897175073623657,-0.002124220132827759,0.005956709384918213,0.9895423623827059,-0.10852318924035939,-0.06782414084183623,0.06654815470192735
1681140152928352000,2.67835205078125,0.02371792495250702,-0.00007106177508831024,0.0021511304657906294,-0.11982123553752899,0.2236020565032959,-0.9672874212265015,-0.0013334602117538452,-0.0021209120750427246,0.004885077476501465,0.9895513462366118,-0.1084176908157831,-0.067837166391789,0.06657346662135069
1681140152938410200,2.68841015625,0.023210860788822174,0.0024086078628897667,0.0008493774221278727,-0.11980447918176651,0.2234220653772354,-0.9673311114311218,-0.001106075942516327,0.0023010224103927612,0.004486203193664551,0.9895611703968799,-0.10832533888334989,-0.06782378740234919,0.06659148671351686
1681140152948469200,2.69846923828125,0.024832991883158684,0.000516165979206562,0.001159635721705854,-0.11977411806583405,0.22325123846530914,-0.967374324798584,-0.0005718618631362915,0.0029296129941940308,0.003751218318939209,0.9895714086930036,-0.10823860783434491,-0.06780301586833885,0.06660161335863725
1681140152958528300,2.7085283203125,0.023985814303159714,0.0010590674355626106,-0.0005918188253417611,-0.11975138634443283,0.22304925322532654,-0.9674237370491028,0.000610843300819397,0.00476430356502533,0.002442598342895508,0.9895828052039622,-0.10813534723143113,-0.0677855976909854,0.06661807673942491
1681140152968586200,2.718586181640625,0.023467563092708588,0.0020702695474028587,-0.003916775342077017,-0.1197323277592659,0.22282984852790833,-0.9674766659736633,0.0005307495594024658,0.0070589035749435425,0.005440473556518555,0.9895960509058644,-0.10802415402669567,-0.06776771948096012,0.06661939414632015
1681140152978645000,2.72864501953125,0.020716490224003792,0.0033285305835306644,-0.0038761890027672052,-0.11972727626562119,0.22262781858444214,-0.9675237536430359,0.0020210742950439453,0.005521401762962341,0.004694163799285889,0.9896089481669212,-0.1079224555636352,-0.06775587026063551,0.06660501414797589
1681140152988704300,2.738704345703125,0.011783981695771217,0.004665703978389502,-0.007996099069714546,-0.11973284929990768,0.22246599197387695,-0.9675602912902832,0.0003176555037498474,0.003699585795402527,0.006103992462158203,0.9896205049695876,-0.10784225610069033,-0.06774876459446129,0.06657078533381691
1681140152998762200,2.74876220703125,0.002585396869108081,0.0066459462977945805,-0.008791211992502213,-0.11971650272607803,0.22238856554031372,-0.9675801396369934,0.00030130892992019653,0.000511661171913147,0.008412599563598633,0.9896282930153176,-0.10780622924417416,-0.06773296576457394,0.06652868531153727
1681140153008821200,2.7588212890625,-0.012881442904472351,0.0067130583338439465,-0.007885737344622612,-0.1196918860077858,0.22241812944412231,-0.9675763845443726,0.0006886720657348633,-0.0009064674377441406,0.005067169666290283,0.9896306632471035,-0.1078254161753232,-0.06771627006668407,0.06647926218034016
1681140153018880300,2.76888037109375,-0.02522711269557476,0.00222912710160017,-0.00645514065399766,-0.11967385560274124,0.22262172400951385,-0.9675318002700806,0.0022575631737709045,-0.002193436026573181,0.004213869571685791,0.9896224141626665,-0.10793268541070135,-0.06771001150532904,0.06643415496176688
1681140153028938200,2.778938232421875,-0.023280074819922447,-0.01145845465362072,-0.014585238881409168,-0.11974692344665527,0.22286152839660645,-0.9674675464630127,0.0009573325514793396,-0.0052408576011657715,0.00385969877243042,0.9896096251745932,-0.10805600600032644,-0.0677505242008894,0.06638326406573435
1681140153038997200,2.788997314453125,-0.01944616250693798,-0.010134981013834476,-0.009225999936461449,-0.11989375203847885,0.22309467196464539,-0.9673956036567688,0.0009820908308029175,-0.004985719919204712,0.0016057491302490234,0.9895954994662842,-0.10817433631141554,-0.06782704220745313,0.06632313347364817
1681140153049055000,2.799054931640625,-0.010675573721528053,-0.008813786320388317,-0.003288748674094677,-0.11999140679836273,0.22326020896434784,-0.9673452973365784,-0.001743115484714508,-0.0017180293798446655,0.005034506320953369,0.9895842890791525,-0.10825716831090718,-0.0678802607941126,0.06630078060292958
1681140153059114200,2.8091142578125,0.00018596858717501163,0.001590784639120102,-0.004266821313649416,-0.12003661692142487,0.22334696352481842,-0.967319667339325,-0.003757849335670471,-0.007114842534065247,0.004734218120574951,0.9895793633334544,-0.10830154000378779,-0.0679038852959955,0.06627769616343825
1681140153069173000,2.819173095703125,0.020015066489577293,0.005188182462006807,-0.004563231021165848,-0.12001693993806839,0.22324131429195404,-0.9673464894294739,0.00008293986320495605,0.0035041123628616333,0.008056879043579102,0.9895878360237288,-0.10825017657462037,-0.06788703109775071,0.06625126797665638
1681140153079231200,2.829231201171875,0.026025928556919098,0.005873813293874264,-0.006103496998548508,-0.11997128278017044,0.22300870716571808,-0.9674057960510254,-0.0018395408987998962,0.0162946879863739,0.006208896636962891,0.9896041708726973,-0.1081345009856369,-0.06785294035280091,0.06623151204919724
1681140153089290200,2.839290283203125,0.023680217564105988,0.0072621190920472145,-0.0033207598607987165,-0.11990778893232346,0.2227620631456375,-0.9674705266952515,-0.003413662314414978,0.012040004134178162,0.0020926594734191895,0.9896217188830796,-0.1080120451319579,-0.0678095906534012,0.06621436904711596
1681140153099349200,2.849349365234375,0.02178843878209591,0.014810865744948387,-0.004210522398352623,-0.11979971081018448,0.22252105176448822,-0.967539370059967,-0.0005005002021789551,0.008527368307113647,0.0034890174865722656,0.9896403609834573,-0.10789393751090227,-0.06774374700748324,0.06619549436621558
1681140153109407200,2.8594072265625,0.01268069539219141,0.012635063380002975,-0.0016307178884744644,-0.11966446787118912,0.22232040762901306,-0.9676022529602051,-0.0016123056411743164,0.006225571036338806,0.007244527339935303,0.9896571757235708,-0.10779687316607998,-0.06766625099420386,0.06618149274060585
1681140153119466200,2.86946630859375,0.013795493170619011,0.004963594954460859,-0.0005305661470629275,-0.11957622319459915,0.22219470143318176,-0.9676420092582703,-0.0032721981406211853,0.002307683229446411,0.007330060005187988,0.9896678111568864,-0.10773611385294529,-0.06761600988699906,0.06617349824314366
1681140153129525200,2.879525146484375,0.0028507013339549303,0.0015630042180418968,-0.005250486545264721,-0.11957170069217682,0.2221175879240036,-0.9676602482795715,0.001484021544456482,-0.003932327032089233,0.006844758987426758,0.9896734691597935,-0.10769810832317858,-0.06760903452149399,0.06615730176710954
1681140153139583200,2.889583251953125,0.011234704405069351,-0.0045594703406095505,-0.004078589379787445,-0.11963435262441635,0.2220301777124405,-0.96767258644104,0.004583172500133514,-0.007278144359588623,0.006933391094207764,0.9896777454234753,-0.10765296762937876,-0.06763539295431728,0.06613905467433635
1681140153149642200,2.899642333984375,0.011722063645720482,-0.003702199086546898,-0.004828801844269037,-0.11968792974948883,0.22194033861160278,-0.9676865935325623,0.0025157779455184937,-0.0041823238134384155,0.00783240795135498,0.9896818907127954,-0.10760621829374101,-0.06765808937072595,0.06613020116325619
1681140153159700200,2.9097001953125,0.009304631501436234,-0.005805114284157753,-0.0008108371985144913,-0.11975258588790894,0.22188903391361237,-0.9676903486251831,0.0022905096411705017,0.001728355884552002,0.00560837984085083,0.9896833262441449,-0.10757867803057004,-0.06768796750591186,0.06612239910570925
1681140153169759200,2.91975927734375,0.007977046072483063,-0.0053071025758981705,-0.0020385542884469032,-0.11981438845396042,0.22184903919696808,-0.9676918387413025,0.002993188798427582,0.005842417478561401,0.00541156530380249,0.9896837538432834,-0.10755652297812585,-0.0677175668560573,0.06612135213620778
1681140153179818200,2.929818359375,0.0005502360872924328,-0.0021769898012280464,-0.0013176900101825595,-0.11985798925161362,0.22182480990886688,-0.9676920175552368,0.00303678959608078,0.007255226373672485,0.005152285099029541,0.9896841130326893,-0.10754314427831724,-0.0677382259998826,0.06611718249731377
1681140153189876200,2.939876220703125,-0.00028466503135859966,-0.0077672312036156654,0.001997679239138961,-0.11991384625434875,0.2218594253063202,-0.9676771759986877,0.00026976317167282104,0.006884902715682983,0.0027875900268554688,0.9896798124263178,-0.10755844280033457,-0.06776874148932384,0.0661262168874553
1681140153199935200,2.949935302734375,-0.0045988792553544044,-0.010526366531848907,0.0014550334308296442,-0.12001526355743408,0.22190231084823608,-0.9676547646522522,0.0006916150450706482,-0.0013671964406967163,0.002810955047607422,0.9896734616849006,-0.1075765183571891,-0.0678226937202196,0.06613608348873903
1681140153209994200,2.959994140625,-0.0011551456991583109,-0.008885858580470085,0.005634332075715065,-0.12009351700544357,0.22190916538238525,-0.9676434397697449,0.001960068941116333,-0.003525570034980774,0.003074347972869873,0.9896691176904553,-0.1075761440139871,-0.06786487451496243,0.06615788628193751
1681140153220052200,2.97005224609375,-0.009954070672392845,-0.004164506681263447,0.0002796740154735744,-0.12012500315904617,0.2219545990228653,-0.9676291346549988,-0.0012280568480491638,-0.0014957934617996216,0.006859481334686279,0.989664167115234,-0.10759689855746359,-0.06788473550711215,0.06617838261628509
1681140153230111200,2.980111328125,-0.008251245133578777,-0.0012400895357131958,0.00410876702517271,-0.12014207988977432,0.22204440832138062,-0.9676064252853394,-0.0025385022163391113,-0.0011583566665649414,0.00549393892288208,0.9896575284508943,-0.10764114321242374,-0.06789828333851168,0.06619224436507676
1681140153240169200,2.990169189453125,-0.009071951732039452,-0.0030880067497491837,0.0012966819340363145,-0.12015556544065475,0.22214215993881226,-0.9675822854042053,-0.0028606951236724854,0.0017956346273422241,0.004096567630767822,0.9896511107279191,-0.10769013291098675,-0.06790937008158113,0.06619733971926425
1681140153250229000,3.00022900390625,-0.019488904625177383,-0.0020994413644075394,0.0028495709411799908,-0.12016233801841736,0.22230781614780426,-0.9675434231758118,-0.0019841864705085754,0.0028507113456726074,0.0017535686492919922,0.989640681273346,-0.10777362561716824,-0.0679200743696609,0.06620637527112071
1681140153260287700,3.010287841796875,-0.021927855908870697,-0.0019435295835137367,0.00005389121361076832,-0.12016422301530838,0.22253690659999847,-0.9674904942512512,-0.0015245229005813599,0.0025605708360671997,0.0028298497200012207,0.9896272390440287,-0.10789006366840165,-0.06792992290455402,0.06620803161090295
1681140153270346000,3.020345947265625,-0.016928836703300476,-0.00542188435792923,0.001230742083862424,-0.12017761170864105,0.22276617586612701,-0.9674360752105713,-0.0025487467646598816,0.0014615505933761597,0.005720317363739014,0.9896128802777485,-0.10800587104067777,-0.06794622441218087,0.06621542164141997
1681140153280404700,3.03040478515625,-0.01626373827457428,-0.00879065040498972,-0.006216681096702814,-0.12024781852960587,0.22291341423988342,-0.9673934578895569,-0.0009679198265075684,0.000383526086807251,0.005601406097412109,0.9896032822254132,-0.10807991430555446,-0.06798536363152856,0.06619759569241757
1681140153290464000,3.040464111328125,-0.012455417774617672,-0.00747158657759428,-0.0007028726395219564,-0.12033207714557648,0.2230367511510849,-0.9673545360565186,0.00264112651348114,0.0003059804439544678,0.005943953990936279,0.9895943724241286,-0.10814109206070899,-0.06803113735620168,0.06618381744968341
1681140153300521700,3.050521728515625,-0.0027272896841168404,-0.010536602698266506,-0.0031785471364855766,-0.12043558061122894,0.22309650480747223,-0.967327892780304,0.001340813934803009,0.0007344931364059448,0.00620722770690918,0.9895884015480001,-0.10816910161562798,-0.0680845454311188,0.06617311264148318
1681140153310581000,3.0605810546875,0.01379522867500782,-0.008721658028662205,-0.0021561598405241966,-0.12054574489593506,0.22303128242492676,-0.967329204082489,-0.0002579987049102783,-0.0011839121580123901,0.005643963813781738,0.9895889274110037,-0.10813271985362219,-0.06813746132996175,0.06617057879596805
1681140153320639700,3.0706396484375,0.017585253342986107,-0.0056133996695280075,-0.003938400186598301,-0.12062578648328781,0.22286854684352875,-0.9673567414283752,0.0036825090646743774,0.006211474537849426,0.004527091979980469,0.9895958520228393,-0.10804750208760601,-0.06817165460587926,0.0661699253526528
1681140153330697700,3.08069775390625,0.020639898255467415,0.0012096194550395012,0.0005013555055484176,-0.12064787745475769,0.22267962992191315,-0.9673974514007568,0.0015531107783317566,0.00864344835281372,0.003759145736694336,0.9896060193261728,-0.10795048086572129,-0.06817590535482686,0.06617244905272054
1681140153340757000,3.090757080078125,0.017417527735233307,0.0019513089209794998,-0.0015771883772686124,-0.12064918130636215,0.222509503364563,-0.9674364328384399,-0.0019703656435012817,0.006189063191413879,0.005812287330627441,0.9896158985040717,-0.10786389491343262,-0.06817001584846416,0.06617173998768619
1681140153350814700,3.100814697265625,0.007997659035027027,0.005248302593827248,-0.0015281863743439317,-0.12062013894319534,0.22238825261592865,-0.9674679636955261,-0.002701312303543091,0.002922847867012024,0.005996346473693848,0.9896240140412007,-0.10780320435482128,-0.0681504829066041,0.06616951657972855
1681140153360874000,3.1108740234375,-0.012211764231324196,0.003786110784858465,0.0033257976174354553,-0.12059062719345093,0.22242407500743866,-0.9674634337425232,0.0013127624988555908,-0.001400679349899292,0.004633784294128418,0.9896225356689927,-0.1078219904844483,-0.06813747920982341,0.06617453216810845
1681140153370932700,3.1209326171875,-0.017431028187274933,-0.0002491110935807228,0.0016850242391228676,-0.12056146562099457,0.22257038950920105,-0.9674333930015564,0.00026125460863113403,-0.004186779260635376,0.004451155662536621,0.9896141662770557,-0.10789655493490077,-0.06812957747529064,0.06618620077494872
1681140153380991000,3.130990966796875,-0.02689361199736595,-0.0035523949190974236,0.0001589262974448502,-0.12057678401470184,0.2228003740310669,-0.967378556728363,0.00012399256229400635,-0.006842896342277527,0.004655718803405762,0.9896005405783317,-0.10801336127178222,-0.06814574488972908,0.06618322152555249
1681140153391050000,3.141050048828125,-0.028884058818221092,-0.0026008477434515953,-0.00025306473253294826,-0.1206243708729744,0.22306591272354126,-0.9673113822937012,0.0007514059543609619,-0.003522619605064392,0.005122661590576172,0.9895840943471024,-0.10814767993071538,-0.06817898445892907,0.06617483506331484
1681140153401109000,3.15110888671875,-0.022468743845820427,-0.0042204661294817924,-0.002974921837449074,-0.12064477056264877,0.2233574390411377,-0.9672415852546692,0.0006649941205978394,-0.0016626566648483276,0.005419015884399414,0.9895677215604108,-0.10829675007116221,-0.0681983608233067,0.06615629856312687
1681140153411167000,3.1611669921875,-0.017228974029421806,-0.007173378020524979,-0.0007578403456136584,-0.12070096284151077,0.2235833704471588,-0.9671823978424072,-0.0005605444312095642,-0.0008815228939056396,0.004551112651824951,0.9895534881262,-0.10841079009315989,-0.06823421914317167,0.0661458839955827
1681140153421225700,3.171225830078125,-0.005699004512280226,-0.0022294707596302032,-0.0022663078270852566,-0.1207701712846756,0.22370147705078125,-0.9671464562416077,0.00031737983226776123,0.003501713275909424,0.004301548004150391,0.9895458187571062,-0.10847021148984139,-0.0682714706322278,0.06612562886381901
1681140153431285000,3.181284912109375,0.0011466508731245995,-0.0005258461460471153,-0.00007479271152988076,-0.120796799659729,0.22372058033943176,-0.9671387076377869,0.001457899808883667,0.007892400026321411,0.00482785701751709,0.9895441822817473,-0.10847959269783244,-0.06828495148680747,0.06611911715574083
1681140153441342700,3.1913427734375,0.005712507292628288,-0.00014686211943626404,-0.0017318114405497909,-0.12078221142292023,0.22368592023849487,-0.9671485424041748,0.0008024424314498901,0.0081559419631958,0.004959762096405029,0.9895468015966118,-0.10846245951404947,-0.06827612985185295,0.0661179880437386
1681140153451402000,3.201402099609375,0.00994187407195568,0.0013916464522480965,0.0013505311217159033,-0.12078484147787094,0.2235805243253708,-0.9671725630760193,-0.000034168362617492676,0.006353989243507385,0.006235003471374512,0.9895531146637728,-0.10840897695854775,-0.0682730433330499,0.06611429551024739
1681140153461460000,3.2114599609375,0.010912169702351093,-0.0026857201009988785,0.0038790428079664707,-0.12078405916690826,0.22344674170017242,-0.9672036170959473,0.0007127299904823303,0.0025967955589294434,0.0033974051475524902,0.9895599345486296,-0.10833979303540603,-0.06826928054692881,0.06613005023819009
1681140153471518700,3.221518798828125,0.004055062308907509,0.0019465824589133263,0.003043609205633402,-0.12077424675226212,0.22335970401763916,-0.9672248959541321,0.0016947463154792786,-0.0005357861518859863,0.00428849458694458,0.9895636359795574,-0.10829398934296605,-0.06826383872403952,0.06615593297496526
1681140153481578000,3.231577880859375,-0.0013806888600811362,-0.0006134649738669395,0.001447736518457532,-0.12075839191675186,0.22333915531635284,-0.9672316312789917,-0.0005183741450309753,-0.0013544708490371704,0.006110966205596924,0.9895646620650803,-0.10828335258208244,-0.06825609753050474,0.0661655344399928
1681140153491635700,3.2416357421875,-0.002975656185299158,-0.004211395047605038,0.002506875665858388,-0.12079473584890366,0.22336868941783905,-0.9672203063964844,0.0014253109693527222,-0.0013992488384246826,0.0068778395652771,0.9895612490936587,-0.10829682514514842,-0.06827634193267873,0.06617234562822305
1681140153501695000,3.251695068359375,0.005374738946557045,-0.007066071033477783,0.0008001089445315301,-0.12084896117448807,0.22336293756961823,-0.967214822769165,0.0005029812455177307,-0.0018817931413650513,0.005712747573852539,0.9895592233017294,-0.10829155022323013,-0.0683046271419039,0.06618239053339003
1681140153511753700,3.261753662109375,0.008070923388004303,-0.002640428952872753,-0.0013024567160755396,-0.1208835318684578,0.223335862159729,-0.9672167897224426,0.0014835894107818604,-0.00206834077835083,0.0057604312896728516,0.9895591979355226,-0.10827625198080676,-0.06832182623449656,0.06618928223531614
1681140153521812000,3.27181201171875,0.009020339697599411,-0.0023114951327443123,-0.0019450774416327477,-0.12091515213251114,0.22328448295593262,-0.967224657535553,0.001179523766040802,0.0022707730531692505,0.005753040313720703,0.9895607882372036,-0.10824859503291373,-0.06833667488351353,0.06619685416501479
1681140153531870700,3.28187060546875,0.010175885632634163,-0.0017932439222931862,-0.004856444895267487,-0.12096752226352692,0.22319932281970978,-0.9672377705574036,-0.0007822662591934204,0.006964072585105896,0.0045455098152160645,0.9895649432515985,-0.10820452174776778,-0.06835851922330222,0.0661842380126307
1681140153541930000,3.291929931640625,0.00543748214840889,-0.0018892847001552582,-0.00565470103174448,-0.12099427729845047,0.22310927510261536,-0.9672552347183228,0.0009382143616676331,0.008686825633049011,0.0045934319496154785,0.9895707677254805,-0.10815937942459225,-0.06836623734396716,0.06616244942418488
1681140153551988000,3.301988037109375,0.00597970187664032,-0.00295401643961668,0.00041384404175914824,-0.12101052701473236,0.22306208312511444,-0.9672640562057495,0.0008476600050926208,0.005163446068763733,0.004297137260437012,0.9895736787721628,-0.10813551798489825,-0.0683716105290043,0.06615292894849523
1681140153562046700,3.312046630859375,0.006482054479420185,0.0005738567560911179,-0.000853074889164418,-0.12103620916604996,0.22300100326538086,-0.9672749638557434,-0.0017206594347953796,0.0014251023530960083,0.004689455032348633,0.9895761640533715,-0.10810333792933896,-0.06838273746014714,0.066157262671428
1681140153572105000,3.32210498046875,0.008619774132966995,-0.0020504221320152283,0.0006409584311768413,-0.12103717774152756,0.22292636334896088,-0.9672920107841492,0.00008083879947662354,-0.00008718669414520264,0.0047980546951293945,0.9895803523859996,-0.10806523817416841,-0.06838051522928697,0.06615842353887882
1681140153582163700,3.332163818359375,-0.004418849945068359,-0.00027878861874341965,0.003442018060013652,-0.12104456126689911,0.22291722893714905,-0.9672932028770447,0.00042392313480377197,0.001295238733291626,0.0035480260848999023,0.9895802365766915,-0.10805988801522365,-0.06838464175170472,0.06616523758398762
1681140153592223000,3.342222900390625,-0.0011668635997921228,-0.0009978413581848145,0.001671548467129469,-0.12105171382427216,0.22293803095817566,-0.967287540435791,0.0006446987390518188,-0.0000683218240737915,0.00506824254989624,0.9895779238141108,-0.1080693655612109,-0.06839046203006298,0.06617817857911902
1681140153602281000,3.352281005859375,-0.006953886244446039,-0.0035378485918045044,0.0036088917404413223,-0.12106740474700928,0.22299236059188843,-0.9672730565071106,0.0021252259612083435,-0.001312851905822754,0.00490117073059082,0.9895736944740862,-0.10809593422378133,-0.06840142449369548,0.06618703847775345
1681140153612340000,3.362340087890625,-0.014326049014925957,-0.0002216799184679985,0.0028419014997780323,-0.1210881844162941,0.2231300175189972,-0.9672386646270752,0.000879533588886261,-0.0006265342235565186,0.00562971830368042,0.9895640766268124,-0.10816453037732518,-0.06841854393858891,0.06619952059444051
1681140153622399000,3.37239892578125,-0.020933538675308228,-0.005338127724826336,0.004203522112220526,-0.12110329419374466,0.2233460396528244,-0.9671869277954102,0.0009404122829437256,-0.0009188354015350342,0.005669534206390381,0.9895501461383114,-0.10827314656389087,-0.06843583220539198,0.06621254204034496
1681140153632456700,3.382456787109375,-0.02401960827410221,-0.005565029568970203,0.0045872838236391544,-0.12113670259714127,0.2235768586397171,-0.9671294093132019,0.001187451183795929,-0.003041774034500122,0.004498183727264404,0.9895343681607789,-0.10838834924798575,-0.06846356579546832,0.06623128344045971
1681140153642516000,3.392515869140625,-0.01538875699043274,-0.007519939914345741,0.0047954898327589035,-0.12119648605585098,0.2237883061170578,-0.9670730233192444,0.0012014508247375488,-0.0027954429388046265,0.005525112152099609,0.9895190973455129,-0.1084931277810078,-0.06850353108844046,0.06624668932033718
1681140153652574700,3.40257470703125,-0.018331283703446388,-0.004026671871542931,0.004136890172958374,-0.12125781923532486,0.22395318746566772,-0.9670271277427673,0.0012017562985420227,0.0005186796188354492,0.006104886531829834,0.9895060454458078,-0.10857374758461477,-0.06854315422007518,0.06626792858201129
1681140153662633000,3.412633056640625,-0.018948763608932495,-0.004004700109362602,0.006096017546951771,-0.12129365652799606,0.22414284944534302,-0.9669787287712097,-0.0002425163984298706,0.0014429092407226562,0.004347443580627441,0.9894921684046688,-0.10866742170886408,-0.0685713481777007,0.06629388014085016
1681140153672691700,3.422691650390625,-0.018765272572636604,0.0002528950572013855,0.005735692102462053,-0.12129725515842438,0.22432585060596466,-0.9669358134269714,0.0015311092138290405,0.003487691283226013,0.00422823429107666,0.9894798592263726,-0.10875896089979176,-0.06858258573261677,0.06631599282915415
1681140153682749700,3.432749755859375,-0.029869960620999336,0.001090826466679573,0.005840513855218887,-0.1212562620639801,0.22457550466060638,-0.9668830037117004,0.0007119178771972656,0.0032990574836730957,0.0058234333992004395,0.9894647150290272,-0.10888554419185796,-0.06857425994838472,0.06634195622603375
1681140153692809000,3.44280908203125,-0.04801620543003082,0.004708996973931789,0.005714546423405409,-0.12119605392217636,0.22496221959590912,-0.9668006896972656,0.0006059333682060242,0.0012186318635940552,0.00450509786605835,0.989442987458345,-0.10908338532029484,-0.06856007635183357,0.06635527478248454
1681140153702868000,3.452867919921875,-0.06261976063251495,0.005032404325902462,0.008696647360920906,-0.12112396210432053,0.2255028486251831,-0.9666837453842163,0.000060811638832092285,-0.0015497654676437378,0.003640472888946533,0.9894121908886451,-0.10935957777015282,-0.06854641298796695,0.06637439755292741
1681140153712926000,3.462926025390625,-0.07424578815698624,0.0025567300617694855,0.010277766734361649,-0.12106385082006454,0.22617772221565247,-0.9665336012840271,-0.0006859451532363892,-0.006298750638961792,0.005473971366882324,0.9893724462956343,-0.10970325914431288,-0.06854484538364043,0.0664014710317107
1681140153722984700,3.472984619140625,-0.06970091909170151,-0.0027507012709975243,0.009193114005029202,-0.12105312198400497,0.2269153594970703,-0.9663620591163635,0.0006460994482040405,-0.008104503154754639,0.00443267822265625,0.9893279257632301,-0.11007810986437669,-0.06856962878647468,0.06641910142211854
1681140153733044000,3.4830439453125,-0.06084803491830826,-0.004783491604030132,0.004802627023309469,-0.12107327580451965,0.22754451632499695,-0.9662115573883057,0.0015665218234062195,-0.00937451422214508,0.0031377673149108887,0.9892884636530588,-0.11039649835190737,-0.06860637005326214,0.066440996647659
1681140153743102000,3.49310205078125,-0.04593904688954353,-0.0020137540996074677,0.0012882663868367672,-0.12110068649053574,0.22808837890625,-0.9660798907279968,0.0009072944521903992,-0.006256267428398132,0.004165768623352051,0.9892557198414403,-0.11067341386481112,-0.06864005985118964,0.06643173622566405
1681140153753161000,3.503160888671875,-0.018572404980659485,0.00007363222539424896,0.0022185086272656918,-0.12110032141208649,0.22840538620948792,-0.9660050272941589,-0.000939391553401947,0.0018953382968902588,0.00515902042388916,0.9892369213390734,-0.11083510713205773,-0.0686518030586374,0.06642965760296878
1681140153763219700,3.5132197265625,0.006700647063553333,-0.0002050185576081276,-0.002606819849461317,-0.1210988312959671,0.2284807562828064,-0.9659873843193054,0.0014700144529342651,0.007496252655982971,0.0043021440505981445,0.9892328203901083,-0.11087389880150555,-0.06865337958716317,0.06642464365086058
1681140153773277700,3.523277587890625,0.03155886009335518,0.00636792927980423,-0.003623348195105791,-0.12106683105230331,0.22828298807144165,-0.966038167476654,0.0030096620321273804,0.013614416122436523,0.0036205053329467773,0.9892461189318241,-0.11077462284071035,-0.06862878180227366,0.06641720744848222
1681140153783337000,3.5333369140625,0.042314596474170685,0.01183391734957695,-0.00642616581171751,-0.12099311500787735,0.22790835797786713,-0.9661358594894409,0.001120157539844513,0.016583040356636047,0.004587948322296143,0.9892722567287411,-0.11058750453595594,-0.06857468796428381,0.06639518431906954
1681140153793395700,3.543395751953125,0.045683491975069046,0.014209456741809845,-0.0060850149020552635,-0.12088705599308014,0.22742265462875366,-0.9662635326385498,-0.0012594684958457947,0.013223543763160706,0.006088972091674805,0.9893061340777043,-0.11034485741294851,-0.06849987609022366,0.06637210762763793
1681140153803454000,3.553453857421875,0.041596125811338425,0.014448276720941067,-0.0046545774675905704,-0.12076114118099213,0.2269638329744339,-0.966387152671814,-0.0019957274198532104,0.008051842451095581,0.006304144859313965,0.9893388268931921,-0.11011642240043266,-0.06841626670783507,0.06635068496057575
1681140153813512700,3.5635126953125,0.03276428207755089,0.008129393681883812,0.002239281078800559,-0.12065119296312332,0.2265794426202774,-0.9664911031723022,-0.0006103217601776123,0.005048796534538269,0.005553543567657471,0.9893653491034996,-0.10992416013481716,-0.06834563287756575,0.06634761118117184
1681140153823571000,3.573571044921875,0.03804685175418854,0.005586291663348675,0.0010241339914500713,-0.12058820575475693,0.22622928023338318,-0.9665809869766235,0.0005321353673934937,0.0011417567729949951,0.00437694787979126,0.9893876680186544,-0.10974732352449951,-0.0683010204378012,0.06635318397460581
1681140153833630000,3.5836298828125,0.028482375666499138,0.0026192637160420418,-0.0020310443360358477,-0.12057018280029297,0.22591270506381989,-0.966657280921936,0.0017348229885101318,-0.0024936795234680176,0.00448375940322876,0.989406658763035,-0.1095863455906265,-0.0682802552887418,0.06635723460026532
1681140153843689000,3.59368896484375,0.02745945379137993,0.004412370268255472,0.00004275917308405042,-0.12052515149116516,0.22568179666996002,-0.9667168259620667,0.0010031461715698242,-0.0006300956010818481,0.00567251443862915,0.9894213565186563,-0.1094698213083956,-0.06824914297962562,0.06636152718191878
1681140153853747000,3.603746826171875,0.031111449003219604,0.0045761545188724995,-0.0005910731852054596,-0.12046968936920166,0.22544077038764954,-0.9667800068855286,-0.0008376017212867737,0.0013504475355148315,0.007414102554321289,0.9894367484414144,-0.1093481318818931,-0.06821288366524116,0.06637050105000686
1681140153863805700,3.6138056640625,0.028141755610704422,0.005148733966052532,-0.0004081139340996742,-0.12041057646274567,0.22522275149822235,-0.9668381810188293,-0.0029413923621177673,0.0035978704690933228,0.00533604621887207,0.9894509189059792,-0.1092383163741944,-0.06817560508136088,0.06637897605311364
1681140153873865000,3.623864990234375,0.017860623076558113,0.006485641002655029,0.0033549326471984386,-0.12035020440816879,0.22505421936511993,-0.9668849110603333,-0.0011554509401321411,0.004651427268981934,0.0031397342681884766,0.9894613624312786,-0.10915298584471032,-0.06814080482895073,0.06639847071228631
1681140153883922700,3.633922607421875,0.015085609629750252,0.004366297274827957,0.0033376221545040607,-0.12030752748250961,0.2249283641576767,-0.9669195413589478,-0.0008929446339607239,0.0006879270076751709,0.0030522942543029785,0.9894690862711568,-0.1090890044468377,-0.06811629803261385,0.0664155515578168
1681140153893982000,3.64398193359375,0.00811419915407896,0.00003529898822307587,0.005779420956969261,-0.12029436230659485,0.22483889758586884,-0.9669419527053833,-0.00003635883331298828,-0.0036781728267669678,0.0036545395851135254,0.9894732903764785,-0.10904246540883014,-0.06810846451950993,0.06643581661542713
1681140153904040700,3.654040771484375,-0.001431741751730442,-0.0012016398832201958,0.004499133210629225,-0.12029414623975754,0.22482696175575256,-0.9669447541236877,0.00014653056859970093,-0.0032695233821868896,0.005335807800292969,0.9894726784873858,-0.10903503366789742,-0.06811007454348326,0.06645556029955915
1681140153914099000,3.664098876953125,-0.0017992579378187656,-0.000644240528345108,0.0028764691669493914,-0.12030718475580215,0.22484730184078217,-0.9669383764266968,0.0013955309987068176,-0.004327446222305298,0.004993796348571777,0.9894698836552672,-0.10904381404817046,-0.06811933725314304,0.06647272254408731
1681140153924158000,3.674157958984375,0.001689669443294406,-0.001688782125711441,0.00217398046515882,-0.12030819058418274,0.22487135231494904,-0.9669327139854431,0.0015033483505249023,-0.003802195191383362,0.00445401668548584,0.9894675895932205,-0.10905508005799171,-0.06812227405946841,0.0664864652200832
1681140153934217000,3.684217041015625,0.0021176396403461695,-0.0012038201093673706,-0.0013051731511950493,-0.12031247466802597,0.22485646605491638,-0.9669356346130371,0.00004278123378753662,-0.00017096102237701416,0.004914700984954834,0.9894681696528753,-0.10904722871345432,-0.06812409827642137,0.06648853453291519
1681140153944275000,3.69427490234375,0.005852750036865473,0.005293077323585749,-0.0025479106698185205,-0.12031562626361847,0.22482560575008392,-0.9669423699378967,0.0013429448008537292,0.0026522278785705566,0.0033956170082092285,0.9894707350442927,-0.10903235602104824,-0.06812302876063465,0.06647502483280167
1681140153954333700,3.704333740234375,0.008359849452972412,0.011401303112506866,-0.005399889778345823,-0.1202552318572998,0.2247702181339264,-0.9669628143310547,0.0015114173293113708,0.002463504672050476,0.005155503749847412,0.9894776495966215,-0.10900780756790354,-0.06808748010548338,0.0664486728801464
1681140153964392000,3.714391845703125,0.0016180037055164576,0.010478817857801914,-0.00719517981633544,-0.1201581358909607,0.22472143173217773,-0.9669861793518066,-0.0007371678948402405,0.0022376179695129395,0.006338536739349365,0.9894861062404834,-0.10898851798490466,-0.06803237988241151,0.0664109179451882
1681140153974451000,3.724450927734375,-0.011810453608632088,0.010276684537529945,-0.009653810411691666,-0.12006977200508118,0.22475388646125793,-0.9669896364212036,-0.001725800335407257,0.0015032589435577393,0.003961622714996338,0.9894902076756713,-0.10901101646565965,-0.0679836926087444,0.06636313843594238
1681140153984510000,3.734510009765625,-0.023917317390441895,0.0006424160674214363,-0.010712416842579842,-0.12003587931394577,0.2249080091714859,-0.9669579863548279,-0.0008441582322120667,-0.002724975347518921,0.002541482448577881,0.9894857013739672,-0.10909410242702938,-0.06796671285687705,0.0663111104076386
1681140153994568000,3.74456787109375,-0.03700089454650879,0.003443528898060322,-0.0021916329860687256,-0.12003087997436523,0.22520126402378082,-0.9668903946876526,-0.00046769529581069946,-0.006573513150215149,0.0015888214111328125,0.9894715358124656,-0.10924661858284093,-0.06797052460343966,0.06626712944627322
1681140154004626700,3.754626708984375,-0.04557336866855621,0.0043187933042645454,0.0016713887453079224,-0.11998584866523743,0.22558674216270447,-0.9668061137199402,-0.001672394573688507,-0.007508307695388794,0.00397646427154541,0.9894516279234027,-0.10944567417215433,-0.06796025622989904,0.06624712879188671
1681140154014686000,3.76468603515625,-0.04398772493004799,0.0064895362593233585,0.004045330453664064,-0.11993681639432907,0.2260362058877945,-0.966707170009613,-0.0010958164930343628,-0.007789924740791321,0.007692277431488037,0.9894270725466718,-0.10967649805319846,-0.06795194398165216,0.0662410497969958
1681140154024743700,3.77474365234375,-0.02553683891892433,0.0019200015813112259,0.00559566356241703,-0.11988647282123566,0.22641466557979584,-0.9666248559951782,-0.000016994774341583252,-0.0027362555265426636,0.006251931190490723,0.9894058746476272,-0.10987035133081882,-0.06794164989027682,0.0662474382948626
1681140154034803000,3.784802978515625,-0.014527596533298492,0.0023008333519101143,0.004809764213860035,-0.11985904723405838,0.22660130262374878,-0.9665845632553101,-0.0025011003017425537,0.0006629228591918945,0.004090607166290283,0.9893945989701456,-0.1099651827613322,-0.06793665558536721,0.06626313210126365
1681140154044861700,3.79486181640625,0.004196556285023689,0.004166143946349621,0.0016395372804254293,-0.11982244998216629,0.22666673362255096,-0.9665737152099609,0.0005445852875709534,0.0033288300037384033,0.0032558441162109375,0.9893907694820908,-0.10999841269673823,-0.06792259039979592,0.06628058437987684
1681140154054920000,3.804919921875,0.013803377747535706,0.008257025852799416,-0.00002014468191191554,-0.11977174133062363,0.22659601271152496,-0.9665966033935547,0.0010431855916976929,0.00956408679485321,0.005796372890472412,0.9893965105126149,-0.10996394427192013,-0.06789424873738333,0.0662804859136479
1681140154064979000,3.81497900390625,0.022203359752893448,0.007669633254408836,-0.004743154626339674,-0.1196996197104454,0.22639364004135132,-0.9666529297828674,-0.0006768703460693359,0.011307582259178162,0.007027685642242432,0.9894110816498657,-0.1098634938823039,-0.06784938003201893,0.06627422098693699
1681140154075038000,3.825037841796875,0.02148457244038582,0.0009954851120710373,-0.0012349721509963274,-0.11967839300632477,0.22613012790679932,-0.9667172431945801,0.0012397617101669312,0.009740069508552551,0.006985127925872803,0.9894283289534528,-0.10973081754102317,-0.0678271057736169,0.06626090502191252
1681140154085096000,3.835095947265625,0.01310040894895792,-0.002860473468899727,-0.0025633571203798056,-0.11970275640487671,0.22593748569488525,-0.9667592644691467,0.003263026475906372,0.006667301058769226,0.0045705437660217285,0.9894394298632542,-0.10963250871319344,-0.06783118630487284,0.06625291738490191
1681140154095154700,3.84515478515625,0.0037798781413584948,-0.003270333632826805,-0.001752424519509077,-0.11974186450242996,0.2258368581533432,-0.9667779207229614,0.004873789846897125,-0.00028161704540252686,0.006542325019836426,0.9894443465022252,-0.10958033051804131,-0.06784670970947086,0.06624920424474506
1681140154105213000,3.855212890625,-0.011305305175483227,-0.007818896323442459,0.001903722994029522,-0.11980929970741272,0.22587451338768005,-0.9667608141899109,0.003613702952861786,-0.00416448712348938,0.007257580757141113,0.9894402244723925,-0.1095976732033947,-0.06788188967270413,0.066246136244972
1681140154115271700,3.865271728515625,-0.023709245026111603,-0.013084763661026955,0.004996984265744686,-0.11990710347890854,0.22606495022773743,-0.9667041301727295,0.002460293471813202,-0.004019230604171753,0.006621122360229492,0.9894250268281327,-0.10969080538560629,-0.0679400390983289,0.0662591695180673
1681140154125331000,3.8753310546875,-0.02874418906867504,-0.013832430355250835,0.009234500117599964,-0.12001727521419525,0.22635947167873383,-0.9666215777397156,0.0013650134205818176,-0.006022721529006958,0.005455136299133301,0.9894017334309907,-0.10983490399318309,-0.06801109042371868,0.06629636207781527
1681140154135389000,3.885388916015625,-0.02150997892022133,-0.011222266592085361,0.010369272902607918,-0.12012545019388199,0.22665803134441376,-0.9665381908416748,0.0026938989758491516,-0.00485643744468689,0.0030066370964050293,0.9893776906464559,-0.10998067104173707,-0.06808207430229157,0.06634037459967716
1681140154145448000,3.895447998046875,-0.002315059071406722,-0.012121698819100857,0.005998013541102409,-0.12021925300359726,0.22682048380374908,-0.9664884209632874,0.0015822574496269226,-0.0006243586540222168,0.003780841827392578,0.9893615528616249,-0.11005688662823367,-0.0681416489603128,0.06639384584685938
1681140154155507000,3.9055068359375,0.01083376631140709,-0.004709056578576565,0.007513618562370539,-0.12028016895055771,0.22682708501815796,-0.9664792418479919,0.0001935809850692749,0.003244757652282715,0.003725886344909668,0.9893566966701478,-0.11005574848818335,-0.06817696504680137,0.06643225687017931
1681140154165564700,3.915564697265625,0.03169049695134163,-0.0038086585700511932,0.002120237797498703,-0.1202995777130127,0.22663412988185883,-0.9665220975875854,-0.0006414949893951416,0.009693816304206848,0.0038145780563354492,0.9893649976420851,-0.1099542882086043,-0.0681835492653958,0.06646970953339172
1681140154175624000,3.9256240234375,0.04739569127559662,0.002764821983873844,-0.0011471945326775312,-0.12027178704738617,0.22624313831329346,-0.9666171669960022,-0.0005319640040397644,0.012953460216522217,0.004352092742919922,0.9893875092047453,-0.10975446449426551,-0.06815697031831981,0.06649171014270293
1681140154185682700,3.9356826171875,0.0511128269135952,0.0014943284913897514,-0.005752705503255129,-0.12023352831602097,0.2257491648197174,-0.9667373895645142,0.00019272416830062866,0.01327960193157196,0.00486910343170166,0.9894177376783363,-0.10950387550735789,-0.06811897074517913,0.06649401847574977
1681140154195741000,3.945740966796875,0.03587767854332924,0.0013119019567966461,-0.005045369733124971,-0.12021578848361969,0.22532643377780914,-0.9668382406234741,-0.002357982099056244,0.010452210903167725,0.003993332386016846,0.9894440811805502,-0.10929003481867854,-0.06809236146760994,0.06648081382691583
1681140154205800000,3.955800048828125,0.015254399739205837,-0.0005732337012887001,-0.004886539187282324,-0.1202266737818718,0.22505399584770203,-0.9669003486633301,-0.0004550069570541382,0.0026680082082748413,0.0034450888633728027,0.9894609965655661,-0.10915222043635589,-0.06808542650618121,0.0664625776813339
1681140154215859000,3.96585888671875,-0.008322564885020256,-0.0014725830405950546,-0.0005618315772153437,-0.12022989988327026,0.2250017672777176,-0.9669120907783508,0.0006163418292999268,-0.006221413612365723,0.006066083908081055,0.989464363363234,-0.10912591669480312,-0.06808442588020586,0.06645682671598199
1681140154225917000,3.9759169921875,-0.026103105396032333,-0.009271683171391487,0.0007466326933354139,-0.12027015537023544,0.22518672049045563,-0.9668640494346619,0.0004124566912651062,-0.01110607385635376,0.00617063045501709,0.9894523587722109,-0.10921894913728371,-0.06811172023527379,0.06645571079826743
1681140154235976000,3.985975830078125,-0.046806253492832184,-0.010804865509271622,0.000255812075920403,-0.12036753445863724,0.22558118402957916,-0.966759979724884,0.0011049211025238037,-0.014002993702888489,0.005608797073364258,0.9894265504528513,-0.10941739453890749,-0.06817519878968561,0.066448163145842
1681140154246033400,3.996033447265625,-0.04528622701764107,-0.01436700951308012,0.0012911425437778234,-0.12048826366662979,0.22609259188175201,-0.966625452041626,0.0011493638157844543,-0.01462121307849884,0.005550563335418701,0.9893930684080015,-0.10967473040357471,-0.06825493135778132,0.06644031145591588
1681140154256092700,4.0060927734375,-0.031183725222945213,-0.01758037880063057,-0.0028644539415836334,-0.12065792828798294,0.22649650275707245,-0.9665096998214722,0.0013800635933876038,-0.010905265808105469,0.004290461540222168,0.989364332043539,-0.10987587698379106,-0.06835524759388553,0.06643205657454147
1681140154266151400,4.0161513671875,-0.014512816444039345,-0.01027559582144022,-0.0022840979509055614,-0.12079760432243347,0.22676430642604828,-0.9664294719696045,0.0013518854975700378,-0.003253743052482605,0.003935515880584717,0.98934459456637,-0.11000857806519512,-0.06843524957777206,0.06642430082953481
