time,seconds_elapsed,rotationRateX,rotationRateY,rotationRateZ,gravityX,gravityY,gravityZ,accelerationX,accelerationY,accelerationZ,quaternionW,quaternionX,quaternionY,quaternionZ
1681312189785736000,0.24073583984375,0.02952582947909832,0.032897599041461945,-0.004026335198432207,0.2585601806640625,0.1362658441066742,-0.9563358426094055,-0.010086089372634888,0.002390757203102112,-0.0022823214530944824,0.9890236639673372,-0.0688890709064281,0.1307148599222903,-2.1207587416879545e-18
1681312189795779800,0.25077978515625,-0.003710953053086996,0.03974085673689842,-0.01040460541844368,0.25901710987091064,0.13612483441829681,-0.9562322497367859,-0.015853077173233032,-0.001527056097984314,0.005136668682098389,0.9889975133431397,-0.06881337603474846,0.13095259889065436,-0.000047007639269495154
1681312189805824800,0.26082470703125,-0.03513435274362564,0.04324404150247574,-0.013920511119067669,0.2595047056674957,0.13629364967346191,-0.9560760259628296,-0.019758671522140503,-0.008394494652748108,0.01025998592376709,0.9889580145991902,-0.06889413601157211,0.1312082030615959,-0.00010225823665560625
1681312189815869700,0.27086962890625,-0.03852003067731857,0.045929040759801865,-0.011930863372981548,0.25998371839523315,0.13657283782958984,-0.9559060335159302,-0.01779627799987793,-0.014578834176063538,0.012760281562805176,0.9889150620275488,-0.06903173607004706,0.13145953501100033,-0.0001513673703485096
1681312189825913900,0.280913818359375,-0.022207634523510933,0.04119846597313881,-0.01822284795343876,0.26037153601646423,0.13683265447616577,-0.9557632803916931,-0.013759016990661621,-0.007575467228889465,0.006010472774505615,0.9888789569204899,-0.06915778921004104,0.13166453333671968,-0.00020995070420277843
1681312189835959600,0.29095947265625,-0.0012890361249446869,0.04077529162168503,-0.01799221895635128,0.26070553064346313,0.1369779258966446,-0.9556514620780945,-0.010751277208328247,-0.0006406307220458984,0.0023433566093444824,0.9888508665201681,-0.06926116851768149,0.1318224777704501,-1.0012698714515504e-17
1681312189846003500,0.30100341796875,0.018285388126969337,0.04371269792318344,-0.017901938408613205,0.2610260546207428,0.136942520737648,-0.9555690288543701,-0.00571596622467041,0.004231810569763184,-0.0013401508331298828,0.9888298896886628,-0.0692289092666511,0.13199563843550738,-0.00011854033171483614
1681312189856048600,0.311048583984375,0.011831482872366905,0.03375620394945145,-0.020591197535395622,0.26128339767456055,0.13684555888175964,-0.9555125832557678,-0.004645824432373047,0.007182180881500244,-0.006126821041107178,0.9888156130714888,-0.06916372503205666,0.13213663955369018,-0.00024675616032748766
1681312189866092500,0.321092529296875,0.0015574265271425247,0.03076562099158764,-0.02087216079235077,0.26144281029701233,0.13685625791549683,-0.9554674625396729,-0.004423737525939941,0.0012205392122268677,-0.0075147151947021484,0.9888041995652135,-0.06915301242799848,0.13222761093356508,-0.0003731697998338369
1681312189876137500,0.331137451171875,-0.008668579161167145,0.02656288631260395,-0.024575021117925644,0.2615393102169037,0.13694709539413452,-0.9554280042648315,-0.0009344220161437988,-0.003554731607437134,-0.008622288703918457,0.9887941908304424,-0.06918279927099284,0.13228655323357982,-0.0004989048762174297
1681312189886182700,0.3411826171875,-0.015545203350484371,0.02662481740117073,-0.02364318072795868,0.26159557700157166,0.13706505298614502,-0.9553956985473633,-0.0013264119625091553,-0.00048360228538513184,-0.006426811218261719,0.9887859633746374,-0.06922646632993579,0.13232478123034921,-0.0006224581006849726
1681312189896226600,0.3512265625,-0.008580771274864674,0.020821258425712585,-0.02430257946252823,0.2616329491138458,0.13712412118911743,-0.9553769826889038,-0.0000057220458984375,0.002478554844856262,-0.005957186222076416,0.9887811601311318,-0.0692412508826055,0.13235237760794807,-0.000737524471877781
1681312189906271500,0.361271484375,-0.008847620338201523,0.016956627368927002,-0.023683127015829086,0.26166096329689026,0.13721154630184174,-0.955356776714325,0.0032469332218170166,0.007380753755569458,-0.009563267230987549,0.9887759422460235,-0.06926975870034437,0.13237566329117886,-0.0008574451859359511
1681312189916315600,0.371315673828125,-0.017951369285583496,0.015042879618704319,-0.021745411679148674,0.2616948187351227,0.13739138841629028,-0.9553216695785522,0.004326939582824707,0.0059954822063446045,-0.006622910499572754,0.988766959756972,-0.06934650427315286,0.13240181532487807,-0.0009679718913343122
1681312189926360600,0.381360595703125,-0.026243198662996292,0.010548587888479233,-0.01944470778107643,0.26172715425491333,0.1376960724592209,-0.955268919467926,-0.0006492435932159424,-0.0023353397846221924,-0.0023421645164489746,0.9887535296068968,-0.06948855913679587,0.13242689308543518,-0.0010645661439277244
1681312189936404500,0.391404541015625,-0.03330829739570618,0.01215873472392559,-0.01882845163345337,0.26173514127731323,0.13809321820735931,-0.9552093744277954,-0.0032817423343658447,-0.007035449147224426,-0.0032714009284973145,0.9887383824386525,-0.06967956890458256,0.1324388766896218,-0.0011457470711923599
1681312189946449400,0.401449462890625,-0.03421080484986305,0.009443169459700584,-0.017477164044976234,0.26175498962402344,0.13844934105873108,-0.9551523923873901,-0.0025386810302734375,-0.007544174790382385,-0.0005513429641723633,0.9887238642550542,-0.06984966345695129,0.13245687123872504,-0.0012279032312278383
1681312189956494600,0.41149462890625,-0.03601482883095741,0.011200589127838612,-0.016016419976949692,0.2618018686771393,0.13875921070575714,-0.955094575881958,-0.0024177134037017822,-0.008235514163970947,0.004655182361602783,0.988709166040797,-0.06999882088230427,0.13248723914235322,-0.0012916420486452362
1681312189966538500,0.42153857421875,-0.048937324434518814,0.013059386983513832,-0.010385164991021156,0.26185572147369385,0.1391807496547699,-0.9550185203552246,-0.00366172194480896,-0.01123577356338501,0.00836324691772461,0.9886899018696033,-0.07020756002190436,0.13252037845898937,-0.001334655035970691
1681312189976583400,0.43158349609375,-0.06213861331343651,0.014357412233948708,-0.007029049564152956,0.26195868849754333,0.1397331953048706,-0.9549095630645752,-0.00483277440071106,-0.016014903783798218,0.008284807205200195,0.9886622778929907,-0.07048804410487282,0.13257695656086654,-0.0013405455077207583
1681312189986627600,0.441627685546875,-0.07868673652410507,0.019160421565175056,0.00203501945361495,0.2621072828769684,0.14045508205890656,-0.954762876033783,-0.003104567527770996,-0.015348240733146667,0.007878720760345459,0.9886251900114349,-0.07085956444320829,0.1326555166379243,-0.0013115892940328824
1681312189996672500,0.451672607421875,-0.09653284400701523,0.017698347568511963,0.014396880753338337,0.2623136341571808,0.14127157628536224,-0.9545857310295105,-0.0037228763103485107,-0.013174012303352356,0.010097205638885498,0.9885805667766597,-0.07128808124744458,0.13275972014606088,-0.001218548617980491
1681312190006716400,0.46171630859375,-0.10561255365610123,0.019264493137598038,0.021509917452931404,0.262509822845459,0.14214345812797546,-0.9544023275375366,-0.006482601165771484,-0.01709766685962677,0.012629926204681396,0.9885343362945828,-0.07175269376954267,0.1328547238335915,-0.001066769831753601
1681312190016761600,0.47176171875,-0.08230803161859512,0.009489360265433788,0.029052255675196648,0.26265743374824524,0.14289307594299316,-0.9542497992515564,-0.0063402652740478516,-0.01624511182308197,0.013545453548431396,0.9884959682947962,-0.07216002987302947,0.1329211727031504,-0.000877521588382974
1681312190026805800,0.4818056640625,-0.027499906718730927,-0.000013182871043682098,0.03695545345544815,0.2627304494380951,0.1432368904352188,-0.9541781544685364,-0.003041088581085205,-0.009569868445396423,0.007324516773223877,0.9884780693347712,-0.07236279728336648,0.1329456721253465,-0.000672489503622338
1681312190036850400,0.491850341796875,0.004131523426622152,-0.004731771536171436,0.041429031640291214,0.26275724172592163,0.1431189328432083,-0.9541884660720825,0.006133168935775757,0.0028314143419265747,-0.0066879987716674805,0.9884807769846792,-0.07233148737243293,0.132943317059291,-0.000460196987111955
1681312190046895600,0.5018955078125,0.007272189483046532,-0.011393432505428791,0.039258286356925964,0.2627330720424652,0.14282725751399994,-0.9542388319969177,0.00811043381690979,0.006708890199661255,-0.008422911167144775,0.9884936290207202,-0.07221139703441856,0.13291389377498822,-0.00024922573102454504
1681312190056939500,0.511939453125,-0.030015794560313225,-0.007748364470899105,0.03790753334760666,0.26267921924591064,0.142650306224823,-0.9542801380157471,0.006455332040786743,0.002613380551338196,-0.00415492057800293,0.9885040541695375,-0.0721500514945137,0.13286954125385075,-0.00003414424433244193
1681312190066984700,0.521984619140625,-0.09063645452260971,-0.010669764131307602,0.04017707705497742,0.26263654232025146,0.14298726618289948,-0.9542414546012878,0.005979210138320923,-0.0016603469848632812,0.0004908442497253418,0.9884943104304564,-0.07235352935088271,0.13283165363429908,0.00020641224989763302
1681312190077028600,0.532028564453125,-0.14368556439876556,-0.011312916874885559,0.047925546765327454,0.26259148120880127,0.14388339221477509,-0.9541191458702087,0.0011414587497711182,-0.008736282587051392,0.01071399450302124,0.9884632536978563,-0.07285079862643222,0.13279005446513498,0.0005168908238478038
1681312190087073500,0.542073486328125,-0.18242762982845306,-0.014242660254240036,0.04923049360513687,0.26252344250679016,0.14517909288406372,-0.9539415836334229,0.0044901371002197266,-0.017829209566116333,0.01862359046936035,0.9884180826493327,-0.07355801573313499,0.13273445774066908,0.0008778961613543734
1681312190097117400,0.552117431640625,-0.22433780133724213,-0.02197594754397869,0.05390780419111252,0.26242008805274963,0.1468564122915268,-0.9537132382392883,0.009186387062072754,-0.0092831552028656,0.01796799898147583,0.9883598531708171,-0.07446484903769947,0.13265886885837064,0.0012804101661636888
1681312190107162400,0.562162353515625,-0.2949208915233612,-0.026162438094615936,0.07258269190788269,0.2622735798358917,0.14903822541236877,-0.953415036201477,0.015848428010940552,-0.0037592649459838867,0.01148998737335205,0.988283647519909,-0.07564172143451355,0.13255496426018817,0.0017831398419081658
1681312190117207600,0.57220751953125,-0.4238157570362091,-0.038546402007341385,0.08673126995563507,0.262139230966568,0.1521744579076767,-0.9529564380645752,0.023764729499816895,-0.012480214238166809,0.009536027908325195,0.9881663045842146,-0.07732344478767952,0.13244947281328137,0.0024250335948522725
1681312190127251700,0.582251708984375,-0.626450777053833,-0.04558558017015457,0.10303300619125366,0.26191920042037964,0.15685677528381348,-0.9522574543952942,0.02329808473587036,-0.029125452041625977,0.020159125328063965,0.9879869356207175,-0.07981910178816491,0.13228822108308141,0.003264383823775128
1681312190137296400,0.59229638671875,-0.892514169216156,-0.04811451584100723,0.1205345019698143,0.26169654726982117,0.16366411745548248,-0.951172411441803,0.026236802339553833,-0.04716326296329498,0.038178086280822754,0.9877080872043441,-0.08343283736239578,0.13210885573893066,0.004354202103055753
1681312190147340500,0.602340576171875,-1.2753057479858398,-0.037713777273893356,0.13017940521240234,0.2615574300289154,0.1733991950750351,-0.9494842886924744,0.030739963054656982,-0.06550426781177521,0.06270456314086914,0.9872737491751743,-0.08858415027999002,0.1319495791810156,0.005738634330314455
1681312190157385500,0.612385498046875,-1.7815146446228027,-0.04259854927659035,0.11710967868566513,0.2614048421382904,0.18756556510925293,-0.9468297958374023,0.03444784879684448,-0.08907006680965424,0.08905702829360962,0.9865904066972299,-0.09604304815949398,0.13176048874948668,0.00737981215557185
1681312190167429400,0.622429443359375,-2.3873701095581055,-0.0418022945523262,0.11175672709941864,0.26123669743537903,0.20698761940002441,-0.9428210258483887,0.04061269760131836,-0.12539884448051453,0.12115055322647095,0.9855574256495162,-0.1062573075470684,0.13152512515121603,0.009343238881241223
1681312190177474600,0.632474609375,-3.038212537765503,-0.049218930304050446,0.09057074785232544,0.2610258162021637,0.23230338096618652,-0.9369635581970215,0.05396139621734619,-0.14857836067676544,0.13993597030639648,0.9840457268895711,-0.11958947237108428,0.1312119944467867,0.011659139798469336
1681312190187518700,0.642518798828125,-3.8014400005340576,-0.08332884311676025,0.10164869576692581,0.2606590688228607,0.264009028673172,-0.9286313056945801,0.06203383207321167,-0.1558394432067871,0.15597200393676758,0.9818901693864919,-0.13635698175309757,0.13073301102899668,0.014403908921434543
1681312190197563600,0.652563720703125,-4.658587455749512,-0.1115647479891777,0.12307222932577133,0.2600685954093933,0.302901953458786,-0.9168504476547241,0.06045755743980408,-0.18429535627365112,0.16080796718597412,0.9788300702547535,-0.15709114174140246,0.12998902803595963,0.017805756606884767
1681312190207608600,0.662608642578125,-5.537344932556152,-0.15722692012786865,0.14320412278175354,0.25926387310028076,0.34907642006874084,-0.9005153775215149,0.06909003853797913,-0.21882733702659607,0.1606929898262024,0.9745658635590556,-0.18198920119334078,0.12892730304572583,0.02189027785600119
1681312190217652500,0.672652587890625,-6.413453578948975,-0.19466032087802887,0.1623477190732956,0.2582520842552185,0.402092307806015,-0.8784233927726746,0.07719716429710388,-0.25762203335762024,0.16617363691329956,0.9687625880400372,-0.21103711188385607,0.12748192898309257,0.026660328296270352
1681312190227697700,0.68269775390625,-7.22323751449585,-0.23501837253570557,0.1736626923084259,0.25713974237442017,0.4609115421772003,-0.8493760824203491,0.07556292414665222,-0.26840656995773315,0.1626695990562439,0.9610726387963674,-0.24398087153886,0.12563949296618965,0.03205659222184758
1681312190237741600,0.692741455078125,-8.017101287841797,-0.27073830366134644,0.19695310294628143,0.25591981410980225,0.5239940285682678,-0.8123641014099121,0.07360902428627014,-0.25214338302612305,0.1361861228942871,0.9511758473535318,-0.2803767220146315,0.12331604761126015,0.03803690284126661
1681312190247786500,0.702786376953125,-8.836216926574707,-0.3198413848876953,0.20628508925437927,0.25472527742385864,0.5902753472328186,-0.7659569978713989,0.07581064105033875,-0.25105714797973633,0.0932275652885437,0.9386096890202583,-0.32016799097242127,0.12047386058665031,0.044616260378641526
1681312190257830700,0.71283056640625,-9.714149475097656,-0.3861098885536194,0.1517355591058731,0.2533240020275116,0.6585994362831116,-0.7085716724395752,0.07104736566543579,-0.2502284049987793,0.055724382400512695,0.9228352299091414,-0.3633717840117734,0.11694063543952614,0.05158645340753907
1681312190267875300,0.722875244140625,-10.405237197875977,-0.5313927531242371,0.0791788101196289,0.25099480152130127,0.7265409827232361,-0.6396404504776001,0.06501474976539612,-0.26081210374832153,0.019630134105682373,0.9035273790052678,-0.4093645137020855,0.11225178346801776,0.05881026502722188
1681312190277920500,0.73292041015625,-10.928444862365723,-0.6519261002540588,0.04309350624680519,0.24789531528949738,0.7908298373222351,-0.5595858097076416,0.0649709403514862,-0.29078394174575806,-0.000610053539276123,0.8805724771383884,-0.4570435874654241,0.10638731380083552,0.0662210723185048
1681312190287964700,0.742964599609375,-10.979467391967773,-0.7687813639640808,0.016017679125070572,0.24445581436157227,0.8476614952087402,-0.4708625078201294,0.06799845397472382,-0.30257171392440796,0.01081007719039917,0.8543953180920595,-0.5046482306349963,0.09949324654863624,0.07375700531293466
1681312190298009600,0.753009521484375,-10.773344993591309,-0.7969392538070679,0.009245261549949646,0.24116696417331696,0.8940520286560059,-0.37750449776649475,0.06280340254306793,-0.2459958791732788,0.019258767366409302,0.8259369497469269,-0.5502661340082117,0.0919506852727596,0.08112076671749952
1681312190308053500,0.763053466796875,-10.221115112304688,-0.7455077171325684,0.016887467354536057,0.2387288212776184,0.9289765357971191,-0.2828631103038788,0.03798937797546387,-0.16452622413635254,0.01736024022102356,0.7960401685518973,-0.5928310808350331,0.08437861966177648,0.08804470660732276
1681312190318098400,0.773098388671875,-9.284207344055176,-0.7475122809410095,0.007760549429804087,0.23707209527492523,0.9522777795791626,-0.1922609508037567,0.01427072286605835,-0.03952735662460327,0.07507354021072388,0.7663102700026927,-0.6308219402858324,0.07702730962727868,0.0943360113375933
1681312190328142600,0.783142578125,-8.12747859954834,-0.789482593536377,0.011632519774138927,0.23603172600269318,0.965494692325592,-0.11004273593425751,0.0016239583492279053,0.07819139957427979,0.001415550708770752,0.7382436263922348,-0.663392769650659,0.06991898239463452,0.10008945103296016
1681312190338187500,0.7931875,-6.936260223388672,-0.8703084588050842,-0.04101897403597832,0.23533381521701813,0.9711435437202454,-0.038711462169885635,0.00964607298374176,0.21029889583587646,-0.09811395406723022,0.7129160271182248,-0.6904178343798505,0.06298796431493797,0.10538803122960123
1681312190348231700,0.803231689453125,-5.731352806091309,-0.9061687588691711,-0.08648259192705154,0.23460881412029266,0.9718636274337769,0.020982570946216583,0.012690439820289612,0.31336915493011475,-0.17001497745513916,0.6909177499713062,-0.7122741432317865,0.05618568119572009,0.11018892917783608
1681312190358276600,0.813276611328125,-4.582292556762695,-0.8739528059959412,-0.05259200930595398,0.23431941866874695,0.9697017073631287,0.06909136474132538,0.00033029913902282715,0.34664374589920044,-0.16216981410980225,0.6725566293639749,-0.7294171057608615,0.049963652589971826,0.11455218428625406
1681312190368321500,0.823321533203125,-3.613579750061035,-0.8398445248603821,-0.021638352423906326,0.23473604023456573,0.9661728143692017,0.10681658983230591,-0.010874271392822266,0.29963552951812744,-0.1472827047109604,0.657671098493276,-0.7425776156334567,0.04457330519676072,0.11857810085517012
1681312190378365400,0.833365478515625,-2.795984983444214,-0.7626972794532776,0.0022139837965369225,0.23562324047088623,0.9623026251792908,0.13585223257541656,-0.020901530981063843,0.24149388074874878,-0.11256718635559082,0.6458556418608262,-0.7525480830949538,0.03996873339084886,0.12224811648446014
1681312190388410600,0.84341064453125,-2.15254545211792,-0.6490699648857117,0.03032950684428215,0.23683898150920868,0.958635151386261,0.15788154304027557,-0.032889947295188904,0.2346634864807129,-0.028563126921653748,0.6366475183082613,-0.7600182098964139,0.03623660580956995,0.12545692005967612
1681312190398454500,0.85345458984375,-1.7765319347381592,-0.5404324531555176,0.014252536930143833,0.23809073865413666,0.9553051590919495,0.17522867023944855,-0.044075220823287964,0.2596454620361328,0.02211342751979828,0.6292528519305739,-0.7658408334831822,0.03319865795279936,0.12816634178775965
1681312190408499500,0.86349951171875,-1.5074821710586548,-0.43368738889694214,-0.011327923275530338,0.23896345496177673,0.952311098575592,0.18973764777183533,-0.04508526623249054,0.275823175907135,0.07176767289638519,0.6230192125635222,-0.7706702577007347,0.030597029376750032,0.13030111157071955
1681312190418543600,0.873543701171875,-1.2933405637741089,-0.3462073504924774,-0.008805377408862114,0.23962679505348206,0.9495880603790283,0.20214328169822693,-0.048739343881607056,0.26037299633026123,0.10078965127468109,0.6176641444693364,-0.7747668279058395,0.02842540234577491,0.13198299680928147
1681312190428588500,0.883588623046875,-1.175438404083252,-0.291382372379303,-0.013020096346735954,0.24019035696983337,0.9470404386520386,0.21312831342220306,-0.0506608784198761,0.2081112265586853,0.06532958149909973,0.6129038383234731,-0.7783685502908144,0.026581094728152066,0.13336038020973662
1681312190438633500,0.893633544921875,-1.0865747928619385,-0.23587913811206818,-0.0071851108223199844,0.24064743518829346,0.9445891380310059,0.22324922680854797,-0.059769779443740845,0.15402835607528687,0.03445656597614288,0.6085127937816287,-0.7816654517482734,0.024974642957050458,0.13449018512961644
1681312190448677600,0.903677734375,-1.0065224170684814,-0.19437681138515472,-0.0018689085263758898,0.24111364781856537,0.9421969056129456,0.23265686631202698,-0.07386207580566406,0.10280120372772217,0.01549692451953888,0.6044198189727811,-0.7847111338911569,0.02359814549817488,0.135455753698389
1681312190458722600,0.91372265625,-0.8621628284454346,-0.16299544274806976,-0.005252188537269831,0.241501122713089,0.9399793744087219,0.24107304215431213,-0.07606533169746399,0.07062554359436035,-0.000640183687210083,0.6007479024822642,-0.7874227043469316,0.022405459687954255,0.13625531341920175
1681312190468766500,0.923766357421875,-0.631258487701416,-0.1436796635389328,-0.02094726264476776,0.24175794422626495,0.9381666779518127,0.24778299033641815,-0.07252272963523865,0.08200544118881226,0.0018356740474700928,0.5978003682894959,-0.789578615956243,0.0213799455846031,0.1369059828460906
1681312190478811400,0.933811279296875,-0.37851089239120483,-0.11689464747905731,-0.03008589893579483,0.24185094237327576,0.936971127986908,0.2521779239177704,-0.07578951120376587,0.11684679985046387,0.003849506378173828,0.595845505902579,-0.7909910631015545,0.02054492618371595,0.13740214649451724
1681312190488855600,0.94385546875,-0.13030675053596497,-0.09289619326591492,-0.03917287290096283,0.24177062511444092,0.9364266395568848,0.25426843762397766,-0.08306393027305603,0.14378893375396729,0.012577414512634277,0.5948888389961736,-0.7916679878663055,0.019900306200513883,0.13774314764102247
1681312190498900700,0.953900634765625,0.06221583113074303,-0.07464954257011414,-0.025735892355442047,0.2416730523109436,0.936446487903595,0.2542877495288849,-0.0892835259437561,0.14381474256515503,0.015091001987457275,0.5948264632688464,-0.7916839101031031,0.019505483314233477,0.1379769694581863
1681312190508944600,0.963944580078125,0.11943761259317398,-0.05761043727397919,-0.02431056834757328,0.24162761867046356,0.9367516040802002,0.2532048523426056,-0.08823101222515106,0.1128089427947998,0.01173374056816101,0.5952367393447774,-0.7913475038801265,0.019275559654077293,0.13816975405590093
1681312190518989600,0.973989501953125,0.101345956325531,-0.03156391903758049,-0.021213045343756676,0.24150647222995758,0.9371083974838257,0.2519972622394562,-0.08469191193580627,0.07056677341461182,0.008378803730010986,0.5957209501945194,-0.7909697983569256,0.01911565381526433,0.13826778019031596
1681312190529034500,0.984034423828125,-0.007497359067201614,-0.01276688277721405,-0.009744142182171345,0.24141031503677368,0.9372893571853638,0.2514159083366394,-0.0818949043750763,0.016049325466156006,0.006122082471847534,0.5959585016137614,-0.7907880286915157,0.019032901923458263,0.13829538800356328
1681312190539078700,0.99407861328125,-0.15139354765415192,0.005104258190840483,0.00842660665512085,0.24142184853553772,0.9370960593223572,0.2521243393421173,-0.07519260048866272,-0.0334552526473999,-0.003146559000015259,0.5956535239268528,-0.7910138105458577,0.01895592888450568,0.13832850542687694
1681312190549123800,1.004123779296875,-0.25719621777534485,0.02090153843164444,0.014794490300118923,0.2414943128824234,0.936549186706543,0.25407958030700684,-0.06821547448635101,-0.0636700987815857,-0.002233058214187622,0.5948330775050027,-0.7916327798987939,0.018903035433926955,0.13832550470747795
1681312190559167700,1.014167724609375,-0.26678889989852905,0.023536736145615578,0.01140908058732748,0.2415543794631958,0.9358272552490234,0.25666895508766174,-0.059867992997169495,-0.06836509704589844,-0.00199967622756958,0.5937503232021855,-0.7924517112486932,0.0188351006849281,0.13829718650396297
1681312190569212700,1.024212646484375,-0.17756949365139008,0.011899846605956554,0.003603887278586626,0.24156668782234192,0.9352301359176636,0.2588253319263458,-0.05008411407470703,-0.03183335065841675,-0.0007380247116088867,0.5928484293099577,-0.7931336477859927,0.018753231111924878,0.13826865178323985
1681312190579256800,1.0342568359375,-0.012467616237699986,0.00578256556764245,-0.005159243941307068,0.24153225123882294,0.9349832534790039,0.2597479820251465,-0.04248128831386566,0.013793230056762695,-0.004941195249557495,0.5924657326721171,-0.7934255568356396,0.01870512332725498,0.1382410489644059
1681312190589301500,1.044301513671875,0.16536274552345276,-0.002201768569648266,-0.014004134573042393,0.2414398342370987,0.935213029384613,0.25900575518608093,-0.036193832755088806,0.04849076271057129,-0.004336357116699219,0.5927870572625115,-0.7931913263425352,0.018718752116785087,0.13820584852747247
1681312190599346700,1.0543466796875,0.33381834626197815,0.006421546917408705,-0.029217708855867386,0.24123172461986542,0.935917317867279,0.2566447854042053,-0.02940918505191803,0.06243491172790527,0.003059983253479004,0.593803953339655,-0.792444641036212,0.01881175302854294,0.13811106030948556
1681312190609390800,1.064390869140625,0.45114797353744507,-0.0006779972463846207,-0.0500207245349884,0.2408706694841385,0.9370400905609131,0.25285932421684265,-0.024256840348243713,0.07150506973266602,0.01687052845954895,0.5954320313377435,-0.7912463545257381,0.01894391013135134,0.13795390244565278
1681312190619435500,1.074435546875,0.43024110794067383,0.0002248147502541542,-0.06397302448749542,0.24027284979820251,0.938328742980957,0.2486134171485901,-0.01747921109199524,0.06965184211730957,0.013868480920791626,0.597266287673338,-0.7899021797212648,0.019006645776982647,0.1377188190877484
1681312190629479700,1.084479736328125,0.28588032722473145,0.02139691635966301,-0.0581233948469162,0.23963233828544617,0.9393869042396545,0.24521268904209137,-0.011513382196426392,0.03691643476486206,0.019237548112869263,0.5987510591370175,-0.7888244902366359,0.019033372900987028,0.1374449209761826
1681312190639524600,1.094524658203125,0.07329666614532471,0.03879828006029129,-0.06151173263788223,0.2389562875032425,0.9399758577346802,0.24361036717891693,-0.009204655885696411,-0.0289648175239563,0.026745110750198364,0.5994972285114968,-0.7883171381297495,0.019007277731873693,0.1371064154253943
1681312190649568500,1.104568603515625,-0.11515457928180695,0.05164607614278793,-0.05499337986111641,0.23824627697467804,0.9400593638420105,0.2439824342727661,-0.008036896586418152,-0.08158451318740845,0.03311741352081299,0.5994277007875691,-0.7884380966802708,0.01888342424852206,0.13673095021538148
1681312190659613700,1.11461376953125,-0.21524976193904877,0.05353345721960068,-0.055328939110040665,0.23755624890327454,0.9397785067558289,0.24573135375976562,-0.0009534358978271484,-0.0891924500465393,0.03379464149475098,0.598784134190111,-0.7889968691854784,0.018698092932281696,0.1363528880970895
1681312190669658600,1.12465869140625,-0.21915340423583984,0.04723629355430603,-0.058807291090488434,0.23685787618160248,0.9393686056137085,0.24796326458454132,0.003101930022239685,-0.06365108489990234,0.023765504360198975,0.5979363234254661,-0.7897091356851401,0.018469316922615657,0.1359810278937663
1681312190679702800,1.134702880859375,-0.1274421364068985,0.027354467660188675,-0.06473894417285919,0.2361179143190384,0.9390859007835388,0.24973323941230774,0.0026974529027938843,-0.01995718479156494,0.009513765573501587,0.5972729233976817,-0.7902757325605513,0.01819019401842768,0.13564183109094483
1681312190689747500,1.14474755859375,-0.008230033330619335,0.022196516394615173,-0.06477224081754684,0.23539435863494873,0.9390833377838135,0.25042426586151123,0.005831852555274963,0.017124056816101074,-0.004818588495254517,0.5970532754944542,-0.7904998608719446,0.01794724386809747,0.13533426888309663
1681312190699791600,1.15479150390625,0.09471898525953293,0.008842360228300095,-0.0628286674618721,0.23472408950328827,0.9393623471260071,0.2500068247318268,0.010545715689659119,0.035018324851989746,-0.007254600524902344,0.5972886652767208,-0.7903720079929929,0.01776216595157789,0.1350666588517248
1681312190709836800,1.1648369140625,0.13590124249458313,0.004729314707219601,-0.06402602046728134,0.2340780794620514,0.9398163557052612,0.24890384078025818,0.011802077293395996,0.04199528694152832,-0.002382636070251465,0.5978048769245837,-0.7900265755047136,0.01760483187966111,0.13482430470753884
1681312190719880700,1.174880615234375,0.10885123908519745,0.0031961328350007534,-0.05791034176945686,0.23348599672317505,0.9402695894241333,0.24774567782878876,0.00976969301700592,0.0281754732131958,-0.0005836188793182373,0.5983369353465536,-0.7896632777050152,0.017456952595013397,0.13461162550939154
1681312190729925600,1.184925537109375,0.045080821961164474,0.008542843163013458,-0.05861128494143486,0.23292241990566254,0.9405900239944458,0.24705906212329865,0.010272219777107239,0.0008317232131958008,-0.0010719001293182373,0.5986696024569413,-0.789449469797829,0.01729349104741766,0.13440774715785056
1681312190739969800,1.1949697265625,-0.04393640160560608,0.019213596358895302,-0.046177253127098083,0.2324288785457611,0.9406853318214417,0.24716123938560486,0.01229165494441986,-0.02013760805130005,0.004700571298599243,0.5986731698826896,-0.7894850692947485,0.017144751761370716,0.13420182013707416
1681312190750014700,1.2050146484375,-0.1314077079296112,0.023631900548934937,-0.034203145653009415,0.2320271134376526,0.9405364990234375,0.24810227751731873,0.010679200291633606,-0.036910951137542725,0.0022946447134017944,0.5983219903437274,-0.7897861486351323,0.016999379851391962,0.13401406841722935
1681312190760059600,1.2150595703125,-0.191277414560318,0.01913595199584961,-0.02322639524936676,0.23171961307525635,0.9401859045028687,0.24971327185630798,0.011185064911842346,-0.04676848649978638,-0.0016814768314361572,0.5976824629208981,-0.790299216786988,0.016845986976664905,0.13386227980323798
1681312190770103800,1.225103759765625,-0.19407816231250763,0.019694268703460693,-0.014956214465200901,0.23151147365570068,0.9397337436676025,0.25160104036331177,0.01377357542514801,-0.03804612159729004,-0.005018860101699829,0.5969167091225984,-0.7908991959282891,0.01670296093318381,0.13375340068822117
1681312190780148700,1.235148681640625,-0.14672023057937622,0.014169007539749146,-0.014644891023635864,0.23134396970272064,0.9393371343612671,0.25323137640953064,0.010950341820716858,-0.01579880714416504,-0.008205562829971313,0.596254325137384,-0.7914167892337205,0.01658764443199026,0.1336609645164872
1681312190790192600,1.245192626953125,-0.06363625824451447,0.0033730852883309126,-0.016651317477226257,0.23118630051612854,0.9390929937362671,0.25427865982055664,0.008346199989318848,0.005731344223022461,-0.01585984230041504,0.5958296326305043,-0.7917498223648172,0.01647876741609482,0.13359600654767106
1681312190800237600,1.255237548828125,0.03144444525241852,0.005323051940649748,-0.011269067414104939,0.23104216158390045,0.9390960335731506,0.2543978989124298,0.011496305465698242,0.02751779556274414,-0.01585713028907776,0.5957919546766662,-0.7917886063739469,0.01642407659109376,0.13354037461856938
1681312190810281700,1.26528173828125,0.1037590503692627,-0.006298539228737354,-0.014390026219189167,0.23097971081733704,0.9392972588539124,0.2537113130092621,0.010734811425209045,0.0398593544960022,-0.011126875877380371,0.5960842349510818,-0.7915715314136732,0.016436750843222582,0.1335219371281346
1681312190820326700,1.27532666015625,0.14942426979541779,-0.004009552299976349,-0.015461948700249195,0.23088669776916504,0.9396510720252991,0.2524822950363159,0.013101339340209961,0.04675334692001343,-0.006113678216934204,0.5966041071703079,-0.7911828085763273,0.016459557020063208,0.1335007626982868
1681312190830371600,1.28537158203125,0.15521584451198578,-0.0013469238765537739,-0.002648682100698352,0.23090067505836487,0.9400312304496765,0.2510509490966797,0.008082479238510132,0.03151124715805054,-0.012510091066360474,0.5972023772083945,-0.7907285360097585,0.01654864701842423,0.13350656197509392
1681312190840415700,1.295415771484375,0.13644163310527802,0.007683322764933109,0.00040489842649549246,0.23096761107444763,0.9403702616691589,0.24971626698970795,0.009648263454437256,0.013838231563568115,-0.003118753433227539,0.5977596303226257,-0.790303753059427,0.016676682300485805,0.13351215533117217
1681312190850460700,1.305460693359375,0.11033785343170166,0.018524784594774246,0.005812180694192648,0.23105475306510925,0.940642774105072,0.24860666692256927,0.013055384159088135,-0.0008233189582824707,0.006200075149536133,0.5982280263971317,-0.7899491512396385,0.016842496299382514,0.1334917851498831
1681312190860504600,1.315504638671875,0.08396191149950027,0.017557792365550995,0.013597399927675724,0.23115530610084534,0.9408463835716248,0.24774116277694702,0.005996823310852051,-0.012745678424835205,0.0025336742401123047,0.5985968997698363,-0.7896713599443241,0.017021252125605294,0.13345904703813943
1681312190870549800,1.3255498046875,0.056091662496328354,0.016124743968248367,0.02064572088420391,0.2313181459903717,0.9409802556037903,0.24707971513271332,0.003865569829940796,-0.020264863967895508,-0.006234794855117798,0.5988731552116219,-0.7894581079960613,0.01719749745359083,0.13345857477078546
1681312190880593700,1.33559375,0.035514481365680695,0.00442467862740159,0.027753697708249092,0.23154059052467346,0.9410443305969238,0.24662655591964722,0.004390791058540344,-0.020634174346923828,-0.011976763606071472,0.5990529615869592,-0.7893111244952543,0.017355887991362274,0.13350020441286192
1681312190890638600,1.345638671875,0.03493151441216469,0.0019625863060355186,0.03793203458189964,0.23184630274772644,0.9410675168037415,0.2462506741285324,0.0035357773303985596,-0.01682734489440918,-0.014454260468482971,0.5991904128824488,-0.7891884430263415,0.017519556868133033,0.133587364537222
1681312190900683500,1.35568359375,0.043175823986530304,-0.002836992032825947,0.04693964123725891,0.2322532832622528,0.9410814642906189,0.24581436812877655,0.006745189428329468,-0.009242236614227295,-0.01204952597618103,0.5993430892435961,-0.7890459150827327,0.017712357421625684,0.1337195442130413
1681312190910727700,1.365727783203125,0.0407271608710289,-0.009830867871642113,0.037459056824445724,0.23266413807868958,0.9411064386367798,0.24532939493656158,0.007799133658409119,-0.0015006065368652344,-0.001493707299232483,0.5995107397690981,-0.7888884261939185,0.017881445805598292,0.1338743809767687
1681312190920772600,1.375772705078125,0.009606259874999523,-0.010565366595983505,0.05111201852560043,0.23313011229038239,0.9410651326179504,0.24504494667053223,0.007180556654930115,0.005376577377319336,0.0028037726879119873,0.5995879743238193,-0.7887945469954494,0.018045451191651737,0.13405926833166798
1681312190930816800,1.385816650390625,-0.027979083359241486,-0.011045033112168312,0.05835048854351044,0.23376673460006714,0.9408754110336304,0.2451683133840561,0.005033418536186218,-0.005129754543304443,0.006693542003631592,0.5994842817683952,-0.7888286269359459,0.018263478605104088,0.13429367541961976
1681312190940861700,1.39586181640625,-0.061559949070215225,-0.011858096346259117,0.07131928950548172,0.2344595044851303,0.9405785799026489,0.245644673705101,0.006080120801925659,-0.022167086601257324,0.015906482934951782,0.5992268153127319,-0.7889747246426395,0.018472060762214977,0.13455538224463173
1681312190950905600,1.405905517578125,-0.08378475159406662,-0.013266433961689472,0.07992476224899292,0.23524542152881622,0.9402068853378296,0.2463151514530182,0.008468016982078552,-0.03265964984893799,0.015449553728103638,0.5988794414476678,-0.7891818642806833,0.018696545684062264,0.13485577538533694
1681312190960950500,1.415950439453125,-0.07802513241767883,-0.016306698322296143,0.08900853991508484,0.2361084520816803,0.9398055672645569,0.24702006578445435,0.009420782327651978,-0.03347897529602051,0.008091837167739868,0.5985099613375995,-0.7893993172471359,0.01894069553315473,0.13518890904911585
1681312190970994700,1.42599462890625,-0.051516104489564896,-0.023582275956869125,0.0898335874080658,0.2370244562625885,0.9394463300704956,0.2475082278251648,0.007818102836608887,-0.023644208908081055,0.00023365020751953125,0.5982233203438189,-0.789547634995453,0.019200072630899085,0.13555394937844925
1681312190981039900,1.436039794921875,-0.014938916079699993,-0.0388597697019577,0.09196171909570694,0.23799759149551392,0.939160943031311,0.2476571500301361,0.00878278911113739,-0.010861992835998535,-0.010443851351737976,0.5980648857987673,-0.7895886679333214,0.019450280698569456,0.13597746473985714
1681312190991084500,1.44608447265625,0.008593878708779812,-0.04398389533162117,0.10554277151823044,0.239061176776886,0.9389154314994812,0.2475641369819641,0.008161768317222595,-0.00408560037612915,-0.011479973793029785,0.5979944619383918,-0.7895526302228351,0.019715855505264814,0.13645779809203862
1681312191001128700,1.456128662109375,0.02938118204474449,-0.062192726880311966,0.1166478842496872,0.24022334814071655,0.9387069940567017,0.2472294270992279,0.007030099630355835,-0.005998134613037109,-0.005758881568908691,0.5980113358879185,-0.7894394361298864,0.020002234789083438,0.13699608156804724
1681312191011173600,1.466173583984375,0.03875185549259186,-0.07445303350687027,0.13226066529750824,0.2415602207183838,0.9384853839874268,0.2467682808637619,0.004533633589744568,-0.014412760734558105,-0.0018492341041564941,0.5980585097276484,-0.7892853690468242,0.020316208815063762,0.13763060879317848
1681312191021217500,1.476217529296875,0.048428185284137726,-0.08927325904369354,0.14039954543113708,0.24305970966815948,0.9382186532020569,0.24630878865718842,0.006345212459564209,-0.01757955551147461,-0.0012829452753067017,0.598082451329184,-0.7891313116634059,0.020643864019963126,0.13835862344729244
1681312191031262700,1.4862626953125,0.060613710433244705,-0.09717772901058197,0.1547292172908783,0.24472685158252716,0.9379363059997559,0.24573321640491486,0.005593642592430115,-0.014107942581176758,0.004038125276565552,0.5981330382680814,-0.7889395637522528,0.020999433647786364,0.13917792791227349
1681312191041306600,1.496306640625,0.08227905631065369,-0.10690279304981232,0.1665099710226059,0.2465425729751587,0.9376683235168457,0.24493935704231262,0.009103208780288696,-0.015716910362243652,0.0025125741958618164,0.5982566175692358,-0.7886772486781789,0.02139796200586609,0.14006973343451606
1681312191051351600,1.5063515625,0.11001762747764587,-0.12459681183099747,0.1763160079717636,0.24847006797790527,0.9374557733535767,0.24380283057689667,0.009952843189239502,-0.01571786403656006,0.0053276121616363525,0.5985039531071668,-0.788305599385725,0.021810549706023905,0.14103836880507906
1681312191061396500,1.516396484375,0.12791380286216736,-0.13739915192127228,0.1928664892911911,0.25053006410598755,0.9372899532318115,0.2423275113105774,0.015339106321334839,-0.014422953128814697,0.004117369651794434,0.5988684461872144,-0.7878258351338254,0.022230880167093216,0.14210204631134113
1681312191071440600,1.526440673828125,0.15034602582454681,-0.15542806684970856,0.20622862875461578,0.2527223527431488,0.9371412992477417,0.24062009155750275,0.021050870418548584,-0.012916326522827148,0.0008656978607177734,0.5993087651937742,-0.7872712045734596,0.02267361433758691,0.1432450292875856
1681312191081485800,1.53648583984375,0.181807279586792,-0.1878049075603485,0.2330852746963501,0.25515806674957275,0.936985194683075,0.23864960670471191,0.03140205144882202,-0.0104561448097229,0.0002880096435546875,0.5998181972415992,-0.7866319029004472,0.02313127690914957,0.14454596206957815
1681312191091529700,1.54652978515625,0.23505550622940063,-0.23834019899368286,0.2734513580799103,0.2579819858074188,0.9368301033973694,0.2362101525068283,0.05644068121910095,-0.009095549583435059,-0.005268216133117676,0.6004591233743011,-0.7858416991166122,0.023619969033551003,0.1460957866447252
1681312191101574700,1.55657470703125,0.32676732540130615,-0.29241251945495605,0.31969955563545227,0.26136136054992676,0.9367092251777649,0.23295196890830994,0.09043008089065552,-0.01945739984512329,-0.027385324239730835,0.601349617543647,-0.7847877188563679,0.02417067791761874,0.14799627198649468
1681312191111618800,1.566618896484375,0.4806405305862427,-0.3528667688369751,0.3912341892719269,0.26542016863822937,0.9366925954818726,0.2283846139907837,0.12180215120315552,-0.029023408889770508,-0.04537045955657959,0.6026830567230305,-0.7833087891528472,0.024892770474935166,0.150269767561263
1681312191121663500,1.57666357421875,0.6955589652061462,-0.42644938826560974,0.4772971570491791,0.2703826427459717,0.9368642568588257,0.22176331281661987,0.1549256145954132,-0.04301953315734863,-0.05437421798706055,0.604728737809834,-0.7811610903819538,0.025865120788087045,0.15304133328493805
1681312191131708700,1.586708740234375,0.8256683945655823,-0.5038990378379822,0.5655404329299927,0.2762899100780487,0.9371212720870972,0.21323241293430328,0.18940836191177368,-0.06268572807312012,-0.07449936866760254,0.607404382256535,-0.7783848145670782,0.02707923859425753,0.15634542402490567
1681312191141752800,1.5967529296875,0.9873891472816467,-0.5600621700286865,0.6761886477470398,0.28324249386787415,0.9372571706771851,0.20328021049499512,0.21803924441337585,-0.08039981126785278,-0.0698266327381134,0.6104886485567086,-0.7751279695297868,0.028578578938836408,0.16019851477660138
1681312191151797800,1.6067978515625,1.1090550422668457,-0.5946149826049805,0.8118023872375488,0.2913813292980194,0.9372089505195618,0.19166916608810425,0.24046382308006287,-0.10555887222290039,-0.034060925245285034,0.6140697394615754,-0.7712986738017625,0.03054402518329461,0.16457244452430966
1681312191161841700,1.616841552734375,1.2292786836624146,-0.6499102115631104,0.9597258567810059,0.30088210105895996,0.9367462992668152,0.17881953716278076,0.26073288917541504,-0.1564575433731079,-0.007066503167152405,0.617940441940509,-0.7670194960412335,0.03302822564479287,0.16952838454870137
1681312191171886600,1.626886474609375,1.297762393951416,-0.7043002247810364,1.113391399383545,0.311790406703949,0.9357477426528931,0.16481240093708038,0.295051634311676,-0.1861749291419983,0.006482943892478943,0.6220302878054319,-0.7623061698472403,0.035993144055104426,0.1751348562998315
1681312191181930800,1.6369306640625,1.3008599281311035,-0.7421053647994995,1.2655878067016602,0.32413509488105774,0.9340007305145264,0.1502651870250702,0.31928232312202454,-0.20537811517715454,0.010455846786499023,0.626070079333678,-0.7573490036127856,0.03943448959230668,0.18139429840389995
1681312191191975700,1.6469755859375,1.269432783126831,-0.7819845080375671,1.3998923301696777,0.33770114183425903,0.9314289689064026,0.1356414258480072,0.31632113456726074,-0.2123124599456787,0.018945589661598206,0.629886021034283,-0.7522949109117774,0.0432791124238331,0.18821032482051078
1681312191202019600,1.65701953125,1.1192430257797241,-0.8263322114944458,1.5339412689208984,0.352462500333786,0.9278882145881653,0.12163078039884567,0.3090060353279114,-0.22775375843048096,0.013516545295715332,0.6331772931327371,-0.7473735283565747,0.0474151774100388,0.19563047818153412
1681312191212064800,1.667064697265625,0.9321848750114441,-0.8551806807518005,1.6638706922531128,0.368315726518631,0.923284649848938,0.10903912037611008,0.3160868287086487,-0.2420405149459839,0.006286993622779846,0.6356234848470819,-0.7428604827434239,0.05174806818807036,0.20362581593217116
1681312191222109400,1.677109375,0.7607182860374451,-0.8846037983894348,1.7920860052108765,0.38518646359443665,0.9176275134086609,0.0979364663362503,0.32691076397895813,-0.24068641662597656,0.035669684410095215,0.6372004176493176,-0.7387834732707224,0.05627800097383698,0.21214993331052226
1681312191232153600,1.687153564453125,0.7685230374336243,-0.9071551561355591,1.9313637018203735,0.40311768651008606,0.9109554290771484,0.08750153332948685,0.32934999465942383,-0.23549455404281616,0.051719777286052704,0.6382117904754507,-0.7348583287583421,0.06110649883147603,0.22121265163864318
1681312191242198800,1.69719873046875,0.9182976484298706,-0.9231956601142883,2.096616744995117,0.42222028970718384,0.9032974243164062,0.07605185359716415,0.32970231771469116,-0.20418548583984375,0.05883597582578659,0.6393117730525729,-0.730478430276497,0.06653712247141806,0.2307695499363995
1681312191252242700,1.70724267578125,1.2644115686416626,-0.9188980460166931,2.2331583499908447,0.4424456059932709,0.8946263194084167,0.06233467534184456,0.32566654682159424,-0.16801810264587402,0.06980656087398529,0.6409992255497738,-0.7251695082433748,0.07277720406722761,0.240733611917928
1681312191262287600,1.71728759765625,1.7830579280853271,-0.8977065086364746,2.36338472366333,0.4634637236595154,0.8849937915802002,0.04458495229482651,0.3134681284427643,-0.13378816843032837,0.09076070785522461,0.6440322328938954,-0.7182514577313651,0.08004573653444856,0.25085897252436573
1681312191272332500,1.72733251953125,2.3321640491485596,-0.8690630793571472,2.514051675796509,0.4853407144546509,0.874042272567749,0.02224593050777912,0.2914385497570038,-0.10913431644439697,0.10505831241607666,0.6486241232862443,-0.7094202165439436,0.08857720662671548,0.26108227662624844
1681312191282376700,1.737376708984375,2.957960367202759,-0.8269116282463074,2.6284878253936768,0.5078474879264832,0.8614325523376465,-0.005011397879570723,0.27247172594070435,-0.05079406499862671,0.12480831146240234,0.6549187212940831,-0.6984316857515993,0.09842500360252553,0.2712697188416006
1681312191292421600,1.747421630859375,3.595973014831543,-0.76042240858078,2.7386586666107178,0.5307124257087708,0.8467317819595337,-0.03727969527244568,0.25380295515060425,0.027444303035736084,0.15234637260437012,0.6629998521268158,-0.6850776069024025,0.10967600054316251,0.28119594584088875
1681312191302465800,1.7574658203125,4.168360710144043,-0.6953081488609314,2.822688102722168,0.5537387728691101,0.8293977975845337,-0.07397940009832382,0.2397792935371399,0.08683156967163086,0.16647833585739136,0.6726520229880719,-0.6693697241355079,0.1222884820212722,0.2907388494191192
1681312191312510700,1.7675107421875,4.6502909660339355,-0.5925753712654114,2.8983662128448486,0.5766844749450684,0.8089766502380371,-0.11398164927959442,0.23203134536743164,0.1580643653869629,0.18798692524433136,0.6834691562304067,-0.6515206321943025,0.13612508918977928,0.2997678600378913
1681312191322554600,1.7775546875,5.007688999176025,-0.5295543670654297,2.9656927585601807,0.5994293093681335,0.7850662469863892,-0.15606287121772766,0.22390449047088623,0.21618503332138062,0.2051658183336258,0.6949976803411717,-0.631786674759768,0.15104358157745496,0.3082364877469828
1681312191332599600,1.787599609375,5.069713115692139,-0.3837568163871765,3.0556423664093018,0.6219779253005981,0.7575430274009705,-0.19817210733890533,0.21693503856658936,0.21799719333648682,0.20796836912631989,0.7064463424272052,-0.6108216461448224,0.16676589257377278,0.31625894331531546
1681312191342643700,1.797643798828125,4.674120903015137,-0.1961083710193634,3.1489641666412354,0.6445239186286926,0.7270853519439697,-0.23650789260864258,0.20658087730407715,0.15073758363723755,0.23377670347690582,0.7164521428702355,-0.5901474567036926,0.1829536270011449,0.323960446288459
1681312191352688600,1.807688720703125,4.024709224700928,0.043845973908901215,3.1634490489959717,0.6669378280639648,0.6951706409454346,-0.2682012915611267,0.1782771348953247,0.04069983959197998,0.28448253870010376,0.7240471538720673,-0.571194875504765,0.1990873402353868,0.33144603678102164
1681312191362733600,1.817733642578125,3.2391879558563232,0.2407904714345932,3.1270833015441895,0.6888521313667297,0.6634873747825623,-0.29200610518455505,0.15152579545974731,-0.0801437497138977,0.3462206721305847,0.7288701650932075,-0.5549080359222156,0.2146486029512524,0.33875000178620357
1681312191372777700,1.82777783203125,2.4831652641296387,0.35878294706344604,3.094924211502075,0.7100031971931458,0.6330294609069824,-0.30849534273147583,0.15094351768493652,-0.12863487005233765,0.35566040873527527,0.7310511135364915,-0.5414894191820503,0.22921939661304275,0.346138787685369
1681312191382822700,1.83782275390625,1.9271591901779175,0.44335588812828064,3.0849788188934326,0.730492889881134,0.6037448644638062,-0.3191746175289154,0.18842202425003052,-0.07109099626541138,0.33570003509521484,0.7310273807829721,-0.5304943107081421,0.24287542299203868,0.3538169173934601
1681312191392866600,1.847866455078125,1.5513999462127686,0.5318402647972107,3.045247793197632,0.750252366065979,0.5753114819526672,-0.3257888853549957,0.22115278244018555,0.01996445655822754,0.3203110694885254,0.7294719638745673,-0.5211808543193844,0.25588294269940176,0.36161487537884834
1681312191402911700,1.857911865234375,1.3169255256652832,0.5825121998786926,2.9817347526550293,0.7691129446029663,0.5475906729698181,-0.32956045866012573,0.2338169813156128,0.11427468061447144,0.2649243175983429,0.726898787809194,-0.5130214090898905,0.26838182492902524,0.3693219208968369
1681312191412955600,1.86795556640625,1.3264867067337036,0.5776956081390381,2.8762125968933105,0.7868146896362305,0.5203325152397156,-0.33192914724349976,0.24863159656524658,0.2258833646774292,0.2131396234035492,0.7239126404224604,-0.5053429991189587,0.28047082410917207,0.37671632055609877
1681312191423000600,1.87800048828125,1.5140504837036133,0.645754337310791,2.748150587081909,0.8031912446022034,0.4931331276893616,-0.33422109484672546,0.2594919800758362,0.3190312683582306,0.17127257585525513,0.7212487376445409,-0.49731367358438855,0.2925210484284413,0.3832896486703091
1681312191433045500,1.88804541015625,1.687096118927002,0.6748725771903992,2.6004855632781982,0.8182919025421143,0.4659852981567383,-0.33653557300567627,0.251761257648468,0.3967008888721466,0.1275513470172882,0.7190226535358616,-0.4888162743675717,0.304615921920964,0.3889400135885083
1681312191443089700,1.898089599609375,1.918229579925537,0.7016195058822632,2.454137086868286,0.8321075439453125,0.43895381689071655,-0.338993638753891,0.23252874612808228,0.4645496606826782,0.07616111636161804,0.7173654681746521,-0.479739654470863,0.31678549371216197,0.39355260757478294
1681312191453134800,1.908134765625,2.124249219894409,0.7643211483955383,2.3205440044403076,0.8448022603988647,0.41192102432250977,-0.3415117859840393,0.21969664096832275,0.5603384971618652,0.07533755898475647,0.7162922983229639,-0.4700064680616278,0.32914743009206765,0.39709106889433715
1681312191463178800,1.9181787109375,2.1903066635131836,0.8153917789459229,2.1788759231567383,0.856549859046936,0.38526594638824463,-0.3433547019958496,0.17410504817962646,0.5973695516586304,0.05056914687156677,0.7154814373322874,-0.46005530099165737,0.3415724923779615,0.3997044733127303
1681312191473223700,1.9282236328125,2.339454174041748,0.8785975575447083,2.0272130966186523,0.8673243522644043,0.3592328429222107,-0.34452933073043823,0.12507688999176025,0.5684100389480591,0.05505496263504028,0.7149568480665588,-0.44994018242136663,0.35396210487867974,0.4013745773242085
1681312191483267800,1.938267822265625,2.4361419677734375,1.0094796419143677,1.8926628828048706,0.8773935437202454,0.3337816894054413,-0.34463104605674744,0.07844763994216919,0.5022779107093811,0.0878104567527771,0.7146517431983757,-0.4396989859503778,0.3665368734619367,0.40198084332324985
1681312191493313500,1.9483134765625,2.6738107204437256,1.0321487188339233,1.7572014331817627,0.8868576884269714,0.30887794494628906,-0.34362491965293884,0.03564310073852539,0.4766750633716583,0.0720643401145935,0.7145527517055423,-0.4292940137839501,0.3793338755875246,0.40153081264527607
1681312191503358700,1.958358642578125,2.9598677158355713,1.1146769523620605,1.5868276357650757,0.8955106735229492,0.2841140329837799,-0.3425493836402893,0.012082219123840332,0.53892982006073,0.05095398426055908,0.715154349858006,-0.41800934747051227,0.3924200535160036,0.3997863755274761
1681312191513402400,1.96840234375,3.2634987831115723,1.2574653625488281,1.3762840032577515,0.9036579728126526,0.26012784242630005,-0.3401999771595001,0.009290754795074463,0.5822336673736572,-0.0014441907405853271,0.7161901376744928,-0.40632382559041663,0.4059568487992214,0.3964490345656124
1681312191523447600,1.978447509765625,3.6526806354522705,1.3929531574249268,1.1785370111465454,0.9113746285438538,0.23669886589050293,-0.3367050588130951,-0.027615845203399658,0.6614792943000793,-0.027110189199447632,0.7178698379043723,-0.393821495798693,0.42018103154139425,0.391172212897718
1681312191533491700,1.98849169921875,3.858489513397217,1.4461368322372437,0.9270062446594238,0.9185609817504883,0.2143099457025528,-0.332140177488327,-0.0699891448020935,0.6698911190032959,-0.06313863396644592,0.7200766741813549,-0.3807189578653216,0.43472173388256524,0.384135075806422
1681312191543536400,1.998536376953125,3.8821911811828613,1.4708229303359985,0.638582706451416,0.9250150918960571,0.19426178932189941,-0.32651153206825256,-0.06911897659301758,0.6151711940765381,-0.15276694297790527,0.7226201337912473,-0.3677419411084844,0.44889876631440295,0.37560101730900614
1681312191553580500,2.00858056640625,3.6635549068450928,1.4882159233093262,0.4050447940826416,0.930757462978363,0.17715728282928467,-0.3198532164096832,-0.07293874025344849,0.5595980882644653,-0.18176409602165222,0.7251674605897523,-0.35553698940209966,0.4622411101263934,0.36614055713934546
1681312191563625500,2.01862548828125,3.122469186782837,1.4960485696792603,0.27094557881355286,0.9360615015029907,0.16318251192569733,-0.3117057681083679,-0.09098386764526367,0.47756460309028625,-0.18261784315109253,0.727060503318771,-0.3449997307677293,0.474470542513767,0.356701648621866
1681312191573670700,2.028670654296875,2.278808355331421,1.4975208044052124,0.12122026830911636,0.9409937262535095,0.15295620262622833,-0.3018864095211029,-0.10804682970046997,0.31268101930618286,-0.16060736775398254,0.7277526559717633,-0.3372575972334555,0.48509185946619476,0.3483093091035593
1681312191583714600,2.038714599609375,1.4968950748443604,1.4606176614761353,-0.016949590295553207,0.9454936981201172,0.1469527930021286,-0.29059699177742004,-0.1329326033592224,0.10376438498497009,-0.1345890462398529,0.7271499517966896,-0.3329039677306508,0.4938384831373812,0.3413964477345503
1681312191593759500,2.048759521484375,1.12868070602417,1.4375954866409302,-0.09296365827322006,0.9495221972465515,0.1438116729259491,-0.27879366278648376,-0.15397459268569946,0.0347771942615509,-0.12353464961051941,0.7258025396735258,-0.33078869072510286,0.501180616823478,0.33557051335491933
1681312191603803600,2.0588037109375,1.0794193744659424,1.4354239702224731,-0.16254355013370514,0.9532890319824219,0.142043799161911,-0.266577810049057,-0.15481173992156982,0.07809476554393768,-0.14249491691589355,0.724160727099353,-0.3295647274964718,0.5080336386017287,0.32997014078655695
1681312191613848300,2.068848388671875,1.1988543272018433,1.3987919092178345,-0.2513540983200073,0.9567059278488159,0.14103959500789642,-0.2546013295650482,-0.16392016410827637,0.19238020479679108,-0.15689751505851746,0.7227399368164171,-0.32828433542146235,0.5147122759786974,0.32395652400290276
1681312191623892500,2.078892578125,1.3622967004776,1.3274033069610596,-0.3134070634841919,0.9597105979919434,0.1406000852584839,-0.24328450858592987,-0.1725858449935913,0.2822209596633911,-0.1967635601758957,0.7217585207634535,-0.3265843690172628,0.5212488819485022,0.3173436188430385
1681312191633937700,2.088937744140625,1.467445731163025,1.2002546787261963,-0.3750952184200287,0.9622566103935242,0.1405056118965149,-0.23306778073310852,-0.15744692087173462,0.2844058871269226,-0.23786413669586182,0.7212893391051981,-0.3243270775656978,0.5275206716220382,0.3102833011844834
1681312191643982600,2.098982666015625,1.409685730934143,1.0485482215881348,-0.41722241044044495,0.9642783999443054,0.14103978872299194,-0.2242211252450943,-0.14097511768341064,0.25001245737075806,-0.27992913126945496,0.7212577232769769,-0.3218730812871142,0.5331858537306775,0.30314673869848413
1681312191654026500,2.109026611328125,1.2111090421676636,0.9233312010765076,-0.43199390172958374,0.9658530354499817,0.1422424167394638,-0.2165532410144806,-0.13656824827194214,0.1804504692554474,-0.32911616563796997,0.7213725003870617,-0.3197251995069138,0.538051273806538,0.2964768646521426
1681312191664071700,2.11907177734375,0.9249025583267212,0.8259133100509644,-0.4438369870185852,0.9670958518981934,0.14421473443508148,-0.20958992838859558,-0.1460202932357788,0.0932273268699646,-0.31688392162323,0.721358619352323,-0.3183304488675936,0.5420984772681772,0.29058013502711133
1681312191674115600,2.129115478515625,0.6519264578819275,0.7455881834030151,-0.4403133690357208,0.9680700898170471,0.1469191312789917,-0.20311418175697327,-0.16161245107650757,0.034752026200294495,-0.2604324221611023,0.7211158661412796,-0.31783813791049825,0.5453639423528833,0.2855681219642057
1681312191684160500,2.139160400390625,0.4421879053115845,0.6888841986656189,-0.41005104780197144,0.9688736200332642,0.14996716380119324,-0.19696226716041565,-0.17300552129745483,0.009319350123405457,-0.2206554412841797,0.7206229665366013,-0.3180610992408145,0.5480474442334392,0.2813963496439334
1681312191694204700,2.14920458984375,0.25488224625587463,0.6384574174880981,-0.3741644322872162,0.9695711135864258,0.15311779081821442,-0.19101577997207642,-0.17857062816619873,-0.0055805593729019165,-0.18090181052684784,0.7198999478290066,-0.31881567171040476,0.5503168868865191,0.27794256379275006
1681312191704249600,2.15924951171875,0.10114222019910812,0.5710592269897461,-0.32343176007270813,0.9701724052429199,0.1562030166387558,-0.18538179993629456,-0.1888001561164856,-0.028120726346969604,-0.1512574553489685,0.718986772950336,-0.3200015780296581,0.5521848309234209,0.27522558765653393
1681312191714294500,2.16929443359375,0.020268453285098076,0.5204237699508667,-0.2672901749610901,0.9707094430923462,0.15897300839424133,-0.18014255166053772,-0.20178824663162231,-0.04625628888607025,-0.13693495094776154,0.717970176871163,-0.321359925440562,0.5537657666687674,0.27311247185589344
1681312191724338400,2.17933837890625,-0.06585125625133514,0.4780539274215698,-0.21103385090827942,0.9712134599685669,0.16135260462760925,-0.175243079662323,-0.21242421865463257,-0.05237431824207306,-0.13008517026901245,0.7168745855570282,-0.3227880942642004,0.5551453000595356,0.2715005959907208
1681312191734383600,2.189383544921875,-0.1469937264919281,0.42859262228012085,-0.17717787623405457,0.9716898202896118,0.16341166198253632,-0.1706334948539734,-0.23450708389282227,-0.04991675913333893,-0.12027519941329956,0.7156894429547142,-0.32433530113777476,0.5563181334196831,0.27038039983228734
1681312191744427500,2.199427490234375,-0.16923804581165314,0.3593025207519531,-0.1485893875360489,0.9720845222473145,0.16530576348304749,-0.1665114164352417,-0.2551654577255249,-0.04518856108188629,-0.09638208150863647,0.7145530400235329,-0.32590153077568745,0.5572544139406389,0.2695735451069764
1681312191754472400,2.209472412109375,-0.2347031682729721,0.30080223083496094,-0.05847040191292763,0.9724555015563965,0.16667301952838898,-0.16294433176517487,-0.2600224018096924,-0.0313885360956192,-0.12518729269504547,0.713441028384185,-0.327364333766069,0.557996801759898,0.2692105716533638
1681312191764516600,2.2195166015625,-0.33814698457717896,0.23617638647556305,0.016557767987251282,0.9728662967681885,0.1673257201910019,-0.15979212522506714,-0.2575799226760864,-0.043103888630867004,-0.1657692790031433,0.7122289580595829,-0.32881252583960363,0.5585573058664165,0.2694923946976648
1681312191774561500,2.2295615234375,-0.46815285086631775,0.162705197930336,0.07769037038087845,0.973259687423706,0.1675119251012802,-0.1571802794933319,-0.2483144998550415,-0.08880706131458282,-0.16693150997161865,0.7109450232163689,-0.33038712974144246,0.5587971033162678,0.27045796146660855
1681312191784606500,2.2396064453125,-0.646431565284729,0.10739506036043167,0.1308627724647522,0.9736464619636536,0.16734622418880463,-0.1549454629421234,-0.230482280254364,-0.11505430936813354,-0.18764472007751465,0.7095050900833108,-0.3322480290910866,0.5586935775000257,0.2721680707372072
1681312191794650600,2.249650634765625,-0.8075690865516663,0.06547077745199203,0.1833435595035553,0.9740363955497742,0.16696439683437347,-0.15289263427257538,-0.21984010934829712,-0.1411770135164261,-0.17489653825759888,0.707833678333623,-0.33452895494553325,0.5582508924728823,0.27462322165843533
1681312191804695600,2.259695556640625,-0.8897079229354858,0.037805333733558655,0.23084476590156555,0.9744606614112854,0.16624398529529572,-0.15096265077590942,-0.22310245037078857,-0.16242925822734833,-0.15135961771011353,0.7059653867850031,-0.3370482435797588,0.557599461334192,0.2776588091191183
1681312191814739500,2.269739501953125,-0.8535743951797485,0.04289007559418678,0.20401820540428162,0.9748862981796265,0.16539838910102844,-0.14913173019886017,-0.22677826881408691,-0.14536358416080475,-0.12020103633403778,0.7040520506565898,-0.3396005242830879,0.5568712760890099,0.28084991013166627
1681312191824784600,2.27978466796875,-0.7587317228317261,0.033331990242004395,0.18043245375156403,0.9752492308616638,0.16480286419391632,-0.14740847051143646,-0.218001127243042,-0.06563594937324524,-0.08849233388900757,0.7023009226891126,-0.341993093598959,0.5561802683089818,0.28368613787100716
1681312191834828500,2.28982861328125,-0.6705121994018555,-0.007493766024708748,0.18313290178775787,0.9755613207817078,0.16410189867019653,-0.14612077176570892,-0.1991938352584839,-0.0015499591827392578,-0.08038057386875153,0.7007827904345455,-0.34402727158187385,0.5555041412895687,0.28629389107141373
1681312191844873500,2.29987353515625,-0.6548900604248047,-0.034195415675640106,0.23583020269870758,0.9758536219596863,0.1631232351064682,-0.14526115357875824,-0.15381675958633423,0.001641198992729187,-0.11145256459712982,0.6994233126197569,-0.34574926070690604,0.5548214751166277,0.2888559339335068
1681312191854918400,2.30991845703125,-0.768422544002533,-0.020615309476852417,0.3218074440956116,0.9762493371963501,0.16148734092712402,-0.14442835748195648,-0.09406226873397827,-0.07364244759082794,-0.12736105918884277,0.6978866495644163,-0.34742679219008,0.554148393272475,0.29183671865639427
1681312191864962600,2.319962646484375,-0.9049775004386902,0.002589080249890685,0.37926939129829407,0.976789653301239,0.1593017429113388,-0.1431957334280014,-0.07951176166534424,-0.2192687839269638,-0.07816337049007416,0.6959349864859545,-0.3493941355625185,0.5534671356387958,0.29541904370338223
1681312191875007700,2.3300078125,-0.9580826163291931,0.052484143525362015,0.4456692039966583,0.9774729013442993,0.15664559602737427,-0.1414530873298645,-0.11449676752090454,-0.28597909212112427,-0.006938502192497253,0.6936007448329058,-0.35157975620914345,0.5528699013060769,0.29940711497684747
1681312191885051400,2.340051513671875,-0.9052665829658508,0.09479804337024689,0.51761794090271,0.9783300757408142,0.15323074162006378,-0.1392512023448944,-0.10096484422683716,-0.2683735191822052,0.0038447976112365723,0.6909992468645477,-0.3536178018287576,0.5525656975097166,0.3035553352232775
1681312191895096600,2.3500966796875,-0.7555285096168518,0.11594345420598984,0.5489212274551392,0.9792815446853638,0.14914998412132263,-0.13697558641433716,-0.07266515493392944,-0.25558000802993774,0.004285275936126709,0.6884084470895581,-0.3551929718305083,0.5525849806465073,0.30754156162548574
1681312191905140700,2.360140625,-0.5767387747764587,0.1330593228340149,0.5382086634635925,0.9802545309066772,0.1446947604417801,-0.13477718830108643,-0.0773613452911377,-0.2192949503660202,-0.03670096397399902,0.6860374602781611,-0.35615558185483187,0.5529598627863672,0.31103286873173625
1681312191915185400,2.370185302734375,-0.4927160441875458,0.14504624903202057,0.5010301470756531,0.981184184551239,0.1402941346168518,-0.1326475888490677,-0.07839781045913696,-0.13089467585086823,-0.08376765251159668,0.6838888712267525,-0.35675238667264686,0.553537657203203,0.3140381143350836
1681312191925230600,2.380230712890625,-0.4548669159412384,0.14720579981803894,0.4718747138977051,0.9820528626441956,0.13614241778850555,-0.1305283010005951,-0.0695008635520935,-0.07120099663734436,-0.10836313664913177,0.681864803022895,-0.35725484142911107,0.5541703982812292,0.3167406493137851
1681312191935274500,2.3902744140625,-0.44024279713630676,0.13264100253582,0.40986618399620056,0.9828289747238159,0.1323631852865219,-0.1285591572523117,-0.05173754692077637,-0.05292592942714691,-0.12168489396572113,0.6799735483360988,-0.3577694717812205,0.5547264441557171,0.31924236750601426
1681312191945319700,2.400319580078125,-0.421958863735199,0.09264085441827774,0.31599748134613037,0.983454704284668,0.12931564450263977,-0.12686468660831451,-0.026896297931671143,-0.024853944778442383,-0.12386763095855713,0.6782930892559385,-0.3584079393333315,0.5550778403972462,0.3214824936232792
1681312191955363600,2.410363525390625,-0.463616281747818,0.07087569683790207,0.2518233060836792,0.9839169979095459,0.12710967659950256,-0.12550097703933716,-0.0009305477142333984,0.03286348283290863,-0.1212335079908371,0.6768292808686855,-0.35924383656150444,0.5551516678783701,0.3235006211065234
1681312191965408500,2.420408447265625,-0.5180938839912415,0.060979124158620834,0.1956324428319931,0.9842811822891235,0.12551936507225037,-0.12424009293317795,0.0011009573936462402,0.04458564519882202,-0.12388294190168381,0.6753967415570187,-0.36039689312174195,0.554972099885529,0.3255140366152308
1681312191975452400,2.430452392578125,-0.5541687607765198,0.03539226949214935,0.15731461346149445,0.9845633506774902,0.12446125596761703,-0.12306387722492218,-0.04266864061355591,-0.002146773040294647,-0.08753782510757446,0.6739841151233583,-0.36183274322503983,0.5545675148680589,0.32753251355546187
1681312191985497600,2.44049755859375,-0.49619415402412415,0.03335015848278999,0.20221364498138428,0.9848206639289856,0.12338251620531082,-0.12208735942840576,-0.062182605266571045,-0.04838555306196213,-0.07664293050765991,0.6726384906594864,-0.3631950217931413,0.5541170419459583,0.32954715086320957
1681312191995542500,2.45054248046875,-0.3948282301425934,0.03221621364355087,0.22072501480579376,0.9851256012916565,0.12181707471609116,-0.12119569629430771,-0.07643407583236694,-0.04326481372117996,-0.10503094643354416,0.6713766750404987,-0.36415888336657787,0.55388668581996,0.33143826858169745
1681312192005586700,2.460586669921875,-0.3182311952114105,0.01709185726940632,0.21070647239685059,0.9854186177253723,0.12012359499931335,-0.12050158530473709,-0.08559250831604004,-0.027197547256946564,-0.07378845661878586,0.6702897761834277,-0.36481044506166604,0.5537712029950861,0.33311034380369703
1681312192015631400,2.47063134765625,-0.25090473890304565,-0.010897433385252953,0.1932249516248703,0.985663652420044,0.11847139149904251,-0.12013282626867294,-0.051825642585754395,0.0016152933239936829,-0.045058660209178925,0.669427568458683,-0.3652029157168924,0.5536789825617244,0.3345642675889947
1681312192025675500,2.480675537109375,-0.2760383188724518,-0.04640482738614082,0.15239442884922028,0.9858338832855225,0.11706075817346573,-0.12011947482824326,-0.0009094476699829102,0.046269334852695465,-0.06045287847518921,0.668738886435003,-0.3655440944407614,0.5534598253505966,0.33592893965227605
1681312192035720700,2.490720703125,-0.3697662055492401,-0.07088588178157806,0.09909073263406754,0.9859076738357544,0.11621109396219254,-0.1203380674123764,0.032662391662597656,0.06791672110557556,-0.07431817054748535,0.6681160462275618,-0.3661542831479825,0.5529575099396028,0.3373279179033161
1681312192045764400,2.500764404296875,-0.549441933631897,-0.08338941633701324,0.07736972719430923,0.9859132170677185,0.11593452841043472,-0.12055943161249161,0.009509265422821045,0.07299981266260147,-0.07975786924362183,0.6673387293269584,-0.36733266939989373,0.5520751698931494,0.3390263942157122
1681312192055809500,2.5108095703125,-0.745278000831604,-0.07060740143060684,0.0865166187286377,0.9859089851379395,0.11589735001325607,-0.12063005566596985,-0.04502135515213013,0.002053096890449524,-0.04900181293487549,0.666224409925903,-0.3691383225571993,0.5508374284201975,0.3412627295717548
1681312192065854500,2.5208544921875,-0.8050252199172974,-0.061778225004673004,0.05401859059929848,0.9859136343002319,0.11616531014442444,-0.1203341856598854,-0.08303564786911011,-0.10285960882902145,-0.011471092700958252,0.6648094744627543,-0.3714791272736908,0.5493961812162929,0.3437959621149754
1681312192075898600,2.530898681640625,-0.7386642694473267,-0.010602709837257862,0.11002247780561447,0.9859558939933777,0.11631707847118378,-0.11984023451805115,-0.10614919662475586,-0.10247734189033508,0.0007302761077880859,0.6633448174712827,-0.37376079690963304,0.5480718486053161,0.3462570653888499
1681312192085943600,2.540943603515625,-0.6277915835380554,0.036828454583883286,0.10241382569074631,0.9861049652099609,0.11603440344333649,-0.11888387054204941,-0.12415105104446411,-0.11630905419588089,0.027239739894866943,0.6618211503058586,-0.37575559869898445,0.5471433052028479,0.34847507011761614
1681312192095987500,2.550987548828125,-0.5249019861221313,0.07195105403661728,0.07660725712776184,0.9862690567970276,0.11585789173841476,-0.11768826097249985,-0.09304994344711304,-0.13122346997261047,0.04858136922121048,0.6604204800113125,-0.3775428658043547,0.5464588310886788,0.3502699295605465
1681312192106032600,2.56103271484375,-0.39863699674606323,0.09298203885555267,0.045339349657297134,0.9864388704299927,0.11578241735696793,-0.11633215844631195,-0.06743234395980835,-0.07383599877357483,0.011046648025512695,0.6592252174600419,-0.3790184908437419,0.5460576025273768,0.35155144221854645
1681312192116076500,2.57107666015625,-0.3828094005584717,0.0879702940583229,0.017954863607883453,0.9865766763687134,0.1159319058060646,-0.11500763893127441,-0.08406484127044678,-0.012812964618206024,-0.049192026257514954,0.658188205636595,-0.38037732918816697,0.5457190373132094,0.3525512336051337
1681312192126121500,2.58112158203125,-0.4003971815109253,0.06579867750406265,0.030254140496253967,0.9866947531700134,0.1161530539393425,-0.11376425623893738,-0.1006929874420166,-0.0008728951215744019,-0.10786956548690796,0.6571846453945717,-0.38174157438774886,0.545335898008622,0.35354022210756825
1681312192136166700,2.591166748046875,-0.43906956911087036,0.035428162664175034,0.018989767879247665,0.9867846965789795,0.1163543239235878,-0.11277355253696442,-0.11651480197906494,-0.02301628142595291,-0.11548250913619995,0.6561872036862008,-0.38314459199154033,0.5448058775734553,0.354690405205633
1681312192146210600,2.60121044921875,-0.3830704689025879,0.013535648584365845,0.0069663948379457,0.9868232607841492,0.11672555655241013,-0.11205069720745087,-0.11727046966552734,-0.04328497499227524,-0.10639399290084839,0.6553020885452038,-0.38453049994789124,0.5441607735825977,0.35581554192225684
1681312192156255500,2.61125537109375,-0.32061460614204407,-0.0014585698954761028,-0.009365973062813282,0.9868277311325073,0.11712384968996048,-0.1115931048989296,-0.09327304363250732,-0.02085612714290619,-0.11756323277950287,0.65461412874838,-0.3856901400563196,0.5435499650639195,0.35675890343872224
1681312192166299600,2.621299560546875,-0.37041518092155457,0.005503465887159109,-0.04772721230983734,0.9867949485778809,0.11777523159980774,-0.11119788140058517,-0.07077920436859131,-0.0022203922271728516,-0.1389850378036499,0.6540158724740194,-0.3868647990180396,0.5428965715326137,0.35757842702258175
1681312192176344600,2.631344482421875,-0.5505093932151794,0.04211743175983429,-0.07523313164710999,0.9867486357688904,0.11893260478973389,-0.11037395894527435,-0.06359177827835083,-0.012990795075893402,-0.1164783239364624,0.6531717735429428,-0.3885862719618951,0.5420458734452099,0.3585439780312935
1681312192186388500,2.641388427734375,-0.7386963367462158,0.007450266741216183,-0.032951727509498596,0.986704409122467,0.12020904570817947,-0.10938259214162827,-0.028498053550720215,-0.058944977819919586,-0.07003015279769897,0.6519431618717813,-0.39090868592201533,0.5408318617404303,0.3600855198713868
1681312192196433700,2.65143359375,-0.7518606185913086,-0.046172332018613815,-0.03738163039088249,0.986646831035614,0.121350958943367,-0.10863931477069855,0.04744160175323486,-0.14959493279457092,-0.02414257824420929,0.650553528362402,-0.3934440795820069,0.5393348668522528,0.3620773796568771
1681312192206478600,2.661478515625,-0.5628302693367004,-0.09472095966339111,-0.06558316946029663,0.9865036010742188,0.12260899692773819,-0.10852708667516708,0.18128228187561035,-0.1391494870185852,-0.0021447688341140747,0.6495201599728391,-0.3956393007254853,0.5377787645447452,0.36385074327285444
1681312192216522500,2.6715224609375,-0.3223351538181305,-0.16972507536411285,-0.1025872603058815,0.9862579107284546,0.12391170114278793,-0.10927768796682358,0.30172139406204224,-0.0000713542103767395,-0.04405772686004639,0.6491503154403767,-0.39705611199150753,0.5363838179982973,0.3650245283115782
1681312192226567400,2.6815673828125,-0.20089873671531677,-0.2601979970932007,-0.13591060042381287,0.985868513584137,0.12539340555667877,-0.11108555644750595,0.3844929337501526,0.12140226364135742,-0.09780710935592651,0.6494439429006523,-0.3978155248629725,0.5349766641462366,0.36573965211756904
1681312192236611600,2.691611572265625,-0.2152761071920395,-0.3524232804775238,-0.1418963223695755,0.9853441119194031,0.127009317278862,-0.1138688251376152,0.463203489780426,0.14204895496368408,-0.12535835802555084,0.6501227823477276,-0.39828443210482245,0.5333245712660055,0.36643562906271687
1681312192246656800,2.70165673828125,-0.2990463674068451,-0.42695531249046326,-0.15253512561321259,0.9847021102905273,0.12874576449394226,-0.11741648614406586,0.4983149766921997,0.05736570060253143,-0.11868256330490112,0.6509290308704624,-0.3987829567805023,0.5312851480444872,0.36742325906189766
1681312192256700400,2.711700439453125,-0.4187898635864258,-0.4771157205104828,-0.17599624395370483,0.9839332699775696,0.13082773983478546,-0.12149084359407425,0.4520716667175293,-0.030424848198890686,-0.08827157318592072,0.6517452435516456,-0.39954665356317876,0.5287882837361607,0.36874637770336216
1681312192266745600,2.72174560546875,-0.5613523721694946,-0.4265170097351074,-0.15858130156993866,0.9831276535987854,0.1331653892993927,-0.1254088580608368,0.3768883943557739,-0.07728765904903412,-0.059481799602508545,0.6523055789700494,-0.40076338414069423,0.5260078697863246,0.37040795135578897
1681312192276790500,2.73179052734375,-0.6413109302520752,-0.33467936515808105,-0.09127441793680191,0.9824654459953308,0.1352062225341797,-0.12837916612625122,0.29414600133895874,-0.1212901920080185,-0.0068288445472717285,0.6523364979817063,-0.40236821860412686,0.5233643384382779,0.372353158598412
1681312192286834400,2.74183447265625,-0.6967512965202332,-0.21294255554676056,0.006763994228094816,0.9820448756217957,0.13652171194553375,-0.1301921010017395,0.2013201117515564,-0.18553291261196136,0.08394289016723633,0.6517875906473113,-0.4041645868696828,0.5211093309763535,0.37452525747004717
1681312192296879600,2.751879638671875,-0.6364255547523499,-0.09377571940422058,0.10191874206066132,0.9819203019142151,0.13687224686145782,-0.13076280057430267,0.14469724893569946,-0.27204984426498413,0.16071593761444092,0.6507040902523707,-0.40595120491515246,0.519444144432126,0.37678350028797936
1681312192306923500,2.761923583984375,-0.44215700030326843,0.033645886927843094,0.1611594259738922,0.9820659160614014,0.13625945150852203,-0.13030819594860077,0.12556970119476318,-0.29191434383392334,0.1908552050590515,0.6494176527626693,-0.40731723500541434,0.5185928746383502,0.37869643916002543
1681312192316968400,2.771968505859375,-0.22144845128059387,0.12366250902414322,0.18088093400001526,0.9824018478393555,0.13499251008033752,-0.12908808887004852,0.1195574402809143,-0.21621502935886383,0.18141062557697296,0.648209180270522,-0.40809564489390937,0.5185690877474813,0.37995919188131677
1681312192327013400,2.782013427734375,-0.08359072357416153,0.18956616520881653,0.18687810003757477,0.9828572273254395,0.13335661590099335,-0.12731017172336578,0.1133953332901001,-0.10566189885139465,0.15666820108890533,0.6471361717156949,-0.4083994143974401,0.5191867057535243,0.3806178436703893
1681312192337057500,2.7920576171875,-0.031524017453193665,0.2348519116640091,0.1947179138660431,0.9833757877349854,0.13156184554100037,-0.12515632808208466,0.12081152200698853,-0.04403740167617798,0.1307106465101242,0.6461171740021987,-0.4084817569423196,0.520158136731438,0.3809344512634531
1681312192347102700,2.802102783203125,-0.01217695139348507,0.27012309432029724,0.19980747997760773,0.9839489459991455,0.12963375449180603,-0.12263690680265427,0.13740432262420654,-0.04172782599925995,0.09884858131408691,0.6450330927634235,-0.40851906819906525,0.5213383900839367,0.38111799918187295
1681312192357146600,2.812146728515625,-0.1021932065486908,0.31778866052627563,0.18934765458106995,0.9845593571662903,0.12774606049060822,-0.11968407034873962,0.15052688121795654,-0.04597418010234833,0.07801246643066406,0.6437941485320484,-0.4087142335672671,0.5225998863446789,0.38127600928554684
1681312192367191600,2.822191650390625,-0.2656646966934204,0.32529184222221375,0.2321004420518875,0.9852038025856018,0.12594236433506012,-0.1162429228425026,0.1525375247001648,-0.04757319390773773,0.05284278094768524,0.6421812186217467,-0.4093810985831317,0.5237228805499735,0.3817394185801257
1681312192377235700,2.832235595703125,-0.3689163625240326,0.3572155833244324,0.3007658123970032,0.9859356880187988,0.12362883239984512,-0.11245930939912796,0.1330220103263855,-0.09799404442310333,0.060793161392211914,0.6400759096148089,-0.41039143680502,0.5247372799449052,0.38279585663528576
1681312192387280400,2.8422802734375,-0.28581827878952026,0.37592190504074097,0.3222905397415161,0.9867257475852966,0.12090875208377838,-0.10841361433267593,0.11550819873809814,-0.1491374969482422,0.07951361685991287,0.6378289230940637,-0.41133161078601876,0.5259272749136787,0.3839025492425596
1681312192397325600,2.85232568359375,-0.23543041944503784,0.38533684611320496,0.38350194692611694,0.9875498414039612,0.11770975589752197,-0.10435468703508377,0.09399324655532837,-0.07179605215787888,0.03840631991624832,0.6356287732720926,-0.4119460799061488,0.5273737597764379,0.38490710112523946
1681312192407369700,2.86236962890625,-0.2620106637477875,0.40612417459487915,0.4459690749645233,0.9884403347969055,0.11382224410772324,-0.10015138983726501,0.08033108711242676,-0.06046224385499954,-0.00989484041929245,0.6332743204878855,-0.4123743174185617,0.5290290409151548,0.3860562077735482
1681312192417414400,2.872414306640625,-0.3507901132106781,0.41058382391929626,0.5071426630020142,0.9893797636032104,0.10939241945743561,-0.09571342915296555,0.053100764751434326,-0.10814119130373001,-0.015034720301628113,0.6306149033829657,-0.4128830213547838,0.5307267612086607,0.38753270476959784
1681312192427458600,2.88245849609375,-0.3342028856277466,0.41037848591804504,0.5831636190414429,0.9903472065925598,0.1042967364192009,-0.09129513800144196,0.001275777816772461,-0.1567106544971466,0.002824850380420685,0.627741395830789,-0.41332227750008066,0.5324632634125075,0.38934354828919643
1681312192437503500,2.89250341796875,-0.26016736030578613,0.4529728889465332,0.614681601524353,0.9913488626480103,0.09856130927801132,-0.086680106818676,-0.03839153051376343,-0.15601062774658203,-0.023274600505828857,0.6247792133727823,-0.4134942113904671,0.5344927358874575,0.3911408348557115
1681312192447547400,2.90254736328125,-0.16261602938175201,0.4335800111293793,0.6481644511222839,0.9923269152641296,0.09250399470329285,-0.0820397213101387,-0.07310682535171509,-0.10600801557302475,-0.03986262530088425,0.62192772614905,-0.4133243920777821,0.536789612514422,0.39271605870810816
1681312192457592600,2.912592529296875,-0.0780000239610672,0.3939395844936371,0.6543627381324768,0.9932511448860168,0.08601216971874237,-0.07780993729829788,-0.0864211916923523,-0.08675985783338547,-0.06041925400495529,0.6192553380633743,-0.4127315575350602,0.5392102500242215,0.39424349565215716
1681312192467637500,2.922637451171875,0.008999058976769447,0.3254803717136383,0.5904449820518494,0.9940409064292908,0.07985024154186249,-0.07420948892831802,-0.09418416023254395,-0.0767984613776207,-0.14382320642471313,0.6169807070801637,-0.41186898025715885,0.541534116205561,0.3955246553950642
1681312192477681700,2.932681640625,-0.028768178075551987,0.3092799484729767,0.5544965863227844,0.9947150945663452,0.07409262657165527,-0.07108095288276672,-0.11306208372116089,0.028919488191604614,-0.2334996461868286,0.61499289768579,-0.41090403793386765,0.5437070874820938,0.39664142292480237
1681312192487724300,2.942724365234375,-0.1534038484096527,0.270184189081192,0.5249160528182983,0.9953010082244873,0.0688251405954361,-0.06811115890741348,-0.14331120252609253,0.059836991131305695,-0.23318874835968018,0.6129439569218434,-0.41030829783056194,0.5455194958358605,0.39793888924958415
1681312192497768400,2.9527685546875,-0.1444762796163559,0.27472540736198425,0.5407648086547852,0.995839536190033,0.06357700377702713,-0.06528159230947495,-0.21275842189788818,-0.006036095321178436,-0.17727196216583252,0.6107892482628912,-0.40988359819660936,0.547133109572362,0.39947133561666426
1681312192507813400,2.9628134765625,-0.0025945177767425776,0.27164119482040405,0.5016613006591797,0.9963362812995911,0.05839109420776367,-0.06248781085014343,-0.2732221484184265,-0.08013486862182617,-0.12635481357574463,0.6088101442165714,-0.4092497772797346,0.5488813291745727,0.40074212243835455
1681312192517857300,2.972857177734375,0.22431491315364838,0.27055925130844116,0.4478689730167389,0.9967722296714783,0.0535203255712986,-0.05984383076429367,-0.3033972978591919,-0.047264207154512405,-0.1527109146118164,0.6073250355287817,-0.40813032108316527,0.5509153529519939,0.40134586379515724
1681312192527902500,2.98290234375,0.3735707104206085,0.26193514466285706,0.3310624659061432,0.9971320033073425,0.04942546412348747,-0.05731673166155815,-0.3089909553527832,0.027082130312919617,-0.2120618224143982,0.6064266180896996,-0.40664481397189034,0.5531560630938428,0.40113002870192943
1681312192537947400,2.992947509765625,0.41798314452171326,0.24884158372879028,0.22815044224262238,0.9974090456962585,0.046403031796216965,-0.05497504025697708,-0.326632559299469,0.053526777774095535,-0.23864972591400146,0.6059701906197242,-0.4051669429489637,0.5552947220416187,0.4003596017290681
1681312192547991600,3.002991455078125,0.5149688124656677,0.24128220975399017,0.15338432788848877,0.9976244568824768,0.04428275674581528,-0.05277138203382492,-0.3660935163497925,0.028013408184051514,-0.26763248443603516,0.6058590791255131,-0.40372549471568947,0.557332964580677,0.39914986736592933
1681312192558036200,3.0130361328125,0.7183569669723511,0.24656887352466583,0.090053029358387,0.9978002905845642,0.042740751057863235,-0.05067691206932068,-0.40954333543777466,0.029799550771713257,-0.2962772846221924,0.6061805473852837,-0.40200783868436296,0.5595098219487321,0.3973459400337103
1681312192568080400,3.023080322265625,0.9670807719230652,0.23194625973701477,0.046306610107421875,0.9979473352432251,0.041672367602586746,-0.04862977936863899,-0.41915076971054077,0.07908568531274796,-0.32106006145477295,0.6070833758556782,-0.3997205629095612,0.5620574546756395,0.3946705500456092
1681312192578125600,3.03312548828125,1.1071653366088867,0.18430380523204803,-0.024330807849764824,0.9980546832084656,0.04103468731045723,-0.04693979397416115,-0.38231658935546875,0.12501147389411926,-0.3051413893699646,0.6085401870471768,-0.3969208952568518,0.5647866027043149,0.39134244725410144
1681312192588170500,3.04317041015625,1.0871530771255493,0.11473245173692703,-0.06745537370443344,0.9981033205986023,0.041010525077581406,-0.04591710492968559,-0.32389354705810547,0.1693471372127533,-0.273754358291626,0.6104134973890243,-0.39396335645268926,0.5673044349073123,0.38775527655823494
1681312192598214400,3.05321435546875,0.971519947052002,0.024873405694961548,-0.11333737522363663,0.9980987310409546,0.04143056273460388,-0.045637182891368866,-0.24080491065979004,0.1853303164243698,-0.267961323261261,0.6124228991526355,-0.3911813087273674,0.5693492704334723,0.38439165790336854
1681312192608259300,3.06325927734375,0.8226351141929626,-0.05501636490225792,-0.14619094133377075,0.998035192489624,0.042337700724601746,-0.04619137942790985,-0.17508280277252197,0.15585872530937195,-0.2634550929069519,0.6144784095321627,-0.3887687716026629,0.5707566492258067,0.3814605872310911
1681312192618303200,3.07330322265625,0.7319550514221191,-0.12611785531044006,-0.16870024800300598,0.9979249238967896,0.04354016110301018,-0.04743655398488045,-0.15150457620620728,0.12438282370567322,-0.23851299285888672,0.616537927949783,-0.38666093304402466,0.5716424114552422,0.3789450292281667
1681312192628348400,3.083348388671875,0.8348324298858643,-0.17481163144111633,-0.1833614706993103,0.9977717995643616,0.044927310198545456,-0.049328822642564774,-0.14359992742538452,0.08982307463884354,-0.1683223843574524,0.6188110548908153,-0.3844770866817042,0.5722874789517142,0.3764803962627417
1681312192638392600,3.093392578125,0.9881548285484314,-0.1698780357837677,-0.22726261615753174,0.9975895881652832,0.046518467366695404,-0.05149252712726593,-0.13147002458572388,0.0665796771645546,-0.09172636270523071,0.6214508216412393,-0.3819010113685471,0.5730666222848153,0.3735577248021982
1681312192648437500,3.1034375,1.1654707193374634,-0.12164045125246048,-0.20867589116096497,0.9974042177200317,0.048184942454099655,-0.053511280566453934,-0.08445543050765991,0.09854356944561005,-0.05868643522262573,0.6243561523994582,-0.3788962300990095,0.5741794199454633,0.37004760969516043
1681312192658482400,3.113482421875,1.260718822479248,-0.06881917268037796,-0.2650933265686035,0.9972435832023621,0.049789831042289734,-0.055013131350278854,-0.01804119348526001,0.08552512526512146,-0.007913943380117416,0.6273471235945202,-0.375547831189609,0.5757232501652944,0.36598128857584433
1681312192668526300,3.1235263671875,1.2998178005218506,-0.028405439108610153,-0.31522494554519653,0.997064471244812,0.052046969532966614,-0.05615827813744545,0.03581833839416504,0.07200698554515839,0.06766349077224731,0.630450738982694,-0.3722488212647753,0.5773661546997031,0.3614016132030388
1681312192678571500,3.133571533203125,1.1624046564102173,0.009601982310414314,-0.34847292304039,0.9968817830085754,0.05463195964694023,-0.056939929723739624,0.06847167015075684,0.12517762184143066,0.11170388013124466,0.6334002264859155,-0.3692229551891429,0.578968432015655,0.35675507094274417
1681312192688615400,3.143615478515625,0.9604278802871704,0.031277984380722046,-0.37663984298706055,0.9966881275177002,0.05770065262913704,-0.057303015142679214,0.10791099071502686,0.08979080617427826,0.11913180351257324,0.6359313964054333,-0.36697825224512226,0.5802374130355582,0.35248100332772875
1681312192698660400,3.153660400390625,0.8937922716140747,0.07264027744531631,-0.3544163107872009,0.9965007901191711,0.06081390380859375,-0.05734061077237129,0.15738415718078613,0.050224315375089645,0.09478580951690674,0.6381221895609475,-0.36517390904105695,0.5813585042323146,0.34852611814503887
1681312192708704500,3.16370458984375,0.8968628644943237,0.09043977409601212,-0.3503597676753998,0.9963244795799255,0.06384597718715668,-0.05711177736520767,0.16372525691986084,0.04938953369855881,0.11211984604597092,0.6401420388528806,-0.3634810465697918,0.5825166434735848,0.34463652178258103
1681312192718749400,3.17374951171875,0.9159525632858276,0.10514078289270401,-0.3401750326156616,0.9961549043655396,0.06675785034894943,-0.05673995986580849,0.16336077451705933,0.06281979382038116,0.13938170671463013,0.6420951038696127,-0.3617407095508369,0.583758237198036,0.34071127186851413
1681312192728794400,3.18379443359375,0.9305893182754517,0.12990498542785645,-0.38605013489723206,0.9959744215011597,0.06984025985002518,-0.056193191558122635,0.18656671047210693,0.05894394963979721,0.1617078185081482,0.6440355009241274,-0.36001693172854693,0.5850565899361834,0.3366230881898091
1681312192738838500,3.193838623046875,0.9942008256912231,0.14748910069465637,-0.42697277665138245,0.9957562685012817,0.07340669631958008,-0.0555092953145504,0.2205677628517151,0.09569121897220612,0.15095317363739014,0.6460518261563796,-0.35834565666381263,0.5863733813498385,0.3322226502522333
1681312192748883500,3.203883544921875,0.9631075859069824,0.17044341564178467,-0.48679670691490173,0.995501697063446,0.07739657163619995,-0.05465119332075119,0.21749603748321533,0.14129242300987244,0.11376392096281052,0.648093887511062,-0.35675647098733604,0.5877067503783826,0.327567110139631
1681312192758927400,3.21392724609375,0.9425418972969055,0.1462811827659607,-0.510932981967926,0.9951861500740051,0.08190662413835526,-0.05381527170538902,0.17844372987747192,0.13441723585128784,0.10203319787979126,0.6501537764505827,-0.3553850472043763,0.5888920373481218,0.32281234161369143
1681312192768972300,3.22397216796875,1.0052462816238403,0.10400030016899109,-0.5499938130378723,0.9948101043701172,0.08663446456193924,-0.05336090922355652,0.1517658233642578,0.08519474416971207,0.05940354987978935,0.652338733381412,-0.35399194682651036,0.5899230857119142,0.31801675336145824
1681312192779017500,3.234017578125,1.1347861289978027,0.02461155876517296,-0.5755324363708496,0.9943327903747559,0.09177267551422119,-0.05366960167884827,0.11853665113449097,0.0774015262722969,-0.006480395793914795,0.6549543737675383,-0.35226912172638714,0.5908228710870312,0.31284141977924923
1681312192789061400,3.244061279296875,1.1659072637557983,-0.06958232074975967,-0.5981677174568176,0.9937711358070374,0.09693938493728638,-0.05497178062796593,0.0998263955116272,0.16780062019824982,-0.08566832542419434,0.657962759596939,-0.3501429157722887,0.591535331667325,0.3075239951318663
1681312192799106300,3.254106201171875,1.1700150966644287,-0.17751610279083252,-0.6636905670166016,0.9930641055107117,0.10260722786188126,-0.05740704387426376,0.1147392988204956,0.18741658329963684,-0.1552545428276062,0.6613615114976904,-0.34795590912337765,0.5917965553961517,0.3021663945151534
1681312192809150500,3.264150390625,1.032065749168396,-0.2603321373462677,-0.6858941316604614,0.9922117590904236,0.10869453847408295,-0.06083868816494942,0.07974869012832642,0.19414666295051575,-0.13352762162685394,0.6649887900010805,-0.34592253759568864,0.5915388867036274,0.2970004933580337
1681312192819195400,3.2741953125,0.7349851727485657,-0.28154605627059937,-0.7227101922035217,0.9912418723106384,0.11519572138786316,-0.06457377970218658,0.023727118968963623,0.13918356597423553,-0.07963686436414719,0.6683970373576089,-0.34463958610812323,0.5907086119593924,0.2924592827132515
1681312192829239300,3.2842392578125,0.544651985168457,-0.27874094247817993,-0.6774484515190125,0.9902134537696838,0.12179215252399445,-0.06814806908369064,0.0012264251708984375,0.011432342231273651,0.03705079108476639,0.6713509583118784,-0.34420736344879466,0.5894465680825564,0.2887248402093996
1681312192839284500,3.294284423828125,0.5565986633300781,-0.2642877399921417,-0.6691907644271851,0.989176332950592,0.12809234857559204,-0.07157358527183533,0.01627117395401001,-0.10677580535411835,0.10677576810121536,0.6740618737532461,-0.3439880928436576,0.5881202262981508,0.2853550661109736
1681312192849329400,3.304329345703125,0.6883025765419006,-0.2308426946401596,-0.6109591722488403,0.9881395697593689,0.13406404852867126,-0.07488197088241577,0.014927566051483154,-0.07955963909626007,0.07091481238603592,0.6768020644370685,-0.3434217376948307,0.5870438877234146,0.28174472158009756
1681312192859373300,3.314373291015625,0.7651615142822266,-0.21145214140415192,-0.5393944382667542,0.9871756434440613,0.13922438025474548,-0.07811015099287033,0.021354198455810547,-0.013293564319610596,0.04159599542617798,0.6795312306721508,-0.34231865054707594,0.5863129412060546,0.2780153906998846
1681312192869418500,3.32441845703125,0.7667705416679382,-0.1817871779203415,-0.470412939786911,0.9863026738166809,0.14358794689178467,-0.08117698132991791,0.030909299850463867,-0.06489835679531097,0.03767431527376175,0.6821330721111922,-0.34089267778703575,0.5858358903392584,0.2743775182645316
1681312192879462400,3.33446240234375,0.7172229290008545,-0.15694986283779144,-0.4378182590007782,0.985493540763855,0.14748232066631317,-0.08397378027439117,0.019679248332977295,-0.08395996689796448,0.06407643109560013,0.6845413312208198,-0.33943063104741,0.5854912099079107,0.270906091143903
1681312192889507600,3.344507568359375,0.6661096811294556,-0.12880663573741913,-0.41964244842529297,0.9847309589385986,0.1511104255914688,-0.08643371611833572,0.029276728630065918,-0.08452104032039642,0.10085338354110718,0.6867130916857567,-0.33811810175564305,0.5852002151920614,0.2676603811453295
1681312192899552300,3.35455224609375,0.6537441611289978,-0.11446058005094528,-0.42879146337509155,0.9839684963226318,0.15472644567489624,-0.08869128674268723,0.04169696569442749,-0.06495895981788635,0.11249512434005737,0.6887694833975813,-0.3369157597493606,0.584929163995298,0.2644663386313975
1681312192909596400,3.364596435546875,0.6158711314201355,-0.11801403760910034,-0.46398380398750305,0.9831631779670715,0.15853451192378998,-0.0908692330121994,0.05238991975784302,-0.032573193311691284,0.09276146441698074,0.6907810339178672,-0.3358540337337678,0.5846088005700443,0.26125905257544024
1681312192919641600,3.3746416015625,0.5604286193847656,-0.12956330180168152,-0.5197778344154358,0.9822463393211365,0.16286930441856384,-0.0930924341082573,0.06873351335525513,-0.012524425983428955,0.06631337851285934,0.6927988530972438,-0.33508451490229485,0.5840994346827059,0.25802373232248704
1681312192929685200,3.384685302734375,0.5053006410598755,-0.13012176752090454,-0.5539507269859314,0.9812237620353699,0.16768448054790497,-0.09530004113912582,0.07364696264266968,0.019281506538391113,0.03493642807006836,0.6947859173864738,-0.33462964759074465,0.5834149272751185,0.25479931943781325
1681312192939730400,3.39473046875,0.3222222328186035,-0.14601661264896393,-0.5582807660102844,0.9801321029663086,0.17278550565242767,-0.09739840030670166,0.05459702014923096,0.03018692135810852,0.003938436508178711,0.6966107496737336,-0.3346267963663659,0.5825167023835786,0.2518586506267427
1681312192949774600,3.404774658203125,0.13122697174549103,-0.16719700396060944,-0.5258453488349915,0.9790093302726746,0.17792777717113495,-0.09941144287586212,0.039408087730407715,-0.005182996392250061,-0.015548162162303925,0.6981706787086595,-0.3351909839914036,0.5813271726037404,0.2495266666949419
1681312192959819300,3.4148193359375,-0.11969861388206482,-0.20283423364162445,-0.5219986438751221,0.9778729677200317,0.1830592155456543,-0.1012616828083992,0.05044740438461304,-0.0455317348241806,-0.023219391703605652,0.6993801417778838,-0.3364588771237855,0.5797970173409331,0.24798860200351397
1681312192969864400,3.424864501953125,-0.38221147656440735,-0.22628363966941833,-0.49092939496040344,0.9766936898231506,0.18835680186748505,-0.10291549563407898,0.07120382785797119,-0.06442488729953766,-0.003392338752746582,0.7002155935273209,-0.33857914921525656,0.5778463572976843,0.24729757225096438
1681312192979908400,3.434908447265625,-0.5247859954833984,-0.24995332956314087,-0.430812805891037,0.9755479693412781,0.19338390231132507,-0.1044459119439125,0.0719832181930542,-0.07038278877735138,0.0024563223123550415,0.7007176892468755,-0.3412386729744355,0.575615506200413,0.24742214433793655
1681312192989953500,3.44495361328125,-0.454364538192749,-0.23163104057312012,-0.3782561123371124,0.9744921922683716,0.19789989292621613,-0.10583411157131195,0.07418346405029297,-0.09078317880630493,0.022826440632343292,0.7010588670284033,-0.34388089808798294,0.5734360218672163,0.24785817423966885
1681312192999997400,3.45499755859375,-0.2783588171005249,-0.2064107060432434,-0.2846156358718872,0.9735825061798096,0.2015620321035385,-0.10728438198566437,0.061207592487335205,-0.08870802819728851,0.0797424465417862,0.7014791396841704,-0.3458624035071042,0.5716091378901711,0.24813151902768985
1681312193010042400,3.46504248046875,-0.045264825224876404,-0.16814054548740387,-0.2058124542236328,0.9728756546974182,0.20414412021636963,-0.10880450904369354,0.04264265298843384,-0.062435731291770935,0.10663796216249466,0.7020566967326701,-0.3468806558211688,0.5703258328079976,0.2480298406413449
1681312193020087600,3.475087646484375,-0.005306186620146036,-0.13390754163265228,-0.13359685242176056,0.97236168384552,0.20580045878887177,-0.11026950925588608,0.05775940418243408,-0.05582176148891449,0.13067059218883514,0.7026710791353586,-0.34723890963662607,0.5694649999065332,0.24776678549438494
1681312193030131500,3.48513134765625,-0.04419632628560066,-0.11747024208307266,-0.09909479320049286,0.9719754457473755,0.206962451338768,-0.11149264127016068,0.06913185119628906,-0.10221084952354431,0.14745771884918213,0.7031587455521072,-0.34746532965506405,0.5687895263429565,0.2476171756561999
1681312193040176400,3.49517626953125,-0.16068431735038757,-0.08997005969285965,-0.08123057335615158,0.9716736078262329,0.20793476700782776,-0.11231265217065811,0.06679409742355347,-0.11062939465045929,0.14603470265865326,0.7033887983584517,-0.3479522045539776,0.5681310905561238,0.247791926172454
1681312193050220500,3.505220458984375,-0.1966433823108673,-0.06280635297298431,-0.08709591627120972,0.9714027643203735,0.208985835313797,-0.11270230263471603,0.07185602188110352,-0.1083846241235733,0.13682663440704346,0.703404169315458,-0.3487420147809112,0.5674749809599958,0.24814075088860227
1681312193060265200,3.51526513671875,-0.2693955600261688,-0.02111559733748436,-0.060150325298309326,0.9711931347846985,0.20997123420238495,-0.11267738789319992,0.05991959571838379,-0.06144215166568756,0.12598317861557007,0.7032283706017552,-0.3497055052116843,0.5668927294682452,0.2486135579790742
1681312193070309400,3.525309326171875,-0.34920597076416016,0.015969185158610344,-0.021219970658421516,0.9711108803749084,0.21068188548088074,-0.11205858737230301,0.04538404941558838,-0.05061715841293335,0.10975462198257446,0.702739241139957,-0.35090180676089266,0.5664261889446837,0.24937322645467774
1681312193080354600,3.5353544921875,-0.33791953325271606,0.02593899704515934,0.000015277881175279617,0.971095621585846,0.2112392634153366,-0.11113717406988144,0.044529497623443604,-0.08227193355560303,0.1231154203414917,0.7020821488136786,-0.35222567047790965,0.5660110328461719,0.2502985247083892
1681312193090399500,3.5453994140625,-0.30813899636268616,0.05276501551270485,0.032756444066762924,0.9711712002754211,0.2114640772342682,-0.11004402488470078,0.028203308582305908,-0.0933762639760971,0.10827416181564331,0.7013745369795877,-0.3533760416155465,0.5657767768092615,0.2511890350908881
1681312193100443400,3.555443359375,-0.38240188360214233,0.10165680944919586,0.07428312301635742,0.9713736176490784,0.21128025650978088,-0.10860138386487961,0.01648050546646118,-0.0673745721578598,0.06595319509506226,0.7004945566634541,-0.3544894875093138,0.5657176946933805,0.252206764377664
1681312193110488300,3.56548828125,-0.4768389165401459,0.15072953701019287,0.08368141204118729,0.9716761112213135,0.21096697449684143,-0.10648328810930252,0.035053133964538574,-0.09631241858005524,0.058250367641448975,0.6992793737157131,-0.35592169157133474,0.5657544563796497,0.2534760567038087
1681312193120532500,3.575532470703125,-0.43272891640663147,0.1744598150253296,0.17742733657360077,0.9720954298973083,0.21029087901115417,-0.10396403819322586,0.0221368670463562,-0.1258486956357956,0.11620169878005981,0.6978600377086069,-0.35738460851279436,0.5659454227397634,0.2548991276959991
1681312193130577400,3.585577392578125,-0.4075535237789154,0.20247280597686768,0.2333364188671112,0.972744345664978,0.20862598717212677,-0.10121206939220428,0.014850378036499023,-0.10942856967449188,0.11187810450792313,0.6962749995612121,-0.35851258133117114,0.5664474329269051,0.2565292769089808
1681312193140622300,3.595622314453125,-0.27823400497436523,0.22516322135925293,0.28697967529296875,0.9734916090965271,0.20648591220378876,-0.09837687015533447,0.07591646909713745,-0.15048609673976898,0.10290884971618652,0.6947044157388339,-0.35928194256164553,0.567210765072501,0.2580201339322687
1681312193150666500,3.60566650390625,-0.19009269773960114,0.23924973607063293,0.34618040919303894,0.9743776321411133,0.2035660594701767,-0.09565311670303345,0.07171940803527832,-0.10206452012062073,0.08874104917049408,0.693218925577083,-0.3594594355119764,0.5682977701245726,0.2593729272699413
1681312193160711400,3.61571142578125,-0.11949172616004944,0.2428227961063385,0.39656156301498413,0.9753672480583191,0.20005759596824646,-0.09293130785226822,0.051885247230529785,-0.07810927927494049,0.057714156806468964,0.6917509895211621,-0.35924898792454124,0.5696266420064691,0.26066555505283545
1681312193170755300,3.62575537109375,-0.06071683019399643,0.3039338290691376,0.4336106777191162,0.9764325022697449,0.19606898725032806,-0.09020489454269409,0.03310441970825195,-0.10643881559371948,0.04160583019256592,0.6902977683502359,-0.35871565846452763,0.5711572702864608,0.26190006127836474
1681312193180800500,3.635800537109375,0.15213961899280548,0.4255569279193878,0.4073023498058319,0.9775944352149963,0.19182470440864563,-0.08667699992656708,0.007177472114562988,-0.14496493339538574,0.017768442630767822,0.688734959372431,-0.3578592962585177,0.5732348779873861,0.26264600792445825
1681312193190845400,3.645845458984375,0.44713613390922546,0.4728488028049469,0.30626654624938965,0.9786478281021118,0.18811658024787903,-0.08282966911792755,-0.06098419427871704,-0.06166699528694153,0.04840601235628128,0.6875234314431755,-0.3563756799451178,0.575831172713182,0.26215728470045013
1681312193200889300,3.655889404296875,0.48935821652412415,0.4873344898223877,0.282586008310318,0.9795849919319153,0.1848469376564026,-0.07902556657791138,-0.128587007522583,0.1432933509349823,0.022949643433094025,0.6866170853237303,-0.3544815645399336,0.5786450025026242,0.2609019881478069
1681312193210934500,3.6659345703125,0.3825511038303375,0.4895441234111786,0.23087884485721588,0.9804377555847168,0.181962251663208,-0.07504549622535706,-0.11262452602386475,0.14001348614692688,-0.09238903969526291,0.6856482167903992,-0.35283732370026905,0.581363118994476,0.259633182914883
1681312193220978400,3.675978515625,0.27551737427711487,0.4879598617553711,0.1751175820827484,0.981168270111084,0.17970852553844452,-0.07081033289432526,-0.11387372016906738,0.030832305550575256,-0.12358648329973221,0.6845246165171954,-0.35175622370915616,0.5838342173223126,0.25851778875192866
1681312193231023400,3.6860234375,0.23055575788021088,0.460099995136261,0.1111612394452095,0.9817637205123901,0.17808355391025543,-0.06653308123350143,-0.1678292155265808,0.03189268708229065,-0.10567742586135864,0.6833620547513545,-0.35109587685586363,0.5860589925781873,0.2574550134330738
1681312193241067500,3.696067626953125,0.28410205245018005,0.3582778573036194,0.014738830737769604,0.9821381568908691,0.1773221790790558,-0.06294239312410355,-0.2080138921737671,0.0978701114654541,-0.1411590576171875,0.682519176547545,-0.35058382080893374,0.587894368891243,0.2562009359461036
1681312193251112400,3.706112548828125,0.3996182680130005,0.2386489361524582,-0.041241083294153214,0.9823020696640015,0.17723634839057922,-0.060581911355257034,-0.21098542213439941,0.17380738258361816,-0.21203148365020752,0.6822399279273487,-0.3498528698556385,0.5893318374814687,0.254636548414667
1681312193261157600,3.71615771484375,0.6216940879821777,0.07901401817798615,-0.07592795044183731,0.9822907447814941,0.1775301694869995,-0.05990154296159744,-0.2127288579940796,0.22069372236728668,-0.27069520950317383,0.6827285393933046,-0.34850574134864054,0.5904176291573991,0.25265121126518614
1681312193271201300,3.726201171875,0.8029744029045105,-0.06674744188785553,-0.10333507508039474,0.9821339845657349,0.17796781659126282,-0.061159905046224594,-0.2184009552001953,0.23411105573177338,-0.29639917612075806,0.6840938879310204,-0.346288841755983,0.5911887054121255,0.2501911347291535
1681312193281246500,3.73624658203125,0.7589551210403442,-0.19834621250629425,-0.17610542476177216,0.9817999601364136,0.17884591221809387,-0.06390079855918884,-0.19589591026306152,0.2749199867248535,-0.3137998580932617,0.6860396739547358,-0.34380815122435093,0.5914774335077564,0.24758861472353225
1681312193291290600,3.74629052734375,0.721250593662262,-0.3165607452392578,-0.2328941375017166,0.981254518032074,0.1804032176733017,-0.06778454780578613,-0.1818767786026001,0.2887435555458069,-0.29943329095840454,0.6883222820757305,-0.3415883849604371,0.5911219016580188,0.24516311132173257
1681312193301335300,3.756335205078125,0.7972317934036255,-0.4101097285747528,-0.2966400682926178,0.980514407157898,0.18246257305145264,-0.07279793173074722,-0.20867878198623657,0.24429526925086975,-0.21833962202072144,0.6910336175870676,-0.3392948770038863,0.5903219629886034,0.24263518410881177
1681312193311380500,3.76638037109375,0.8498393893241882,-0.4774392545223236,-0.401336669921875,0.9795353412628174,0.1852506548166275,-0.07869525998830795,-0.20007050037384033,0.2113558053970337,-0.1913241147994995,0.6941671834041333,-0.3369234051579289,0.5891816261990201,0.23974923459834013
1681312193321424400,3.77642431640625,0.8527231216430664,-0.5153598785400391,-0.5037738680839539,0.9782760143280029,0.1889873445034027,-0.08520501852035522,-0.15401148796081543,0.21862070262432098,-0.18492119014263153,0.6976330476041528,-0.33464779083808094,0.5877145124749819,0.23645440173835827
1681312193331469300,3.78646923828125,0.6922207474708557,-0.569664716720581,-0.6285839676856995,0.9767001271247864,0.1938781440258026,-0.09202360361814499,-0.11183184385299683,0.21798710525035858,-0.14367878437042236,0.7012072995355259,-0.3329463331319089,0.5857772085778843,0.2330669781804439
1681312193341513500,3.796513427734375,0.3095659613609314,-0.5832690596580505,-0.7081773281097412,0.9748168587684631,0.1999402791261673,-0.0987742692232132,-0.06853616237640381,0.19823786616325378,-0.10874515771865845,0.7045743631973871,-0.3323817980167823,0.5832111172940312,0.23013544662850693
1681312193351558400,3.806558349609375,-0.13690020143985748,-0.5990256071090698,-0.7264391779899597,0.9727237820625305,0.20697858929634094,-0.10473127663135529,-0.02477133274078369,0.14037252962589264,-0.06160467863082886,0.7072747967762487,-0.3335462387952852,0.5799838514954603,0.2283159367373406
1681312193361602300,3.816602294921875,-0.5093862414360046,-0.5581297874450684,-0.620241641998291,0.9706867933273315,0.21387124061584473,-0.10966461151838303,0.026490390300750732,0.003856450319290161,0.03567487746477127,0.7091578174327315,-0.33601579668529213,0.57642092204803,0.22787619460857017
1681312193371647200,3.826647216796875,-0.586763322353363,-0.5166473388671875,-0.5392847061157227,0.9688015580177307,0.2202109396457672,-0.11371368914842606,0.06466102600097656,-0.12426364421844482,0.14647448062896729,0.71043587550356,-0.33909875725113875,0.5728483109473724,0.22833697968633768
1681312193381692400,3.8366923828125,-0.40204986929893494,-0.3996712565422058,-0.42992275953292847,0.967186450958252,0.2254818081855774,-0.1170830950140953,0.10480457544326782,-0.1137264221906662,0.18956245481967926,0.711447255006183,-0.3417691246144847,0.5697826937758563,0.22887637953243706
1681312193391736600,3.846736572265625,-0.1625368595123291,-0.23066650331020355,-0.3423827886581421,0.9659149646759033,0.2296115905046463,-0.11952786147594452,0.16067200899124146,-0.10209387540817261,0.25275248289108276,0.7123179710850588,-0.34353320170981694,0.567645141739504,0.2288385331818494
1681312193401781200,3.85678125,0.020483560860157013,-0.017343586310744286,-0.16281625628471375,0.9651755690574646,0.2321757972240448,-0.12054320424795151,0.18960964679718018,-0.06724351644515991,0.36334115266799927,0.7128517898241797,-0.34433471708951474,0.5667115683061412,0.22828495332202423
1681312193411825400,3.866825439453125,0.08976516127586365,0.1303127259016037,-0.07544884830713272,0.9649866223335266,0.23318974673748016,-0.12009864300489426,0.22744208574295044,-0.16246521472930908,0.4725157618522644,0.7128986752959876,-0.34454173494066326,0.5667818555603776,0.22765103544497306
1681312193421870600,3.87687060546875,0.23521797358989716,0.2539885938167572,-0.013303190469741821,0.9651095867156982,0.2334519922733307,-0.11859188228845596,0.22414535284042358,-0.2806168794631958,0.4785773754119873,0.7126740587444816,-0.3443285445321969,0.5675754679555586,0.22669765230999692
1681312193431915500,3.88691552734375,0.2819737493991852,0.3142703175544739,0.029201924800872803,0.9654709696769714,0.23303143680095673,-0.11645793914794922,0.1496720314025879,-0.17820656299591064,0.36305534839630127,0.7123197820252113,-0.34364251878760654,0.5689295643708333,0.225454356842247
1681312193441959400,3.89695947265625,0.09882976859807968,0.2863513231277466,0.0024286345578730106,0.9658753871917725,0.2325916588306427,-0.11395677179098129,0.10973203182220459,-0.08340643346309662,0.19733089208602905,0.7117636097801688,-0.3432148801178762,0.5702851572045267,0.22443514510812104
1681312193452004400,3.90700439453125,-0.30543622374534607,0.18725404143333435,-0.005356317851692438,0.9661261439323425,0.2327548712491989,-0.11147196590900421,0.07543903589248657,-0.015866369009017944,0.050574228167533875,0.7109454689519978,-0.3438142199228404,0.5710129585624741,0.2242606333809007
1681312193462048500,3.917048583984375,-0.6932675838470459,0.08705845475196838,0.006080360617488623,0.9662928581237793,0.23327717185020447,-0.10890597850084305,0.060074687004089355,-0.01197884976863861,-0.08983960002660751,0.7096527427635492,-0.3457787709335846,0.5709501304151469,0.22549126653262475
1681312193472093400,3.927093505859375,-0.9433490633964539,-0.027673780918121338,0.03976535424590111,0.9663680195808411,0.23399651050567627,-0.10667168349027634,0.08433705568313599,-0.029254034161567688,-0.14369440078735352,0.708098148197393,-0.34871799547768706,0.5701402609703345,0.22788833007471532
1681312193482138400,3.937138427734375,-0.9140163064002991,-0.12632368505001068,0.10697848349809647,0.9664489030838013,0.23431868851184845,-0.10522133111953735,0.11272907257080078,-0.004902780055999756,-0.1569703221321106,0.7065845334922267,-0.3517763284679724,0.5688960789455146,0.23097429179477696
1681312193492182500,3.9471826171875,-0.7488886117935181,-0.19532617926597595,0.17533276975154877,0.9666204452514648,0.23378632962703705,-0.10482937842607498,0.11234396696090698,0.02016572654247284,-0.13401633501052856,0.7053910886722151,-0.35414490480310196,0.5675973033478262,0.23417570099739002
1681312193502227200,3.957227294921875,-0.5412058234214783,-0.22673504054546356,0.16634513437747955,0.9667919278144836,0.23281580209732056,-0.10540680587291718,0.10455834865570068,0.03630349040031433,-0.08995133638381958,0.7046552420107179,-0.35568394672897674,0.5663793148427639,0.23699074681841845
1681312193512271400,3.967271240234375,-0.3930768668651581,-0.19188225269317627,0.17900073528289795,0.9669694900512695,0.23162522912025452,-0.10639537870883942,0.07915794849395752,0.07577836513519287,-0.04712313413619995,0.7042303362298212,-0.35656241397558497,0.5653897364286578,0.2392853036765442
1681312193522316500,3.977316650390625,-0.41908106207847595,-0.1449785679578781,0.17564941942691803,0.9671920537948608,0.23035013675689697,-0.1071380078792572,0.04516768455505371,0.06266440451145172,0.020315654575824738,0.703792732750314,-0.3572640734749311,0.5646179034168081,0.2413398293661976
1681312193532360200,3.987360107421875,-0.5028344988822937,-0.10403965413570404,0.19428755342960358,0.9674789905548096,0.22907085716724396,-0.10729032754898071,0.02635657787322998,-0.015600353479385376,0.07991617918014526,0.7030961852508406,-0.35822347118874487,0.56394217715589,0.24351809767277935
1681312193542405400,3.9974052734375,-0.5963001251220703,-0.06712333112955093,0.28336045145988464,0.9679177403450012,0.22740605473518372,-0.10687383264303207,0.02127915620803833,-0.07213258743286133,0.1015639379620552,0.7020720319838314,-0.35938554381084203,0.5633871797112789,0.24603241894035913
1681312193552450300,4.0074501953125,-0.7729862332344055,-0.08364664763212204,0.42006397247314453,0.9686338901519775,0.2247307151556015,-0.10604112595319748,0.02599513530731201,-0.09879989922046661,0.09746582061052322,0.7006114225113668,-0.36070636894817715,0.5629123858229023,0.24932768737857644
1681312193562494500,4.017494384765625,-0.9993973970413208,-0.16010849177837372,0.6573017835617065,0.969688355922699,0.22051210701465607,-0.10525814443826675,0.03014397621154785,-0.11717955768108368,0.07800602912902832,0.6987025985717721,-0.3621194603342301,0.5623525798237358,0.25385809067184506
1681312193572539400,4.027539306640625,-1.3770816326141357,-0.2796386182308197,0.9368301033973694,0.971202552318573,0.21396148204803467,-0.104815274477005,0.06020009517669678,-0.12408718466758728,0.04551977664232254,0.6961202355599461,-0.3637478656644761,0.5614978663477784,0.2604311082771214
1681312193582583600,4.03758349609375,-1.6037061214447021,-0.43875542283058167,1.0843061208724976,0.9729925990104675,0.20549701154232025,-0.10515018552541733,0.10269105434417725,-0.15135879814624786,0.01288045197725296,0.6930191454666421,-0.36559497541961633,0.5601474984345356,0.26888598753632004
1681312193592628500,4.04762841796875,-1.5493451356887817,-0.5549352765083313,0.9209344983100891,0.9744900465011597,0.19737228751182556,-0.10683466494083405,0.07778674364089966,-0.06996136903762817,0.009865224361419678,0.6901023353133257,-0.3676486512712577,0.5580476124139576,0.27780612977627817
1681312193602673400,4.05767333984375,-1.3277829885482788,-0.5473887920379639,0.8562556505203247,0.9756180047988892,0.1902228742837906,-0.10947620868682861,0.01498270034790039,0.1257866770029068,0.010660409927368164,0.687728823930991,-0.3693630416937048,0.5557273075956538,0.2859499075160169
1681312193612717300,4.06771728515625,-0.8429134488105774,-0.4840756058692932,0.7018253207206726,0.976503312587738,0.18382252752780914,-0.11247579753398895,0.051450908184051514,0.21249403059482574,0.010684549808502197,0.6859952031337817,-0.37023967427522053,0.5537911908274484,0.2926579129773229
1681312193622762500,4.077762451171875,-0.5032300353050232,-0.4589942395687103,0.6493123173713684,0.9771868586540222,0.1779675930738449,-0.11590325087308884,0.16204971075057983,0.2667803466320038,0.019299983978271484,0.6850972446377431,-0.3699078710026355,0.5524640646220267,0.2976466278948464
1681312193632806400,4.087806396484375,-0.5822164416313171,-0.46722421050071716,0.6434261798858643,0.9777686595916748,0.172281414270401,-0.11953147500753403,0.15975886583328247,0.3123377561569214,-0.00008206814527511597,0.6844554583323482,-0.36920684558112904,0.5512899139964716,0.30213673380640754
1681312193642851300,4.097851318359375,-0.9584680795669556,-0.504887580871582,0.7098078727722168,0.9783262610435486,0.16658486425876617,-0.12299339473247528,0.05843222141265869,0.18200217187404633,0.03609473258256912,0.6833444386086561,-0.3692272330963383,0.5497040596440744,0.3074689764709757
1681312193652896500,4.107896484375,-1.2338080406188965,-0.5559166669845581,0.7414481043815613,0.978855550289154,0.16083385050296783,-0.12638993561267853,-0.04861867427825928,-0.0039734989404678345,0.047364845871925354,0.6816119946150105,-0.37020332354557484,0.5474984287018297,0.31400656306384045
1681312193662940400,4.1179404296875,-1.2563040256500244,-0.5627585649490356,0.7140651941299438,0.9792959094047546,0.15522919595241547,-0.12993639707565308,-0.12204188108444214,-0.03787383437156677,0.02248413860797882,0.6796369917785828,-0.3716007385467517,0.5449263190128988,0.32103240576019193
1681312193672985300,4.1279853515625,-1.0906615257263184,-0.5242058634757996,0.6294371485710144,0.9796051979064941,0.15018495917320251,-0.13348527252674103,-0.1786407232284546,0.05524413287639618,-0.01449429988861084,0.6778237711298144,-0.3729042714431908,0.5424018524423769,0.3275632297847324
1681312193683029500,4.138029541015625,-0.8021612763404846,-0.48047664761543274,0.5280335545539856,0.9797911643981934,0.14573034644126892,-0.13701193034648895,-0.1742948293685913,0.15041226148605347,-0.012249410152435303,0.6764375143132542,-0.37371684126602467,0.5402126948655412,0.3330742058533465
1681312193693074400,4.148074462890625,-0.5606562495231628,-0.43829217553138733,0.39409229159355164,0.9798160195350647,0.14215673506259918,-0.14054247736930847,-0.10481595993041992,0.18912681937217712,-0.022512778639793396,0.6756435641063306,-0.3739865793582408,0.5383890754073722,0.3373085794917793
1681312193703119600,4.15811962890625,-0.4794720411300659,-0.4159882962703705,0.30177780985832214,0.9796945452690125,0.13948597013950348,-0.1440216302871704,-0.06535738706588745,0.21206128597259521,-0.043752893805503845,0.6752495452092755,-0.3740576666094449,0.5367215716490938,0.3406594645266414
1681312193713163300,4.168163330078125,-0.4726908206939697,-0.431681752204895,0.24230380356311798,0.9794499278068542,0.13753804564476013,-0.14751720428466797,-0.0810733437538147,0.17084209620952606,-0.04279027879238129,0.6750300641769724,-0.37422279160195676,0.5349754195133256,0.34364684395192685
1681312193723208400,4.17820849609375,-0.40309083461761475,-0.445017009973526,0.19974197447299957,0.9790860414505005,0.13607428967952728,-0.15124362707138062,-0.08876609802246094,0.07544305920600891,-0.061738431453704834,0.6750017699370441,-0.37438469018991843,0.5331175191633167,0.34640239485145025
1681312193733252600,4.188252685546875,-0.31328555941581726,-0.41459810733795166,0.18354302644729614,0.9786761403083801,0.13475704193115234,-0.15502767264842987,-0.08261901140213013,-0.01923273503780365,-0.08686982095241547,0.675161651614155,-0.37432685957903694,0.5313808125105258,0.3488131590305868
1681312193743297300,4.19829736328125,-0.21309053897857666,-0.34161990880966187,0.12109323590993881,0.9782882928848267,0.13364557921886444,-0.15840153396129608,-0.07963711023330688,-0.13242486119270325,-0.07679735124111176,0.6754155669860052,-0.3741238870654015,0.5299344797105053,0.350734500369629
1681312193753342500,4.208342529296875,-0.0282897986471653,-0.23181217908859253,0.020737066864967346,0.9779181480407715,0.13315391540527344,-0.16107887029647827,-0.07597100734710693,-0.20346638560295105,-0.040260717272758484,0.6758249961355659,-0.3738518827926644,0.5288623018176585,0.3518524421733612
1681312193763386400,4.218386474609375,0.10430560261011124,-0.11127253621816635,-0.14600718021392822,0.977554440498352,0.1337016075849533,-0.16282321512699127,-0.0835113525390625,-0.17389324307441711,-0.0011170506477355957,0.676462651873866,-0.37358446752567837,0.5282263132790743,0.35186648227118683
1681312193773431300,4.228431396484375,0.16710133850574493,0.053937990218400955,-0.31588834524154663,0.9771793484687805,0.1357521414756775,-0.163376584649086,-0.11672097444534302,-0.139582097530365,0.012543633580207825,0.6772574278611425,-0.3736228661506444,0.5279371769040733,0.35072883405285615
1681312193783475500,4.238475341796875,0.1692141741514206,0.20371021330356598,-0.502505898475647,0.9768277406692505,0.13952887058258057,-0.16229428350925446,-0.13652610778808594,-0.14334353804588318,0.009843885898590088,0.6779395990656409,-0.37438600708171615,0.5279090577026535,0.3486332705673849
1681312193793520400,4.248520263671875,0.07334490865468979,0.32382330298423767,-0.5971437692642212,0.9764679074287415,0.14475730061531067,-0.1598624736070633,-0.1490141749382019,-0.22430135309696198,0.016201093792915344,0.6784237889469417,-0.37590944182187996,0.5279780792822957,0.3459372022842864
1681312193803564300,4.258564208984375,0.19542527198791504,0.3920077979564667,-0.686082661151886,0.9760814905166626,0.150909423828125,-0.1564977467060089,-0.17899274826049805,-0.3556823432445526,0.006839632987976074,0.6788171919719297,-0.377831618724182,0.5281991993395061,0.3427189672443663
1681312193813609500,4.268609375,0.3833347260951996,0.4627317786216736,-0.7117835283279419,0.9756572842597961,0.15731680393218994,-0.15278951823711395,-0.21760046482086182,-0.37266406416893005,-0.017620503902435303,0.6794152557181434,-0.37946418555349937,0.5287836709342421,0.3388065205103142
1681312193823654400,4.278654296875,0.5851122140884399,0.5502973794937134,-0.7520291805267334,0.9752417802810669,0.1637491136789322,-0.14862598478794098,-0.2204200029373169,-0.312217116355896,-0.09110473096370697,0.6802571689224236,-0.38057014305301345,0.5299560080864811,0.33401076750091296
