,seconds_elapsed,rotationRateX,rotationRateY,rotationRateZ,gravityX,gravityY,gravityZ,accelerationX,accelerationY,accelerationZ,quaternionW,quaternionX,quaternionY,quaternionZ
0,4.0,-0.6419403146276603,-0.07139150650844782,0.31867264816727814,0.9681027306266594,0.226714981697759,-0.10665873428848303,0.022497351470217072,-0.07902108125161213,0.10050534396992794,0.7016947386367248,-0.35972672914915615,0.5632645346246158,0.24688362720794066
1,4.01,-0.8304626726695027,-0.10305715054316991,0.4802888503081229,0.9689015754418202,0.2236597848567747,-0.10584235929847495,0.027048354587442213,-0.1034657350767335,0.09252578361014098,0.7001268509835691,-0.36106509446374396,0.5627702742102703,0.2504777695835519
2,4.02,-1.0936073258203263,-0.18992420458659187,0.7270276037657002,0.9700660585673337,0.2188781126526001,-0.10514767451768464,0.03764120421415551,-0.11890260297960778,0.06990262622043829,0.6980584513913723,-0.36252565136826453,0.5621393792500494,0.25549767067580537
3,4.029999999999999,-1.4326016302545144,-0.318620127517436,0.9729597740454218,0.9716410900451135,0.21188779890404008,-0.10489732324725723,0.07060981728964852,-0.13076836869936487,0.037523574476619886,0.6953605095676172,-0.36420038308559016,0.5611670440975275,0.262502441692776
4,4.039999999999999,-1.5906285150619497,-0.46670477611908195,1.0450038575990608,0.9733528395136483,0.2035424490677476,-0.10555542024381585,0.09669983163027054,-0.13177704252411815,0.012155079554991816,0.6923174493044431,-0.3660890276162802,0.559642329471098,0.27103190353600604
5,4.049999999999999,-1.497034842637012,-0.5531535695730523,0.9056639770328792,0.9747563547576281,0.19568432814722544,-0.10745832710174645,0.06295885922159279,-0.023745723518548242,0.010052965771773984,0.6895419549524471,-0.36805341474986075,0.5574997939955978,0.279728856223969
6,4.059999999999999,-1.215463914321297,-0.5327224171184904,0.8204821686780795,0.9758230846051051,0.18874024655932597,-0.11017105753742228,0.02343048889137018,0.14587226474550724,0.010666001883304096,0.6873272340866207,-0.36956611190522254,0.5552788099582938,0.28750380377382473
7,4.0699999999999985,-0.7657220545640063,-0.47837598805642845,0.6898919975631632,0.9766586450879143,0.18249202231102613,-0.11325466954080786,0.07658394510218167,0.2248303303869592,0.012642365083439473,0.685791146457686,-0.3701642736044545,0.5534896078885571,0.293791574041336
8,4.079999999999998,-0.5208263020522276,-0.46082767864483554,0.6480010278707702,0.9773164698740898,0.1767008495460489,-0.11671153172365194,0.16153936574165864,0.2769294389580996,0.014982130120415736,0.6849542701241569,-0.36975169944239966,0.5522024921746955,0.2986469152229803
9,4.089999999999998,-0.6643820299758917,-0.4754491128627132,0.6579225708683509,0.9778904282346138,0.1710374053783511,-0.12028748678880401,0.1376312190289216,0.2838751559046184,0.007818198103495952,0.6842128345666141,-0.3692112977934602,0.5509435961528911,0.30330118549659585
10,4.099999999999998,-1.0173638627050272,-0.5158028071902089,0.716575783293388,0.9784394771001914,0.16535471060547322,-0.12371992180226843,0.03553381497263132,0.14222159394630124,0.03850543296073255,0.6829738652804738,-0.36943602084803895,0.5492322706557969,0.3088673796695114
11,4.109999999999998,-1.238519401995367,-0.5573495739573796,0.7357132683405382,0.9789477752317892,0.15966006091600843,-0.12713267532986267,-0.06399578535850742,-0.011073287226176197,0.04215404923152813,0.6811983673802355,-0.3704959858608428,0.5469597486561368,0.31547799380452346
12,4.119999999999997,-1.222341354802396,-0.5548538743592083,0.6967134006160821,0.9793593246730968,0.15419494596531175,-0.13066404420051556,-0.1336466796535252,-0.01878130151858852,0.014902228556528273,0.6792652163218214,-0.37186800968019396,0.5444087125577923,0.3223714596069487
13,4.129999999999997,-1.0327945789353097,-0.5154347230251715,0.6090977679573331,0.9796424987861396,0.14929145964076843,-0.1341926442563665,-0.17776903036412103,0.07433281320224865,-0.014044023276401646,0.6775457178192424,-0.373067255478047,0.5419627545029971,0.3286686130889337
14,4.139999999999997,-0.7547865176529497,-0.47220154373175915,0.5017590082446286,0.9797960400984094,0.14502933007345817,-0.13770449900828982,-0.16066552849277188,0.158006690727218,-0.014262720648773843,0.6762817693171412,-0.3737697543552302,0.5398549651200896,0.3339048404449211
15,4.149999999999997,-0.5450942164305546,-0.4340167910197487,0.3763967194111569,0.9797927343841023,0.141644781655176,-0.14120938900044547,-0.09725222766204981,0.1935230798674309,-0.0265842524108882,0.6755680354384228,-0.3740002059264811,0.5380694350588118,0.3379509037175641
16,4.159999999999997,-0.4782024682236092,-0.4189264084657933,0.2906431494026748,0.9796487482468792,0.1391212817791036,-0.1446760679479954,-0.06829971182852644,0.20434427293011453,-0.04357267404247948,0.6752084542029119,-0.37408858113562016,0.5363946588959967,0.34121875853800554
17,4.169999999999996,-0.4599650777057215,-0.43411998635711835,0.23452174887252653,0.9793833943991779,0.13727041078933594,-0.14819854779236968,-0.08247989595609738,0.15339922452703328,-0.046254781222102435,0.6750248908249982,-0.3742523933294384,0.5346357188368621,0.344150672106431
18,4.179999999999996,-0.3870729665679935,-0.4395914270382693,0.1968526941781021,0.9790129305737382,0.13583934244981583,-0.15191855783252717,-0.08766969002022719,0.05855647457851564,-0.0662209218195483,0.6750302867875494,-0.3743743753939084,0.5328077563131635,0.3468323840968859
19,4.189999999999996,-0.29585620907024696,-0.40190323902825487,0.1726796195281383,0.9786086725979465,0.13456369826073866,-0.15561457018667765,-0.08210029699955317,-0.03892298725297709,-0.08511767196659409,0.6752058212740322,-0.37429155164621514,0.5311292167627747,0.34914738453586097
20,4.199999999999996,-0.1817671615799072,-0.32300770545389684,0.10408305428597484,0.9782255540309579,0.13356224312855025,-0.15885533742712457,-0.07901571269950443,-0.14446626576764332,-0.07060446060325289,0.6754849644556621,-0.3740777828535152,0.5297527475772037,0.3509239893996256
21,4.2099999999999955,-0.006408656713929043,-0.21192050102721127,-0.006779381686702994,0.9778581283396175,0.13324429659651885,-0.16136672535370528,-0.07721532926028277,-0.19858617012833502,-0.033801155952471615,0.6759302232820732,-0.3738077534234966,0.5287573497955769,0.35185475909665087
22,4.219999999999995,0.11439254161781881,-0.08473461163095251,-0.17329535393705908,0.9774941891075434,0.13403098680145534,-0.16291210340162454,-0.08884584581093725,-0.16838181100898766,0.0010772781015896372,0.6765903174994711,-0.3735906355334656,0.5281798690271208,0.35168374075176895
23,4.229999999999995,0.16743130858409752,0.07732852335693677,-0.3450331624395432,0.9771244364582803,0.1363419685177723,-0.1632075573077297,-0.11981402212951292,-0.1401695368913794,0.012122003078157641,0.6773639652940275,-0.37374204895283497,0.5279327854147898,0.3504015614375398
24,4.239999999999995,0.1546627556450712,0.22194145589187728,-0.5168704109944304,0.9767731237485093,0.14032246249280556,-0.16192517372801932,-0.1384215963004385,-0.15563163728252585,0.010808808203177282,0.6780130913320398,-0.3746172400671403,0.5279195340725947,0.3482240505978171
25,4.249999999999995,0.09133054507083321,0.3338686657461546,-0.6102467985235622,0.9764109780922295,0.1456636695699227,-0.15936676116789897,-0.15343080432336997,-0.24365721554912084,0.014821905316042603,0.6784817475209437,-0.3761926288467903,0.5280106560607777,0.3454630719348239
26,4.2599999999999945,0.2222838331642541,0.40211662601067494,-0.6897561767640327,0.9760208572198678,0.15182525327014354,-0.15596771652918345,-0.18451108538750202,-0.3581096005238298,0.0033434593325639924,0.6789026753330056,-0.3780649672604118,0.5282827399264214,0.34215974743046745
27,4.269999999999994,0.4112689223718151,0.4748544128469608,-0.7173551605203256,0.9755997616401472,0.1582072967456573,-0.15221311617298794,-0.2179908033662455,-0.364295752513726,-0.0277937043044232,0.6795318106863419,-0.3796172949720587,0.5289459699916776,0.33814259359165183
28,4.279999999999994,0.6015909697577007,0.5619462954916689,-0.7506070662586828,0.9751908393273719,0.16460592430905416,-0.14798757780695518,-0.2170163262977435,-0.29038781566728183,-0.09647783965521345,0.6803813928864161,-0.3806675246072138,0.5301867954331541,0.33327370457418504
29,4.289999999999994,0.688621216904272,0.6431603401003044,-0.7387577426934068,0.9748196411520492,0.17094700497278228,-0.1431654076425249,-0.19626048684707809,-0.1375117550226517,-0.12482259759895802,0.6812677362745575,-0.38140486272150403,0.531927748450246,0.3278012277056577
30,4.299999999999994,0.5475232803417264,0.6935899416026566,-0.7050987061719929,0.9745081351019015,0.1770786256686797,-0.13772956877190223,-0.20141241531525916,-0.0633630324065662,-0.07856124842343243,0.6818440731015079,-0.38228420477333297,0.5338477410324813,0.3224140433960271
31,4.309999999999993,0.45969050401754846,0.7835088517500144,-0.5737078571758254,0.9743189418630243,0.18276792327859645,-0.1314951298652732,-0.15920463895183104,-0.10093088240925405,-0.04441178109240755,0.6818797762324802,-0.3835108392972839,0.5358833797407829,0.31746736456030067
32,4.319999999999993,0.33070932445904067,0.9053596831812647,-0.41151547288821516,0.9745127983578163,0.18696268718677145,-0.12394056920974628,0.009175498099964588,-0.1375215276010177,0.05631837693028401,0.6811450523374176,-0.3847498057131901,0.5385129336481549,0.3130658460005212
33,4.329999999999993,0.28505136703733286,0.9960328060037509,-0.32633691342441906,0.9749513492864718,0.19022983689518358,-0.11521094704376174,0.20411656288534744,-0.25115706315810826,0.24426844900137645,0.6796913212033683,-0.3862792910344035,0.541462408281008,0.30923076498565727
34,4.339999999999993,0.4465266980928779,1.0568831895323783,-0.2635097082907156,0.9755136438341376,0.19275101123733568,-0.10588499171442399,0.26790107607888647,-0.24693108253714463,0.34430090698569316,0.6780319782392731,-0.387493715697517,0.5448894391255601,0.30530839347003036
35,4.3499999999999925,0.6456193043477837,1.072895304627246,-0.1757717895819481,0.9761842642727298,0.1942775978131711,-0.0965044159559157,0.2624969318505534,-0.06758235565095508,0.3294439131206584,0.6765331125549668,-0.38776769688633184,0.5489830650691461,0.3009210649236383
36,4.359999999999992,0.5800711808446167,1.0137768950507655,-0.17801214156464557,0.9768092304311692,0.1954170920823255,-0.08746325650533583,0.30024065292142493,0.13068050173730675,0.20976497137545966,0.6750875649919725,-0.38775605311903977,0.5530934107914368,0.2966263041661988
37,4.369999999999992,0.39361799009867593,0.8911583040526148,-0.08025330770138457,0.9773445395821959,0.1963197887077817,-0.07906752881373139,0.3196406321227097,0.19803827543056154,0.09161905629410955,0.6736061096738688,-0.3878370036891755,0.5568194495921053,0.29289575450779354
38,4.379999999999992,0.07225157876206775,0.6977484841007682,-0.05527326885452234,0.9778285614382102,0.19672879899763024,-0.07173711028735494,0.2706202949227484,0.20727026289136669,0.0021280812790682316,0.6719169756835036,-0.3883923816387693,0.5597163452379434,0.29050972729670443
39,4.389999999999992,-0.2299964069877296,0.49337231997005027,-0.07704247030009971,0.9781126138914384,0.1974181152998434,-0.06572944184309405,0.23758539307774112,0.1920092551997841,-0.07446714536337946,0.6701750609521687,-0.38971729489619,0.5614760777702968,0.28936143360915906
40,4.3999999999999915,-0.42149525167271906,0.2898199159128847,-0.10503056878897135,0.9781804485353613,0.19851735746298818,-0.061262909650858885,0.19580635945430114,0.26777637536260024,-0.11076283993044096,0.6685673620699942,-0.39164030648417947,0.5621263400180571,0.28922149887693704
41,4.409999999999991,-0.5629613604488511,0.13315636536957,-0.1584276368155118,0.9780494526258607,0.20006214007635464,-0.05825796524448394,0.18405589331312364,0.3522622203432971,-0.14946765865759953,0.6672031878543656,-0.3939448385707155,0.5618522344968895,0.28977377521601067
42,4.419999999999991,-0.6589942920387977,-0.007467371771650438,-0.19559173313157183,0.9777230538808838,0.20216650874307543,-0.05644495420122843,0.1598689162138295,0.33831746371088545,-0.14578146677581055,0.6660957852887873,-0.39655687928086764,0.5608203238235412,0.29075550971104824
43,4.429999999999991,-0.7365139671101371,-0.12856831990238243,-0.21999061822529287,0.9772578806423947,0.20459568449411308,-0.055744367169816525,0.10463611535302708,0.2852455416679523,-0.11041079473279455,0.6652054070092616,-0.39937785506697654,0.5591283085608801,0.2921879509209041
44,4.439999999999991,-0.7061130854581484,-0.1920386118581531,-0.13730055344131908,0.9767801055555896,0.2068288694042686,-0.055881143911815916,0.04174758795764639,0.21286802826754717,-0.04547777208052328,0.6645252245532994,-0.402003213744885,0.5571824187554074,0.2938480866131191
45,4.44999999999999,-0.7385215471774658,-0.22489477720695747,-0.09661110504146853,0.9764376714209883,0.2082916458450176,-0.056431287195483876,0.021820742178702734,0.12950654590779226,0.02383615536344222,0.6637950836564478,-0.404425927391517,0.5551788893696767,0.2959591084262587
46,4.45999999999999,-0.5313468319395857,-0.1963353867927443,-0.05965546434505284,0.976143731655788,0.20946450686346924,-0.05716826874022399,0.04202611995612777,-0.06650187982736089,0.02693415487257742,0.6632153363196214,-0.40645259070817696,0.5533642408268686,0.2978750803675892
47,4.46999999999999,-0.33205295745278074,-0.1585652766604496,-0.005396333307704705,0.975972804051648,0.2100207933436426,-0.05803963225302212,-0.025714143169033327,-0.08771877809014132,0.03423122832477581,0.6628920468785187,-0.4076895671241527,0.5520591823648721,0.2993226474919878
48,4.47999999999999,-0.28570764567680623,-0.11677500543971092,0.05178755924915378,0.9759339075574017,0.21000640346043703,-0.0587420257865603,-0.027205823035211876,-0.0668407506009526,0.011893145044254124,0.6626343526740845,-0.40841264483853995,0.5512060049999349,0.3004776442869201
49,4.4899999999999896,-0.39504782565958974,-0.13741086807579592,0.1619568585500917,0.9760782960466861,0.2091883812046748,-0.05925702065299977,-0.02435027863739861,-0.1021631187453066,0.009718153240821769,0.6621383964745786,-0.40904396804441323,0.5505038524767009,0.3019952838256046
50,4.499999999999989,-0.4191160314838477,-0.12650720778032748,0.2645600320597187,0.9764431303293571,0.20734176253335618,-0.05973239271700536,-0.04462980359936909,-0.25927393798443693,0.024495076550232777,0.6613392115358533,-0.40962346697885665,0.5498567202855333,0.30413230936128377
51,4.509999999999989,-0.31263670373324337,-0.0578415048240598,0.3453745816316973,0.9770133565778583,0.20459281085640008,-0.059889125473583,-0.0636257843991998,-0.33707866806474657,0.008838282993295473,0.6603724729160557,-0.40987258055470477,0.5495997615234549,0.3063541184143107
52,4.519999999999989,-0.11210329446888685,0.018215705691640216,0.36181674292632066,0.97773934475427,0.20116917495407002,-0.05963771586970476,-0.07427896798993203,-0.2722761717615515,-0.011779495829577031,0.6594205474579194,-0.40956295649361546,0.5499448161279218,0.3081938954947269
53,4.529999999999989,-0.001968743772494561,0.05343599335408688,0.32687920367449336,0.9784402993983523,0.1978653290254266,-0.05919396496700778,-0.09447465873224452,-0.16311153381583796,-0.002622831639939913,0.6586825220232262,-0.408866967461901,0.5506639463059545,0.3094098577545446
54,4.5399999999999885,0.05268657752354306,0.09161767899184803,0.34133989617337296,0.9791382710472137,0.1945827341388312,-0.05853133010866519,-0.07611410905971794,-0.04889411134548486,-0.046422534752918944,0.6580215010618007,-0.4079674244870122,0.5516311030715995,0.31027976818683933
55,4.549999999999988,0.11800038246598153,0.10247527362074342,0.293524926474979,0.9798234786637261,0.19134698133765662,-0.057727524591452216,-0.015101449809494578,-0.03538241088534938,-0.08934646757934112,0.657412354742788,-0.406950849892822,0.5527451582890927,0.3109227176986059
56,4.559999999999988,0.17819232777722754,0.10936310991063869,0.23556956145847707,0.980383025644911,0.18867870688369145,-0.05700547858962655,-0.014838790803123945,-0.036867830271546664,-0.09169062119954616,0.6570299928410729,-0.4058766631664043,0.5538604269197087,0.31115020916395986
57,4.569999999999988,0.20399659049200392,0.09789691652054784,0.20156426743131553,0.9808513089281418,0.18642452462056305,-0.056365636509291224,-0.041797389368518505,0.05403740909773913,-0.07830314088163771,0.6568043498979558,-0.40478365925791976,0.5549480698324635,0.31111273306073095
58,4.579999999999988,0.22247993529248322,0.08397833008540903,0.17121205337632414,0.9812499608519714,0.18446384290788678,-0.0558736311675957,-0.025370608519818195,0.044135736914936566,-0.0836003002197123,0.6566803356596682,-0.4037242188825503,0.5559405881237699,0.31097897002080277
59,4.589999999999987,0.30494835492139555,0.08246833269267735,0.16439147369303989,0.9815965798915244,0.18270806407241091,-0.0555525330749179,-0.03545508030966877,-0.0029344580870832235,-0.07553560682914709,0.6567306686244244,-0.4025264113243354,0.5569526128532374,0.31061423863394455
60,4.599999999999987,0.3515662420511015,0.045144629306567,0.19743217000336657,0.9819613745615563,0.18074637499263205,-0.05552233670697729,-0.060979330977161794,0.04437543825603571,-0.08523677701896788,0.6569295572887489,-0.4010445883332047,0.5580340870828866,0.3101689639850716
61,4.609999999999987,0.41959811208247294,-0.00866480092667142,0.26626003830746614,0.9823809016052236,0.1782819900870008,-0.05606867630174053,-0.07248355917229034,0.056991666363419125,-0.10105851284748205,0.6573107814444429,-0.399149976491942,0.5591465799297948,0.30980173951161993
62,4.619999999999987,0.44497404260267437,-0.057451180306647205,0.3298388073053762,0.9829024974182141,0.1750301451190709,-0.05715972813881598,-0.08292280789445204,0.03597734305715686,-0.10810842959999964,0.65779482083018,-0.39681244606523514,0.5603212504072295,0.309654651017832
63,4.629999999999987,0.46427324305599327,-0.14571252030830015,0.30171429331108984,0.9833914967083214,0.17165927399959324,-0.058944864403370635,-0.09119557231031902,0.04703522474296435,-0.119898811264819,0.658495575004806,-0.39426154212586517,0.5613245457092972,0.30960663941314254
64,4.639999999999986,0.3970979354773113,-0.26630908785987856,0.30782641775264025,0.9837864106525532,0.16839001309788085,-0.0617165563746661,-0.09458180813459738,0.14682146681546504,-0.11696063831927114,0.6594645913506403,-0.39163610646696145,0.5619276625635115,0.309781994968774
65,4.649999999999986,0.21830831255070876,-0.3899442481288847,0.220550227618051,0.9840305635598523,0.1655217617261289,-0.06546798929624087,-0.07064955631171022,0.21830816755222276,-0.13306845525210073,0.6605681931237865,-0.3893481426711047,0.5618486224116117,0.31045736637277227
66,4.659999999999986,-0.12988884237330323,-0.4574808603232877,0.15084179522271307,0.9840276347614657,0.16371920429282122,-0.06989491517919529,-0.04140247039448364,0.25128041662741957,-0.1432700711848895,0.6616762257310089,-0.3878992870346992,0.5608801866277364,0.31166036018661253
67,4.669999999999986,-0.6241443710534309,-0.5333033679728234,0.10173571031620307,0.9838804242775683,0.1628148486180899,-0.07396125602605831,-0.04913042844813866,0.2608698254959303,-0.15656790774073442,0.6620468007392818,-0.38814468968772836,0.5588943670439153,0.3141250527538728
68,4.6799999999999855,-1.046686729588612,-0.612878223958375,0.2358436742583319,0.9837141481171928,0.16180265263177626,-0.07826780665125148,-0.10898192347513841,0.11301181469701668,-0.0821153443703042,0.661734208478724,-0.3895806382378454,0.5559609324458877,0.31818423949545577
69,4.689999999999985,-0.698313398094031,-0.5608203953195374,0.15463200037969305,0.9835691764045239,0.16050311959392727,-0.08264279305050473,-0.16931467143774498,-0.24129346207157845,0.035845842527018376,0.6612581825597164,-0.3910929834105042,0.5529234561788519,0.32258074540017745
70,4.699999999999985,-0.02950531852741156,-0.4247604640263285,0.041624285926793,0.9833054997359209,0.15986166456002485,-0.08691321975901856,-0.13173017490393157,-0.07624646061375653,0.11176880834911135,0.6617605005042871,-0.3912178327663093,0.5509009012179561,0.3248531457324266
71,4.709999999999985,0.39234690393911764,-0.35574757109143895,-0.10640574410239767,0.9829130676456841,0.1599779765652721,-0.09104099503446483,-0.022286619060003912,0.3438559457609681,0.10971667603380013,0.6632790249163324,-0.38998644477227223,0.5498999313718048,0.3249331726238971
72,4.719999999999985,0.5367495670989445,-0.3525518902419726,-0.2341652265504358,0.9823073394409706,0.16123076351933316,-0.09526855237933454,0.03494986198253282,0.4140828254054425,0.11779026073916013,0.6654537842720976,-0.38830742908343674,0.5491656088890716,0.3237365748187852
73,4.729999999999984,0.561350343127112,-0.37101733278915106,-0.35766881328386696,0.9814733546347196,0.16361016153868746,-0.09970173682450459,0.041402713693867714,0.3163794553329374,0.056319215757314446,0.6679987735310655,-0.3866878715814812,0.5482895332123692,0.32191309447679856
74,4.739999999999984,0.41773292850674537,-0.424552109016592,-0.422665467025631,0.9804123280033261,0.1669820299022802,-0.1044339734944312,0.08255138799616195,0.33240248752194507,-0.011374063921764661,0.6706980780063001,-0.3854440627764208,0.5470061036820671,0.31996935682769817
75,4.749999999999984,0.0782385672153259,-0.47106189694094747,-0.4506220450528666,0.979183651054019,0.17103269160271248,-0.10929109740515779,0.11323994961781433,0.3211351684064554,-0.03846037532056994,0.6731270697110973,-0.38507083907943357,0.5450455141161459,0.3186615190937402
76,4.759999999999984,-0.30835310516709835,-0.4208934316726536,-0.42429026459036273,0.9779110103334919,0.17547663249416418,-0.11355835120794781,0.08494760121685857,0.163306057778684,-0.017178756940799646,0.6748544659167189,-0.38592073254358406,0.542480824446949,0.31835611228049204
77,4.769999999999984,-0.5441576854077512,-0.3600722362663016,-0.3875277687683984,0.976730597703266,0.18002562904043365,-0.11655930576176587,0.03278453856130229,-0.001001072623870447,0.0577226416906438,0.6756954295391809,-0.38793230567495024,0.5396553587770522,0.3189286235803826
78,4.779999999999983,-0.5984187788946326,-0.2804391126970265,-0.2503310419630954,0.9757693296777553,0.18383738984543896,-0.11864605408281781,0.021976472561110787,-0.12415180191842663,0.152476997424756,0.6759547209212957,-0.39022541551974654,0.5370289690244829,0.3200130864246429
79,4.789999999999983,-0.43915305021914874,-0.2000386780378029,-0.20981155134335622,0.9750583368860455,0.18670066041127215,-0.12001499737634391,0.05438875710564891,-0.2653464227104661,0.20438566513645107,0.675927599799123,-0.39224809040410036,0.5349142350203449,0.3211377727247055
80,4.799999999999983,-0.3207733083264313,-0.1553344339458957,-0.12990851671311282,0.9745151824600028,0.18885877393063505,-0.12104730882426748,0.11149086149503168,-0.20500577183666757,0.19590848939203054,0.6759613477736941,-0.3936745839165905,0.5333819531839098,0.321869733652843
81,4.809999999999983,-0.37300856870142896,-0.16438457506860704,-0.06073709764766233,0.9741463740517002,0.1901834068610685,-0.12194037053047528,0.14634484917455942,-0.13969655552356564,0.11302677731130782,0.6758680739759535,-0.3948089482232316,0.5321235342416079,0.32275804930844604
82,4.8199999999999825,-0.3835626498629561,-0.20758353071737307,-0.007620390056173716,0.9738440962239233,0.19102866115273295,-0.12302850039203726,0.13185070264575843,-0.20874827224424242,0.07568044098139046,0.675657709734337,-0.3959228521271429,0.5307829601143538,0.3240385584405703
83,4.829999999999982,-0.2822291800676213,-0.2334030458364374,0.059607723664004214,0.9736199621644895,0.1911862437900207,-0.1245481035834733,0.10919663361119906,-0.20368639823517914,0.04138510610195982,0.6755470329451357,-0.39661137726917534,0.5295518649947415,0.32543871706085137
84,4.839999999999982,-0.2743033037118349,-0.2731768606006207,0.08696907567029304,0.9734422129221665,0.1908116086904559,-0.12649465278985944,0.122258854317993,-0.12010597441475988,-0.02348495550988331,0.6755603850280422,-0.39691755068666995,0.5284023020987713,0.32690270237165087
85,4.849999999999982,-0.3290679552878249,-0.31568182545615636,0.11345922755191734,0.9732538493440333,0.19022073212380228,-0.12881230019958234,0.1205099120101675,-0.08259529819898274,-0.0773124057098199,0.6755838166543201,-0.397180773764729,0.5271063387249566,0.3286220805406092
86,4.859999999999982,-0.3840536754297113,-0.3392631682330785,0.11392316288201894,0.9730480165104421,0.18955855927344664,-0.1313190178560372,0.09053259294760829,-0.07436879094784206,-0.10230781039964984,0.6755439307000227,-0.3975442600647145,0.5256413175169823,0.3306050167698285
87,4.8699999999999815,-0.4038260564020874,-0.3536220981326157,0.0722651823125702,0.9727596850515623,0.18920677840809702,-0.133935354593517,0.07023632464976917,-0.04681458129134368,-0.10330398348088907,0.675500701850174,-0.39809342123598035,0.5239786179289896,0.33266507013443297
88,4.879999999999981,-0.37415679460773055,-0.37405249047908107,0.017247382069238572,0.9723585118495636,0.18926151386376472,-0.13674166531127838,0.04992188475617043,0.027492174201305217,-0.09486132388494048,0.675608614802183,-0.39865581858843896,0.5222090565989558,0.3345498049494911
89,4.889999999999981,-0.35355058016069646,-0.4212088357084046,-0.050162495834211604,0.9717636173231776,0.1900056927696443,-0.1399002648702158,0.037369771262324464,0.0804656054150435,-0.0836496862888072,0.6759351563967861,-0.3993182238770965,0.520186755110241,0.3362461940265367
90,4.899999999999981,-0.24662794877571667,-0.44952628775142817,-0.06676796412710621,0.9710388662094012,0.19099072360143887,-0.14354258997721128,0.05129854598093826,0.10881538412070918,-0.08737294794637311,0.6765634080417849,-0.3997446605034496,0.518104586990316,0.33768788342528894
91,4.909999999999981,-0.14192674615171558,-0.4461647690067065,-0.10898116618805796,0.9702130504064804,0.19214417010646914,-0.14753094606307188,0.06954532036165799,0.09145002071730016,-0.08941163890675628,0.6774869768993904,-0.39987667493037726,0.5160742783349128,0.3387873457806369
92,4.91999999999998,-0.12047624953517097,-0.4180535691190237,-0.10806235660578463,0.9693578361752169,0.19337803215923957,-0.15148668009196684,0.04849797511891954,0.07342360288504897,-0.06518573114545753,0.6785395176461009,-0.3998373956489663,0.5141850535930506,0.3395988131202677
93,4.92999999999998,-0.19364629065477665,-0.38409525157331714,-0.08373140210642203,0.9685509946934738,0.19456807721651803,-0.1550825659969206,0.027453909605248364,0.01736763951741347,-0.011587209944808718,0.6794338691475157,-0.3999244837186461,0.5123657802890262,0.34045681428517804
94,4.93999999999998,-0.3132693504496508,-0.33914500845403606,-0.02113339845824761,0.9678798475700743,0.1954878825026035,-0.15808898158475904,-0.014925165509818285,-0.08548252502734081,0.057142340634049375,0.6799462335143875,-0.40030333627270076,0.510599948287733,0.3416395240315871
95,4.94999999999998,-0.412576648170902,-0.3089261308172439,0.023389540251578057,0.9673725971186098,0.1960365605000386,-0.1604966635658389,-0.04611549580628081,-0.17606806625789595,0.08307853550904712,0.6800318070909824,-0.4009826948514716,0.508885127047126,0.34322696824467797
96,4.9599999999999795,-0.41351920874114545,-0.29617083795829746,0.04711872041927438,0.9669557626474272,0.19637470576413674,-0.16258251005460705,-0.04984994456579642,-0.22093372826928578,0.0766525070238549,0.6798897293119837,-0.401807718830464,0.5072068687633016,0.3450229222199785
97,4.969999999999979,-0.3157656715546787,-0.280522547350071,0.07033538508378454,0.9665945652856033,0.19643551807381532,-0.16464364388554237,-0.04005368706900748,-0.18072427460228072,0.05715972279167962,0.6797769809980444,-0.40242662720801964,0.5056981574599987,0.34673440703081015
98,4.979999999999979,-0.17908480875737798,-0.28304162542978073,0.08942167770932977,0.966296317134413,0.1960381809712602,-0.16685260761178883,-0.021397772713619097,-0.08547823524278768,0.027030429988152013,0.6798326120840086,-0.40258029273260876,0.504482510352375,0.3482149829661594
99,4.989999999999979,-0.11715907832873129,-0.2992079346978326,0.08406969194469782,0.9659753859670454,0.1954335168980895,-0.16940010834742536,0.0009897189478161525,-0.014277047750463866,-0.005650603365986908,0.6801303279381208,-0.4023349242700234,0.5034147136804402,0.3494605841556803
100,4.999999999999979,-0.13487821649796755,-0.3226164439904442,0.06550896156957699,0.965586793993771,0.1949248121087631,-0.17217845155167152,0.020169040167510574,0.019527915883596227,-0.036361563650473154,0.6805439384000634,-0.4020113838729554,0.5022921511932535,0.35064092731333973
101,5.0099999999999785,-0.22802629276828065,-0.34081211437542647,0.053903468981947304,0.9651217972874463,0.19467387530381874,-0.17504581803393535,0.033250958866768765,0.027722549066527626,-0.05452530865229019,0.6809195418739851,-0.40188658682269696,0.500963038449687,0.3519536617861051
102,5.019999999999978,-0.31530949350357956,-0.35152496474280964,0.03673097273745541,0.9645915684012702,0.1947370712559778,-0.17787462714071892,0.04837009536735553,0.020115521585697044,-0.06506864615488978,0.6811620779227044,-0.4020977136425597,0.4993792950611993,0.35349001506869704
103,5.029999999999978,-0.35110171054342054,-0.33322752075032264,0.06396267392568031,0.9640676703882812,0.19488331714933646,-0.18053552723772884,0.06479895061293757,0.014933680379223088,-0.05488357994793451,0.681265910571346,-0.40250609709865814,0.4977153763971397,0.35516782217643034
104,5.039999999999978,-0.3864321903583999,-0.31430375267938054,0.10187699207544887,0.9636424359757538,0.19474759318331342,-0.18293687898441216,0.06137014425033659,-0.011368428558053235,-0.00181590899542243,0.6811744738762583,-0.4029838497169922,0.49612007971679584,0.35702847416024264
105,5.049999999999978,-0.3851969994369054,-0.29930188717529926,0.13723812442858996,0.9633070898417647,0.19431716453382467,-0.185147166958399,0.04573600721098878,-0.07094544405340521,0.048737991414777394,0.6809452348658471,-0.4034551575460778,0.4946210220571915,0.35900770061428827
106,5.059999999999977,-0.3856006089034894,-0.277368041741498,0.15409395578029636,0.9630606824737045,0.19359257578174913,-0.18717727331594555,0.03862323559282386,-0.10086894030228437,0.06057281225719264,0.6806146497772292,-0.403871896412224,0.4932530041424274,0.3610424579472936
107,5.069999999999977,-0.40814658728289244,-0.2653369645963635,0.13818674574479692,0.9628295833081026,0.1929383146589727,-0.18903334641853164,0.04381199172385149,-0.07834532930404353,0.05173135711970371,0.6802256842780249,-0.4043634639982132,0.4919076713124366,0.3630552863127874
108,5.079999999999977,-0.5132978888584607,-0.2638839015969546,0.14875802270779379,0.9626051617610953,0.19242277476461594,-0.19069505474780757,0.04511015015721989,-0.04479672982103,0.0344943990885843,0.6796921710366481,-0.40507752020196974,0.49047344825552935,0.3651922569468985
109,5.089999999999977,-0.7630094842573202,-0.29858420411351083,0.16137559640070764,0.9623626052010543,0.1921410088396741,-0.19219760946344708,0.04470622572697619,-0.040464392042759936,0.018999416274577515,0.6788268916744087,-0.4063135902108255,0.4886813920612425,0.3678199684505403
110,5.0999999999999766,-1.1126678565078612,-0.3561995122475264,0.19164409041874417,0.9620667750991188,0.19224258496395394,-0.19357222957192563,0.05261441495469224,-0.06980500471337421,-0.017729849016855193,0.6774025042041744,-0.4084368740331317,0.4862005367065134,0.3713611737821375
111,5.109999999999976,-1.5114236737985831,-0.4075078139683236,0.22208683538588025,0.9617264691397587,0.19277616888519936,-0.19472914038024067,0.0654796544988615,-0.10841170471409978,-0.06811374143642747,0.6752494982707375,-0.4116474081307125,0.4828844801918422,0.37602844183265366
112,5.119999999999976,-1.8631243245015374,-0.433873959363011,0.22074802176985003,0.9613350767386915,0.1939257569462537,-0.19551835095325895,0.08133157498054874,-0.12545516994545297,-0.10821596542686174,0.6723317093615369,-0.4160163505470402,0.4787105050616653,0.381734332239578
113,5.129999999999976,-2.0225457475731323,-0.460085726377615,0.1812827601152104,0.9608500324379452,0.19580750995726723,-0.1960257885435445,0.08811372571850101,-0.10425339287164131,-0.10471342938343728,0.6689024110296724,-0.42124414450741904,0.47384634035578876,0.38803696482435246
114,5.139999999999976,-1.8466891102177838,-0.4742112592295231,0.15081341795974212,0.9602494395073295,0.1980950783286673,-0.19666858849041138,0.07548255327772357,-0.031188492867741488,-0.06084447557499441,0.6655387941192176,-0.4264798565962227,0.46879715861189225,0.3941873209539063
115,5.1499999999999755,-1.4289148837667485,-0.4417654332379092,0.18317283235528403,0.9596681625318169,0.19976410734603572,-0.19781541741320838,0.06644764907476476,0.06928298628701134,-0.004288774259050089,0.6627624951056782,-0.4306489208428025,0.464357174675024,0.39955911805504957
116,5.159999999999975,-0.9830640338300486,-0.3972064558531311,0.2193499062757782,0.9592456200864841,0.20018315103019552,-0.19943482551471137,0.07458533377614665,0.10160240682892853,0.038159611216634595,0.660726773058421,-0.43330955090087536,0.46100177544117416,0.4039230781601236
117,5.169999999999975,-0.6741182792958506,-0.37313087393337074,0.2115613721038702,0.9589063960604577,0.19974251896717557,-0.20149603325896887,0.06977401498239447,0.06882328560145924,0.06622343646189074,0.6593962848918801,-0.4347323932516309,0.45853951690220146,0.40736035130670883
118,5.179999999999975,-0.5383045724514244,-0.3605544828830624,0.22816956172027336,0.9585955131696593,0.19885762277925922,-0.20383554935293188,0.036003197230102826,0.02343808758497381,0.08086467918295684,0.7445930145716387,-0.21053140778353577,0.5746397473906408,0.10977433806470238
119,5.189999999999975,-0.638548912268892,-0.35884988906548565,0.26113696944017084,0.9583490698277992,0.19768039180875582,-0.2061266699357068,0.0006421106771812152,-0.02388831342089369,0.06761452789914268,0.7765671597013375,-0.12902808340142372,0.6166746968060666,0.0022049393633113332
120,5.199999999999974,-0.8981199112334324,-0.3552821973370559,0.2650147644854737,0.9581276824825535,0.19672095909113652,-0.20806597651470493,-0.019086842729292557,-0.08478900678203573,0.027482786037303676,0.7771718615047333,-0.13116957540226953,0.6154348671917206,0.00582038542488741
121,5.209999999999974,-1.2163314021976812,-0.3153212816049661,0.22994914072266204,0.9579201779137817,0.19651452614500814,-0.2092151536996119,-0.03514138406265287,-0.12509365210962486,-0.010635635727126249,0.777494453440673,-0.13449098651944363,0.6142487625764023,0.01027275337243408
122,5.219999999999974,-1.3124185431382784,-0.2662631284202529,0.12306166364688269,0.957667918197612,0.1974703473379623,-0.2094690129535773,-0.06784548062461779,-0.10606248507849872,-0.00913430786776753,0.7774966204649116,-0.1389123592350639,0.6131590475558667,0.015117950438364397
123,5.229999999999974,-1.041710112665733,-0.21338204032680386,0.03998983831007725,0.9573092594316872,0.19927753924514596,-0.20939580756745746,-0.12511651071024027,-0.011007131999201586,0.043035472195979016,0.7773832845557886,-0.14332114428540185,0.6121740956353875,0.019238544961582508
124,5.239999999999974,-0.4661354687196768,-0.16029447582312345,0.05684748504160381,0.957007761067646,0.20045820868403302,-0.209648744425313,-0.16472940764365568,0.11188408007658539,0.08855763765182378,0.7773954755593968,-0.14615450474070493,0.6114027608721134,0.021902253474008832
125,5.249999999999973,0.16841673953640934,-0.1048067387894011,0.060289551516767736,0.9568523943351787,0.20017089292182666,-0.210629610500694,-0.14851459498025454,0.1888324831648482,0.10609699304914416,0.7776894439940915,-0.14650530475313384,0.6109184188466519,0.02267104234115524
126,5.259999999999973,0.5802761266767628,-0.07070009592795201,0.04146680369273712,0.9567778074446414,0.19882761353807268,-0.21223268589109784,-0.120281473729387,0.18087548054815067,0.07882008450879732,0.778230774464459,-0.14480551609421502,0.6106667957382603,0.021743371752276867
127,5.269999999999973,0.6984434358069516,-0.06089625694288658,-0.007489331011437381,0.9566755229755487,0.1972471549645288,-0.2141591625328591,-0.11464570349165062,0.13969948712912486,0.04901537074984294,0.7788993711595299,-0.14218373256016792,0.6104936679691092,0.019857289791274657
128,5.279999999999973,0.5855040413757485,-0.04109083741954184,-0.06551674457761383,0.9564895523249325,0.19620058341083313,-0.21594531233587252,-0.12340554596439308,0.092713043347358,0.027105981566514684,0.7795232220045861,-0.13974739699407754,0.6103252226705864,0.017753945313059207
129,5.2899999999999725,0.3280516566476653,-0.030927893119679733,-0.11898890171991901,0.9562315017871541,0.19610921126898379,-0.217168995469151,-0.1300516594378667,0.06351010667409457,0.013911614764233554,0.7799536264042883,-0.13824369631915132,0.6101670997327252,0.016010243358400334
130,5.299999999999972,0.0749090173820525,-0.011647134632415148,-0.14039094367650903,0.9559173311162852,0.19695889787497634,-0.21778164865048133,-0.1277872604808868,0.03583469949436775,0.018565172678626538,0.7801719713179522,-0.13788551365675097,0.6099973386359646,0.014909789446822665
131,5.309999999999972,-0.0419146440110947,0.03381636836933023,-0.1373072132445264,0.9556611174467291,0.19826729356301998,-0.21771849595385565,-0.13303182837783126,-0.027485021869858947,0.04320328458903203,0.7801623094177645,-0.13828643349551273,0.6099324052044816,0.014349467317843001
132,5.319999999999972,0.030478762271261603,0.11144445796916509,-0.19112942923886508,0.9554997747065248,0.19982939344489797,-0.21699661333175277,-0.1664262554177525,-0.0723229923214468,0.09112293905910059,0.7799419105144181,-0.13885143131978275,0.6100999032279765,0.013737685338979835
133,5.329999999999972,0.2594673844382209,0.16303153262002115,-0.27002322692538766,0.9553367827079404,0.2017374868313373,-0.2159455523125621,-0.21715600263982163,-0.016997632230923473,0.10654819445514507,0.7796286221886826,-0.13901073081964627,0.610494221661613,0.012298546174710184
134,5.339999999999971,0.4988697058369698,0.19659467492338425,-0.3000679919041256,0.9551445863113358,0.2036744303221723,-0.21497593797967207,-0.24523705440641672,0.08844512014380085,0.0664396614565888,0.7793513558916001,-0.13842314729950522,0.6110244022840788,0.009890684537503903
135,5.349999999999971,0.644487637389338,0.23059081026359912,-0.3055239150886832,0.9549767382613007,0.20531924168350496,-0.21415578175905625,-0.23355984562637103,0.14385543586732577,0.03243466378965331,0.7791209344130053,-0.13708268264431644,0.6116614812310257,0.00677655786342812
136,5.359999999999971,0.6688937672947949,0.23709875764201974,-0.3425168392491114,0.9548248363448681,0.20697808807941045,-0.21323364507196718,-0.21156338468684044,0.12981321341185936,0.020283460450121304,0.7788470872455021,-0.13550087910989853,0.6123903857258735,0.0033412361671140323
137,5.369999999999971,0.6630747817834237,0.2434173200743987,-0.3424755493076377,0.9546080211240628,0.20888124418614448,-0.21234638146003354,-0.20812534193667065,0.0783221770129941,0.017591224496906192,0.7785692757731607,-0.13397417748294582,0.6130881748381778,-0.00021497756912663025
138,5.379999999999971,0.6956210820182759,0.2576630579599322,-0.325427621232152,0.9544367803348204,0.21060842997985432,-0.21140888295616164,-0.20952814013495616,0.02760608672315151,0.034055113279472485,0.7782593380378022,-0.1323570541722546,0.6138211253570248,-0.003739436633904132
139,5.38999999999997,0.7525788066457405,0.28578674802069987,-0.35010488729666295,0.9543009649069326,0.21229046513926375,-0.21033645404153886,-0.1710582498017379,0.03776876646604239,0.06902382189694736,0.7778875460366432,-0.13055545234445934,0.6146430384746429,-0.007462600527723406
140,5.39999999999997,0.7121336085894155,0.29833017461501427,-0.35488232272506093,0.9541547320960075,0.21413658447692566,-0.20912452809852908,-0.10136530896337631,0.0844783413288028,0.07879839894599483,0.7774515548413031,-0.12876299145043973,0.6155135501446796,-0.011308150910154871
141,5.40999999999997,0.5339629833410157,0.320306970460889,-0.3282414161230439,0.954061318360575,0.21608370682758243,-0.20754111219497187,-0.03845521341790506,0.08487819617464382,0.08059212382306226,0.7768844706643728,-0.12733812660470914,0.616452644127585,-0.014784442121169472
142,5.41999999999997,0.2476541540426473,0.342611078367631,-0.31107035022865753,0.9540535910999604,0.21831351395314053,-0.2052267380376642,0.012896236480547236,0.02362780948453686,0.08322263709437584,0.7760850170125174,-0.12677569483190948,0.617506487059217,-0.017436916001644157
143,5.4299999999999695,0.012226828941374168,0.35827316914761137,-0.27428400605701564,0.9541148707132981,0.22087849944894325,-0.20217121926779782,0.06364121046888513,-0.05696601928501982,0.1073528528632477,0.7750593107458956,-0.12718068564446303,0.618659032522401,-0.019180960792877823
144,5.439999999999969,-0.0355769711169758,0.40756908979520096,-0.19260395405148528,0.954351827024184,0.22319088345050647,-0.19847833509745572,0.10075378999896474,-0.13266359943886608,0.13403764862692455,0.7738399746231446,-0.12798160047758023,0.6199845965541154,-0.020255552915818528
145,5.449999999999969,0.11873669543368877,0.4558005604132717,-0.12083425887578783,0.9548463967869483,0.22461793428565685,-0.19445017999839967,0.08239570030813974,-0.14819065039502355,0.13811367548083037,0.772511020265126,-0.12829173477221315,0.621542828435559,-0.021240312330914817
146,5.459999999999969,0.33297405018442633,0.4978265617861837,-0.04159037113580397,0.9555717090364275,0.22496898514434732,-0.1904410349742288,0.0302025291146509,-0.05275149861193115,0.12079948912326251,0.7711742253636829,-0.1276092716060806,0.6232930819359894,-0.02258085865425018
147,5.469999999999969,0.35770571297929493,0.5453731992405759,0.02368886633732996,0.9565409409042256,0.2243491359735032,-0.1862576027523043,0.020630464284031154,0.03958917341819227,0.0985816056579209,0.7697719799594209,-0.12617898912924752,0.6252586505964446,-0.02406078616024826
148,5.4799999999999685,0.18652951047635288,0.5917913994133195,0.05010014144804398,0.9576723241428728,0.2234672187186214,-0.18143670011462515,0.04280606097428921,0.023129700986901376,0.1016408260701492,0.7681704181959015,-0.12492346990208732,0.6274347024950082,-0.025134459939305402
149,5.489999999999968,-0.002594378991453511,0.6377502979729875,0.057259628746320686,0.958885921838619,0.22279554117676145,-0.17575706018673956,0.01593989527461536,-0.028487807523524793,0.12438371719941249,0.7663050592218815,-0.12435010038574208,0.6298071390527658,-0.025575151151892878
150,5.499999999999968,-0.08282462555195717,0.7086576944003861,0.05342473425882849,0.9601631538615374,0.22234873110893952,-0.16922050868852243,-0.0441810453032377,-0.04796261147956919,0.13515627811981915,0.7641673366566947,-0.12426858692838232,0.6324122606453556,-0.025635840839038145
151,5.509999999999968,-0.10273804384653326,0.7327931237275332,0.03929539318284112,0.9614600451189182,0.22206184326676637,-0.16207851475060986,-0.08078601732729421,-0.028245393339870355,0.13748490862769422,0.7618286592922062,-0.1244055828498963,0.6352023264562492,-0.025590807464796948
152,5.519999999999968,-0.046632368309227124,0.6965268710765259,0.03848795076464668,0.962680181936612,0.22182277784716725,-0.15501508655259416,-0.04973381458032755,0.010430956236922423,0.11794136880333363,0.759505633989913,-0.12449187927257066,0.637959595131308,-0.025642728962925937
153,5.529999999999967,0.050616169805037955,0.653423271998784,0.05937894429327034,0.9638103816004442,0.22136183670881968,-0.1485217116233642,-0.02137427951417705,0.04719495311889891,0.03725618636530366,0.7573567830580078,-0.1242392318086212,0.640548320357507,-0.02589509337166475
154,5.539999999999967,0.05750492320167298,0.5919815311154752,0.07591257310695558,0.9648782463301313,0.2205875544437065,-0.1426283322009035,-0.08469331544345726,0.09671925186465241,-0.06367111009873044,0.7553971178983888,-0.12367349691194394,0.6429535411382571,-0.02623932870390345
155,5.549999999999967,-0.17313291976783468,0.48039671651315463,0.07619522957764452,0.9658028986448477,0.21991564974502237,-0.1373148760488356,-0.1571805187135934,0.13613222051476254,-0.08063067281399797,0.753640456738836,-0.1235376957293011,0.6450426966264765,-0.02613027172521042
156,5.559999999999967,-0.48890447533612724,0.3396785958946918,0.1146078223094849,0.9665580137991802,0.21948563987384798,-0.1326147797215635,-0.1448274812887981,0.06846460695589321,-0.06847407914618989,0.7521194826077997,-0.12446142043036751,0.6466845774712369,-0.02494892730875761
157,5.5699999999999665,-0.6342833580937867,0.18798651371726094,0.17267605948010836,0.9672150226759328,0.2188746931428674,-0.1287864720238541,-0.09209158730945427,-0.049644112856089814,-0.11605869100013759,0.7509167941029953,-0.12615732330508822,0.647834842244147,-0.022698370353336852
158,5.579999999999966,-0.44708256350621955,0.059006776362702844,0.2159873049622012,0.9677944898330085,0.21770618450151027,-0.1263991868706773,-0.06906617630120951,-0.1006454835016386,-0.18186781808093988,0.7501930326659775,-0.12762668574830702,0.6484685645725395,-0.020215025119824287
159,5.589999999999966,0.008209981902658314,-0.016965810187605228,0.21453416381200932,0.9682835863453109,0.21589129346780783,-0.12576479688431605,-0.03617402533062803,-0.06401076374485609,-0.22232206210151512,0.7500218352859449,-0.12775376404505548,0.6486882573239718,-0.018695514982757306
160,5.599999999999966,0.3174265464638456,-0.048591185034328306,0.17963141758037582,0.9686640800479749,0.21373919444096035,-0.12650603697322077,0.06158396048380494,0.03765307598667714,-0.2186446141672803,0.7502730863396285,-0.12642443142578988,0.6486624466934348,-0.01852572489504412
161,5.609999999999966,0.2573923807614038,-0.04146802558722619,0.15708305259957586,0.9689584190112799,0.21173225136521984,-0.12762378450180387,0.1724056912329926,0.0772776022688188,-0.19827664503124515,0.7506369587751057,-0.12473425168133592,0.6485590749659834,-0.018866628455653307
162,5.6199999999999655,0.01621913266422939,0.0026805456749222738,0.18193743605492532,0.9692831422518633,0.2099366912912784,-0.12812516854175218,0.18563930793454292,-0.03341419326999122,-0.1446710585386163,0.7508087468792621,-0.12367554537746869,0.6485689412292714,-0.018674477321752567
163,5.629999999999965,-0.14743896716717678,0.06319369061893818,0.23284836663054514,0.9697582962113414,0.2080139224135885,-0.12766233411626832,0.10911229010706089,-0.17547974193068241,-0.04100605461599757,0.750678367521452,-0.12326708669011124,0.6488251002941369,-0.017682951231051923
164,5.639999999999965,-0.2069681032687638,0.11352660508851138,0.26588245356552503,0.9703921413148642,0.20580265820157603,-0.12642063365209683,0.0914457009237306,-0.22686852659702614,0.032825430892656,0.7502979381295241,-0.12312430513506924,0.6493304202376551,-0.01620385536772548
165,5.649999999999965,-0.2197727105737916,0.1387136575390577,0.2735625179813112,0.9711048234275373,0.2034462733975906,-0.12475084369593754,0.1647342324615775,-0.20359670124254262,0.05104634698431115,0.7497749650987457,-0.12304304357581439,0.649988356221437,-0.014567683516398016
166,5.659999999999965,-0.14594727532718577,0.1427858062142893,0.2508638296096608,0.9718117898852681,0.20112616033189978,-0.12299675284826617,0.21395122092094984,-0.15300420630578954,0.042932323009075846,0.7492177539471909,-0.12287683516589164,0.6506940643282728,-0.013065716715598226
167,5.669999999999964,-0.0428197940151753,0.11495000712345621,0.2068865122560533,0.9724337126626841,0.1990067239425237,-0.12152216352330836,0.19804894328710393,-0.06603395947534493,0.01930408425708266,0.748743983838562,-0.1224787865775164,0.6513353264843958,-0.011972596702647864
168,5.679999999999964,0.018645784783858463,0.048295525162870744,0.16261058143623675,0.9728995707855276,0.19722800018294243,-0.12069298871226555,0.18603441471283405,0.015974902684953902,-0.02977028004588084,0.748477414642054,-0.12190292904675605,0.6517615100883697,-0.011311536039372598
169,5.689999999999964,0.04079950335728082,-0.04905824439362972,0.1396367809525845,0.9731905037590635,0.19574858878617876,-0.12075654145331802,0.19609220345503398,0.02927507315822577,-0.0962145072251315,0.7485051635783552,-0.1212904373590073,0.6518514099623975,-0.010873329317995941
170,5.699999999999964,-0.008913695811873748,-0.14998579008721824,0.14342643677800815,0.9733399074758599,0.19436194356976874,-0.12178559008649842,0.20892913430059099,0.00038680306465619513,-0.15099177169524064,0.7488559199938628,-0.12075503580224195,0.6515560697766327,-0.0103641569590598
171,5.7099999999999635,-0.12636822794939703,-0.18002681147035882,0.1421438750128657,0.9734095908106009,0.19303321626871528,-0.1233326232264634,0.23795540126950843,-0.046118303742059566,-0.1746884987740359,0.7493835361380552,-0.12054029606140382,0.6510020197712405,-0.009501541137489865
172,5.719999999999963,-0.19148763952782608,-0.17649328724359767,0.09623177302110972,0.9734205126513199,0.19205093430512768,-0.12477374909081747,0.25191743597684396,-0.07858963077497527,-0.15447937725385014,0.7498775893719222,-0.12078909297752369,0.6504021654862904,-0.008376679134529715
173,5.729999999999963,-0.15729047809927799,-0.1937131689358271,0.0504578989950773,0.9733302503907536,0.1915655329260341,-0.12621502097704979,0.2111116577130274,-0.005979654344151625,-0.09967526101122814,0.7503679445418032,-0.12120809160278266,0.6497699107962934,-0.007436364529028531
174,5.739999999999963,-0.30268612751891344,-0.2310010215394939,0.023735662344508326,0.973131676841872,0.1914831853203656,-0.1278600704179353,0.17410488192319254,0.1324268078797681,-0.07022668723576006,0.7509244081921849,-0.12188579050631662,0.6490095387451124,-0.006493244480094659
175,5.749999999999963,-0.7459069038159065,-0.30291497990937993,-0.00601869233713458,0.9728047994017597,0.1920661281576316,-0.12946242876168315,0.1977113066069262,0.13504522744661665,-0.06968050948203158,0.7514705443630346,-0.12379364535289236,0.6480289407354028,-0.004636633651749134
176,5.7599999999999625,-1.260932652801931,-0.39223103654149105,-0.0030644011508919166,0.9723391651863881,0.19345657402931732,-0.13088134489192463,0.21483235065232428,0.0046521940556294855,-0.04554897112104375,0.7519537023222589,-0.12760731963099087,0.6467373867062705,-0.0011926314797019266
177,5.769999999999962,-1.5923251848245241,-0.484719142328687,0.020102294981400204,0.9717738466781649,0.19528494793296605,-0.13235494065864814,0.19219813593989907,-0.09476127880669863,-0.029833134257837162,0.7524329346786675,-0.13300154516025853,0.6450760875154905,0.0037758244563414756
178,5.779999999999962,-1.5993970112651266,-0.5415630773232547,0.034434339936203644,0.9711382436626604,0.19716836632069498,-0.13421302516854053,0.17608758793567292,-0.1257945068590913,-0.045653513395276096,0.7530001858773566,-0.13897325201951186,0.6430940857514403,0.009433520011210115
179,5.789999999999962,-1.281216627123196,-0.5484917222187949,0.04196338071062644,0.9704767147170765,0.1987563332637977,-0.13663162910614726,0.1660972264533084,-0.08226127129814388,-0.056373407498918046,0.7537213435253245,-0.14429612588415178,0.6409807638621778,0.014640579288935512
180,5.799999999999962,-0.7443340569831876,-0.5265607398060893,0.03948717228077984,0.9698150890790774,0.19976549077210226,-0.1398169315295236,0.16458055122943144,0.0314451301474975,-0.0635992084581917,0.7546956564636462,-0.1479675720228707,0.6389010012782825,0.018453422208649938
181,5.809999999999961,-0.20854248108883505,-0.4962475222884172,0.03466188050247826,0.9691606202758923,0.20007721982984167,-0.14384612803368216,0.17201882341476984,0.12197702178235163,-0.06257165000695884,0.7559782857441923,-0.14957841769966007,0.636947647665346,0.020472755357408175
182,5.819999999999961,0.12270919337113995,-0.4710044357775612,0.06407080977762725,0.9685464247143121,0.1996507737971672,-0.14849654299320927,0.15096192667634437,0.1346999222481772,-0.037078222388028576,0.7574982426853908,-0.14945270151704884,0.6351493493288307,0.02107293612249547
183,5.829999999999961,0.06853457546315644,-0.45687638468750413,0.12704509065347724,0.9680377247209524,0.19854057882530418,-0.15322850357574544,0.10935043713756348,0.0723055475642143,-0.015907977935143112,0.7590492737218151,-0.14864028718493635,0.6334753494424111,0.021397824443294848
184,5.839999999999961,-0.2803917436377028,-0.4340291608763,0.18805266904706805,0.9676615971296562,0.19714722755771866,-0.157354637905476,0.06972013389547649,-0.06492737814530138,0.01995838584638832,0.7603707516327181,-0.1484491086904645,0.631889938712836,0.022636319554507796
185,5.849999999999961,-0.6551032227990805,-0.40976050520804286,0.23834974308275161,0.967414523090423,0.19583216743677645,-0.16048985838480515,0.024395982538584608,-0.19607130940688508,0.08241428549274413,0.7613167326273369,-0.14953943489126423,0.6303900851148095,0.025273810387863124
186,5.85999999999996,-0.7367531563396283,-0.3821610051224226,0.29136039986666185,0.9672856196625322,0.19445570005016966,-0.16292213039418163,-0.01888338971898035,-0.2575559076343892,0.1384640929506865,0.7619879264039596,-0.15140360027926708,0.6289789762771267,0.028842610131440728
187,5.86999999999996,-0.47548962333879347,-0.3304217067671308,0.3550458121379395,0.9673222897727497,0.19235651684307117,-0.1651769726961362,-0.04954578590283286,-0.22212859793799433,0.13385913311593597,0.76258923377143,-0.15271456077365145,0.627765439065828,0.03230677759348121
188,5.87999999999996,-0.05780803418533931,-0.282741530583549,0.3713543310611426,0.9675217140674234,0.18923056392226018,-0.16759690159897211,-0.06435357405105467,-0.10624550242628321,0.07553950687428906,0.7632736823585325,-0.15253822710835188,0.6268438094215367,0.03479850568811907
189,5.88999999999996,0.3162748136485348,-0.22325549743972084,0.3298516364216135,0.9677544933738876,0.18558725056475553,-0.17030386188347607,-0.059097323345801575,0.033453738154495954,0.011798887173217285,0.7641092720420585,-0.15085993037054626,0.6261691956185905,0.03589981015405103
190,5.8999999999999595,0.46925290517904855,-0.1600553408141046,0.3093644750547584,0.9680092195285905,0.18180671476199542,-0.1729147291412262,-0.059739256583039656,0.11068419402727377,-0.04431360095761981,0.7649597325523201,-0.14825854218401882,0.6257475589439406,0.03596959204618179
191,5.909999999999959,0.3427582858512155,-0.09875647247431396,0.28796536499701314,0.9683184115209784,0.17818955460625302,-0.1749417110343027,-0.0814339415331797,0.0682272720099531,-0.05843213151175405,0.7656260309524617,-0.1456857070495547,0.6255427340383601,0.0358820284879068
192,5.919999999999959,0.06353888483606016,-0.050381911577070546,0.26607848962742986,0.9686715124896019,0.17517369501793553,-0.1760338188425895,-0.11547775228725368,-0.026232392519104936,-0.0029112023745208396,0.765960751199761,-0.1440269600033907,0.6254910923232937,0.03634283047552828
193,5.929999999999959,-0.22332201844330896,-0.009550117939627862,0.2743684983397791,0.9690876578555038,0.17271747125586562,-0.17617196000322838,-0.16991334219374146,-0.07684219325927838,0.07166307601290516,0.7659422241928369,-0.1434993763712123,0.6255573042707233,0.037651920837942734
194,5.939999999999959,-0.4522014195737449,0.03521713920570772,0.2885961284525272,0.9695919478057788,0.17058117202345088,-0.17547700190422352,-0.2279980434965176,-0.1059304475547517,0.09212768967774276,0.7656057446275938,-0.14393842689646713,0.6257339693908078,0.0398079994899828
195,5.949999999999958,-0.5037498835206992,0.087865883819811,0.27866795658636573,0.9701813060675104,0.1686785589942057,-0.17405200598538711,-0.2676537642212729,-0.09630299756350363,0.07392048528935309,0.7650016633179776,-0.14493753351656494,0.626072495943975,0.04238758479088448
196,5.959999999999958,-0.4520274853497189,0.13283708999560667,0.2608078730095448,0.9708247697668303,0.1668935744363817,-0.1721739780199269,-0.2860920944969477,-0.013773580767572118,0.03429540200441417,0.764247746447172,-0.14595479886769025,0.6265859353046322,0.04484355665651201
197,5.969999999999958,-0.3951561300049834,0.17174233129795116,0.210231709867914,0.9714798701080645,0.16529535559201605,-0.17000714577293616,-0.2886867484137066,0.039814179670145944,-0.018498247753157233,0.7634107689532471,-0.14685647467406543,0.6272394016298387,0.04697345990717039
198,5.979999999999958,-0.28343437200409144,0.21945571815800144,0.11957747067097849,0.9720845250899061,0.1642674320978243,-0.16752941328734455,-0.28342789275357444,0.030930264599180683,-0.05102920929491089,0.762499809303683,-0.14771442283252953,0.6280250263324804,0.048561956459536135
199,5.989999999999958,0.01155115992054534,0.26114521647947475,0.05812214030860585,0.9726221209198894,0.1636765541897429,-0.1649688144734089,-0.2889032461792663,0.045369513068925504,-0.055186346431159,0.7616212543997541,-0.14805554058331466,0.6289633213851193,0.049166746852308915
200,5.999999999999957,0.34653919351548507,0.30876326352998307,0.027753198531564098,0.9731549765087568,0.16296842011643484,-0.16250877203274844,-0.3045248601760733,0.10572175118874833,-0.07057577005649714,0.760853025538826,-0.14729809721581416,0.6301174128620431,0.0485443961045262
201,6.009999999999957,0.5901117036781951,0.3487959226756514,-0.014198335824392384,0.9736990860279847,0.16213301975836353,-0.16006678557970697,-0.29477518112074413,0.15706683195238166,-0.10244902091718941,0.7601569647175263,-0.14554995146855376,0.6314904540923997,0.046834304876755134
202,6.019999999999957,0.7057686090182996,0.36709876339378256,-0.039251318228785206,0.9742194248307942,0.16138021423927723,-0.15764288907325172,-0.2674558073002113,0.17759994561831366,-0.10766254468989736,0.7595061271386978,-0.14322927365810229,0.6329785951082689,0.044384981046816714
203,6.029999999999957,0.6773619152409723,0.3860148115853505,-0.02046035776342313,0.9747576892832245,0.16058690164522446,-0.15510393810825324,-0.254450082970142,0.15684650093387667,-0.1041635022996336,0.7588187735221772,-0.1407382270297139,0.6345382948874912,0.041766881347286594
204,6.0399999999999565,0.44065173530265794,0.3954097708510938,0.002844727371464661,0.9753492087372052,0.15977319962027045,-0.15219680495528964,-0.2621720555399296,0.09610938781506835,-0.08705269749544797,0.7579743969443316,-0.13867410203074784,0.6361368241491043,0.039654494149328604
205,6.049999999999956,0.0881777676166853,0.4001922361955672,-0.018818846645021647,0.9759369205459625,0.1594319296687479,-0.14874486334879994,-0.2769019379009024,0.014864288880540767,-0.046815336628678185,0.7568944299968505,-0.1377621844793883,0.6376900745900254,0.03850712908320916
206,6.059999999999956,-0.2807889915995251,0.42933122102963883,-0.05078947383712859,0.9764828750555441,0.15991804263898673,-0.14457513786305384,-0.28012909333857405,-7.677403925440869e-05,-0.017034993441957993,0.755521162493534,-0.13832280410806386,0.6392011896376708,0.03840108053337629
207,6.069999999999956,-0.6265623195337273,0.47662136173129854,-0.0951947936487756,0.9770077449260492,0.1612604735792357,-0.13943542048465515,-0.2822595841424464,0.04243534443773762,-0.008044441202620167,0.7537726076480928,-0.1403651836403003,0.6407630432977408,0.03928331424479331
208,6.079999999999956,-0.9313617200712118,0.5449438822573106,-0.1523974991234395,0.9774999420065401,0.1635437008716298,-0.1331707935542021,-0.29692941620713065,0.09600437410799793,0.015713854772678795,0.7516016044419436,-0.14381569027806707,0.642438124343068,0.04096429684622112
209,6.0899999999999554,-1.0528355385531292,0.59941092209408,-0.1912646324506611,0.9779533158475219,0.16654338682441117,-0.12591689909998752,-0.2781123923892666,0.14315145282342195,0.03643932781510971,0.7490623485394131,-0.14827938429768617,0.6442430219115455,0.04314372890706667
210,6.099999999999955,-0.997106503671935,0.6512754039439125,-0.22618455441511742,0.9783699805115793,0.16982832599387002,-0.11803950422926765,-0.22890026571006244,0.2185128036300854,0.04841306863567153,0.7463051489521427,-0.1529489416778164,0.6462052785931017,0.04523130308431384
211,6.109999999999955,-0.777471451650882,0.6519598778169042,-0.2806776374456171,0.9786861481084533,0.17332199032701298,-0.11007996716496675,-0.1886704265030198,0.2882333347319444,0.02732625964154476,0.7435438336243732,-0.15726975994944645,0.6482456103812129,0.046700786947176026
212,6.119999999999955,-0.3764322270452084,0.6224886399823,-0.280204621973095,0.9788642123179645,0.1767303674395898,-0.10285885293659823,-0.14963179178674899,0.28867963001008345,-0.001997894509552005,0.7410921493202227,-0.16049152435153816,0.6502393250156699,0.04701809058590709
213,6.129999999999955,-0.001502540328583199,0.5656100331518892,-0.26370752258581065,0.9789763283675663,0.1795687440909245,-0.09671020402699895,-0.13317806806311538,0.22076168497799803,-0.05289190200508505,0.7390697125177599,-0.1622060663383974,0.6521757681374019,0.0461496179644695
214,6.139999999999954,0.2446813507298895,0.5316059447966734,-0.28366689143707635,0.9790024299977844,0.1821066820477807,-0.09156982657026744,-0.1549419014470726,0.14960962164773323,-0.10669549945445514,0.7374454289421245,-0.16270767763885025,0.6540188329566591,0.04424267479829018
215,6.149999999999954,0.2039204698602955,0.5012266206823847,-0.3090838466770591,0.9789189783156617,0.1848035974915964,-0.08694317757765917,-0.18850739250148346,0.12072130239134789,-0.12706704133962696,0.7360097238229497,-0.1629184535189183,0.6557327211279013,0.041950561286306406
216,6.159999999999954,-0.04080193347057248,0.46811458519151244,-0.32573789184591534,0.978738140444201,0.18782897856438546,-0.08237075830275144,-0.1838076532070847,0.13520394738907549,-0.11263718006134378,0.7345600950385758,-0.16371061829921052,0.6572765890341462,0.04007543184243259
217,6.169999999999954,-0.4153377469808399,0.4354011855409749,-0.31966197638480365,0.9784864710483625,0.19117371331379004,-0.07751600703079288,-0.10519234498727872,0.1528691883036092,-0.0806132882169352,0.7329505542444147,-0.16568762209254145,0.6586254706182485,0.039252761235289244
218,6.1799999999999535,-0.7853823216851874,0.38670174657107703,-0.30888551857506485,0.9781905555032661,0.19468231172631814,-0.0723432628946279,0.016744735176963548,0.10503397844286151,-0.06126790492766995,0.7311571264160702,-0.16900028818806365,0.6597449560390821,0.03974672438749643
219,6.189999999999953,-1.054601452538968,0.3587134895729722,-0.31844945874339364,0.9778293473436679,0.1983937608599526,-0.06693302844144026,0.12125814329834796,0.036894014088442055,-0.03129885351132994,0.7292154504535029,-0.17349377431027163,0.6606268639408661,0.04134697973944811
220,6.199999999999953,-1.1983433511492718,0.36797723549176964,-0.32332832692200825,0.9774152325559878,0.20226915376267895,-0.06112315400500361,0.2033936431493299,0.02328371746831524,-0.03979725528992165,0.7270890553234599,-0.17875915745927876,0.6614206068640606,0.0435975665354895
221,6.209999999999953,-1.337193303096139,0.3913537466368187,-0.2821780558601621,0.9770085932591647,0.20599647252239978,-0.05484735092441299,0.2770493287086859,0.02650150004794788,-0.08743239759810616,0.7247587246553511,-0.1844376882832278,0.6622323836101702,0.046314498964795246
222,6.219999999999953,-1.5761416148806933,0.41562715343780343,-0.20595971891708728,0.9767096275436546,0.20912614902949228,-0.047874263745566706,0.32159527690046746,-0.041414334904470336,-0.12642227072244647,0.7221112512300693,-0.19060360326819872,0.6631170757064894,0.04986950881582579
223,6.2299999999999525,-1.7897764576625919,0.4207327196145761,-0.12717601333228354,0.9765433704948684,0.21149722482749284,-0.04023324180258731,0.34157833217934896,-0.1636402242796019,-0.117521802372121,0.7191261984093981,-0.19735208487012418,0.6640223057099001,0.05446672032936907
224,6.239999999999952,-1.754661504308933,0.42219678798127047,-0.0535342859657095,0.9765023629175834,0.21304548244641158,-0.03229503098197367,0.34819598144938224,-0.2674067300807285,-0.06426783088315559,0.7159456176894933,-0.20422679316923067,0.664933019152527,0.059686761935594156
225,6.249999999999952,-1.3805832247103194,0.4531155701509335,0.005401130110227691,0.9765743619211527,0.2137398772931264,-0.024653294984625443,0.3576648600279048,-0.27457763805672886,-0.05280234365598592,0.7128612509341414,-0.21011363754397894,0.6659739879447591,0.06442974142527397
226,6.259999999999952,-0.8314624449247101,0.509851779859696,0.033715971981245964,0.9767215587122663,0.21376745283212573,-0.017604921619572184,0.35656063397013565,-0.18289568548380883,-0.11004420116645924,0.7100826384331582,-0.21414900435789663,0.6673350132841186,0.06769910842278315
227,6.269999999999952,-0.34289834771261996,0.5860135283983957,0.016179976298317633,0.9768548427986626,0.21360028269873665,-0.01102924778270225,0.3430633210480482,-0.05629258474481717,-0.17341505072166052,0.7076258604498966,-0.21629636015581905,0.669104079820048,0.0691316039117388
228,6.279999999999951,-0.1009369842611443,0.6372569123648654,0.0004049744977659025,0.9769155680242263,0.21355783384656318,-0.004610863124668839,0.29677229040104847,0.025940063604685665,-0.19732854639890665,0.7053511088348492,-0.21720388002822594,0.6712049373188861,0.06916822484390482
229,6.289999999999951,-0.13794166763765375,0.6545380719242649,0.002298406483181338,0.9769239264956692,0.21355880832981586,0.001928665997753387,0.2183663030355383,0.0216582436186437,-0.19890320759130406,0.7030643348566078,-0.21779063998464462,0.6734467471922718,0.06881178846247213
230,6.299999999999951,-0.3563153731806738,0.6365110762035682,0.022141648964732003,0.9769120014683875,0.21344143623312833,0.008761752144026516,0.14328055774511828,-0.04376041626835361,-0.20334508357079584,0.7006157712247804,-0.21882614820895704,0.675643960502919,0.06895830915610553
231,6.309999999999951,-0.6747102644656251,0.5969645725004127,0.04668383773003888,0.9769081433972429,0.2130467772914148,0.01585702683058254,0.09282663420444527,-0.10354231000378825,-0.22861766585682408,0.6979631327318103,-0.2207012848492822,0.6776558847849415,0.07011793911831146
232,6.3199999999999505,-1.0530629947477874,0.5688850610681025,0.0436972470857689,0.9768985683135017,0.21239332799118613,0.023395598097661507,0.0654112231331574,-0.11038486412689574,-0.2537155426964459,0.6950043536683598,-0.22375440225187593,0.6794324537927237,0.07257595102875063
233,6.32999999999995,-1.374971844586458,0.4944479038996564,0.002278030225052726,0.97680566058464,0.21182279252841593,0.03116751880017749,0.04018751941687406,-0.07609742929423607,-0.26349514297480253,0.6918131289839761,-0.22808471069173955,0.6808496038480096,0.07619428538925052
234,6.33999999999995,-1.5810467009930707,0.40084087945277946,-0.02900619663849198,0.9766160393908104,0.2114584982563246,0.03870467273949818,0.013519309922063166,-0.05521752396445489,-0.28754421966076327,0.6885716663759471,-0.233450628984581,0.6817971633159836,0.08069066180703138
235,6.34999999999995,-1.6097978692236021,0.28404932716171183,-0.042832022870633875,0.9763929041505635,0.21115503537275196,0.045441537812681114,0.004363431805170977,-0.03553018562481976,-0.324744612056547,0.6855238393092553,-0.23922689868865427,0.6822652145770138,0.08562007808833928
236,6.35999999999995,-1.5277780988321201,0.12627012429551426,-0.016321363724709208,0.9762260370554136,0.21072875285611178,0.05072907886620315,0.0010724049200734349,-0.007903429559016496,-0.3684198326603163,0.6829476773881326,-0.2448104586363564,0.682222829927742,0.09062572499964976
237,6.3699999999999495,-1.5194746023815349,-0.033367244555568304,0.031473047133414755,0.9762194942412796,0.20986129569758488,0.054338135240626806,0.012086212959369035,-0.028987541879122704,-0.41755199632841883,0.6809247824566248,-0.24995176251443307,0.6816808299357857,0.09574441769526218
238,6.379999999999949,-1.733821339906187,-0.15344517284039588,0.020979122009449937,0.9763406306081468,0.20865561053390988,0.056754821526873354,0.04465652655842028,-0.10681927626014528,-0.45699170306802916,0.6792050364281643,-0.25527909430875856,0.6805906646378254,0.10146923954759912
239,6.389999999999949,-2.075711845901059,-0.2258743356536382,-0.031849209138326645,0.9764413381972554,0.20762611833205818,0.058760305721844874,0.05842144435088939,-0.16546131504551695,-0.4221915831174916,0.6774315477982114,-0.2616326828409391,0.6789103331183625,0.10815162980963354
240,6.399999999999949,-2.3197346487552335,-0.26059064739666377,-0.05577793374562562,0.9764864529337849,0.2067796926527816,0.06095494555747289,0.028367580565499702,-0.1533443482276505,-0.3764085293114024,0.6753524086538786,-0.2691384126803066,0.6767801396304084,0.11580372002649393
241,6.409999999999949,-2.35782846034113,-0.2992889715216642,0.00242023522905801,0.9765975188594743,0.20561729797958309,0.06307079444563515,-0.006433513531207089,-0.09506532892864754,-0.3329153491076494,0.6731014394409276,-0.2770200171585403,0.6743780822320428,0.12404708687757092
242,6.419999999999948,-2.179591039786281,-0.3774098353316439,0.08072738395899405,0.9768995304738171,0.20375039322564592,0.06443720717321641,-0.030576523177699936,-0.10355150296261387,-0.3043396148307589,0.6710130519423987,-0.28432247447297754,0.6718425679310788,0.13233813514098966
243,6.429999999999948,-1.5605180851208649,-0.4844950997123138,0.14364851700605266,0.977394816812813,0.20145876956342504,0.06412170532311372,-0.06626642005573945,-0.1556905891206157,-0.31206907273088985,0.6696359310394953,-0.2900676102756921,0.6692677976924906,0.13972302555992452
244,6.439999999999948,-0.349683854812458,-0.5945418082359121,0.2505093761653622,0.9781212491265209,0.19893610126722594,0.06079708551375604,-0.10548783363413876,-0.09104367258583754,-0.3954384171832034,0.6698704821091632,-0.2923544327879924,0.6670281804640897,0.14447867856715946
245,6.449999999999948,1.1095466319969776,-0.6937832277766034,0.33821346002787356,0.9790771419163351,0.19621126855107773,0.05379163004340093,-0.14598143468289257,0.06495716332513443,-0.5201225793292719,0.6723267025317602,-0.28964778079439457,0.6655770891729951,0.14517858730775068
246,6.459999999999948,2.641293024357534,-0.7639898456105446,0.32942309106980555,0.9800904951622018,0.19377036594228056,0.04299842438735707,-0.17526454937810634,0.2530345635513169,-0.6147558259773958,0.6771717836614811,-0.2816879738291166,0.6649286863693483,0.14114961554220046
247,6.469999999999947,4.078231612243249,-0.8225211167509493,0.2993827882543126,0.9809776041934699,0.19188960674984326,0.02869214150896624,-0.1964719117576112,0.4644740566382893,-0.6750966764206607,0.6842367512191941,-0.2685980562182171,0.6649536077318232,0.13207149865918677
248,6.479999999999947,4.891039235572044,-0.9081826350040693,0.28861655720476403,0.9817071182467894,0.1899203963323463,0.011606588374912939,-0.21777817269316396,0.5541735901755623,-0.6995220126814685,0.6928020862795546,-0.2514571061661165,0.6652268304158706,0.11909821572571959
249,6.489999999999947,4.878776825290811,-1.0632841098443075,0.2770441250072032,0.9822554537150342,0.18726412059558803,-0.007335092227928212,-0.21444225669996667,0.4977265267486821,-0.7037226108349223,0.7018787526297987,-0.23279304906431134,0.6649044874015106,0.10488325789506217
250,6.499999999999947,4.264086095122591,-1.2910157260105573,0.24255693266017092,0.9825288034725611,0.18391425684494708,-0.027509619378069013,-0.16824169204169723,0.3626215441629559,-0.7064183374084969,0.7108418763598913,-0.2150901345014161,0.6632880248879532,0.09184152613125947
251,6.5099999999999465,3.2259843639544394,-1.5810511716715878,0.18086487064263165,0.9823533390747275,0.18046213516976037,-0.048551816416649365,-0.11544645962567576,0.12538621552404813,-0.6488357246583359,0.719446081086508,-0.2002992841961971,0.6599895316514134,0.08160465826673004
252,6.519999999999946,2.0039315503774113,-1.9170734702643517,0.1378724352826613,0.9815877370135117,0.17739626687095952,-0.07038589158060998,-0.09707170723859812,-0.09201121810201034,-0.6119657256508391,0.7276803148694212,-0.18964082120686243,0.6548528908680215,0.07526995488919755
253,6.529999999999946,1.155626932633258,-2.2267392848219583,0.08754051260496114,0.9800782022170103,0.17506904570330473,-0.09341787405186337,-0.08811521077407189,-0.1602350477839555,-0.599926502489565,0.735819754293117,-0.18289493520168099,0.6479429750850341,0.07259545824695346
254,6.539999999999946,0.9152438869508873,-2.5390101982495645,0.07117788997768935,0.977669811726283,0.17328437597166138,-0.11852548335217318,-0.08745411721583353,-0.10491779542578503,-0.6451369107874771,0.7443781698425721,-0.17808483960178909,0.6395392828645374,0.07179392985486745
255,6.549999999999946,1.0669829283609584,-2.832174100741227,0.06983016241917947,0.9742265266625318,0.17126433870457752,-0.14645425103705706,-0.10956310280778,0.04003843362602215,-0.7733730786349335,0.753741424563369,-0.17323791063071636,0.6298777279016289,0.07134240905072907
256,6.559999999999945,1.4280279389870913,-3.025735694373334,-0.027866963502437045,0.9695176492719156,0.16898298082887,-0.1771071343737204,-0.09292075850959537,0.2302935534759472,-0.8281379060507104,0.763956655824359,-0.16741020702527615,0.6191946243028921,0.07007780328346498
257,6.569999999999945,1.7857007501479545,-3.1143251715808806,-0.13966593094521265,0.9634221613290184,0.166683441698905,-0.20956479904888145,-0.07156062590312876,0.33746276146637644,-0.8165894820611407,0.7747505514723478,-0.1603966314684772,0.6078409329059278,0.06730805637940299
258,6.579999999999945,1.8969697346364234,-3.1625296916264722,-0.22573082660844002,0.9560131571941302,0.16422669013192343,-0.24280176886212407,-0.10281896531184131,0.3696232092550907,-0.732451242127029,0.7857229959063495,-0.1526638760386348,0.596047674657345,0.06346010554064842
259,6.589999999999945,1.7612624716349043,-3.215301656601073,-0.30112565086751286,0.9473043968197409,0.16197017964942223,-0.2761651295880161,-0.14353850943892152,0.36566534976348125,-0.6037718508619173,0.7965848537057542,-0.14517978173354412,0.5837987980346914,0.05935578323921408
260,6.599999999999945,1.4614299040437768,-3.256207701716336,-0.3649720908157268,0.937281953982582,0.16039226317299352,-0.30930696054913037,-0.18070722597457992,0.2781006365952113,-0.46072435549471996,0.807184755807075,-0.13872659055112863,0.571037340678867,0.055641846153418224
261,6.609999999999944,1.1162529736285072,-3.229257829478528,-0.4456057193034239,0.9260568882171397,0.15999942698638248,-0.3416472604711153,-0.2208573592998533,0.15620695729127207,-0.3189157877557689,0.8173427170590385,-0.13378396493484024,0.5579086331749871,0.05259152961400055
262,6.619999999999944,1.0268325686635507,-3.1129826798699116,-0.5372218977037213,0.9139266938360074,0.16075869158399336,-0.37257165620392974,-0.275180394306561,0.11924062303185992,-0.18327715541599474,0.8269242175599151,-0.12998348181374209,0.544797108474386,0.049745242081821746
263,6.629999999999944,1.1286709064713345,-2.951871951740936,-0.6252694145829746,0.9012349522611408,0.1619147777097378,-0.40185214331841845,-0.3369490003667745,0.1357850491220498,-0.04265574151268042,0.8359214507363899,-0.12639887011818382,0.5320565736961729,0.04641477429396027
264,6.639999999999944,1.4426004398460044,-2.7534127616171835,-0.7314001524113526,0.8882634647477451,0.16268343670084706,-0.4294838547770317,-0.36951867243198794,0.17029887574333677,0.03844340703095922,0.8443755995098937,-0.12220625923371403,0.5199147529795932,0.04200249240426322
265,6.6499999999999435,1.970518913770603,-2.6115445214598143,-0.863808209394862,0.8750911161909835,0.16217188177232936,-0.4559108382399112,-0.3406956867996576,0.3102522784566816,0.03583699893768899,0.8524434317433569,-0.11652551236056276,0.5083830866212121,0.0358680717773528
266,6.659999999999943,2.576449860282674,-2.517082876155946,-0.9882573203101649,0.861609011001286,0.15954892810670995,-0.4817812052005128,-0.249386026621323,0.5266590906897597,0.0030127524871661994,0.8603002954778116,-0.10871137454336499,0.4972688436690665,0.027625426299859875
267,6.669999999999943,3.02187680230197,-2.54111116739147,-1.0490212058000468,0.847493322427692,0.15433843746082807,-0.5078122043671882,-0.10991671826377425,0.6961238477403122,-0.09618626821032895,0.8680928308062156,-0.09876390770555461,0.4861308504522379,0.017595181464772396
268,6.679999999999943,3.19787638991282,-2.5853294576388905,-1.061632131274773,0.8325484050502088,0.1469440649179113,-0.5340504496940486,0.049558633542480274,0.7456190595508508,-0.17859323095603705,0.8757681414084458,-0.08752684008471188,0.47465493979260176,0.006674378090465829
269,6.689999999999943,3.1351381389437334,-2.6822126933853774,-1.1167595913192851,0.8166002974145853,0.13848747646067588,-0.5602908706209196,0.1914354113093479,0.7081382721236028,-0.20566828020632733,0.8832414133125617,-0.07606322354842127,0.46265917192906264,-0.004482361347299234
270,6.6999999999999424,2.85425798226897,-2.8364672059208913,-1.202358267136589,0.7991988361360968,0.13063479527753788,-0.5866501509907062,0.27872303152415884,0.630765043515132,-0.225050834880394,0.890548107147878,-0.0655192814293229,0.44985349202425723,-0.015516471870671856
271,6.709999999999942,2.5023132351503192,-2.9976997141835113,-1.2028015804627163,0.7801732125231675,0.12409191871064382,-0.6130865354472581,0.3122192000005002,0.5876098327251572,-0.2527802792429987,0.8976988051699775,-0.05652010170146025,0.4361759597653107,-0.025946354197881903
272,6.719999999999942,2.0514300544278075,-3.159657628650371,-1.2823106124777819,0.7593077519999497,0.11929105263554057,-0.6396625696915808,0.33913454011196775,0.5648419654597937,-0.21953470783570375,0.9047414624711068,-0.04933988855343236,0.42157192797399984,-0.03561288358776713
273,6.729999999999942,1.6611460553361441,-3.256969128560497,-1.4431020670307075,0.7366412957293462,0.11739663551862893,-0.6659795496105623,0.37997248098564324,0.5204962969828238,-0.2359550436763205,0.9115774247739011,-0.04441483517145799,0.4062355713775832,-0.0448447444123095
274,6.739999999999942,1.512896052182088,-3.1941525506396875,-1.617036694800652,0.7127168804507029,0.11786578833801097,-0.6914486077515141,0.42310299220598213,0.47916834922435597,-0.1450068012722986,0.9180235798604928,-0.04108290455632881,0.39061402243342414,-0.05433455336123822
275,6.749999999999941,1.4974366371635,-3.060889385300246,-1.7942257904331536,0.6886152401618616,0.11923370047946442,-0.7152332630791343,0.4831433031934615,0.4207399106135823,-0.04736071411282054,0.9238324410908638,-0.03837711205920274,0.375371103332681,-0.06438553003363061
276,6.759999999999941,1.6606278661925689,-2.920988792162035,-2.036935924818986,0.6645816154550362,0.12077601111402707,-0.7373714381324032,0.5411304760822041,0.42248578938639963,0.01808866766118257,0.9289596543850023,-0.0356668138833853,0.3606052307142528,-0.07559619752389422
277,6.769999999999941,1.9075846222667485,-2.8238083909468465,-2.24272722451412,0.6405023249824111,0.12142934057055892,-0.7582803413259145,0.5953023650463526,0.4939029848665869,0.039198618143884194,0.9334608242287606,-0.0323271708404843,0.34613531975879686,-0.08824123563030177
278,6.779999999999941,2.055227349069691,-2.735618216830846,-2.322298997672149,0.61634514275703,0.12051622581587663,-0.7781882718946522,0.6426427798890553,0.5246084077931553,0.04310754030854757,0.9373921941326291,-0.028211281687119366,0.33182209730713225,-0.10191314065586701
279,6.7899999999999405,1.9808382094717902,-2.6746091082885584,-2.3545962792343604,0.5922486569274119,0.11862198012833615,-0.7969676091645252,0.6563835603197665,0.5045308389666961,0.04898355800771851,0.9407786682344211,-0.023930914371678044,0.31771139371081586,-0.11582906713042501
280,6.79999999999994,1.7342126174555907,-2.6255302813623635,-2.3771628288587667,0.5680959571922896,0.11736514573167423,-0.8145451122061277,0.619312750153082,0.4150198307513535,0.06232680562882567,0.9436502955075076,-0.02046424878957223,0.3038202281114846,-0.12959433287637986
281,6.80999999999994,1.491116485204522,-2.5969331750144686,-2.407459669803857,0.543778938478241,0.11742294651822846,-0.8309702689952749,0.5684361469560489,0.31620936949099465,0.055492905531435155,0.9460592965932723,-0.01819654593544783,0.29014256965255686,-0.14302444586142168
282,6.81999999999994,1.3938603137251722,-2.5495562435830608,-2.4245132583928095,0.519329882537758,0.11828995162249685,-0.8463468207361299,0.5633736191604566,0.2706740113551371,0.039105420759714675,0.9480230547691422,-0.016777871842347865,0.2766674355324159,-0.15628650530380536
283,6.82999999999994,1.47323322402431,-2.501304424090682,-2.43889953385279,0.49484817297446715,0.11843370163199109,-0.8608693990946898,0.5761127479688198,0.29732704330126036,0.011473138232918505,0.949571180192689,-0.015346893399020827,0.2633043594015336,-0.16955461039082442
284,6.8399999999999395,1.5936226251298167,-2.399241051993593,-2.394963221459736,0.47071159877811736,0.11678599828253917,-0.8745202818587929,0.5767556655181194,0.3427473563291668,0.009844870774044383,0.9506976630388101,-0.013317009197022832,0.25012228836986583,-0.1828461887956764
285,6.849999999999939,1.6722568311754933,-2.2964413263169745,-2.375318794033888,0.4472609758900003,0.11329282821059847,-0.8871942225847883,0.5554379080464149,0.35738438570211134,0.04165150938276613,0.9514063536406479,-0.010662812683319502,0.23724901801810946,-0.19601268914046158
286,6.859999999999939,1.7124831730170271,-2.1633052637950048,-2.345211686684409,0.42470502130496435,0.10846950357287825,-0.8988042128837852,0.5369306612910618,0.347154471126646,0.0994007247617821,0.9516666191491615,-0.007593843403826503,0.22480550831006685,-0.2091169352985312
287,6.869999999999939,1.6848484173472107,-2.023134243054249,-2.277373131895715,0.4033161824651599,0.10261084417789898,-0.9092824925817278,0.5127905077953259,0.3177258761656318,0.17091549168060383,0.9515170661474247,-0.004260349002078188,0.21292594352580546,-0.2219305248447968
288,6.879999999999939,1.5531486045927207,-1.8781928584906917,-2.1989867435506842,0.3832839725121276,0.09659330900573847,-0.9185587051772168,0.48339889721606905,0.24941362367687026,0.24402814531256195,0.9510092315647791,-0.0010930030592359303,0.20178234524373515,-0.23421561805121044
289,6.889999999999938,1.4355765415731467,-1.76807106750628,-2.168824870016674,0.36439748697455265,0.0910074861668711,-0.9267787102592621,0.4572507536735931,0.19607605775983064,0.2909157156448904,0.9501780320009773,0.001652528915132652,0.19132300341953176,-0.2460629024084987
290,6.899999999999938,1.3950954375596254,-1.651881348339892,-2.106111595430525,0.3466238407557779,0.0854789832189812,-0.9340941786186069,0.44489573155096684,0.21690830524288326,0.29915330379284183,0.9490560299736985,0.004210360828662598,0.18147101845238145,-0.2575564969253658
291,6.909999999999938,1.3713656190582126,-1.5476698104270303,-2.0432136978551596,0.3299077321572927,0.07951640520315886,-0.9406511563167731,0.4409794002806369,0.2527671148619818,0.3016250299707263,0.9477009518136952,0.006838304499892,0.17211657708406547,-0.26867042754385484
292,6.919999999999938,1.278844919853138,-1.4511550951160648,-1.9705292865191222,0.31423616739820603,0.07343012115923338,-0.946493756432068,0.42818125363029635,0.2556121334551166,0.30739067239215323,0.9461524126574574,0.009400749879398165,0.16328263098923482,-0.279352210254531
293,6.9299999999999375,1.1464030053604928,-1.3632736395107414,-1.9001329696485083,0.2995150196263137,0.06786890683665239,-0.951668046040833,0.40059775085172433,0.22522497557976828,0.3269554160068803,0.9444544088224228,0.011587803019160289,0.15501086856073437,-0.28954274684526665
294,6.939999999999937,1.0149423177781538,-1.2882687378838282,-1.8165114264922853,0.2856561281670622,0.06301164796570077,-0.9562522825471315,0.3811766438858256,0.18526552539891267,0.34699747262960307,0.9426540295402029,0.013323762626929607,0.14728625567311146,-0.29920691576707625
295,6.949999999999937,0.9117740843681036,-1.2042623883545553,-1.7321279710509856,0.2726020398549644,0.05874734784642258,-0.9603259177835148,0.3639678764381708,0.15533580995380006,0.3668094259952993,0.9407880712538388,0.014680884226822321,0.140066485419784,-0.30834406849011076
296,6.959999999999937,0.8236782102214087,-1.113865707474688,-1.6417957877872762,0.26050601076103297,0.05489141825330976,-0.9639053902394357,0.336969761802725,0.13868444741922398,0.37853443886841254,0.9388777912256814,0.015797172223949114,0.1333984330110967,-0.3169489225073523
297,6.969999999999937,0.717680436986935,-1.0299410940105547,-1.5574865780422047,0.24930493766307485,0.05151631941018002,-0.9670491826419632,0.3005113972830662,0.11405790173214937,0.3987471490919634,0.9369455415693502,0.016654829811183755,0.12726222817571808,-0.3250435566351302
298,6.9799999999999365,0.65438190769075,-0.9621554488591189,-1.4767267104056883,0.23890504323398193,0.04864094134170233,-0.9698197888875795,0.2674202818641119,0.07591251500961035,0.39657836173078054,0.9350120277576811,0.01725390966868546,0.12161549195525363,-0.33265334690771026
299,6.989999999999936,0.6880428009333801,-0.8714460504375543,-1.3898192891965622,0.22931774965874277,0.04551251610976972,-0.9722831953862203,0.24016448546775016,0.06276663086727692,0.3774391386529583,0.9330942259759956,0.017975324898142894,0.11633290663269093,-0.3398130121792915
300,6.999999999999936,0.7644532328992009,-0.7892331872491882,-1.3450221602914247,0.22062936954418702,0.04151253711629288,-0.9744703231816393,0.21673163709676607,0.08752476956633173,0.3653477729932157,0.9311554735771002,0.019157620738245378,0.1113369085302842,-0.3466712911985357
301,7.009999999999936,0.8128609228780278,-0.7222407970116285,-1.29146836516263,0.2127425852238071,0.03665505851783755,-0.9764170126901525,0.1938021875111669,0.12499831352153537,0.3428001148773512,0.9291780818631349,0.020795968294083398,0.10656960824178309,-0.3533170018378909
302,7.019999999999936,0.8217637577023501,-0.6785701447205726,-1.2225007318472696,0.20548603343771218,0.03126771073578655,-0.9781569249691576,0.17144234946401438,0.12475416871252579,0.320197224104327,0.9272116679829772,0.022701934975032326,0.10200086646933809,-0.35965742061466893
303,7.029999999999935,0.783715522523655,-0.6505269050692578,-1.1662101844351285,0.19864006837986065,0.02580055957270633,-0.9797294763954925,0.1545911786386,0.08415576173287151,0.29493529612807745,0.9252846883215248,0.024628577983330176,0.09760519051710824,-0.3656631707871188
304,7.039999999999935,0.7642912162660767,-0.6464238568007958,-1.1350162490099143,0.19200060596555169,0.020470351353946703,-0.981177983880367,0.1411817965411485,0.05726592136139237,0.23495822063577193,0.9233780780367334,0.026452974453675712,0.09332395683143752,-0.3714279655884622
305,7.049999999999935,0.7343145910273688,-0.6354485639650079,-1.1019263433654314,0.18550113168638527,0.015210887187999544,-0.9825230064256176,0.1405409013216097,0.0582418382496604,0.18023962610557848,0.9214711209828745,0.028205509840192888,0.08911261864016856,-0.3770268807458854
306,7.059999999999935,0.6651214252891967,-0.6291314750322008,-1.0462155287287636,0.1791194037114772,0.01027691454979104,-0.9837704620286148,0.13790027199497173,0.02812610084570454,0.151776317247156,0.9196074191281647,0.029758652495987917,0.08501397630951245,-0.382366907685825
307,7.069999999999935,0.6450484806991321,-0.5891611421453894,-1.0025705620498893,0.1730199642156553,0.005665757431024637,-0.9848990734835026,0.12090748386146742,-0.031124863239662667,0.1523826640153465,0.9177933164340286,0.031149790653600802,0.08110783749842373,-0.38743029165489995
308,7.079999999999934,0.6686179215615777,-0.5535127392586755,-0.9938382357243338,0.16735974617629132,0.0008746071623704976,-0.985892601185165,0.09956866848359498,-0.04736020302673076,0.14190628812023445,0.9159699130262073,0.03266013010368654,0.07736502353052217,-0.3923554070593888
309,7.089999999999934,0.663335326239863,-0.5439599504991374,-0.9846257920914155,0.16193584850140816,-0.004075246167529129,-0.9867899283062628,0.09127663693719408,-0.007413719923562219,0.11270053322271373,0.9141126341677944,0.0342496261233052,0.0736905508422816,-0.39722820483499877
310,7.099999999999934,0.6261617459647602,-0.5438222644922507,-0.9580589125744247,0.15659414526754215,-0.008945066941176121,-0.9876196228916824,0.10193361798820474,0.0314980498013766,0.07483835045754267,0.912252584123101,0.0357748343473969,0.07006189755087812,-0.401997722168438
311,7.109999999999934,0.5279694741376811,-0.5615533247122261,-0.9215337736453084,0.15122443105686384,-0.01320190141950791,-0.9884086113373078,0.1122042755699811,0.018002155110254225,0.05562308954381724,0.9104346490602329,0.036964820111020404,0.06654142488500453,-0.40658382929059833
312,7.1199999999999335,0.4340347252143967,-0.5744470781385542,-0.8700923377748461,0.14567540305288676,-0.01660533518223519,-0.9891905773233607,0.09506426609461814,-0.03599593878388219,0.02201265216941018,0.9087010702009997,0.037676994092075804,0.06311698316274575,-0.41091993816347766
313,7.129999999999933,0.4042151413305887,-0.5726913134820308,-0.84153725885287,0.1401324649349921,-0.01950125921266365,-0.989938317179304,0.06797516793023971,-0.0805461889232538,0.006307556890664921,0.9070372663208944,0.03811391015244275,0.05980674608684787,-0.41503055864312305
314,7.139999999999933,0.419345686465693,-0.5651036571437057,-0.8240491142756727,0.13463027176130243,-0.022402325218261646,-0.990640208257299,0.04490464775447328,-0.09575833661796124,-0.005185282005761227,0.905390902638781,0.03852707003256134,0.05651737180482766,-0.4190289451756342
315,7.149999999999933,0.4814739075725043,-0.5508097902308302,-0.811501829718838,0.12926643481181732,-0.025790177133110017,-0.9912718468981098,0.025572563814700303,-0.0778840609127625,-0.029988384616972442,0.9037384189638398,0.039159901072257815,0.05318944217048275,-0.42295455121539643
316,7.159999999999933,0.520345301527377,-0.5260615125865254,-0.793286311666837,0.12412005127469887,-0.02976766263142732,-0.9918177964945526,0.019156603406127192,-0.05938183768491734,-0.03195056725304372,0.9020725409000951,0.040076722532550166,0.04983351906307868,-0.4268158929497927
317,7.169999999999932,0.5642447755413419,-0.5052351866364047,-0.7739564928178628,0.11924855144167046,-0.03418369602822003,-0.9922728965752687,0.0017743540376538094,-0.06648490746547016,-0.019303432318421798,0.9004073649483281,0.04122029877909648,0.046505896593969274,-0.4305818600775712
318,7.179999999999932,0.6601600515698797,-0.45276898034443025,-0.7484073264662849,0.11476417540994016,-0.03933838352567542,-0.9926103444025107,-0.024938246050285832,-0.078688014308826,-0.012463331851376339,0.8987374644270465,0.04275191491428977,0.043188912568486997,-0.43425099437509324
319,7.189999999999932,0.7340753428516034,-0.4180129774781727,-0.7414867181085582,0.11073909728313716,-0.045461726450032075,-0.9928053578304995,-0.05080235442779507,-0.07426184589229852,-0.03574948697457311,0.8970559043279941,0.04479246784725946,0.039859778122238634,-0.4378254723540373
320,7.199999999999932,0.7965720570282605,-0.40926117585453864,-0.7665648802854947,0.10700594005018987,-0.05227715063465309,-0.9928787382989219,-0.06481965483400398,-0.03254648318267103,-0.07638186949938672,0.8952953127487001,0.04718714198936224,0.03649056141207767,-0.4414558962964164
321,7.209999999999932,0.8096502341704881,-0.40108887665835546,-0.7669877608999053,0.10339750479027764,-0.05948067771844078,-0.9928552863698767,-0.05334387353587565,0.012418362938157543,-0.11633260180638524,0.8934666181366868,0.04976063426600464,0.0330694104771679,-0.4451320909582624
322,7.219999999999931,0.7652629887891936,-0.39936161061685865,-0.7515526189016049,0.09988888190464731,-0.06656566248659268,-0.9927648852960591,-0.04421548231208247,0.002519036979551942,-0.13011489622873107,0.8916327447106879,0.052275583990867035,0.029702666734643206,-0.44874390622268345
323,7.229999999999931,0.7211045520809707,-0.37865045086572346,-0.7491739582077191,0.09654682569672156,-0.07317678291781923,-0.9926307739294863,-0.05515549769044158,-0.03815904866664205,-0.11717027809833415,0.8898015073117089,0.05458938786321626,0.026501540385832772,-0.4522899567571884
324,7.239999999999931,0.6645856170366208,-0.37160432363490975,-0.7198535678124961,0.09336978878519918,-0.07937520656625728,-0.9924587592910334,-0.06335305951728316,-0.06083239635542269,-0.08904235569798735,0.8879868493957577,0.056730894276301756,0.023455251498749646,-0.4557481085310738
325,7.249999999999931,0.5878224406073158,-0.34593041515136336,-0.6677353479929568,0.09036132929609295,-0.08495774015819614,-0.9922756628201638,-0.056962083117971,-0.07866955300171934,-0.06012798541853795,0.8862603415696284,0.05861005865263464,0.020622803733762546,-0.45899706259803924
326,7.2599999999999305,0.5058562209465602,-0.31243005039162475,-0.6090329803114737,0.08764001901020511,-0.0898048109667068,-0.9920936128334304,-0.057430901871216064,-0.10776080609058714,-0.029885424486309452,0.8846606406714986,0.06020394390415736,0.018092794531961463,-0.46197471953700164
327,7.26999999999993,0.4685305831285876,-0.255677792925769,-0.5348888553074256,0.08534250424584669,-0.09411360049025472,-0.9918949790986223,-0.07123532674070436,-0.13338020542091286,-0.005764471534628744,0.8832138271226062,0.061636351097437495,0.015887637896322082,-0.46462838514710114
328,7.27999999999993,0.4628620030723898,-0.19273041317476347,-0.4566493838177674,0.0836167977418519,-0.09829557988548543,-0.991636512951354,-0.08682049709721348,-0.1351383712552949,0.007040467080588857,0.8819338072172769,0.06312939181249418,0.013982218957771082,-0.4669153784401533
329,7.28999999999993,0.4519060246853821,-0.14215241707224666,-0.38208178957133,0.08236017824904376,-0.10248989122158407,-0.9913170444035241,-0.09150678637405817,-0.12007377173856584,0.007166271084845693,0.8808192548457607,0.06472508661728693,0.012299118548617545,-0.4688444467974096
330,7.29999999999993,0.47564555509835516,-0.11597354652134366,-0.32772336078631537,0.08144433346112087,-0.10676809021441115,-0.9909410502499516,-0.08584263315652653,-0.09482289905688979,-0.021217198489850018,0.8798453876395833,0.06642875623150953,0.010761817738275252,-0.4704699660720903
331,7.309999999999929,0.5305848900451194,-0.07487760614343146,-0.2707291962679016,0.08083200156862909,-0.11152514096924794,-0.990466626485965,-0.06524879506391554,-0.03806989238178078,-0.060883221831360065,0.878974513376688,0.06840968223204419,0.009256953961251785,-0.4718438868905825
332,7.319999999999929,0.4991967986492367,-0.01741345005414098,-0.20725208387428865,0.08064142123336722,-0.11651314110370167,-0.9899076821158448,-0.05305310587444638,0.008093664165318482,-0.09180081376704549,0.8782308876638899,0.07058763743623296,0.007898885723523225,-0.47293136379697
333,7.329999999999929,0.36725130142754103,0.04087913116831875,-0.13580428371719708,0.08095410561899845,-0.12072789831471661,-0.9893777674321722,-0.06638725302436603,0.006691326037207205,-0.09745906170360258,0.8776644981978715,0.07253855410877579,0.0069674422848909345,-0.4737021415138824
334,7.339999999999929,0.1912348291557743,0.08190197277168776,-0.05979540332009276,0.08167502248249685,-0.12342100101890971,-0.9889870375050793,-0.08105502844477615,-0.031247430401179846,-0.08257938672406136,0.877329455468242,0.07390916579071498,0.00660626343382547,-0.47411654248399565
335,7.349999999999929,0.026943114364981063,0.1075643007373329,0.005474088274874098,0.082659432293933,-0.1244630380968338,-0.9887750671496421,-0.06918930402674328,-0.07511740641306625,-0.06587578816811321,0.877226589909059,0.07460823630445497,0.006783713171234998,-0.47419515338682394
336,7.359999999999928,-0.0759371930858323,0.11161809057272257,0.03717229698049572,0.08372450301152355,-0.12418804085054565,-0.9887200454353198,-0.03933466820063714,-0.09293123764391203,-0.057290529181467625,0.8772891901741308,0.07474073548987037,0.007330954292855653,-0.47405036149283114
337,7.369999999999928,-0.10362334471408696,0.09995150225779648,0.049375737289233196,0.08474386079971716,-0.12329508682223604,-0.9887448788013712,-0.006044024336708222,-0.09101951260782135,-0.06324339615278726,0.8774256383063869,0.07458712063735148,0.00801403252495994,-0.4738108169246735
338,7.379999999999928,-0.03764149205851987,0.07126956431451614,0.027497448787995142,0.08553751787522489,-0.12254294962611383,-0.9887701309040209,0.032565296145105296,-0.08101180575408641,-0.07178037148913971,0.8775470204786985,0.07444182017404039,0.00856153885715132,-0.4735992443246124
339,7.389999999999928,0.12778845958945748,0.029966850475070236,-0.0017759099592506503,0.08602232305471476,-0.12297757112982208,-0.9886741278411736,0.07806286387322517,-0.05459803401964744,-0.07594476705592666,0.8775559048295823,0.07475032527057704,0.008676922766740723,-0.4735320867163836
340,7.3999999999999275,0.3006740406440886,0.00039772430396126796,-0.034554086142543135,0.08617098377723452,-0.1250802512120806,-0.98839679787255,0.11223166184727615,-0.018411386753744097,-0.07104642530345233,0.8774318580109773,0.07571995162878926,0.008232316635101607,-0.47361559838136946
341,7.409999999999927,0.4416754106983464,-0.0009166159909922179,-0.058126865920348984,0.08621080675317434,-0.12873584234017033,-0.9879228563331471,0.12950391503753414,0.01304293647074035,-0.047722396298283884,0.877176452202047,0.07735411117051016,0.007355315372220735,-0.4738383864328877
342,7.419999999999927,0.5014685824682984,0.01327125196201543,-0.07119006306877752,0.08637137434863124,-0.13339013284507184,-0.9872903913668797,0.12000179816553048,0.031914951708766,-0.016567413971424125,0.8768305823527169,0.07946148554998572,0.0062831154510358065,-0.4741446573075212
343,7.429999999999927,0.4574896399210093,0.026675551229480954,-0.06000270200036192,0.08667308464790958,-0.13812566840781987,-0.9866126957406571,0.09302702706800882,0.03493442227758925,0.006101955143272332,0.876475258511675,0.08163910296613128,0.005251889273993711,-0.4744441661494195
344,7.439999999999927,0.34964598836080757,0.022856630662080962,-0.030288267369850838,0.08699267901910987,-0.14208094760896023,-0.9860235512749262,0.07695116043591252,0.024383100005322553,0.020359350432943908,0.8761972355576384,0.08347424304505119,0.004423000527793859,-0.4746472696944769
345,7.4499999999999265,0.24474864097208004,0.02469602798820809,0.013724308516374167,0.08723461663307928,-0.1449818224751895,-0.9855805180217914,0.07802975693347365,0.010516595749577952,0.029513694700820554,0.8760517651365114,0.08482173674358469,0.003828433087578638,-0.4746825146832568
346,7.459999999999926,0.18351062666217682,0.0391063089789597,0.06100488369685125,0.08748326433292881,-0.1470954723144482,-0.9852455718271924,0.08400604270203062,0.010749824260505011,0.02873254138135105,0.8760508034142775,0.0858204521127457,0.003446374809508949,-0.47450786407159323
347,7.469999999999926,0.17333527409989505,0.045797712255141385,0.10981408570198775,0.08776059547057782,-0.14891926604324038,-0.9849469134340507,0.09193936815758787,0.03115915015907285,0.029096519384892022,0.8761708352738337,0.08669683948683632,0.0031670955436984894,-0.4741287684871271
348,7.479999999999926,0.1997014895218709,0.04710062631475319,0.17309327778757033,0.08799819994157028,-0.15086764621418472,-0.9846290462233342,0.10468429987075109,0.050937791843577225,0.03304329808003351,0.8764274343108518,0.087618717764981,0.0028673141361879864,-0.4734863843370261
349,7.489999999999926,0.23617905183905627,0.04501280155950244,0.2273801801050155,0.08813825351276439,-0.15320252967510575,-0.9842557192095055,0.12542933017226277,0.0675436276303418,0.037613915561190876,0.8768056247397504,0.08868928085011014,0.0024588023468375053,-0.4725881539614017
350,7.499999999999925,0.2225179070206632,0.0379926026426247,0.27685843918080666,0.08815982393738064,-0.1557363551329421,-0.9838560089595393,0.15045041327465666,0.08501641811164269,0.039597991386982695,0.8772977633215944,0.08982079742654807,0.001975571901350254,-0.47146196573057075
351,7.509999999999925,0.16516160486829828,0.015585539079568084,0.3144360909439467,0.08799503455752021,-0.15790803436142853,-0.9835248183613626,0.17270505596639885,0.08320095216949114,0.04355097564117039,0.8779072811874696,0.09074746368172915,0.001518296422101216,-0.4701497674180573
352,7.519999999999925,0.09869278157718113,-0.008364592526667415,0.36038792675152853,0.08748242209766012,-0.15950995289588682,-0.9833121930272138,0.18745532755015148,0.0725164037229423,0.046660316877112556,0.8786360669599237,0.09133826202092084,0.0010626588888923527,-0.4686727792204488
353,7.529999999999925,0.033806206320198026,-0.021878360146821298,0.38721142978553985,0.08671758549504745,-0.1605001296873351,-0.9832189584894452,0.1997055769481484,0.050423941698151245,0.06455299041780041,0.8794868240779063,0.09159725608284965,0.0006603669546424229,-0.4670242672404039
354,7.5399999999999245,-0.03184229916326692,-0.033647877541652535,0.37869154680306827,0.08582032489243906,-0.1608460964354321,-0.9832411811187434,0.20448342035356068,0.03182114386732358,0.09293449860845526,0.8803820569490725,0.09153831192783045,0.00035567380916322593,-0.4653464734801375
355,7.549999999999924,-0.10636328273980972,-0.045503274496676294,0.3751387803277979,0.08481766502787169,-0.1604939720405026,-0.9833856262711218,0.19424388846120158,0.03390185455951326,0.11560791504420452,0.8812883962856344,0.09114322162929639,0.00016459266881420126,-0.46370565466344515
356,7.559999999999924,-0.17284582097138135,-0.047769782787859476,0.3691518436614735,0.08374652550934145,-0.15942711453583772,-0.9836507731595531,0.17303470013731537,0.02565089482323496,0.13378866822319602,0.8822142725479937,0.09041261895284154,0.00010726815273219326,-0.46208517629173756
357,7.569999999999924,-0.2018486910966143,-0.04240849571667008,0.3533459977647829,0.0827100893707409,-0.15786539743167807,-0.9839901847210034,0.13817964359317259,0.002248061164149086,0.1511441176100625,0.8831355880182963,0.08946876222502126,0.0001741171676678989,-0.46050604927705613
358,7.579999999999924,-0.18875441117563044,-0.0258146022737875,0.3337199586060993,0.08181247246782852,-0.15620957381218462,-0.9843294539232854,0.1010762664119223,-0.013460255156797565,0.16990001200339805,0.8840155208337614,0.0885153509277422,0.00031378890836174087,-0.4589994801166569
359,7.5899999999999235,-0.14595508769705992,0.0012488036183877886,0.3174048439580176,0.08116765945139806,-0.1548166030869283,-0.9846030618081403,0.07162829130973236,-0.01893192063174993,0.1858154785010545,0.8848358901019993,0.08773885914272114,0.0004941965090690904,-0.4575656663896046
360,7.599999999999923,-0.08639913982279446,0.033268043659222216,0.29717338606139077,0.08084460306313783,-0.15392106271384018,-0.9847702162056695,0.04533393580096169,-0.02094520901962648,0.19238585438819933,0.8855902075620967,0.08726043117884473,0.000693684056239059,-0.4561957246018861
361,7.609999999999923,-0.028553951044175213,0.05931315558049436,0.27747178306625647,0.08085258941903545,-0.15360668847934184,-0.9848186825743913,0.02050366200159286,-0.020472359558779064,0.19116232141920095,0.886270703083615,0.08711970636953542,0.0008976835023286329,-0.45489898394060735
362,7.619999999999923,-0.011964626696804927,0.07296964697852515,0.26314353048122885,0.08107975490806614,-0.15367294271910015,-0.9847896414490344,0.0032415538241411333,-0.013638268014847639,0.1891865282609879,0.8868924293129317,0.0872005491250707,0.001104577406740412,-0.4536696795274081
363,7.629999999999923,-0.035600052608255946,0.08132109726785121,0.24461369462988738,0.08143835231783172,-0.15368549387967984,-0.9847580918206704,0.0014581191306957861,-0.009079837473711034,0.19325187386102505,0.8874770874645378,0.08728706971151645,0.001375921780149029,-0.4525074921252827
364,7.639999999999922,-0.06570224732904163,0.0947510517859088,0.225565754351233,0.08192598485405982,-0.1534122940532224,-0.9847602249568183,0.0022480947636754926,-0.00831403543935631,0.20244437178100236,0.888029579257655,0.0872739191803695,0.0017628042300701743,-0.4514235412337512
365,7.649999999999922,-0.10381112042912952,0.11081132083105605,0.20824205286360956,0.08257664475530849,-0.15278310302482664,-0.9848036180711827,-0.0031386958354225935,-0.006950400212874708,0.2184508999663398,0.888556741572132,0.08713682187269833,0.0022969657143108815,-0.4504091517636012
366,7.659999999999922,-0.14111901576270883,0.13068475563644444,0.18483918102075983,0.08345866098787344,-0.1517432770693376,-0.9848898543754074,-0.01037839810000982,-0.008898497823633751,0.23615003153786385,0.889051946646425,0.0868663984830801,0.0030195763914128574,-0.4494788777126229
367,7.669999999999922,-0.17751742667980183,0.1533579091755393,0.1666978449228006,0.084586911996737,-0.15032755647689164,-0.9850105345995291,-0.015467768010389547,-0.010786078218518673,0.25282872359615294,0.8895119568925743,0.0864813740550165,0.00392876170162323,-0.44863520607270996
368,7.679999999999922,-0.20052706595863765,0.17682635270777,0.15491659829122706,0.08597078759742603,-0.14860754658517955,-0.9851515161331361,-0.017857760381459028,-0.012938588491462162,0.26622589486241854,0.8899494345875802,0.08601579365767129,0.005015333796781,-0.44784555048566627
369,7.689999999999921,-0.23001775244225314,0.20390325490729605,0.1537996740227937,0.08761545026908676,-0.14662918729378976,-0.9853028415880296,-0.01947560352518085,-0.015631344860817527,0.2774163992280358,0.8903830121797749,0.08549105325305617,0.006275059270800942,-0.4470675883660439
370,7.699999999999921,-0.25176136335278326,0.22859423397333145,0.14732075611578097,0.08951986423095044,-0.14438358530657933,-0.9854629800581659,-0.021485828826644092,-0.020066910239002783,0.2856050373406843,0.8908156500996591,0.08490251119655168,0.007709941446097103,-0.44629451461811104
371,7.709999999999921,-0.26256695149837006,0.2507250110185849,0.14513704167530272,0.09166870282784767,-0.141990611224302,-0.9856129565603778,-0.019926747019286692,-0.012526076041605987,0.2854688187100621,0.8912365241380457,0.08430064535288227,0.009284833598315603,-0.4455375128052982
372,7.719999999999921,-0.29288941069797814,0.26935073099083184,0.14519347175567296,0.09402344247565894,-0.13940464762309074,-0.9857599866105116,-0.016793155607023765,0.002968124199148719,0.2811438086175527,0.8916625497210793,0.08365548143677139,0.010995426696740165,-0.44476698911352386
373,7.7299999999999205,-0.34426955319588054,0.2820535393292418,0.13864162800732693,0.0965366784821653,-0.136404178260797,-0.9859363454432511,-0.013255259751813995,0.017325889325229056,0.2738128718266558,0.8920930769582972,0.08285610977150444,0.012868261006506593,-0.44400212843420295
374,7.73999999999992,-0.41742412169359794,0.28607393993194685,0.13184672836940742,0.09914877002723728,-0.132789705645404,-0.9861698812102161,-0.009330430603901662,0.027038558030771886,0.2616779323178126,0.8925278144404027,0.08179880163600056,0.014919278283749537,-0.4432592415577978
375,7.74999999999992,-0.5032492449053626,0.2824786298459852,0.12597479999788097,0.10178052149250985,-0.12837699012504716,-0.9864850901364208,-0.0059706176338582845,0.02331239756929193,0.25261375812328096,0.8929775121505591,0.08038213749421728,0.017154012740918757,-0.4425308604655945
376,7.75999999999992,-0.5698713522336871,0.2807629135558097,0.11657809897194481,0.10440607358711647,-0.12319614900969525,-0.9868703302606276,-0.004628832855588211,0.009417502718751752,0.2473492153753566,0.8934341530312694,0.07861414722263745,0.01955224163500735,-0.4418263141230198
377,7.76999999999992,-0.625745160312082,0.2852109007244377,0.1019123120723001,0.10706504869808751,-0.11740225260039304,-0.9872907620398204,-0.0023980947165283214,-0.0012348392369099072,0.2486093375485062,0.8938770977693626,0.07657459859942253,0.022094386058196958,-0.44116780465318794
378,7.779999999999919,-0.6819059918933116,0.29388328914241324,0.08066396589076022,0.10981428702918787,-0.11104443284299302,-0.9877232772317591,0.00028568614901171025,-0.009747136952472271,0.25772895243301147,0.8942906134005796,0.07429936211377071,0.024792986364828705,-0.440574520390786
379,7.789999999999919,-0.7331239924268376,0.31337306823037864,0.06141350612012471,0.1127416494126736,-0.10413021284563122,-0.9881453832664647,-0.002879493999623473,-0.019838637726063518,0.2704430919906563,0.8946652969056181,0.071812276785105,0.02768526100644187,-0.4400529907056411
380,7.799999999999919,-0.77821481875692,0.3363668348377075,0.05318613544807032,0.11589135629820035,-0.0967178002254713,-0.9885331834947989,-0.01306378992741165,-0.030788687968380073,0.2806202072838634,0.8950089057417406,0.06914915783598766,0.030780592520524976,-0.4395743003934458
381,7.809999999999919,-0.8178366246477367,0.36468685719814414,0.05120172376274503,0.11930098454610533,-0.0888850559145175,-0.9888618261006654,-0.024994827102202532,-0.04229465657818313,0.2861762288587618,0.895337208392451,0.06635221307143138,0.034082258604747846,-0.43909246638914223
382,7.819999999999919,-0.8633690875771991,0.40483209604026954,0.04808564837275971,0.12305813712277847,-0.08064128130397986,-0.9891067440671337,-0.03694732624689813,-0.049933868134728804,0.2900633996773448,0.8956489487421643,0.06344460109901044,0.03762845577330072,-0.4385958368449249
383,7.829999999999918,-0.9240704796871038,0.4515798553898706,0.056896887147694857,0.12725842044430372,-0.07186864676740375,-0.9892496761892888,-0.04865489889111184,-0.04907425971252872,0.2896590514314198,0.8959501029509838,0.060392898756480996,0.04148964329542335,-0.4380617887421051
384,7.839999999999918,-1.0004506978876142,0.49768830461669566,0.08792859153683433,0.13190565897919218,-0.06243977371409,-0.9892788287158472,-0.060123772265279776,-0.04721813179775147,0.2835340458457695,0.8962826804164348,0.05713482364568313,0.045701185864733394,-0.43739744395440827
385,7.849999999999918,-1.0644134057414902,0.5319956241355569,0.12581160104757755,0.1369355559774548,-0.05234984050189388,-0.9891786601219862,-0.07212503336254235,-0.049565456720300764,0.2588793277778395,0.8966797652313371,0.053647450204341904,0.05023859165006587,-0.43652533523890796
386,7.859999999999918,-1.0836715804865718,0.5451064894988674,0.15634276575619055,0.14220661868869455,-0.04190149323579019,-0.988932088692553,-0.07621476821996283,-0.03676985274104483,0.20659963144308136,0.8971226471000485,0.05003434887308625,0.05496812235671489,-0.4354728512671094
387,7.8699999999999175,-1.1044100407349096,0.530422576954804,0.19000490554025604,0.14747371256922354,-0.031364792104425464,-0.9885509024213249,-0.06344723425789998,-0.0006994556050952741,0.14525874138436984,0.8976048440085416,0.0463611309267822,0.05971707191554096,-0.43425852620785016
388,7.879999999999917,-1.1969633809276519,0.501874440588359,0.2341930912638862,0.15251984158224371,-0.020358043763804984,-0.9880710885395222,-0.039764846374526985,0.02346376875568819,0.09366269582376756,0.8981586462021375,0.042401145102331755,0.06447068518473495,-0.4328347083006986
389,7.889999999999917,-1.3379197631158235,0.47109731392778414,0.2773724059296843,0.15728166008400288,-0.008251438954746088,-0.9874958625858524,-0.022475202378251,0.009639919162159793,0.06315822828046352,0.8988018947955472,0.03784938719155493,0.0693350704389403,-0.4311637381418031
390,7.899999999999917,-1.4640852695610742,0.44246898822564956,0.3097839664747709,0.1617847503751125,0.00511741127164862,-0.9867855013068908,-0.017124390643706206,-0.019823452279256425,0.05544682288355461,0.8995164076887423,0.03263471106247253,0.07435100682681496,-0.42925722794904425
391,7.909999999999917,-1.5521749391166464,0.42175035548986495,0.3289035776214106,0.16608339243348014,0.01948786815696497,-0.9858888567022829,-0.014347633644148603,-0.03613870482044956,0.054355710762992684,0.9002605929590555,0.02688722622431239,0.0794792897397055,-0.42716958311163344
392,7.919999999999916,-1.6163096162658512,0.4131560455533307,0.3202699047064601,0.170270933050156,0.03455950892006919,-0.9847584654478129,-0.009429257073391553,-0.03188426979196791,0.04707654970778835,0.9009706395937611,0.020769347726454966,0.08469094951338328,-0.4250056392896731
393,7.929999999999916,-1.6731457331712696,0.42775337701266997,0.2935410058552626,0.17452572246608672,0.050235074503131354,-0.9833348387746499,-0.0032279539819483785,-0.02560745741832182,0.027122942352335526,0.9015811969319524,0.014371387107924983,0.09004340127093788,-0.4228683374058446
394,7.939999999999916,-1.6977379838843247,0.4654487350428187,0.28255369565090327,0.17906430028542508,0.06632511180963963,-0.9815621118975075,-0.006146896494883239,-0.03217583639540424,-0.0030743424184843313,0.9020720609512375,0.007825658569744464,0.0955968823565887,-0.42076822791484964
395,7.949999999999916,-1.66387894253786,0.5194667716471043,0.2889675373270143,0.1840970499080111,0.08231980064228132,-0.9794183355544827,-0.022824988049284338,-0.04187761139255554,-0.03573001254214865,0.9024655841873975,0.0014006853534729211,0.10134259421126814,-0.41864511919664
396,7.959999999999916,-1.5873505942273876,0.5677642728726597,0.29992183049896287,0.18968030650111228,0.09767345006614485,-0.9769416397094484,-0.03610281885737812,-0.034594298764622486,-0.08516471765492642,0.9027821597323374,-0.004647731287016694,0.1071933272718053,-0.41647790982844407
397,7.969999999999915,-1.5509895138930747,0.6002420339145467,0.3273242667253969,0.19570480067128726,0.11232516110123211,-0.9741758544110066,-0.03148760498053469,0.0002469986419651668,-0.1602387631826156,0.9030483548326986,-0.010321266412132393,0.11308832620942372,-0.4142343840765679
398,7.979999999999915,-1.6343254259394995,0.6284180144137412,0.38179965270690724,0.20211155607931536,0.12703489799375842,-0.9710520962646452,-0.013346936780254925,0.043170509580182564,-0.2398292814012436,0.9033122648562391,-0.01600155384437139,0.11916184782476508,-0.41176587192696795
399,7.989999999999915,-1.8255233471306687,0.6402945549106843,0.46885989964319674,0.20883870961269632,0.14287565480663134,-0.9674125156753878,0.006933972252009977,0.0688902005023016,-0.29952489744104255,0.9036239910661867,-0.022228930464384743,0.12560751682834118,-0.40886097504330415
400,7.999999999999915,-2.0477774674736127,0.6324449479414425,0.5776954965766139,0.2157859034228859,0.160466954901084,-0.9631105669244668,0.02547266763879394,0.06749679039702211,-0.3313259930601333,0.9040249970792732,-0.02935152641173481,0.1324981007749062,-0.4053272404606096
401,8.009999999999915,-2.199092764893668,0.6229014356033387,0.6498852707152205,0.22287753373758615,0.17957066013398054,-0.9581035240958157,0.04546960924063829,0.06022322018170921,-0.3465481725435149,0.9044838943282446,-0.0372928441858198,0.13973759629319754,-0.4011928601789492
402,8.019999999999914,-2.253178308025082,0.6077878710257487,0.6633900252564138,0.2300197399052983,0.1994001962595394,-0.9524749619059394,0.06831860108437122,0.09126751925297366,-0.37019846187008687,0.9048930741343056,-0.04568607390340852,0.14711672186369623,-0.39673770912360634
403,8.029999999999914,-2.244206868023142,0.5789397907787797,0.663180042507711,0.23704699462033013,0.21923333669446374,-0.9463754895797737,0.09673845687686577,0.15673188042180924,-0.3936308430273901,0.9051901874035335,-0.05420478442749108,0.15441165869220252,-0.3921902957796121
404,8.039999999999914,-2.1972472731497463,0.5482453212443232,0.6697367193096176,0.2438936751708754,0.23859130245146098,-0.9399346345279023,0.13002737125138533,0.19290166199426112,-0.39545555834004653,0.9053954155184479,-0.06263757346540706,0.16149198644203036,-0.38758356550688494
405,8.049999999999914,-2.1418078329121526,0.5149188972812855,0.661142132982576,0.2505439563367053,0.25726169428662127,-0.9332408573170184,0.15467072554513966,0.17836100593195553,-0.39737794976797797,0.9055193545244744,-0.07088176536415067,0.16830848708884685,-0.3829489688651045
406,8.059999999999913,-2.1154784256211143,0.47748408775612355,0.6353355441407872,0.2568962832275936,0.27538351682724527,-0.9263184264827287,0.16938980159848485,0.15572310666015787,-0.397004818449382,0.9055316827442473,-0.0790039782207213,0.1748498245630452,-0.3783734696562489
407,8.069999999999913,-2.1275407815752154,0.4273626814208761,0.6005092822475335,0.2628420120473709,0.2933328298974518,-0.9191126114671887,0.1832176090160632,0.1404248056259298,-0.3696734046119338,0.9054109642579456,-0.08719521730828433,0.18114668597360975,-0.3738746779082666
408,8.079999999999913,-2.1513378844075364,0.3557495017862663,0.5579542436647426,0.2681838039321035,0.3113658534157599,-0.9116064373764847,0.19352367971201198,0.12411983051995058,-0.3281526556456431,0.9051505206438247,-0.09561060908948849,0.18715938491188808,-0.36946042047507377
409,8.089999999999913,-2.1731441565192973,0.28679603281941624,0.5174468391462725,0.2728113657048129,0.3295434207037656,-0.9038099046162112,0.19546971065060342,0.10741195179957118,-0.2961986725656098,0.9047540275947096,-0.10429806377953696,0.19284731685903667,-0.3651308715208614
410,8.099999999999913,-2.1655069925712227,0.2380170284612439,0.48370215362394964,0.27684964208954327,0.34770741149109513,-0.8957414934298285,0.18462842451102382,0.09398919619059753,-0.2678605160368707,0.9042274206876939,-0.11315604725311296,0.1982386817965115,-0.3608865100469194
411,8.109999999999912,-2.10662892644329,0.2124140547360647,0.46586277929107767,0.2805329802194472,0.3654689458948438,-0.8874903834397122,0.16145184161142517,0.08607108899493732,-0.23331128639075166,0.9035955894565902,-0.12195040738205287,0.20336734084868935,-0.35672944901163495
412,8.119999999999912,-1.9866110361755644,0.2161180008428013,0.47126531927967513,0.2841520804907451,0.3822609551824455,-0.8792331708160604,0.12991546163298023,0.0744829087701147,-0.19605623835858912,0.902913394412834,-0.13035125980977705,0.20825562182381427,-0.3526468935356702
413,8.129999999999912,-1.8231860204848533,0.25349775431175653,0.4909018755649817,0.2880707838360865,0.39757104685194067,-0.8711384344247679,0.09031723833192737,0.05850703974767124,-0.15883024414441485,0.9022339168545779,-0.13803863078174586,0.21297445046968932,-0.34862454593305536
414,8.139999999999912,-1.6492698893842304,0.29785554063160524,0.5054955450608155,0.2924877922324159,0.4111752381776272,-0.8633234086521839,0.0534294279504034,0.05105857630778048,-0.1288315746238077,0.9015785487593412,-0.14484987838886576,0.21758235052554,-0.3446940419200844
415,8.149999999999912,-1.5013468717591303,0.3322618327004989,0.5222301002043713,0.29734133774869775,0.42316260581256604,-0.8558458565287145,0.030296533681381004,0.058832804739510226,-0.11035428203299834,0.900953535596728,-0.15082273294939139,0.22207508797867667,-0.3408841900557722
416,8.159999999999911,-1.419668889776066,0.36428869822506277,0.55522801268038,0.3026067008273716,0.4339297042072885,-0.8485801761793335,0.019185969899597605,0.054685124560650604,-0.09604659142235085,0.9003639506118057,-0.1561745028232062,0.22651328787222746,-0.3370921141830095
417,8.169999999999911,-1.4011086045711172,0.3896333252572477,0.5761135581603906,0.308281700765072,0.44406625401721406,-0.8412620748037583,0.011491690583389199,0.02906070459923496,-0.07454761132714062,0.8997718985218123,-0.16121805615445509,0.23101237922411447,-0.3332232760160773
418,8.179999999999911,-1.398370590671531,0.40531973738077476,0.5788739892846436,0.3142003840493775,0.45395840988229424,-0.8337589623662544,0.00456728877647253,0.01325923177549403,-0.05610148454263165,0.89912366085243,-0.1661641472627773,0.23558236443246156,-0.32932109756051964
419,8.18999999999991,-1.4013838104987806,0.42173991024894525,0.5923827122866702,0.3202982218604826,0.46369225284795157,-0.8260460088125955,-6.75755914970363e-05,0.011375972720980034,-0.04563004952308608,0.8984121877592822,-0.1710693279090597,0.2402109305337454,-0.325383707139694
420,8.19999999999991,-1.4079056172330153,0.43035976338803555,0.6118669353123037,0.3266137344777502,0.4732714755533118,-0.8181017208343491,-0.0026245377570067075,-0.0005591246560310934,-0.029022541194710684,0.8976524351109086,-0.17594697843466417,0.24490968970496746,-0.32135138247366707
421,8.20999999999991,-1.4156632909811295,0.42975474989661694,0.6386772471073133,0.33309321902250383,0.4826879714356402,-0.8099469124413963,-0.007145724887790252,-0.032634473222667354,-0.007486892574176248,0.8968602407562436,-0.18081401189030977,0.2496434468559568,-0.31719171211699787
422,8.21999999999991,-1.4050769857830945,0.4253011889091539,0.6837173424034433,0.33974724365948117,0.49181112608513644,-0.8016529991113843,-0.01579739465423356,-0.07869247711416383,0.011770571359283662,0.8960750028017673,-0.18562229210786202,0.2543762215385899,-0.31284353609832694
423,8.22999999999991,-1.3984557790164207,0.4130019817451109,0.7448371811090396,0.34662076484452076,0.5004944014564722,-0.7932933989900987,-0.025152863387405223,-0.12372415813407482,0.03543789576774905,0.8953363531086117,-0.19031076759469068,0.25908469250510013,-0.3082432686989389
424,8.23999999999991,-1.423762007007887,0.40014543700936567,0.8201578404846132,0.35374848674063925,0.5088411583907236,-0.7847905834328354,-0.03328408381380089,-0.16467728400076248,0.06030057892776218,0.8946496286088116,-0.19495843834602605,0.26379053353765003,-0.3032998632500535
