seconds_elapsed,rotationRateX,rotationRateY,rotationRateZ,gravityX,gravityY,gravityZ,accelerationX,accelerationY,accelerationZ,quaternionW,quaternionX,quaternionY,quaternionZ
2.0,0.5238318925296791,-0.8298178822135126,-2.268817488707644,0.9007320980119972,0.30304418346069384,-0.31089288924492936,-0.02064804466410059,-0.08571694616498896,0.16724609313064445,0.8072568627072606,-0.14460149192134616,0.5688822303455863,-0.06118493850625752
2.01,0.44749557768771203,-0.8443362774870228,-2.2840178369498085,0.8909112769048293,0.32192020161046325,-0.31990735090703315,-0.025541153927910273,-0.10310878563837116,0.17582459104675788,0.8092199532843897,-0.14939164709159627,0.5636480076365318,-0.07113220553161236
2.0199999999999996,0.351985292023542,-0.8701077721973651,-2.298885111040182,0.8806195244157993,0.3409255708314217,-0.32884216090309537,-0.023741714446176274,-0.11962240316593817,0.17994904591066307,0.8110773956182816,-0.1544649621837519,0.5583044544870764,-0.08094221334016734
2.0299999999999994,0.20208468293084558,-0.9086869471110881,-2.3437540145623093,0.8694986463580445,0.36023430890490926,-0.33762160844547257,-0.015270123969623312,-0.1311154891192979,0.17778655273034435,0.8127740340388611,-0.16014164103612752,0.5527388001798383,-0.09041217864681286
2.039999999999999,-0.008413357001642502,-0.9405871843149423,-2.4531060787375827,0.8573283477774307,0.38076473732474586,-0.34587711951522515,0.004218019904809548,-0.12960947972896725,0.1763859700183776,0.8142207049923641,-0.1668957853998925,0.546953702103884,-0.0996742441080469
2.049999999999999,-0.25934013551030227,-0.9650479691993399,-2.595246212426989,0.8443050708748079,0.4023947339314722,-0.3535915219262613,0.038020074895066744,-0.11612689580124584,0.17726313748937808,0.8154375352279396,-0.1745627127861003,0.5410186124529677,-0.10880217987887031
2.0599999999999987,-0.5667954672440265,-0.969821153138192,-2.7513826586479184,0.8296134559776687,0.42644761690967176,-0.359953150366116,0.11351053999358274,-0.07561525688779974,0.18683216457963028,0.8161367006687126,-0.1841094968063107,0.5348626414023696,-0.1177568098297327
2.0699999999999985,-0.9113283970675554,-0.9148086508283038,-2.853799888416018,0.813776144075478,0.4522928855334285,-0.36420396272898037,0.16396331113853402,-0.09251998152638763,0.20194490264331252,0.8161583770938651,-0.19529567430066536,0.5288265431852893,-0.12628738696053754
2.0799999999999983,-1.2435278657199613,-0.8190974333074905,-2.9332663808238033,0.7972068503533908,0.4793187591351391,-0.366679352973752,0.19939487029243685,-0.13276034786694793,0.22344128528096904,0.815616487798021,-0.20760314309162545,0.5229817277481889,-0.13451650766919881
2.089999999999998,-1.4345068458370047,-0.6652365429672052,-3.0247383905150755,0.7797494238220521,0.5079013634193763,-0.3655045630038367,0.2200191150646485,-0.15453226292161537,0.262643427882184,0.8139326413227157,-0.22153007957519819,0.5177710058343307,-0.14227285535503903
2.099999999999998,-1.416611877451887,-0.5684868011317945,-3.1077140416761964,0.7613724901353875,0.5367163053354532,-0.3627327915042392,0.23451468212159957,-0.14857529669819003,0.268607023035277,0.8116020807771974,-0.23566521930867623,0.5128051983076899,-0.15041847039365777
2.1099999999999977,-1.277712217686182,-0.5079627169391294,-3.1819382217374153,0.7422780379840813,0.5653999335187773,-0.3592786010951527,0.24475386061574758,-0.11937947631875237,0.2484903963309723,0.8089230121783659,-0.24970866765318772,0.507899327740843,-0.15893745072526094
2.1199999999999974,-1.0456368799556826,-0.48843685915768936,-3.2334432660627184,0.7218597680310971,0.5928727716451364,-0.35631192931962336,0.24876963609036412,-0.04234739179363585,0.1798122262329963,0.8060846957443669,-0.26279553035775527,0.502697637648656,-0.16836094419115089
2.1299999999999972,-0.9300393822244647,-0.4688414245322181,-3.361007507482277,0.6999788072209416,0.6198491193844113,-0.35373735811481427,0.2524929006826013,-0.0030654326149577426,0.13250194058269982,0.8030623330911323,-0.27544389012125725,0.49714951589436684,-0.17858089072075758
2.139999999999997,-0.903176059769482,-0.4544584814396614,-3.523524115538423,0.676886138636314,0.6466610753003368,-0.35121126635281164,0.2555556836740929,0.021045172514183683,0.09815640672625761,0.7998299925497179,-0.2879740126114219,0.49134500411070126,-0.18933048364610597
2.149999999999997,-1.0320934589743216,-0.46728641079728406,-3.6685489438501784,0.6513320976950391,0.6739178678463359,-0.3479120413922447,0.25595787974074224,0.06512299085554071,0.07520664875440253,0.7959897185759589,-0.3010367879527819,0.48511618873585477,-0.2007454732849196
2.1599999999999966,-1.2629477430966844,-0.46006161323951417,-3.810727891352766,0.6238091915708026,0.7017577820040957,-0.3427584816501551,0.27722646057725664,0.06363256345471731,0.06744246759939322,0.7913992024658227,-0.315186554637966,0.47867937077607053,-0.21208857868201061
2.1699999999999964,-1.532332822174836,-0.4255866738632464,-3.9495250109340505,0.5948327770292663,0.7299945591443543,-0.335977880930951,0.30475035168793,0.050149679171357806,0.06712868878916646,0.7861617201946278,-0.33015822752123475,0.4721675116789704,-0.22338931995097674
2.179999999999996,-1.7234139901556942,-0.29932359080289345,-4.077941290513716,0.5635035049795204,0.7587449518566282,-0.3255748915213675,0.30735262563792265,0.10018024760302362,0.06447086254740915,0.7795203246669017,-0.34653481692969096,0.46583494671157466,-0.234662488369269
2.189999999999996,-1.758133992469044,-0.175503023758479,-4.145995132997532,0.5308484990529457,0.7866989679201997,-0.3133186967310531,0.3205778491896946,0.13967053046000363,0.062043770770686485,0.7719664214601571,-0.36306876148821227,0.4597266044181561,-0.24620193643579247
2.1999999999999957,-1.685505647298989,-0.05928818322721491,-4.175382140070896,0.49730721878452416,0.8137691824935102,-0.30011765381625066,0.3382447918140566,0.17842502337552754,0.05963396298331005,0.7638489804333767,-0.37949625256141545,0.4537279371833741,-0.2579698209961066
2.2099999999999955,-1.4762773378470593,0.020819393793011717,-4.167933583104708,0.46274468376682365,0.8382122678169307,-0.28717399000293514,0.3488532086802561,0.24522077393936084,0.056617056348115403,0.7552949924991117,-0.3948321742491601,0.44767151912865355,-0.27023177043660557
2.2199999999999953,-1.2409749917950335,0.10361458923795293,-4.216890052697798,0.42719370967434567,0.8605695711273995,-0.2754775894835334,0.3615239431375933,0.2913435823879473,0.04573706466156274,0.7466120388196565,-0.40910245210080504,0.44132674116058934,-0.28314180046594783
2.229999999999995,-0.9971534839986187,0.17995697861393042,-4.297869116767226,0.3907804192201702,0.8813539176029749,-0.264847859511571,0.37034879192995285,0.33658297100151,0.02892381847511017,0.7378355517073899,-0.4225711913582773,0.4347076014603675,-0.296591194287239
2.239999999999995,-0.7884778581739199,0.20836959470710856,-4.384974844030722,0.3524396357815296,0.8995618322395964,-0.25652073129521935,0.34907735354815295,0.44517168553916375,0.002376999777131024,0.7289222681079188,-0.43473629250156715,0.42738837398304325,-0.31114708961545906
2.2499999999999947,-0.6998633637788493,0.22672135338059474,-4.480366629020832,0.31262521155716183,0.9160648320537164,-0.24903391816003695,0.3517030463439305,0.4818870488531573,-0.01412407294114805,0.71971731517727,-0.4464750587820182,0.419563749181598,-0.3261104501767443
2.2599999999999945,-0.6836712464488796,0.2385722213386347,-4.570992481039438,0.2716941197094596,0.9312552699239068,-0.2420066255622153,0.36127078399689333,0.4692109728800384,-0.025903023618696393,0.7102348832352199,-0.45795624539124713,0.41138178915933116,-0.341330712441366
2.2699999999999942,-0.696206370409006,0.24525634211456096,-4.601238703695181,0.22895583154473254,0.9442230401260756,-0.2348778648228191,0.3288275891162785,0.40078328322873397,-0.04382132624218191,0.7000341411410628,-0.4693328089467071,0.40274376395714967,-0.35671945021108087
2.279999999999994,-0.7061214761171811,0.25988410307338866,-4.542534313100678,0.18618076611422318,0.9551959219893636,-0.22770019533269711,0.30969353831825264,0.3356260497810796,-0.06209027401463669,0.6895340438897336,-0.4803777830698324,0.3940563457596897,-0.3717644970576046
2.289999999999994,-0.7140389490149991,0.286215503109439,-4.44443342343266,0.14347508981728793,0.9646136915182674,-0.22046283227463997,0.29042858459767584,0.2768306973448177,-0.07654491757058388,0.678796335008159,-0.49114522246471565,0.3853750468832661,-0.38653449985013183
2.2999999999999936,-0.718760550039546,0.3604381029948951,-4.43011708315804,0.10138365972416653,0.9713673659663072,-0.21301425548411895,0.21786494436548354,0.2481935364963339,-0.0638151781340035,0.6676300998190257,-0.5013410013933335,0.37692966080755824,-0.4007973486529356
2.3099999999999934,-0.6872484443626569,0.4320675213816611,-4.458247719949369,0.058851698235256024,0.9762621105893351,-0.20593566925338316,0.18509563715343308,0.24826322939643541,-0.05634643712762298,0.6560167661893729,-0.5111051693268741,0.36839318128925475,-0.4152304607089747
2.319999999999993,-0.6513281182481341,0.49872568080686625,-4.502051924334973,0.016032999148678628,0.9796844571226256,-0.19910264456824336,0.174426485388652,0.2575281294777722,-0.052140452089323636,0.6440507262506036,-0.52054703923221,0.359796116060666,-0.42975348475901826
2.329999999999993,-0.7396371227649832,0.5408208970383419,-4.475839289844514,-0.026950545000034652,0.9805254586324713,-0.19244211561473146,0.15133208077854757,0.20934648647381382,-0.04874210974766709,0.6314740825800779,-0.5295301641156475,0.35115566695792005,-0.44418996780239417
2.3399999999999928,-0.8771681964255872,0.6141179899301383,-4.466632956126526,-0.06969017831459653,0.9797904676225592,-0.184718962779295,0.15721617820103428,0.17563719404166592,-0.03822136799810085,0.618155334265526,-0.5385069156995794,0.342886818520241,-0.45829450561053664
2.3499999999999925,-1.0416196187710496,0.7064542993621767,-4.467299235444793,-0.11224523312228156,0.977786420488401,-0.17614988980597032,0.1771722896504045,0.14945689557521985,-0.021259401682331237,0.6042203593451669,-0.5474741307402754,0.33492639515193157,-0.47215102805679754
2.3599999999999923,-1.1801089988917532,0.7974420005997728,-4.463369576872459,-0.15453729537690358,0.973498219030548,-0.16611531799316487,0.1682471668061501,0.11268811054483086,0.011427632493422876,0.5890670859954898,-0.5563984041784124,0.32757492259952636,-0.48567399224294616
2.369999999999992,-1.2393421107719675,0.8870084570700082,-4.4335722003740985,-0.1963206775444766,0.9675269072799384,-0.1559751709400437,0.1786494651042551,0.095307089071107,0.0287281544949504,0.5733621648850664,-0.5649911845634392,0.3205203911075767,-0.4990065828714441
2.379999999999992,-1.2440705350177539,0.9762770170837609,-4.388804986350855,-0.23764670285073253,0.9601905813337427,-0.14589463157500893,0.19846648206273704,0.09075798392218393,0.034608742006577466,0.5572542086864993,-0.5732700716466,0.31368642051047585,-0.51219879010879
2.3899999999999917,-1.2135508158647976,1.0704688063081509,-4.355584162186409,-0.2778673205566453,0.9504089779213949,-0.1368480549550092,0.19518394919050408,0.09073463085798278,0.026790302636429487,0.5407074313832624,-0.5806990418184402,0.30711821426288327,-0.5252289642773204
2.3999999999999915,-1.172320576300761,1.1366287100358243,-4.265641176291236,-0.3170354689672484,0.939115826936462,-0.12897810730516573,0.204299535679212,0.09596660882729925,0.028527744864713676,0.5241256043901046,-0.5874436144522823,0.30062738740329314,-0.538091999929987
2.4099999999999913,-1.1275774428689544,1.1903575132600666,-4.139623014047618,-0.3552322032197671,0.9266626142837664,-0.12202902820130705,0.2207242339676118,0.09767560154200824,0.0382760067215935,0.5075333792212483,-0.5936284564888029,0.2942481802664577,-0.5507850046969983
2.419999999999991,-1.1131783954773167,1.2951191213744253,-4.0211064907674485,-0.3909195907127115,0.9126667938240911,-0.11643723808243987,0.2304579219672481,0.038489500473818244,0.06371292550386973,0.4910500782568231,-0.5988125061759876,0.2884059618538634,-0.5629412771064862
2.429999999999991,-1.0699890500546365,1.412989670229194,-3.94245661707103,-0.42536899435289416,0.8976175038675759,-0.11221013278992474,0.23638713320143778,0.017629328095463588,0.06947029518094214,0.4745138336496063,-0.6032322947846784,0.28280997151171533,-0.5750766942835305
2.4399999999999906,-1.0032445532391152,1.5347853943315732,-3.888982665167918,-0.4588095633254931,0.881701397352015,-0.10917598643188106,0.23783315670792657,0.022742483566926396,0.060352244827257776,0.4579546506281872,-0.6070139533547887,0.27738285819242453,-0.5872043744974533
2.4499999999999904,-0.8960420939560787,1.6108032263349077,-3.821276858776226,-0.49054855825147775,0.8642585615297188,-0.10878110554408592,0.22099395199926428,0.030887905484556378,0.03515063592087421,0.44151345729795005,-0.6096004008486605,0.2719941952157414,-0.5993907943921529
2.45999999999999,-0.8747263962059179,1.699170607243808,-3.806057661347258,-0.5213584211308718,0.8458682763756947,-0.10956261452791331,0.22961852482778292,0.03731612522406287,0.02217784648312141,0.4249797714626288,-0.6116457393736523,0.2666293985841749,-0.6115113456020985
2.46999999999999,-0.9016093131597502,1.7934386058799012,-3.821216053044017,-0.5514120482478175,0.8266721759289344,-0.11133933914889073,0.2556594941806926,0.03981997753192694,0.019406733612604053,0.40834331705874755,-0.6132350771501317,0.26128421267595553,-0.6235944336164813
2.4799999999999898,-0.8174583899738733,1.861233621769815,-3.7779352521841054,-0.580270884787215,0.8059039668509258,-0.11501381395156077,0.2806816086205709,0.014334370187954595,0.03489588142384488,0.39130745680052,-0.6139695870964943,0.2559716099077145,-0.6357575899498881
2.4899999999999896,-0.7333944968154822,1.8685501033590222,-3.7088688290332668,-0.6078000765732915,0.7845614062004158,-0.11995751827574196,0.3038090166786865,-0.027373486278441495,0.03148654336863246,0.3745860215116741,-0.6142062399865958,0.2505100203395219,-0.6476451336951295
2.4999999999999893,-0.6535867535423249,1.8448392330700771,-3.6270688355271257,-0.6342151967796972,0.7627401416261234,-0.1259411634562407,0.325087423318838,-0.07971352082270311,0.01803114485369204,0.35810546148712097,-0.6140286685681051,0.24493753181880185,-0.6593063556506737
2.509999999999989,-0.620326478955332,1.9510817188549168,-3.606171451095692,-0.6586944020377311,0.7401107052258831,-0.13351186804982695,0.3407055878888403,-0.12282601309596947,0.041293839833142415,0.3418322089528708,-0.6131585934357624,0.2393027349616538,-0.6706174096680207
2.519999999999989,-0.5676235960404723,2.0633976812628543,-3.58604384647655,-0.6820605647113563,0.716790190422605,-0.14272685480755515,0.3407740278308031,-0.12504900481904319,0.06882364515406866,0.3254774357134601,-0.6115800183137435,0.23363818091564753,-0.6820646911773758
2.5299999999999887,-0.5050045907793749,2.1711805523028493,-3.563948394939656,-0.7044487176290656,0.6929101532582371,-0.15329739050817578,0.32741604974279903,-0.10063513166123896,0.09584560977049397,0.30907820858289997,-0.6094172876041313,0.22794122376173584,-0.6935970117894779
2.5399999999999885,-0.4934230771991709,2.170313011315582,-3.511154481569161,-0.7247733632028867,0.6683286093537489,-0.16583197993829707,0.2881072838802811,-0.11330563122020418,0.0790557476578079,0.29285802633191044,-0.6064074572003572,0.22211309260934747,-0.7049607775420881
2.5499999999999883,-0.5759478772405916,2.1856115534786347,-3.4482761573095377,-0.7438018357284061,0.643729421131242,-0.1783030968081548,0.2920657766469899,-0.13278927411673958,0.06017364848790187,0.2764594294647095,-0.6032365199399654,0.21664243693880156,-0.7159020411049528
2.559999999999988,-0.7223231066305575,2.2108300040801914,-3.3764390445335897,-0.7616866865246329,0.6191603298661936,-0.19072784461748402,0.3277082772526108,-0.15960038599983378,0.039033108311408764,0.2599098147163685,-0.5999153794632014,0.21150517461215412,-0.7264797767828653
2.569999999999988,-0.7837758426295665,2.2074162539482405,-3.2853565433358836,-0.7772033108613264,0.5951705477397362,-0.20316563110288405,0.3554761014530905,-0.21648630936587698,0.008546317375461986,0.24311990932029373,-0.5961919734802164,0.20726198306747087,-0.736409419317063
2.5799999999999876,-0.7555826414394272,2.1473924940752798,-3.2077789713750455,-0.7915803855898059,0.5712830029803648,-0.21576066657124335,0.37353036036737736,-0.22187570804870332,-0.0008485596682136615,0.22659765502793228,-0.5923693511727526,0.2029785232055921,-0.7458874977475459
2.5899999999999874,-0.664429858270776,2.0512623464780706,-3.1409357038894936,-0.8049646156614945,0.5474831799462464,-0.2285066541176225,0.38275905757876744,-0.18743082278117812,0.005755257388510789,0.21032315437557078,-0.5884581769787434,0.19864593347643797,-0.7549759966716335
2.599999999999987,-0.6587198953032644,2.0634991935248093,-3.079840598856689,-0.8165662514322288,0.5238231161252165,-0.2417064483124995,0.37139115069337386,-0.14741905442276762,0.009921519374461077,0.1946842894169706,-0.5843603793078569,0.19404106292702533,-0.7634154899314607
2.609999999999987,-0.6935150260029999,2.0706525858369105,-2.9736666071286098,-0.8268758907823291,0.5007088711288179,-0.2552425001919018,0.3502454052308672,-0.13487499150810506,0.03830732417521571,0.17915256765663667,-0.5799505940385121,0.18977934307189764,-0.7715994842944595
2.619999999999987,-0.760226231099441,2.0721235614843563,-2.8305449208545626,-0.8360296009518978,0.4781490489979929,-0.2690263373963885,0.32266065473727745,-0.14687233329827587,0.08339262290112473,0.16373765973668591,-0.575277962621179,0.18584778425139215,-0.7795388612388562
2.6299999999999866,-0.8275260972433689,2.0453989751059565,-2.6628256443117344,-0.8428519783879511,0.45768241230620504,-0.28252712562466653,0.31615570967536133,-0.20787132937775005,0.08884426422395239,0.14886749352221956,-0.5703154567981694,0.1829236383522422,-0.7867484395334993
2.6399999999999864,-0.8180155937042478,1.9860972004890456,-2.5159017339840632,-0.8486384989718649,0.43819833226531735,-0.29581770584003575,0.3352535634179677,-0.2192586472351385,0.08421270678164183,0.13447349753527393,-0.5653118062532798,0.18026998253994597,-0.7935369005333149
2.649999999999986,-0.7391301193051909,1.8995967382261405,-2.386941687796377,-0.8535195450469409,0.41954686150017284,-0.30894663189622495,0.3741331090551406,-0.18728179151583563,0.0717736508654277,0.1205388527661521,-0.5602767913763864,0.1778036020346164,-0.7999562211344474
2.659999999999986,-0.520949577233714,1.796576340922406,-2.2800384173460433,-0.8570979957369418,0.4016284002820244,-0.32223385139935884,0.3955046915304548,-0.09297401011942452,0.06590772987069174,0.10802770905474668,-0.5552780540039081,0.1747368818418052,-0.8058263068952755
2.6699999999999857,-0.4189582477524139,1.6818132891318183,-2.1557014470026967,-0.8600978414626743,0.3841585267346191,-0.33527840762495154,0.39020495872880645,-0.02870578249457366,0.05577807584076713,0.0962816493868944,-0.5504219233144707,0.1714005242525082,-0.8113508512380735
2.6799999999999855,-0.4236021940447291,1.5604793686840075,-2.015816592970609,-0.8625688941754082,0.36718087439674546,-0.34804109638784914,0.36150750272759463,0.006721837916849721,0.042987112713319675,0.08518931104050048,-0.5456985572713192,0.1679018675256943,-0.8165506724520086
2.6899999999999853,-0.6539748198191702,1.5097388299341314,-1.8521059828100004,-0.8639654787822354,0.35286280940516035,-0.3590186423333572,0.3049878537369185,-0.04443810442066626,0.04971180398660368,0.07450739295727654,-0.5412940836399834,0.16577064717088885,-0.8209105332701291
2.699999999999985,-0.7756006460366177,1.4353098543467966,-1.676734466579495,-0.8647537324699469,0.34026767977775163,-0.369198525809251,0.28449045382269766,-0.07987104639295635,0.050691682315578204,0.06413181804427251,-0.5369708657136965,0.16447932331102902,-0.824879547501634
2.709999999999985,-0.7961802125483478,1.3412132898193276,-1.4937891339734828,-0.8649992427001197,0.3292008515223368,-0.3786740018897324,0.297135772329378,-0.09955169445275366,0.04520612045421763,0.054071290290123794,-0.5327268263854028,0.1639032126709603,-0.8284978358569607
2.7199999999999847,-0.5965517265810382,1.2611395262434066,-1.3735039919972383,-0.864608379804261,0.31970161041012646,-0.3875069561756639,0.37402867002781237,-0.05725708184237135,-0.001736382495689387,0.04543518075737073,-0.5287445879012674,0.16330288547710528,-0.8316538630254964
2.7299999999999844,-0.3786597237172439,1.1609299057440785,-1.2639532246573795,-0.8640524484556583,0.31020250669642313,-0.39635851210564915,0.4103064210260963,-0.009318529612917334,-0.022463757586685888,0.03769490361461116,-0.5249154578803022,0.1620983835644301,-0.8347027842551394
2.7399999999999842,-0.14987967932011045,1.0434252598546139,-1.1630992987656705,-0.8633488156187,0.3007195269190833,-0.405203678314009,0.40919377754793157,0.042891188243053366,-0.02066652712877193,0.03078246218340729,-0.5212353136256713,0.16034718663648398,-0.8376470236890504
2.749999999999984,-0.08712785478366585,0.9369203395503393,-1.039371077302057,-0.8625427978901005,0.2917569658220755,-0.41331133487739175,0.3487967269265472,0.07327037269981093,-0.03293007755197818,0.02527943124373268,-0.518039904927433,0.15802333872468682,-0.8402372156940212
2.759999999999984,-0.09810524837041687,0.8187544458980213,-0.9180345768610948,-0.8617125081830921,0.2837624498338323,-0.42057370489502255,0.29250021968917284,0.07628094671797284,-0.042036337307203485,0.020232686489712746,-0.5151360046393758,0.1560222626977156,-0.8425344698949414
2.7699999999999836,-0.1732701013479365,0.6915049549433868,-0.8002138013683989,-0.8608640777579972,0.27667200199440745,-0.4270405620007334,0.23976855162950683,0.05500416486113062,-0.04875926624040789,0.015607368666254888,-0.5125066501023059,0.15432579688584722,-0.8445566797401325
2.7799999999999834,-0.1595017155478938,0.6232148065140073,-0.739752559556959,-0.8601705829431546,0.2709901895796679,-0.43202146530011143,0.18187947736812696,0.047379270453457654,-0.0746446907310778,0.0114483285964803,-0.5103982545339288,0.15323222498839992,-0.8460909972718677
2.789999999999983,-0.10332804652276978,0.550500833628193,-0.6774928498524773,-0.8595477047689911,0.26550276823026897,-0.4366484446544476,0.13979114088823916,0.057498357864982495,-0.08660400696576943,0.00769878755087743,-0.5084921002426747,0.15201693718276477,-0.8475011364049005
2.799999999999983,-0.011430825666714044,0.47323137605395454,-0.6129849218651714,-0.8589927789621953,0.26020797698378045,-0.4409332621445208,0.11178819499498571,0.08327805941349635,-0.08591612753958108,0.0043374014507787965,-0.5067793608395846,0.1506916466455893,-0.848791716837116
2.8099999999999827,-0.1210233858261066,0.36832925306773,-0.5139814101986978,-0.8585991470073753,0.25568438139662003,-0.4443162845604173,0.05416849376957122,0.0665778827517294,-0.09765669223554582,0.0015653023152429365,-0.5054583354753381,0.14950641019913888,-0.8497948252650099
2.8199999999999825,-0.2847682878157843,0.2697678718221538,-0.4123532186570962,-0.8583496184228563,0.2525902569021026,-0.44657779357523486,0.006776176249589556,0.026158355296350903,-0.10524500404308264,-0.0011900579479907328,-0.5044284677475598,0.1492065082312154,-0.8504607709249383
2.8299999999999823,-0.49727281094440223,0.1772056474336663,-0.3078354776481171,-0.8582382471403146,0.2508737788396135,-0.4477604608404437,-0.03144145914822749,-0.03625074701522212,-0.10912453686085286,-0.003923949598898981,-0.5036791463024897,0.14975661338177412,-0.8508024046777425
2.839999999999982,-0.4602547547516499,0.08367615695819906,-0.16412292601128586,-0.8582819796187762,0.25139361249791775,-0.44738467078526795,-0.12011938770653022,-0.05099081258206172,-0.1350581741292276,-0.0061115413245466585,-0.5033799026615503,0.15137695812029087,-0.850677699376296
2.849999999999982,-0.3617352874360314,0.018586021392298847,-0.05803888824562085,-0.8583318416442126,0.25225032461981606,-0.44680550920251944,-0.17310967925982565,-0.03672880188418839,-0.16503318876348583,-0.007667410719055138,-0.5032280799854723,0.15283289397465413,-0.8504960062127973
2.8599999999999817,-0.2034667713685055,-0.01858348942016828,0.011119677598011152,-0.8583875095455525,0.25343233089116185,-0.4460301713516334,-0.19130922887826218,0.005894325639063834,-0.19877737695110295,-0.008606107242340235,-0.5032197720759018,0.15412582084097273,-0.8502593869128061
2.8699999999999815,-0.07147882800790628,0.014172967091493575,-0.007540267569430001,-0.858398611171998,0.25391146519394425,-0.4457359782508311,-0.19099362549788673,0.08831071881451921,-0.1865869981407711,-0.00884356841893569,-0.503231301683834,0.1545644403226874,-0.8501703998945759
2.8799999999999812,0.05610190075004949,0.04758422087779496,-0.006148086426358307,-0.8582570134071698,0.2539302574429325,-0.4459974905854392,-0.202386934462254,0.13209263314343947,-0.1641936146335023,-0.008891216309724918,-0.5030939814404274,0.15458842717352742,-0.8502467838135803
2.889999999999981,0.17927928673230184,0.08164969668612015,0.015278604829728697,-0.857962850400564,0.25348911205790803,-0.44681422015702177,-0.2254788692556523,0.13727400979490748,-0.13160618997475929,-0.008749217669508815,-0.5028079421132792,0.15419814565662382,-0.850488393388115
2.899999999999981,0.32809219986406046,0.05072181343511185,0.0379156262464692,-0.8575899578051108,0.2525134285428186,-0.4480792856173234,-0.2492357022325166,0.12139562831615541,-0.10987443431714611,-0.007919660333072906,-0.5025248399193364,0.15306354034642727,-0.850868079829564
2.9099999999999806,0.4807571468009504,0.009941979717565948,0.036685786899675166,-0.8573737299969852,0.25098779115065506,-0.44934669265938487,-0.24823664224593345,0.11413793159968347,-0.08428168853904106,-0.0067820794897254615,-0.5023887398403106,0.1514262170424558,-0.8512498201595563
2.9199999999999804,0.6372930777984585,-0.040740067709350715,0.01096910827874243,-0.8573184588591453,0.2488996800754927,-0.45061509390405596,-0.22184047110048158,0.11578961280971689,-0.05469418409831937,-0.005330681826922857,-0.5024034278510099,0.14927553419580014,-0.8516332338247926
2.92999999999998,0.7162999186028327,-0.056557030487915695,-0.008858329595802357,-0.8576020531416224,0.2456686442604082,-0.45184014550515467,-0.20849474156529824,0.14398581411573488,-0.0035681500931505072,-0.0035299019038198525,-0.5026776665768339,0.14625454501745147,-0.8520011179302437
2.93999999999998,0.7068185750674482,-0.04712807295856351,-0.024774026492276106,-0.8578690848919704,0.24232458715269153,-0.45313641641036134,-0.20013107293029322,0.15424702327668477,0.03316244655632753,-0.001789202538101917,-0.5029121123373479,0.14320088000050696,-0.8523869657866334
2.9499999999999797,0.6049354707485315,-0.011467694375060046,-0.03663029144997786,-0.8581151881578047,0.2388732435961803,-0.45450814375633164,-0.19688050356620487,0.14534552524646274,0.0545097935417105,-0.00011537453166521154,-0.5031019780089218,0.14012174816140796,-0.8527918933835547
2.9599999999999795,0.33929094383846453,0.021203531437107605,-0.052926279907743956,-0.8581627571936689,0.2365911679715835,-0.4556074453363137,-0.16896581440894862,0.06515019390895226,0.09599381733841304,0.0007209454539114326,-0.5030751460992288,0.13823857449185808,-0.8531136202707217
2.9699999999999793,0.10707423355000828,0.05803378880393967,-0.07483180610867919,-0.8581280317369868,0.235011809964031,-0.4564922119894905,-0.14099020229539413,0.006293908660447729,0.11902687127206206,0.0009948871720795857,-0.5029461164007714,0.13710951657962753,-0.8533727359182532
2.979999999999979,-0.08606251488987124,0.09941552363405648,-0.1027247530694428,-0.858007852727279,0.23417154814491906,-0.45714982629681783,-0.1133895919652434,-0.028209500886650998,0.12174501437401042,0.0006755809697935415,-0.502710432172963,0.13677466547007444,-0.8535656240156526
2.989999999999979,-0.08157724467319469,0.12571358861732804,-0.1117732582060198,-0.8577217428393381,0.233664422143168,-0.4579450529326659,-0.06956126648258161,-0.033637688133061276,0.11938379593634482,-0.00012479229992201342,-0.5022774674757122,0.13691131885878516,-0.8537985821171372
2.9999999999999787,-0.023378427133924913,0.14451271019810158,-0.12338773073311503,-0.8573757651304268,0.23287943669804156,-0.45899052422897246,-0.03890441467162259,-0.02876996320220765,0.11359658227431578,-0.0008616381502608954,-0.5017773602461535,0.1368356844661403,-0.8541043037098202
3.0099999999999785,0.08933554036632835,0.15537619484906073,-0.13834101195139548,-0.8569676151355019,0.2317772453599884,-0.4603103109791248,-0.0232955122913953,-0.013224004101263731,0.10413681204999592,-0.0015154456830174011,-0.5012078165130615,0.13651206618455497,-0.854489786375442
3.0199999999999783,0.14966032479685215,0.23988556636362823,-0.10890271301870079,-0.8562568510841961,0.2301990545021084,-0.46241610926483606,0.029444989083483194,-0.002728523140870515,0.12368654727350546,-0.0018659233255622855,-0.5003779877490778,0.13569483733502644,-0.8551048416184137
3.029999999999978,0.19393857648804091,0.23131134392986297,-0.06785841328350388,-0.8554951236938219,0.2286148865753913,-0.4646066201430095,0.086937153549307,0.00649063267262736,0.15751873237147618,-0.001955096739420126,-0.4995464821666297,0.13471836792840872,-0.8557448222151223
3.039999999999978,0.22173360501968414,0.11404939243841489,-0.015117300378922546,-0.8546857623331844,0.227040382746854,-0.4668665118528147,0.1485618553864972,0.014429316601017473,0.20663207468141312,-0.0017568209147988355,-0.4987220758410503,0.13357741447049742,-0.8564052758558217
3.0499999999999776,0.07811899278286191,0.0635683748417084,0.045299851020673056,-0.8542538640128424,0.22674720348761057,-0.46779854624458517,0.29065521381210313,-0.06866251096246608,0.14503107067733484,-0.0013545697362812724,-0.49837456337943215,0.1331291404792955,-0.856678050034578
3.0599999999999774,-0.06980696484475239,-0.012318063773157563,0.10121034967565871,-0.8539939317736703,0.2273274661935149,-0.4679906674550553,0.37806452296210674,-0.12589512165958172,0.11440662834994837,-0.0010339557276451122,-0.49823975873923726,0.13327225112961993,-0.8567346324817241
3.069999999999977,-0.21527287564538117,-0.12087923310881263,0.1515073716421757,-0.8539188347613356,0.2288743893126987,-0.46737452699931303,0.397914637889876,-0.1488593637770434,0.12490514309440193,-0.0008178728426276118,-0.4983331417964599,0.13407752241959978,-0.8565550395966087
3.079999999999977,-0.23899560361468164,-0.18747757793322345,0.16120574298948537,-0.8543754121322767,0.23139845417313118,-0.46528637216920476,0.4130291152593652,-0.1609645995519409,0.09809450655156099,-0.0006186192843114227,-0.49898537008355665,0.13553239420584984,-0.8559453944447714
3.0899999999999768,-0.22228611790274988,-0.22795737590272735,0.17999825890840007,-0.8549296630686067,0.2339564888553272,-0.46298313338387054,0.4075176086506396,-0.15176028486654586,0.08014526380556597,-0.000312763583767842,-0.4997501568452349,0.13695615713789794,-0.8552725075583149
3.0999999999999766,-0.16347886974917453,-0.23927756561873845,0.21190154799360966,-0.8555728833751182,0.23650302354289815,-0.4605001158590335,0.3774569417511993,-0.11751286753306388,0.07485068008610771,0.00012218341492893517,-0.5006203565291303,0.13830771012169746,-0.854546611524897
3.1099999999999763,-0.11251090433313227,-0.23677173373206217,0.2488408988154407,-0.8560894288730798,0.23913468740410132,-0.4581689346380526,0.3278913031690556,-0.10031422153450666,0.09115991877493632,0.0010125002544237554,-0.5014698481438061,0.13943635271766097,-0.8538633862972661
3.119999999999976,-0.07141406817737261,-0.22815731299418662,0.27562929724583135,-0.856532749004939,0.24175533259303067,-0.45596121073087154,0.29514654075693836,-0.09303558517255708,0.10357266038217224,0.0020608967829554327,-0.5022845681715764,0.14045974456664834,-0.8532147520191244
3.129999999999976,-0.04200567634851326,-0.21288433962146996,0.2895592810958191,-0.8568937501077428,0.24435691945317087,-0.4538962289147014,0.2844236780166869,-0.09691607939920366,0.10979012627290054,0.0032753573456023796,-0.5030576728195922,0.14136742943171568,-0.8526061037792946
3.1399999999999757,-0.0814309113648784,-0.2014462609785817,0.30870318196559016,-0.8570691712595244,0.24723409426096207,-0.45199707994950045,0.23322483933573,-0.10483861950819146,0.1021436506883756,0.004554344999366578,-0.5037118292971657,0.1423905651079865,-0.852042667017018
3.1499999999999755,-0.2036693750554166,-0.19153588518375309,0.3243172408819805,-0.8571747756759374,0.2506062982615153,-0.4499310920212415,0.19506677614209636,-0.1135326901030803,0.09104307586473674,0.005652658741314897,-0.504329577895725,0.14382008325079984,-0.8514299681433813
3.1599999999999753,-0.425748355885761,-0.18327480280517536,0.3350641466498446,-0.8572057814361891,0.2545855129038467,-0.44764110648530975,0.1764822723611388,-0.12290168323264761,0.0766032730328249,0.0065170356993422204,-0.5049100890890058,0.14575622743040256,-0.8507514117950503
3.169999999999975,-0.5617175398003255,-0.21878966498646052,0.32862425880660534,-0.8572579032030232,0.2598235928523325,-0.4444998447579562,0.16450469937213177,-0.13706036660176837,0.0629015638535314,0.0067153093327872075,-0.5055496706527318,0.14887566861115314,-0.8498260489733046
3.179999999999975,-0.5878895353361038,-0.26477073364575693,0.32766820080645365,-0.8574537618180296,0.26518147762153305,-0.44094292910542926,0.16357929687713277,-0.15026446073101227,0.04863854942938276,0.006854669276588097,-0.5063402618389615,0.1521266402201399,-0.8487778219165516
3.1899999999999746,-0.47852094673362267,-0.32059011690943995,0.3353435595465466,-0.8578349961229919,0.2705863214121344,-0.43691841915348134,0.176475959772084,-0.16181026952789657,0.033580527907515215,0.006975014837847852,-0.5073224122712967,0.15544639024438567,-0.8475909594058316
3.1999999999999744,-0.164640629095486,-0.34145693176435726,0.3399201638825156,-0.8583612951486457,0.27454721620984185,-0.4333878807956895,0.2089943306792444,-0.12676810930973592,0.02858997990021503,0.008023428471638002,-0.5084760141639374,0.15733969790163838,-0.8465389575630037
3.209999999999974,0.15773750992726623,-0.3766437730529243,0.356489868416626,-0.8589541533542155,0.27760082313406986,-0.43026763931843104,0.22694911839175913,-0.10402556936575776,0.022838727674318292,0.009740587621449717,-0.509721047253864,0.1582712148571265,-0.845597760614712
3.219999999999974,0.47122339497121907,-0.43445220899866943,0.3894121375307642,-0.8596216891337527,0.2795836256424437,-0.4276473948566467,0.22347532341358223,-0.10235427165970824,0.015072319996943381,0.012260515081044837,-0.5110714199785598,0.15805727366274172,-0.844791448502649
3.229999999999974,0.6917730083800698,-0.5123109973592904,0.45423033293583537,-0.8604986621410998,0.280598834755938,-0.4252084011984187,0.21930086304394297,-0.11789074930722068,-0.017631797455507532,0.016106114554900505,-0.5127559945016664,0.1564414153802296,-0.8440000040646203
3.2399999999999736,0.8610126347109116,-0.5972547967451801,0.535796049378553,-0.8614528168278666,0.2815797974726432,-0.4226193714446841,0.21729644635707834,-0.12979599485006876,-0.04131806230717028,0.020582063523407898,-0.5146278770672629,0.15441426295101007,-0.8431329986936799
3.2499999999999734,0.9701682550798718,-0.6896842764827965,0.6367976702423367,-0.8624895273308101,0.2826223958980898,-0.419803755008935,0.2183534573066317,-0.1347768799178215,-0.04980765357036553,0.02577548677329243,-0.5167196662934993,0.15197929220644618,-0.8421604650153163
3.259999999999973,1.0489391079810524,-0.8130915735580951,0.7786797346543083,-0.8636238968883797,0.2846811721337292,-0.41605181171929717,0.2285355587384459,-0.15107763487426207,-0.053885989769561174,0.032106690881731265,-0.5192614292037613,0.14944767992647584,-0.8408160838850348
3.269999999999973,1.1669575583702678,-0.9282417406330189,0.9434976455909343,-0.8647424183464263,0.2874815161771059,-0.411773076915439,0.2380583032268002,-0.16178426935246684,-0.05796198040418979,0.03922100988602698,-0.5220512820166027,0.1468620344537824,-0.8392360180537081
3.2799999999999727,1.3442501853059468,-1.0278134402469996,1.1355419188561313,-0.865826210181251,0.29120078096038493,-0.40686867501564167,0.24549619839409884,-0.16315877464792436,-0.06259232182391442,0.04729755753765528,-0.5251346500318296,0.14421229020858614,-0.8373700814343268
3.2899999999999725,1.5990328161263512,-1.1250204081554047,1.3724343273227886,-0.8663978266159591,0.29630928023451747,-0.40190449660303845,0.25680592984376055,-0.12799126222910692,-0.019546896571731198,0.057535378012564115,-0.5283616077956281,0.1409616637010464,-0.8352127948089232
3.2999999999999723,1.8313379130278855,-1.22426196613082,1.6313448036865883,-0.8665970670175037,0.3024373509672651,-0.3968686342612202,0.26720968306473636,-0.09409500590686914,0.00829216215265194,0.06907640883413792,-0.5316597341126096,0.13744825184664555,-0.832815952445633
3.309999999999972,2.0200668037353555,-1.3267907198102755,1.915872612126498,-0.8663282446971626,0.30984883784810147,-0.3917371809395596,0.27575125457305955,-0.06720888824040554,0.007322320210660432,0.08220339717504688,-0.5350408567333607,0.13363837265744832,-0.8301126064133221
3.319999999999972,2.1339511084505203,-1.4013894029945195,2.216504928109439,-0.8649327991069785,0.3200821196751913,-0.38647407302662384,0.3274431429457548,-0.05665168812932744,0.0029335478815892026,0.09754897780416999,-0.5383754812548438,0.13000667604282057,-0.8267910576935438
3.3299999999999716,2.234571258797888,-1.4785248393599597,2.5363388222395336,-0.8627295765400605,0.3321074825454699,-0.3811761056704252,0.37254150487804183,-0.05588132144517832,-0.0019832617385522663,0.11409893514392408,-0.5416349928025249,0.1266295178011304,-0.8230541550885013
3.3399999999999714,2.327174600758908,-1.5638358802653567,2.8822822220568183,-0.8594985939350058,0.34636228169792577,-0.3758468419422484,0.4010198198775334,-0.06714180472268506,-0.007150121893850409,0.1320965348827625,-0.5447897744623705,0.12360402086750956,-0.8187949012758218
3.3499999999999712,2.4439085893415666,-1.6692039504425389,3.2620352249374824,-0.8542851675125289,0.3643223200700923,-0.37047359306689626,0.42468950783129517,-0.05241929016924354,-0.023116921137920868,0.15248974900104048,-0.5477836774157381,0.12119595287121053,-0.8134712274803575
3.359999999999971,2.5471644621713687,-1.7622055455420231,3.6578352198389115,-0.8476747488485565,0.3844370466843906,-0.36522127137082766,0.43319949919414735,-0.04102808927852846,-0.03609729781185943,0.17428324315610344,-0.55062153351208,0.11916884565574028,-0.8074484205279343
3.369999999999971,2.6255522620645837,-1.8327528049879722,4.072355978143946,-0.839267293363084,0.40721075094927855,-0.36016203640177635,0.41930072336902274,-0.03926832520780669,-0.04261820849960887,0.19780688959245268,-0.5532481137419595,0.11761841944798185,-0.8005388608870114
3.3799999999999706,2.6391174574091436,-1.8103264511422428,4.407466988384782,-0.8273942915475527,0.4336161665812196,-0.3562475428753882,0.4108309892244935,0.002897213902817747,-0.025762592656679194,0.22332942015168997,-0.5551178508286706,0.1171264498871417,-0.7923685012600906
3.3899999999999704,2.608530932167199,-1.7574204292658515,4.72259583788448,-0.8133897219205591,0.46162393276010755,-0.3532607530299284,0.405256251332765,0.03183102717399652,-0.009877678642398753,0.24958599634792197,-0.5564196953786972,0.1173290258419786,-0.7835697193938135
3.39999999999997,2.5207851040949825,-1.6743115919652019,5.021466846881482,-0.7966901003401144,0.4914605846973466,-0.3515166875153611,0.4032031641163577,0.0321502187586338,-1.0077273765307995e-05,0.276616058688072,-0.5569715745262216,0.11842333201734963,-0.7740222850449565
3.40999999999997,2.3173953941047074,-1.6092744200439144,5.352488231846888,-0.775361237472726,0.5241995337129478,-0.35095053126051085,0.427982435675283,0.03743552002322812,0.03497969084884736,0.30436701546007927,-0.5565535953477562,0.12151753407011531,-0.7631149414595962
3.4199999999999697,2.0995691815450708,-1.5265948487536538,5.659455562389797,-0.75121770899258,0.5582918335945257,-0.35086773099745205,0.4420445466662894,0.04162059744658174,0.06688902351010899,0.33230091223393393,-0.5556181927823775,0.12585110839925703,-0.7514006953837183
3.4299999999999695,1.8827448220898932,-1.4115046838811833,5.920648602799201,-0.7234886215386623,0.5939654035274122,-0.35131986455877257,0.4330728069031312,0.04297436149426264,0.08850402896957092,0.3603792241620068,-0.5540487335797688,0.1317716202361783,-0.7386654716586164
3.4399999999999693,1.5690614430429497,-1.3326411220655032,6.205650065169877,-0.6903901702488506,0.6307716149020401,-0.3522911496971631,0.403996836025059,0.05359890198636149,0.10544151744409651,0.38825626061695345,-0.5515861661299022,0.1398737952619465,-0.7244743381849124
3.449999999999969,1.0295086812313774,-1.2083499008590575,6.4549445133459065,-0.6539382592741482,0.6686248700335835,-0.3520569776588541,0.3734401561631074,0.054564617321983325,0.1258683234357973,0.4154190447772806,-0.5490078033834604,0.14996264718732785,-0.7092621367622914
3.459999999999969,0.1357809505140295,-0.99994745877877,6.639204688944769,-0.6131367801962961,0.7079619018545334,-0.3496930659848285,0.34506251076115857,0.03728406039191841,0.1531938149286413,0.4414375668105804,-0.5464428550517176,0.16285930987339348,-0.6926841976866682
3.4699999999999687,-0.9095455235853995,-0.8592614025605227,6.5803770528557015,-0.5676566276201325,0.7483707984897102,-0.33994512374260255,0.3076268387287316,0.11345560024649896,0.24464756304267465,0.46301210096339873,-0.5451005217463217,0.18082928364607442,-0.674661577837091
3.4799999999999685,-1.8197021722382294,-0.8165775346194227,6.550684253960431,-0.5200713843218185,0.7885806085408705,-0.3252293249730556,0.2756809854963619,0.1552751896952845,0.29007551229308504,0.4822285082556404,-0.5447603387071384,0.20101169615835213,-0.655578285532381
3.4899999999999682,-2.4597649382966322,-0.9248568516676632,6.632350672796503,-0.47005774438778414,0.8281782862328688,-0.3038589914307158,0.255437467038227,0.11458126604047207,0.2403763854011145,0.4985233089398974,-0.5458299744447859,0.22370692722271326,-0.6350408994474095
3.499999999999968,-2.490403730332259,-1.1233456910332174,6.8141398212102855,-0.4153266919299863,0.8646368142311536,-0.2776553801275287,0.3181198310544714,0.043987025368807525,0.2068719027467363,0.5138217222572622,-0.5474420088556602,0.24731844386495205,-0.6118668796620614
3.509999999999968,-2.1888769907306194,-1.321699916202587,6.982411614086647,-0.3579813415914749,0.897848478795478,-0.25230320394869277,0.35403398122913876,0.0034936559844356285,0.1720915212664703,0.5295923028847361,-0.548333968901417,0.2701695252959885,-0.5876217451011418
3.5199999999999676,-1.4690302810658187,-1.4949763159051586,7.0992609573138665,-0.2973218534072953,0.9261951998802186,-0.22978435392915234,0.31987885847125197,0.024349062559268744,0.13060032365222085,0.5464704273221738,-0.5478059448984279,0.2914264484812735,-0.5622125732058868
3.5299999999999674,-0.7119385582928435,-1.5657424107530977,7.204619459847222,-0.23330460382968204,0.9464495649573493,-0.21732785515960198,0.26253877593253677,0.10089014672277258,0.07282984359951367,0.5658691064764068,-0.5436842078503116,0.30914200021846505,-0.536537579535609
3.539999999999967,-0.23871564453089456,-1.5549523894306094,7.22721240116862,-0.1679171838694337,0.9624044416011411,-0.20906169921269854,0.20408807460794431,0.15263338668340962,0.03448777839123391,0.5858172746792476,-0.537890724818434,0.3256119388377629,-0.5107949816009417
3.549999999999967,-0.29188732168083853,-1.4267851232663793,7.103012365642838,-0.10104691799702226,0.9729753440828707,-0.20539225471538836,0.15055520215818813,0.14271209849319447,0.036279134207311825,0.6060090299921033,-0.5301375640094438,0.3408800287129527,-0.4850091709309119
3.5599999999999667,-0.7867047545868605,-1.3126522273165822,6.7309974091507,-0.03708735348416902,0.9781977514092138,-0.1986955645844935,0.13280056355113776,0.057539365386437,0.08032821109183047,0.6227868448741116,-0.5232013318094116,0.35603352916652103,-0.4593180046751917
3.5699999999999665,-1.348873521262859,-1.2380600610295138,6.4524781043839985,0.025372846699669424,0.980935784710981,-0.18853064069318692,0.12213464894738839,-0.03546464202820372,0.10344128037903327,0.6373573521177559,-0.5173123093681343,0.37149887980217117,-0.43324041570750943
3.5799999999999663,-1.8934595294349368,-1.2327937541771898,6.42914204482558,0.0859767121269692,0.9807686601560754,-0.17286830431427194,0.1130947667876852,-0.11866257605626344,0.07371049611056162,0.6489121338462758,-0.5131147373904467,0.38758415240398997,-0.40641003988632346
3.589999999999966,-1.7635944616350923,-1.280919748125553,6.488715674368295,0.14721625328369387,0.9754781103763944,-0.15653640351908588,0.16994879395375506,-0.15028155675689797,0.08457279059150331,0.6593143628026691,-0.5087237664887923,0.4034618665083023,-0.37824045432089926
3.599999999999966,-1.3121229313007818,-1.3031072374326873,6.558240299890635,0.20862852241155927,0.9665905595668383,-0.14345106905669563,0.20032447518457713,-0.14762103273108476,0.08660664324382247,0.6699132371685911,-0.5029272535958528,0.4186102740600308,-0.3501272959308691
3.6099999999999657,-0.47933063262412046,-1.2566000244302515,6.617726000763554,0.27014934305711324,0.952586344052222,-0.1368472683531583,0.1565665056733106,-0.09716744462714662,0.057367864394984786,0.681296106481476,-0.49449478386667167,0.43242867392522893,-0.3225940763058581
3.6199999999999655,0.16097347384257643,-1.1351576867010522,6.670632763728396,0.33105456599727023,0.9318553012159337,-0.1403628715094194,0.09552087023981443,-0.009423573135854874,0.047638395864672695,0.6940208292267774,-0.48163131684816457,0.4445972381535092,-0.2967479611603723
3.6299999999999653,0.4747267197606375,-0.9574225640691639,6.6462624585059995,0.3908983459346895,0.9077894555465532,-0.14651971548886006,0.03851557663675119,0.056455592931302284,0.053898251163430666,0.7065525831869068,-0.467253075058713,0.45636127537650417,-0.27157981766860423
3.639999999999965,0.21488499509379727,-0.6967132770321176,6.471306535134887,0.44887383446334506,0.8796796616028911,-0.1540541217288366,-0.003899832617410774,0.06481353169802931,0.08440220997170103,0.7181908783071195,-0.45156191528216655,0.46795241056392217,-0.247112093765112
3.649999999999965,-0.26514360015521343,-0.47121006494781725,6.208240729273717,0.5020900423022532,0.8494699238018552,-0.15574674709487737,0.002297326188857819,0.060853092212598964,0.11782355491109878,0.7265192046413428,-0.4376550252540755,0.479999899300949,-0.22289991966530953
3.6599999999999646,-0.6497346518742505,-0.3039370723413511,6.004091311495598,0.5528039953416615,0.8180716492892308,-0.15448337399455794,0.023441945625595696,0.06798658418602789,0.1258872287113635,0.7373990317407304,-0.4473102846222068,0.4691852542224628,-0.1614384725709891
3.6699999999999644,-0.7488688321680624,-0.24101895964730657,5.9564734338768295,0.6003703680063035,0.7851121689112065,-0.14959203024252643,0.055078645456055564,0.10283559800821093,0.08099319138514491,0.7548495192211528,-0.5043225549445979,0.41151977878430523,-0.023843902749363655
3.679999999999964,-0.28296640733336975,-0.24558678926773075,5.9329752507444695,0.6452893835897479,0.7482585773283511,-0.14770027167372587,0.15772573949897184,0.20526722825794985,0.024825727342558952,0.7570600662577783,-0.505211233884428,0.41319947835494647,0.019756111591874233
3.689999999999964,0.3524671684792837,-0.25629075896316217,5.877842228534104,0.6882182203555477,0.709130309412315,-0.14895165925772824,0.23531434134262075,0.31119727040487966,-0.02634843356631283,0.7566204760834341,-0.4929117387282504,0.4270884340668757,0.04277682941845204
3.6999999999999638,1.094783598122374,-0.25023772682184575,5.745951495687982,0.7281444805692098,0.6669510168194406,-0.15546319601739625,0.22934057808389155,0.39480973487909776,-0.06213287731821583,0.7573197621727321,-0.4776336252960423,0.440495362479692,0.0639637216567191
3.7099999999999635,1.4614816980257423,-0.20570480106065642,5.569630341544772,0.7637351347715226,0.6223831973527273,-0.16573251897291608,0.24603193938701023,0.5086048030687815,-0.08452780448339448,0.7588346989227267,-0.4597214204289272,0.45332979466409956,0.08275076997747566
3.7199999999999633,1.5382815292477776,-0.1440539922524977,5.343468247476521,0.7965887848768465,0.5773404216757941,-0.17612373339019952,0.2635130558984099,0.59379635173677,-0.09491953627742551,0.760163178858142,-0.4414450027129975,0.4657184806460383,0.10053857502252349
3.729999999999963,1.167563978008629,-0.06368870543647132,5.030835975230939,0.8255906642212116,0.5324031862837266,-0.18500029739055346,0.27197621956885093,0.6030245612641271,-0.08575877132133632,0.7607037247003408,-0.42362911186656205,0.4774166759624779,0.11730659777533488
3.739999999999963,0.6459962174760381,0.01089620552213525,4.547586619631342,0.849474651603641,0.49129610426997355,-0.18925529583315548,0.3263888479755781,0.5743455427881797,-0.03492899396334861,0.7594166872311905,-0.4091696026654199,0.48763980485708597,0.13331044805995312
3.7499999999999627,0.21143536886251735,0.06513034366027444,4.033697483724381,0.870358476250563,0.4531343775667017,-0.1913732282298888,0.385969915613445,0.5633325846242814,0.008247243547827757,0.7573218432622862,-0.39668893025411717,0.49688346700918723,0.14857448039562754
3.7599999999999625,0.04723876126738025,0.07705729218595408,3.5386400080849327,0.887179537329531,0.41956990858197885,-0.19109466209166817,0.4336231919152096,0.6109247216903577,0.013165562004739884,0.7543622311461927,-0.3868977778571591,0.5047009646723575,0.1625829021372388
3.7699999999999623,0.1585987938569589,0.0786198174240477,3.132384853409715,0.9004803941812978,0.3900619837949838,-0.19089751346604336,0.5133055720019561,0.6481453935669219,0.005798121083049319,0.7516275834904328,-0.37818572276247303,0.5113354802338796,0.1744375253612992
3.779999999999962,0.3509685574726989,0.08770651552431291,2.7640775089352,0.912004738321017,0.36265555519587256,-0.1909756804691011,0.56859968542018,0.6689681963140096,-0.004496996618162656,0.7491854443710478,-0.36974633350510727,0.5174578859902058,0.18488359913656183
3.789999999999962,0.5779075853281486,0.11974246880182154,2.4340734817687113,0.9213862345694332,0.337843050310999,-0.19164070931777297,0.5503671300041364,0.6578686675711558,-0.014763975457901908,0.7472908091948279,-0.36134007146050434,0.5230549226746322,0.19328084555141828
3.7999999999999616,0.7259009035566195,0.15003684592383476,2.135225562554359,0.9289342303163194,0.3158000349467868,-0.19252609626151432,0.4839370327040207,0.6110769291061414,-0.031788151839411805,0.7459260061254385,-0.3530449817363309,0.5282453687068515,0.19959391810979807
3.8099999999999614,0.7979925120358365,0.17651477931979084,1.8508455483845343,0.935499490541584,0.2955266611803274,-0.19334434489021723,0.4152279875602572,0.5647915730378567,-0.048000815612350235,0.7447822532385244,-0.34504680687862654,0.5331453965003942,0.20485497928730353
3.819999999999961,0.7370462098890663,0.19498760090741207,1.5823112406297726,0.9408214191474507,0.277806472703369,-0.19387353431558768,0.3695893719872786,0.5407841538590106,-0.058301894628666334,0.7438488229157972,-0.3376857835804335,0.5375981203535913,0.2088567744692696
3.829999999999961,0.5958776224503175,0.19437724141223953,1.3478445864294022,0.9450487685213077,0.26308432421794264,-0.19378149605625103,0.2950600264572211,0.49173687368326396,-0.07504084106259797,0.7428997436204661,-0.3316356206571944,0.5413883381188156,0.21209677965541876
3.839999999999961,0.42404117952387876,0.18653978606312377,1.1393097462091495,0.9487014066867967,0.25008444451752737,-0.1933389424987345,0.22780532137061787,0.4468225814393773,-0.09113072469082258,0.7419047623084295,-0.3264428330428442,0.5447545286134959,0.21504393799115024
3.8499999999999606,0.22821853167953315,0.17316301096352477,0.9725018090517202,0.9516449317959117,0.23938879539488728,-0.19243446244392326,0.1966745864944507,0.42791003909391445,-0.10154592433302714,0.7408075598303319,-0.3225124766735889,0.5475053849049406,0.21775935242968428
3.8599999999999604,0.028135008704816916,0.16309821350980816,0.8352764166863427,0.9540305453492826,0.2307877488570758,-0.1911085605234194,0.14998733503684786,0.40794947376309587,-0.10438526739591773,0.7395514797594109,-0.31989909760407653,0.5496409987639332,0.2204831968435741
3.86999999999996,-0.1779879381868481,0.1613088263532692,0.717299340031986,0.9561386941531401,0.2233674453289314,-0.18944968508942933,0.1072822264575465,0.39497302579506677,-0.10342695020565104,0.7381509498686832,-0.3181054999805093,0.5514374602637523,0.2232802798372044
3.87999999999996,-0.396442887021279,0.17814146085352503,0.6277036084224593,0.9579274621650041,0.2174970714317711,-0.18723819900852973,0.08524343408475114,0.400335880284685,-0.09805612607533631,0.7364943463354784,-0.31748171066181513,0.5527980053347432,0.22625642243930902
3.8899999999999597,-0.5868554564481516,0.2200847301829601,0.5800596005878232,0.9595914666096914,0.21273659092236905,-0.18414270096481974,0.0676952419776339,0.4095800587716083,-0.07009496885826991,0.7344121584486052,-0.31798265428691563,0.5539085626680059,0.22956680480180364
3.8999999999999595,-0.7295226497712464,0.26056256251409055,0.5432895000467484,0.9612092981675301,0.2084824897630358,-0.18055510717319911,0.05988754864581181,0.421024035681412,-0.04341767340647155,0.7320954012135619,-0.3190327599362509,0.5549227939272611,0.23303876719770475
3.9099999999999593,-0.7682635145702706,0.27881234682184475,0.5041174093545043,0.9627982046078467,0.20473502533639662,-0.17633253497973603,0.07418366237906344,0.43535817310274727,-0.036647514111404794,0.7294790439766379,-0.32069016810195,0.5558691350718792,0.23668699036088583
3.919999999999959,-0.6766718188431274,0.2635008398475223,0.4157862390283738,0.9641788668051006,0.20165157322569435,-0.17228201966723966,0.08762033939557526,0.47045962176466866,-0.0534061788621063,0.7270501860393094,-0.3223493804912382,0.556729663795837,0.23985561677853814
3.929999999999959,-0.5363842822937935,0.23951451509873314,0.30669337459422263,0.9653757357173712,0.19910563491705388,-0.1685307010764932,0.08958335073541618,0.5057578916268083,-0.07836327108619057,0.7248690132423303,-0.32389034719685594,0.5575204456172081,0.2425456974721592
3.9399999999999586,-0.36747498384675714,0.21856951626158763,0.18035390201537316,0.9662413338569066,0.1974852404336376,-0.16545003844773565,0.0613117045886059,0.5252429890806843,-0.10689093698413368,0.7232075670460576,-0.32511133024921685,0.5581908559663801,0.24432396820909869
3.9499999999999584,-0.22845519412151477,0.1990708925302161,0.059330304586026034,0.966785685817373,0.1969564247025071,-0.16288154980158343,-0.003521181200324304,0.5345457211452123,-0.1330052233057204,0.7220470148711343,-0.32608693647030046,0.5587717820342863,0.2451290816585813
3.959999999999958,-0.10053505757818043,0.16837474343138106,-0.05632009963625419,0.9671156640726524,0.19711797194053518,-0.1607197475890791,-0.05985195920759935,0.5361165955557934,-0.15148302929991228,0.7212179783760652,-0.3269199480070065,0.5592524608837123,0.24536599073342844
3.969999999999958,0.021696305462001242,0.10525784477660312,-0.16148787048663638,0.9671195893543211,0.19828136198824123,-0.15925862096187143,-0.06162202334432281,0.5247420808633452,-0.15072124711101662,0.7208896950704156,-0.32756284089606985,0.55952938110361,0.24484143303250927
3.979999999999958,0.16656750609788368,0.04658377131154477,-0.24254461075170602,0.9667824600258853,0.20026269034209718,-0.15881961744464757,-0.013233560632293931,0.5081169360293634,-0.1362725069194044,0.7211494332230081,-0.32787716081207086,0.5595415359287922,0.2436228029307914
3.9899999999999576,0.3327523294950009,-0.007004486884372052,-0.3052602570732203,0.966267341431982,0.20256643961029522,-0.15903372727197876,0.04713117467334234,0.4916761178831418,-0.1168466994671851,0.7217842413394411,-0.3278628965179328,0.5594541162555182,0.24195495637318282
3.9999999999999574,0.5398674377851951,-0.049956377873947286,-0.3369495317763262,0.965548182251105,0.20505839873027085,-0.16020442270501267,0.09656129514380501,0.48052601828407565,-0.09547711913133966,0.722967457938656,-0.32719908261558495,0.5593195915511703,0.23962104864672729
4.009999999999957,0.7652010606911143,-0.08369665606495907,-0.382138860476948,0.9646740695540319,0.20750181562665132,-0.16229637754733736,0.17310045516437408,0.4521922375928433,-0.0600956941500215,0.7247114831868099,-0.32567660307318314,0.5592716013313458,0.23650166551345372
4.019999999999957,0.9885518984671089,-0.11347207406576,-0.44476137429893775,0.9636646557784373,0.2100546110480463,-0.16498617811724883,0.24044897003019614,0.42311743259926027,-0.026820842773394468,0.7268327266541089,-0.32363310886798835,0.5592549688057854,0.23280521375763705
4.029999999999957,1.188258009838177,-0.14037205484504764,-0.5462980859690391,0.9624020426523613,0.21298119395667034,-0.16856460626493486,0.2539833231307333,0.40854835448161975,-0.013467600748935472,0.7295345776149084,-0.32086947589531956,0.5592477677491233,0.22815006128333887
4.0399999999999565,1.3397691111226047,-0.16012493943323586,-0.6694961258393171,0.9607956948980224,0.21677459636695293,-0.17279499589599245,0.23461595330411808,0.3748320043592115,-0.0048656662996805124,0.7327078280486395,-0.3177366648480122,0.5591421198958633,0.2225091544400534
4.049999999999956,1.4478654340567945,-0.1768431796271413,-0.8018815361687507,0.9589334138457198,0.22126015197269905,-0.1774009597354499,0.20414328140031335,0.33645227969118596,0.001038127169092643,0.7361425787840349,-0.31449722961950116,0.5589166507328036,0.2162755057982845
4.059999999999956,1.47199481451254,-0.19163719948034405,-0.940067945019749,0.9566383928474452,0.22698157711163042,-0.18248790670687717,0.17367338157032886,0.3036399382884243,0.0035570874690318455,0.7398939930092925,-0.3113134533894184,0.5584233472427143,0.20923766138091815
4.069999999999956,1.4758353515989167,-0.20050619915850756,-1.0685561405177384,0.953908923873515,0.23398095358300688,-0.18777266130811165,0.1151625150380847,0.2478734059655339,0.011523767904989365,0.7437638234823735,-0.3084852799617364,0.557625239334774,0.20164036390762807
4.079999999999956,1.4722342015079621,-0.20878086402035115,-1.193839959651338,0.9508759232113035,0.2418114720693379,-0.19319498523625384,0.05649162463459931,0.19030061671777762,0.020034584021911557,0.7477009873338707,-0.3058996320428387,0.5566200918771862,0.19368626706341743
4.0899999999999554,1.4675081649249482,-0.22179061849578371,-1.3197175400068821,0.9473564347198137,0.2508751045513156,-0.19883678706273988,0.028737727583389404,0.15266364159117804,0.02418430852768903,0.7517213649202743,-0.3036931960457913,0.555292600086176,0.18521496348389654
4.099999999999955,1.4848394190797787,-0.23867107428165552,-1.448032283563227,0.9432732877955159,0.26112211049101614,-0.20482900248670963,-0.004996767560965152,0.10642678747323017,0.03248621994881373,0.7558547312145675,-0.3017954775842931,0.553625668876425,0.17618211544854642
4.109999999999955,1.5076274199927768,-0.2560057763125297,-1.5737896631893173,0.9387925557886312,0.27211691186018244,-0.21108568955257712,-0.03433620656355652,0.06234071134460398,0.04176822034557626,0.7600640534168885,-0.30007539278229284,0.5517334392713631,0.16676454613919534
4.119999999999955,1.5220331283602824,-0.2701949236670188,-1.6881063618878795,0.9336671727507997,0.2841759544647994,-0.2178007065513877,-0.04185771707495724,0.03575697472618666,0.04931552231412952,0.7643901485612189,-0.2985748870330938,0.5495000085886927,0.15674258119280768
4.129999999999955,1.5020421454499595,-0.27824955730664547,-1.7854103708393216,0.9279389702248331,0.2970882390705071,-0.22476880291320775,-0.06244326533414721,-0.0025618713480645983,0.0612897953642242,0.7687033163864395,-0.2973699278893433,0.5469754425923122,0.1463077181081478
4.139999999999954,1.4602233573063932,-0.28241334503016957,-1.8721129239740582,0.92180709865122,0.310539590641724,-0.23184329860912967,-0.08433909571923821,-0.04194393765415003,0.07505463265535303,0.772968098355765,-0.29640728827536106,0.5442595060275918,0.13565886668593713
4.149999999999954,1.3874480724957554,-0.2810632683084152,-1.9441765945295477,0.9150597283410548,0.32475058441111004,-0.23895834091013246,-0.09388256924433287,-0.06983719040912861,0.08928480646685677,0.7770824518140742,-0.29589981265450355,0.541258689598401,0.12480432384184999
4.159999999999954,1.32029177423353,-0.27325645455300496,-2.0023650533048,0.9077701798939635,0.33952170115046576,-0.2459526966547578,-0.11173424230462085,-0.10044289530639994,0.10710579578431074,0.7809838762572741,-0.29583718703505535,0.5380500960126928,0.11386131573651684
4.169999999999954,1.2572721559443498,-0.26590429139339045,-2.0490855360436537,0.9001231995047463,0.3545899121464401,-0.25287615563195476,-0.1285694171827613,-0.12884475906052995,0.12408567926911475,0.7847396682711283,-0.2960430235732921,0.5347119878098051,0.10288055972055259
4.1799999999999535,1.2013035074465845,-0.26914356070419015,-2.0738969639263165,0.8919456086602479,0.3699472594807372,-0.2597126085729818,-0.13022735307141325,-0.14557238654099025,0.13306382932747826,0.7882681993135929,-0.29659518131443446,0.531197322349388,0.09188706963317453
4.189999999999953,1.1427454712332694,-0.27809668135163446,-2.0816711896423157,0.8833260170677183,0.3853278118543066,-0.2665599415324221,-0.12257972821156927,-0.15543252656575549,0.14086331072442634,0.791610970835205,-0.2973807666186488,0.5275190770380632,0.08099173155406911
4.199999999999953,1.0823687514704794,-0.29119220566795234,-2.0759473262484174,0.8744281188101182,0.4006444567612186,-0.27342517269977507,-0.11024736366012841,-0.1632510093722103,0.14865170771413078,0.7948274781286612,-0.2983080239693518,0.5237319408279538,0.07020913615081535
4.209999999999953,1.0190637883963942,-0.31123163261848835,-2.045239117337885,0.8651503309950608,0.41568797339234265,-0.28034099036691584,-0.09430102708266783,-0.1736864192848585,0.1581557902896773,0.7978496154928217,-0.2994161018701272,0.5197822175124504,0.05970103893602679
4.219999999999953,0.9511047976519095,-0.32424574102494363,-1.992562337617716,0.8556880403698807,0.4302422828860582,-0.28722095132542647,-0.08021088918967641,-0.1784727200974531,0.17019680140315233,0.8006818962791846,-0.30063991313462923,0.5157469600675223,0.049588199531140006
4.2299999999999525,0.8794469996125074,-0.33569665398836224,-1.9265869252346002,0.8461470829125677,0.44439279371293877,-0.2940520119108982,-0.06715395763605374,-0.18150830639305213,0.1827118800713207,0.8033794364211014,-0.30193199465396897,0.511669900335692,0.03979212671032107
4.239999999999952,0.8008771812300439,-0.3523319257840897,-1.8441494984419,0.8365961554382882,0.45775847792584184,-0.3007505548890368,-0.05513660560360646,-0.18679454406834345,0.1930035437458343,0.8058577434099439,-0.30330385125062903,0.507567500609828,0.030593311017983182
4.249999999999952,0.7176366642403539,-0.36583951967152584,-1.7441282318091766,0.827154633741428,0.470374551160074,-0.3072542421269582,-0.03712026002017196,-0.186853050745178,0.20711562559261157,0.80814653353039,-0.30475797391935694,0.5034727389127016,0.022016186826747632
4.259999999999952,0.6307703226003399,-0.37772286429566526,-1.635592894535324,0.8178497560606462,0.482418109561334,-0.31358157588510194,-0.016619871470099627,-0.18597274910370637,0.22147999865511783,0.8102978902321635,-0.30626263597916753,0.4994073763717327,0.013913026739872679
4.269999999999952,0.5372759417005202,-0.38842141773024735,-1.5228962339587881,0.8089094710931267,0.4934359787122681,-0.3195308358703842,0.003597351238487881,-0.19030162109670284,0.23028151103839048,0.8122195230289168,-0.30783010650269743,0.4954478600627619,0.006657074017041062
4.279999999999951,0.4451569526329659,-0.4022538970404644,-1.4157322152305827,0.8003030994661952,0.5036710619896935,-0.3251440061967959,0.03364307524741539,-0.1889463078632223,0.2417018505725803,0.8139710271031697,-0.3094808398128928,0.4915686219770854,0.00012423620502237734
4.289999999999951,0.35448692182088803,-0.41358174371324935,-1.3099328069076606,0.7919548689888685,0.5133616054807846,-0.33049407029362504,0.06388456125830078,-0.1868372640046109,0.25346507174762345,0.8156010979430921,-0.31119312181771697,0.4877577177209815,-0.005895344259723587
4.299999999999951,0.26738348430503117,-0.408523621790036,-1.199634295184156,0.7840772251728922,0.5222048685872601,-0.3353566219963249,0.07672562462106935,-0.19208738771045727,0.26181928044255814,0.8170340015233124,-0.31301084134740104,0.4840864315006954,-0.011089053905738262
4.309999999999951,0.1843113517065697,-0.37580477676219676,-1.0773752677157302,0.776822983469387,0.5302810721304941,-0.33952756027907904,0.07344245200996886,-0.19624200764539895,0.27338685307347793,0.8182355174410101,-0.31487450340913337,0.4807102918493137,-0.015613469633785763
4.3199999999999505,0.1068975459859567,-0.32607710637536075,-0.9477894405514646,0.7700822033734671,0.5377729183172215,-0.3431531883697652,0.06337785654715658,-0.2003073736316405,0.28490177487810026,0.8192602943475511,-0.31674714724901815,0.47759001506080817,-0.019660896322581438
4.32999999999995,0.04637213404781855,-0.2566174214242967,-0.8097941224562499,0.764359632130207,0.5442209412000206,-0.3457564404738722,0.05562111050111213,-0.20616677242083978,0.28976850984408725,0.8199681493320324,-0.3185676424280844,0.47500807188991906,-0.022942490689662153
4.33999999999995,0.0111045314120774,-0.17956736825153335,-0.6647241065183354,0.7596724568495765,0.5496468997775802,-0.3475076849161422,0.05086925642210362,-0.21150215539801928,0.28993653113892387,0.8204225847305914,-0.32019851178485326,0.4729862562896186,-0.02564019996101366
4.34999999999995,-0.00929500769137764,-0.10282555931178253,-0.5147220999362638,0.755756535637898,0.5542937526690949,-0.34869261455563555,0.049533876115715525,-0.21644129816765373,0.28630252673644757,0.8207108242047428,-0.3216555114254864,0.4713713433972414,-0.027920775766168315
4.35999999999995,-0.015547833996963568,-0.043841229065216286,-0.35722126382520347,0.7531659314582055,0.5575504147868435,-0.34910184826047796,0.057473640403445034,-0.22068247630777718,0.27526249449351853,0.8207786992807046,-0.32271948024181374,0.4704258016001783,-0.029535972801913425
4.3699999999999495,-0.027468673109254833,0.01521677156958804,-0.19810156038656979,0.7516734076906249,0.5596102968331865,-0.3490295614896879,0.07122211750504381,-0.22200719533262722,0.2556893953282713,0.8207199734607779,-0.3234332430202746,0.4699744309422352,-0.03054878183070167
4.379999999999949,-0.04418906165096663,0.07449766180055883,-0.0410857243126929,0.7509842953338617,0.5608158827768922,-0.34857939647392466,0.08561794306145135,-0.22155022439362443,0.23463816290039627,0.8205613899487525,-0.3239051507370258,0.4698890204294591,-0.03112205075932798
4.389999999999949,-0.07089066132121148,0.13468203412497814,0.10203059032529177,0.7516194479424099,0.5606809936343564,-0.347425245796234,0.08965204830219814,-0.2192736033512608,0.22626710607243344,0.82021527445646,-0.3240240059772807,0.47042077950147027,-0.030974623792716798
4.399999999999949,-0.08302494176385425,0.19494361467957702,0.23284859270107153,0.7532059785854065,0.5596118916987258,-0.34570143280830884,0.09019009261642527,-0.21193713172781592,0.2121558604058375,0.8197132044027445,-0.3238988680340798,0.47142118054122956,-0.030338680225429723
4.409999999999949,-0.0845138915925745,0.2569335416716556,0.35849362283653285,0.7554891134508148,0.5578355693509087,-0.3435837327596822,0.08786429100374837,-0.20201556092527687,0.1962910954331249,0.819102721743969,-0.3235691015326951,0.47276868387282084,-0.029363110332315548
4.419999999999948,-0.06870885790421387,0.3274632053443908,0.4888113732714582,0.7589086126393175,0.5548262356108965,-0.340902947689454,0.07982651521397259,-0.19170829550074084,0.1859469963979899,0.81833515725735,-0.32281664848190056,0.47469596193312347,-0.02789533343350223
4.429999999999948,-0.05542588512337353,0.40624508504754875,0.641985790577928,0.7633774162227186,0.5506219526828524,-0.33769348735166355,0.07316458646630891,-0.17638321215705174,0.1755914163445974,0.8174158501367861,-0.3216426799842057,0.4771728600421799,-0.02598150622557877
4.439999999999948,-0.038292671298804704,0.4842378515159459,0.8021930366606198,0.7686269799598182,0.5454916639252155,-0.33410875012644575,0.07053009144265839,-0.15924838667373686,0.16596198255048905,0.8163879127323879,-0.32013717215293397,0.4800564243523346,-0.023729114074222284
4.449999999999948,0.006097847397173117,0.5356841959914195,0.9377720064626685,0.775174798534628,0.538687318482186,-0.3299659006776956,0.08553084698763481,-0.14611040474896148,0.16021546351303959,0.8151949209413917,-0.31801519015004126,0.4836078508621398,-0.02088946164080175
4.459999999999948,0.05563500412116888,0.5448895984184539,1.0366125499079972,0.7822482528639674,0.5308111646724684,-0.32595863374086037,0.13766658541598853,-0.13319754787839747,0.14966911766045154,0.8140369779101978,-0.3153887320916339,0.487378282359578,-0.01779446365458506
4.469999999999947,0.09269988846063452,0.5289111019595842,1.1223712844664162,0.7896544217501507,0.5221893082699371,-0.3220720275945114,0.20061684227543644,-0.12179338004404179,0.13694043594413288,0.812910413997109,-0.3124390997754498,0.49126417149289325,-0.01447691169432871
4.479999999999947,0.04508028185712289,0.4963959321336617,1.2429614882321451,0.7973742216638735,0.5125526228253577,-0.318460689160691,0.21492298728406364,-0.11814532634936059,0.1261224389638247,0.8118560553116586,-0.30916696491054996,0.49515148791887553,-0.01066710217854746
4.489999999999947,-0.10990645625953746,0.5098164737788815,1.41342946808648,0.8057620922685219,0.501923193696415,-0.31416074201920896,0.20843228767627522,-0.15272185263737795,0.12277401707349161,0.8105733259530327,-0.306007084444876,0.4992634945782984,-0.005869676084962664
4.499999999999947,-0.3199964881560241,0.5558350943454777,1.6054685691872863,0.8147132263463998,0.4905340957231082,-0.30912225254874126,0.19044107922004003,-0.20461746496387131,0.12375436043124577,0.8090427427550806,-0.30299187724503035,0.5036154454680692,-0.0002772856056940916
4.5099999999999465,-0.5122245201941805,0.6472396220074341,1.7655409384697618,0.824848495858365,0.4778398814911527,-0.3019348613446803,0.17104883744260196,-0.23664448762311632,0.1264024155277932,0.8067823166718703,-0.30046966526516145,0.508662467155962,0.006843974179218143
4.519999999999946,-0.6156421254435441,0.7025118766441829,1.878733798655334,0.835454354141088,0.4643166920507745,-0.29361218727282146,0.18389700222011268,-0.2557144216720826,0.12229731592039038,0.8040828165520522,-0.29812375810741476,0.5140969618721655,0.014658478454712666
4.529999999999946,-0.6496435644702061,0.7312799152986859,1.9573959034223776,0.8463073790312876,0.4501623709016468,-0.2846699427686478,0.21707743595801487,-0.25957549863944346,0.11314345297844931,0.8011214643130089,-0.2958192090703129,0.5197580900390302,0.022892039837289387
4.539999999999946,-0.5601180663814653,0.7205705727534981,1.9839507559877023,0.8570664410034842,0.43495932786336944,-0.2758099131215961,0.26490470968529733,-0.2138917507354322,0.09602125591709486,0.7980539928742026,-0.29316156807126686,0.5254852895606342,0.03132804278516717
4.549999999999946,-0.4175029025937163,0.6943204556305217,1.9760669960224049,0.8674149523504885,0.4191907815076456,-0.26765321832679284,0.34384709043852707,-0.14707178476661648,0.06052189855594859,0.7951302283697116,-0.2899664590997057,0.5311017524000017,0.039440507201420894
4.559999999999945,-0.23612545115705286,0.6509330806290297,1.946790359720317,0.8773917521976898,0.40301474626122824,-0.26017590871539875,0.4311886466956522,-0.0744718735242976,0.017143814260424918,0.7923672502575498,-0.2863121309356452,0.5365900256659251,0.04724730997355041
4.569999999999945,-0.00018853598436607832,0.5535648828646138,1.9067487596644899,0.8864742988887172,0.3862930067032701,-0.2545101412950779,0.4565152777096602,-0.043509390494201404,-0.008761478605237474,0.7901186444353011,-0.28166697853115447,0.5416537646157215,0.054265821234999734
4.579999999999945,0.21933128866447113,0.4667617286993581,1.8445328401545662,0.8948131134293744,0.36927831008876383,-0.25048160821600385,0.46883554800803884,-0.028832000866711244,-0.038142770470541446,0.7883817145256324,-0.2762154768212704,0.5462914095849168,0.060616703051716965
4.589999999999945,0.4138199544565115,0.39407259926821486,1.759547941423353,0.9025564935588929,0.3521977646420757,-0.24757627054577555,0.4681249240615528,-0.02440884457585276,-0.06592711087857508,0.7870023126870183,-0.27023037125822696,0.550615771797079,0.06641828467251405
4.599999999999945,0.5014966947284385,0.37623710288341256,1.6071462409333137,0.9092098568822654,0.33586215746304143,-0.24576470317755383,0.4301281802003095,-0.024475731875186115,-0.06831721175493104,0.786010001745737,-0.2638428590811579,0.5545095128056542,0.07113840396092926
4.609999999999944,0.4964255141262608,0.35441717215111973,1.4621933830292868,0.9151296060791334,0.3207127570818291,-0.2440266208624362,0.35769427535368015,-0.04570818861805459,-0.055998573352380565,0.7850719377436689,-0.2577809942019483,0.5581310292646599,0.07527975926550443
4.619999999999944,0.420852245236162,0.33377343671903886,1.3285360680039862,0.9204995722648932,0.306515749870186,-0.24227852185051194,0.26795420501156586,-0.0784951258781949,-0.035784215120359474,0.7841473687094153,-0.2520592440468089,0.5615352073542702,0.07905596942275002
4.629999999999944,0.24011733057024762,0.3397372502698235,1.2450227350140661,0.9250960024512684,0.29403900857056287,-0.24012612463825098,0.2048324980711612,-0.10171612037330988,-0.023208847764368996,0.7830789691380649,-0.24739197034580335,0.5645536878124379,0.08272963084711603
4.639999999999944,0.05162345440502421,0.36562925779309063,1.1815571257473696,0.9294358107213858,0.2824861371053159,-0.23721097705281918,0.09375840483166786,-0.13795408729730743,-0.006827741961637088,0.7817201154472774,-0.24359337144638163,0.5674913487948482,0.08665343082822652
4.6499999999999435,-0.1342836980601052,0.40245975403136675,1.1324760359980144,0.9335858459313684,0.2716345683071095,-0.23369050160736582,-0.03776991938428694,-0.17816085026262948,0.009261035425536981,0.7801291143202513,-0.2404659701328977,0.5703760930857247,0.09077499019377437
4.659999999999943,-0.261521772737197,0.4274442511512401,1.0981717703666718,0.9375021668560537,0.26176730230147643,-0.2291494661577111,-0.09446744114382626,-0.18554900352465722,0.0042835106367886495,0.7781365386309846,-0.2383571912871957,0.5732413215530442,0.09522528422581521
4.669999999999943,-0.33708317377704866,0.43063625213634593,1.0740060442674986,0.941268391490107,0.2522349031730484,-0.2243281080741968,-0.14691575261349923,-0.17741369849107652,-0.012337851632148324,0.7760090766064257,-0.23661063363897475,0.5760606448126694,0.09979731360247089
4.679999999999943,-0.3744597778429248,0.418324513008897,1.0580636023259393,0.9449085371516093,0.24292643618134774,-0.21935620856927432,-0.19319634480258702,-0.15760260772541523,-0.03659235213962848,0.7737981487906069,-0.23510750092612187,0.5788307727075331,0.10445397180125732
4.689999999999943,-0.36940181736141636,0.3931807961107761,1.0566303030545103,0.9482972293267261,0.23369429389288032,-0.21463238721943853,-0.21039930619633157,-0.12330997108850128,-0.06220503345773439,0.7716133966679437,-0.23369707224585057,0.5814341167853257,0.10916560505112857
4.6999999999999424,-0.3485384033208293,0.36893066813504793,1.0557306812187155,0.9515302536513383,0.22439911441129867,-0.21017297482747996,-0.23669435298975405,-0.07033043068930307,-0.08980490923825005,0.7694897327030011,-0.23220115784576692,0.5839448352897378,0.11383342058909775
4.709999999999942,-0.3167777669180186,0.3463775735085105,1.0536365056087238,0.9546345919232546,0.21505602197128848,-0.20593283583710642,-0.26676187951821395,-0.008122881084115767,-0.11702813952029026,0.7674183269893731,-0.23063090721217555,0.586380255770856,0.11845795174303157
4.719999999999942,-0.2807614837394774,0.3338706150546437,1.0375120829026745,0.9575032591354956,0.20565557702673443,-0.20209929275892446,-0.2766341611615347,0.02595275671468026,-0.1289412504368551,0.7654553563292168,-0.22889796596505113,0.5886869933109525,0.12295208810044654
4.729999999999942,-0.21656250699671065,0.3259577033595528,1.0283508634548157,0.9602399481412351,0.19623492181161414,-0.1984252814393981,-0.27292646431126993,0.07603741003920392,-0.13333864557128797,0.7635496491507862,-0.22699835968528612,0.5909772448858107,0.12725354591785779
4.739999999999942,-0.12719397907404356,0.31990161670845485,1.0247530951482013,0.9628687560232935,0.18676236745789393,-0.1949080652502436,-0.2596327556929539,0.13395038012016855,-0.1330378160441377,0.7617035430205374,-0.2249195407635997,0.5932583778614353,0.131376671810276
4.749999999999941,0.021540764991592437,0.301539645513814,1.029409593063379,0.9653172990331511,0.17691593847683834,-0.19186705222619618,-0.24261352621688023,0.16226989568198336,-0.13661677225462848,0.7600608618167736,-0.22219243424960294,0.5955596400514503,0.13503271834761102
4.759999999999941,0.1725650073497248,0.27216773096180713,1.0396697629702405,0.9676355393243489,0.16670789862527385,-0.18927630367001605,-0.21406743152444754,0.201605753566562,-0.1424495207137661,0.7586131973579712,-0.21890355205295867,0.5978569673104637,0.13834075450590175
4.769999999999941,0.3215441900579572,0.23627936832424137,1.0533860722470423,0.9698422731270868,0.156196605420691,-0.18706395890236413,-0.18000030095921393,0.24643813645807502,-0.14937797122183483,0.7573288276378422,-0.21514864809555995,0.6001466049113038,0.14136514803709824
4.779999999999941,0.4318774940507977,0.21264425616427463,1.0623468955570297,0.9718289810924744,0.14514047468581517,-0.18553856074399533,-0.17257771227163804,0.26814186135213136,-0.15126873776987065,0.756335636819211,-0.21060139343692902,0.6023837096643002,0.14395230590597136
4.7899999999999405,0.5242623575475308,0.185882412183763,1.061270067352084,0.9736722167923343,0.1339153354013978,-0.18427657826592136,-0.166177060194665,0.2899022045291011,-0.1518313402634468,0.7554672461649601,-0.20571545560968346,0.6045876302462473,0.14630337610468871
4.79999999999994,0.60391275990622,0.15567133893687513,1.0507483574515215,0.9753866433802938,0.12257791028194302,-0.18325102529627327,-0.1605230525467374,0.31130142175198006,-0.1516308723908243,0.7547100117184203,-0.20055690001585244,0.6067516332919914,0.14845162640538084
4.80999999999994,0.6848906796593521,0.11143898000809607,1.0140673942160476,0.9767988495614763,0.11134129499751529,-0.18277960265900386,-0.15504332938196935,0.3280494940021266,-0.15360450368081557,0.7542053694219284,-0.1950491190243591,0.6087284904707067,0.15020839435311426
4.81999999999994,0.7692419275997793,0.07173774318034673,0.9703875323204754,0.9780107755618663,0.10032405737106331,-0.1826648302769518,-0.148579584255891,0.3469878422723685,-0.15511041096769929,0.753884222832259,-0.1893403523410971,0.6105717555354262,0.1516253741695015
4.82999999999994,0.8536222532351562,0.03522664081221617,0.9216298538595669,0.9790524505102945,0.08950497434120548,-0.18284899377932445,-0.1419025799822195,0.3665904066493122,-0.15619275313099618,0.7537185384272411,-0.18346619111193785,0.6123002065059158,0.15275060544902666
4.8399999999999395,0.906815577402139,-0.003102129650220928,0.8737690770096189,0.9798025636200086,0.07915365924888092,-0.1834984389263785,-0.1417188084158828,0.3741504556639442,-0.1562639323984107,0.753813356002418,-0.17736882983025332,0.613818253527011,0.15334421737441742
4.849999999999939,0.9255721736767849,-0.040987074760460304,0.826015625695315,0.9803876663483666,0.06914869133801882,-0.1844108010410372,-0.12360966460200395,0.37369226175649833,-0.14822693424919794,0.7540339699039544,-0.17128698217452556,0.6151706872996718,0.15374703506716822
4.859999999999939,0.9136529379432654,-0.07826276076020487,0.7776627385162158,0.9808312837311071,0.05946261979698694,-0.18554442171518357,-0.09254738611232619,0.36713982816071833,-0.13430253369331752,0.7543578744342094,-0.1652458253026679,0.6163752992749159,0.15400183356974914
4.869999999999939,0.8361930875217078,-0.11168056947779287,0.7197233926081745,0.981038382166171,0.050581861818142254,-0.18699608340990168,-0.06983420327353633,0.3600940999063476,-0.12375580897152355,0.754797696368278,-0.15961272013508293,0.6172605509901551,0.15420254079244072
4.879999999999939,0.7346052671059703,-0.1341331727155983,0.6478261729194352,0.9811259914690164,0.042443700402880896,-0.18856994433822793,-0.04449291453089711,0.34309873350472836,-0.10777754414363921,0.755266185544156,-0.15447383797116318,0.6179326446315188,0.15445971510710382
4.889999999999938,0.613478949093226,-0.14628235052623267,0.5646266217250031,0.9811147747226662,0.03497958082152937,-0.1902289459356145,-0.018831492315379245,0.3195178441914695,-0.0883174951748858,0.7557525004933858,-0.1497861416692638,0.6184242081478653,0.15476645491565882
4.899999999999938,0.4795354074612357,-0.13021466920685668,0.4740212327481168,0.9810076043788024,0.029053122509103954,-0.191735624975414,-0.020206230507308753,0.31379204158194013,-0.0803858588636605,0.7561693077971707,-0.14616251280621848,0.6186780315060709,0.15516356358169212
4.909999999999938,0.374037483646992,-0.11839816147379777,0.38044287605166904,0.9808843927997144,0.024082685411335146,-0.1930697799621849,-0.028043531765472102,0.3100020400189544,-0.07401047595093493,0.7565322816993622,-0.14315207703481098,0.6188450845185878,0.15554358153938613
4.919999999999938,0.29597578620499876,-0.10967422430293125,0.28563510541259474,0.9807469514778278,0.01994899596743908,-0.1942601536593619,-0.04057588180000256,0.30821560504807116,-0.06923097313683639,0.7568540606615342,-0.140663342635197,0.6189373704539601,0.15589149559147475
4.9299999999999375,0.3027403152980761,-0.09568324670161976,0.2111294629193217,0.9805837945680632,0.017146460086796274,-0.19533884286904013,-0.04499051525006335,0.31463161670814,-0.07078122150011283,0.7572063344781879,-0.13876150453952704,0.6189298099279096,0.15591031682757836
4.939999999999937,0.3527301544795088,-0.0546523214729297,0.1672393292606068,0.9804735299904952,0.014647847313298226,-0.1960980251103523,-0.04941890593904248,0.3325148429648187,-0.07137841588009593,0.7575113483417563,-0.13686363826230674,0.6190455761313701,0.15564545055512774
4.949999999999937,0.44013523439761,0.008824143126789785,0.1497177769393945,0.9804160185637397,0.012383992748349353,-0.19654723109693015,-0.052472749483873767,0.3594046507590466,-0.07102213696768722,0.7577671727725376,-0.13494446585318862,0.6192866365869317,0.15512128279235027
4.959999999999937,0.5691227324437267,0.07866665236391948,0.15895076176201237,0.9805520531363613,0.009833003161460838,-0.1960051446249027,-0.02716254783773672,0.37851039127686237,-0.0671184879201686,0.7578080244779853,-0.13252266463510876,0.6200258922120827,0.15404287495137092
4.969999999999937,0.7342888191245329,0.10537630191944185,0.16846820918416097,0.9807447195633895,0.006948545384160077,-0.19515603466287007,0.06104836711225607,0.4138256108091367,-0.06628996043487273,0.757827010681531,-0.12959509002297143,0.6209835379341316,0.15256035760859707
4.9799999999999365,0.9317528184894993,0.09189949380765455,0.17668231184278257,0.9809770971281085,0.003760873078321978,-0.19408529525995757,0.19977844786101107,0.4621891176754941,-0.06839874664786018,0.7578471077449226,-0.1261900006020866,0.6221190448573531,0.15069836316990756
4.989999999999936,1.1743810451296386,-0.015758573251049873,0.14786695006551853,0.9810197987412574,2.4500977747839506e-05,-0.1938906698713372,0.28176851875662895,0.4966395659147622,-0.07895663128940035,0.7583351778503954,-0.12152953076902089,0.623116597066394,0.14788263658213438
4.999999999999936,1.4367040636925232,-0.12997889896036124,0.08062684407082614,0.9808753767886706,-0.0036252780412814522,-0.19458350370266192,0.3686038864054798,0.5440173356663855,-0.09017957990887002,0.7592571972862655,-0.1161470894144387,0.6238583590559728,0.14425595285608198
5.009999999999936,1.7155098737706673,-0.2486330445026203,-0.022225843932583735,0.9805589824162352,-0.00715928172877932,-0.19609236807996488,0.45675579315849,0.601213306792014,-0.10118092506780794,0.7605805186501383,-0.11010725587390063,0.6243619057558055,0.13986175565797204
5.019999999999936,1.9792383679850314,-0.33161414328015,-0.19571621628717603,0.9799407703780704,-0.009505326742343303,-0.19904503235498505,0.46188078364265556,0.6195256577106086,-0.08913371027322349,0.7626758579330217,-0.10308025275813983,0.6243620489776768,0.13351601693089643
5.029999999999935,2.218177541718994,-0.3539075176363601,-0.36001958882567286,0.9792900867167931,-0.010928725953226177,-0.20215307177030623,0.45508824708266804,0.6124237197443455,-0.04075319772326035,0.7649510658249943,-0.0957332820379095,0.6242824314724018,0.12604134551552212
5.039999999999935,2.4351592723087574,-0.322525308257931,-0.5156908009153193,0.9786141358593791,-0.011498485946868758,-0.20538222223830271,0.4379168872816421,0.5826776727834863,0.038753391300490866,0.7673830399817392,-0.08808806481892403,0.6241367963861202,0.11751556022711766
5.049999999999935,2.6528185533699578,-0.2956837760139875,-0.6536379458814943,0.9780660723509709,-0.010770955849923328,-0.20800702339231356,0.42751299805836557,0.5487899184103349,0.07887249850959378,0.7697172701391561,-0.07991265082312335,0.6241616401166925,0.1071620065271901
5.059999999999935,2.8644954747548907,-0.28617188408707805,-0.7741050688021485,0.9775237694809114,-0.009531472724317341,-0.21059770086007074,0.42394678748801845,0.5059945593443234,0.11756606035651407,0.7720273919158612,-0.0713629511719526,0.6241537783575452,0.09588858390275597
5.069999999999935,3.0692267825001465,-0.29272726453600323,-0.8782794759754821,0.9769856431181276,-0.007812706397160658,-0.21316104699839475,0.4264703055150493,0.4556377922275332,0.1543835623487347,0.7743131440309023,-0.062460230191983865,0.6241117632049251,0.08375008105777951
5.079999999999934,3.201188725506638,-0.3134085031170013,-0.9640312189591373,0.9763957010378393,-0.005452281384314387,-0.21590557222169954,0.42244193564091215,0.4318603786947488,0.16313697020691045,0.7764813414673825,-0.05296123369247741,0.623857209715319,0.07026881731116243
5.089999999999934,3.2795043174627176,-0.3613139640694452,-1.0474682093532452,0.9756949451344364,-0.0026815140634602313,-0.21908963298364464,0.39954738429081205,0.4011196372504689,0.1634159693339005,0.7786293335003475,-0.04339894905992033,0.6233170804069891,0.05633746085606815
5.099999999999934,3.306047930878532,-0.434721714362124,-1.1288629371985828,0.9748858213608677,0.0004880915936863082,-0.22270240209295517,0.35903177012548654,0.3640932643111564,0.15587359391118247,0.7807587899318741,-0.03378482306221073,0.6224995279430219,0.04198056891615225
5.109999999999934,3.21417848296051,-0.5123146094417327,-1.2190473961141932,0.9737286750472673,0.004768949530084108,-0.2276139400513827,0.3193756106513196,0.34320692203316816,0.1555172614387855,0.7829135608280221,-0.024700916689485118,0.6209192332682549,0.027270782034502027
5.1199999999999335,3.0698816752668927,-0.5805445468061337,-1.3187457865988836,0.9723705400150504,0.009904692479194229,-0.23315091600636512,0.23903256828287026,0.3048236025016662,0.15732459292840728,0.7850516490408916,-0.016284807616292616,0.6189717563493516,0.012612342243440698
5.129999999999933,2.8750387859372015,-0.6395304082391986,-1.4276515252766977,0.9708167711993873,0.01587574210778942,-0.23929402570645616,0.12001225026217405,0.24983686938289867,0.16127284877095172,0.787172754168124,-0.008522208232378745,0.6166683923195394,-0.0019945312868503286
5.139999999999933,2.6474922377690926,-0.6619096615577594,-1.547425149157142,0.9688744227067725,0.023952836983906423,-0.24627208186685623,0.05350260447130421,0.22159160586010368,0.17435111980491738,0.7891560434660237,-0.0025473369478294155,0.613869461095227,-0.016277197694661683
5.149999999999933,2.4268892011993697,-0.6748821612978139,-1.6657675651909494,0.9667370232682146,0.033187788920123626,-0.2534443264857945,-0.035553086816733935,0.18793469726412154,0.1894487677043318,0.7910108251768418,0.0024725484335125147,0.6109490103471831,-0.03040293265569996
5.159999999999933,2.213139669215911,-0.6785881502851244,-1.782684760606198,0.9644072451274177,0.04356438036151249,-0.2608080389762441,-0.1467929003365419,0.1489530265289017,0.2065330675438534,0.7927388829926524,0.006550792398671923,0.6079087552136103,-0.04437390429111861
5.169999999999932,2.029159655639994,-0.6888073237397525,-1.8613115622708318,0.9616093122838327,0.05581249325261289,-0.2684838876300705,-0.17642489130284217,0.12958961205722144,0.21551825535470365,0.7942176345867742,0.009004698286698363,0.604705530830968,-0.058014592469827396
5.179999999999932,1.8555925060346024,-0.7064135447255334,-1.9189959953935212,0.9585220642357242,0.06867797550190499,-0.2763858826601286,-0.19547958225042444,0.10927581468010292,0.22416451924314904,0.7956153141803803,0.010800758380308702,0.6014016634555365,-0.07142552446118916
5.189999999999932,1.6925599365055688,-0.7314931605395819,-1.9554932643490643,0.9551421191738078,0.08216804354805077,-0.28451666749442645,-0.20383333497829714,0.0880005253590889,0.23246789752294017,0.7969309741217754,0.011931283111238115,0.5979959766700307,-0.08460401464206566
5.199999999999932,1.5715897265542904,-0.7532016592561241,-1.951900592229912,0.9511468751706931,0.09618187720173728,-0.2931274047898353,-0.1890974650778791,0.07771099074627831,0.24218926818136213,0.7981437532981659,0.01210744490959701,0.5943761911279846,-0.09720717060626037
5.209999999999932,1.4837792700862473,-0.7739870092253105,-1.9430917576491176,0.9468610921015418,0.11015893158619457,-0.30194670729560186,-0.16422245927997345,0.07765648384552974,0.25562004446603676,0.7993077029054988,0.01203487409931914,0.5906559891265605,-0.10957628715577818
5.219999999999931,1.4301433502986762,-0.7938352209553015,-1.9291241098543912,0.9422774781522694,0.1240943836185049,-0.31097956150100886,-0.12896433268890115,0.08816317143669256,0.2728950534998817,0.8004215940083705,0.011710099871192363,0.5868328597841589,-0.12170600703509295
5.229999999999931,1.4224659781789781,-0.8040531013395952,-1.891247986508435,0.9371686156026862,0.1374588533751039,-0.3204222305266874,-0.11163928362178696,0.08991123313232907,0.283044376699781,0.8014421971481309,0.011312700309875029,0.5827971482746817,-0.13352846835672671
5.239999999999931,1.4203495859954374,-0.8135132677323125,-1.843324344670648,0.9318537195765961,0.15030953403019878,-0.3300283656751729,-0.09195533654495246,0.09862888057894383,0.295852813304838,0.802415222579724,0.011010290963584895,0.5786672240023671,-0.14518438418660126
5.249999999999931,1.4235293020429405,-0.8222983653013343,-1.7850144837287059,0.9263263282474243,0.16262009954037468,-0.3398031893150432,-0.06950752296649063,0.11490134389540285,0.31159594842334226,0.8033387910636475,0.010810201935565896,0.5744397507212798,-0.156666909560443
5.2599999999999305,1.4284727590334443,-0.826889776481701,-1.721868837339968,0.920481250487487,0.17372538310521293,-0.34985899690242794,-0.057222798071095704,0.11632455207688014,0.323300371833528,0.8041854514072273,0.010887264760253186,0.5700368558710607,-0.16778423690144634
5.26999999999993,1.4284258617214878,-0.8316547199085131,-1.6518949627930057,0.9145144078725185,0.18418857314281692,-0.36002919094806085,-0.044476255768541605,0.11957876683729611,0.3337692362454224,0.8050032081227994,0.011102835583325633,0.5655544760349958,-0.17868500093889914
5.27999999999993,1.4228755927405705,-0.8367006100196579,-1.5745480408482255,0.9084211019447882,0.1939747067483028,-0.37031856350566306,-0.03100365819952052,0.12516007131544762,0.34297253490939894,0.8057909783996737,0.011464084464296328,0.5609888514852198,-0.1893565139131249
5.28999999999993,1.3996416432848802,-0.8374992388681572,-1.4847308134123656,0.9022235472074652,0.20234398331065728,-0.38070758091315066,-0.01969101068670754,0.12298362600252521,0.350881587488845,0.8065537334644078,0.012088337171240764,0.5563170045549531,-0.19943013538777396
5.29999999999993,1.3675464830106592,-0.8411011860424127,-1.392123304274979,0.895994318681827,0.21006519670935403,-0.39111490700063845,0.0007898449328332044,0.12392887954691256,0.35813624589375154,0.8073229186037263,0.012776323716363837,0.5516049792588307,-0.2091516515922226
5.309999999999929,1.3260169628905611,-0.8479832285085914,-1.2967522397073477,0.8897325997415074,0.21710013930954328,-0.40153983143099836,0.03164603366255173,0.12861766499841182,0.36469383278868667,0.8081000859334743,0.013528089143501915,0.546850958620885,-0.21849514252743946
5.319999999999929,1.254956923391827,-0.8580852284304666,-1.1918903476873026,0.8834851543551755,0.22283236361862752,-0.41195458987577865,0.05476913840429788,0.12707741458608568,0.37230191066056195,0.80895669638747,0.01434509115602804,0.5420374128212025,-0.22699957848750316
5.329999999999929,1.1681963084209244,-0.8548455570687301,-1.0761062570736601,0.8773121136918616,0.22796167645904256,-0.4222321829125265,0.08471332700352395,0.12526926277060715,0.3822627518837283,0.8098604342150968,0.015121156230929937,0.5372561416639086,-0.23497941716200746
5.339999999999929,1.064454047966198,-0.8360740671428274,-0.948078794375735,0.8712244379661208,0.23244544839304057,-0.4323517771256301,0.12283514712887794,0.12339408831364418,0.3948996213011051,0.810815502516918,0.01584741056898776,0.5325144560914773,-0.24238611081667868
5.349999999999929,0.9462306203978413,-0.7967784477444676,-0.8375952365316212,0.8656197268547986,0.23575955111562832,-0.44164858294746395,0.14306617205660493,0.12135252572806254,0.4126527804374575,0.8117962908009124,0.016482955744687798,0.5281039063718959,-0.24857793788186552
5.359999999999928,0.8258027696250423,-0.7563735119465947,-0.7409465443285512,0.8602316278923813,0.23880210816688807,-0.4504728207556625,0.16242128611371615,0.12016417846198706,0.4318381854438968,0.8127642861637895,0.016960153958914245,0.5238972441419092,-0.2542397315249253
5.369999999999928,0.7034616523392161,-0.7156463356752807,-0.6598544675294268,0.8550770193738065,0.2415792647721458,-0.4587764964052765,0.1816035032396798,0.11999563915841925,0.45247438240897936,0.8137158668380613,0.017253971464150822,0.519916330557357,-0.25933179308728016
5.379999999999928,0.5440258162326329,-0.6594487403811425,-0.6104725034995864,0.8503938108330623,0.2442570106869466,-0.46596897188150255,0.1823771536210868,0.11165532823167089,0.4602413632578188,0.8145869161031576,0.017111813866738143,0.5164459984072173,-0.2634833153293032
5.389999999999928,0.36768089531831644,-0.5971985196897998,-0.5733889556804027,0.8459521886870005,0.24730176647453236,-0.47241698303694846,0.1822724807915828,0.0923681880933508,0.4645302424303012,0.8153652410153416,0.01655254445966261,0.5133357047623727,-0.26717605678916817
5.3999999999999275,0.17291103577202638,-0.5284812303703705,-0.549429829360873,0.8417772353145887,0.2507993113892706,-0.47802327649259213,0.18217422980193604,0.06022671301214816,0.46533548026272104,0.8160353455121633,0.015510764701963525,0.5106340511206606,-0.2703650353416329
5.409999999999927,-0.001249855548111467,-0.4641832689347226,-0.5595240916742238,0.8380304036264615,0.2553266965345553,-0.4821682829988226,0.1929875776082527,0.043098501702340336,0.46873835909475353,0.8164953415986156,0.013584735320435271,0.5086524042582784,-0.272793745329215
5.419999999999927,-0.14721324405620476,-0.3924859922789009,-0.5811538217271449,0.834462430639791,0.26051648206596134,-0.4855702740846788,0.20385254743176018,0.02366997278000494,0.47025178176187155,0.8167967433645126,0.011234871149383775,0.5070347215447559,-0.27500251003913073
5.429999999999927,-0.2593332153342411,-0.31122790381970744,-0.6148559332907857,0.8310885519222718,0.26646354151455026,-0.4881440099060855,0.2140271154128804,0.0003254504114511836,0.4692221486607246,0.816914313205873,0.008416056770072919,0.5058224669511626,-0.2769887706728154
5.439999999999927,-0.32178747119251044,-0.2288168458240471,-0.6507682773535214,0.828111842250488,0.27333859125808024,-0.48937327491947014,0.21520844350580715,-0.01225623064198023,0.46327596385173503,0.8166585349207071,0.005162930236155279,0.5052532738986714,-0.2788436178085437
5.4499999999999265,-0.36311131871270425,-0.14390340270165222,-0.6873409129677057,0.8253281196355525,0.28058958023236386,-0.4899721448657678,0.21515566563732774,-0.028883256381115406,0.45498271549912833,0.8161977617401601,0.0017934021153618738,0.5049802519396527,-0.28072313739069255
5.459999999999926,-0.38128793021925056,-0.05586773557029853,-0.7245838268430598,0.8227603510352685,0.2882488158253904,-0.4898693936794605,0.21424186799471712,-0.05157499251337208,0.44407003596705397,0.8155036873581364,-0.0016906887156049495,0.5050359455041015,-0.2826449446709442
5.469999999999926,-0.3763064818836744,0.05843656343750441,-0.7554396339008469,0.8206842004222068,0.2962845818941625,-0.48852335282908377,0.2051068987210148,-0.0661359895320071,0.43890380388155764,0.8143573675808435,-0.005101873270177549,0.5056736930565455,-0.28474669662981994
5.479999999999926,-0.37479993142353124,0.1807817549978241,-0.7685553441220533,0.818961096495086,0.3043971060786352,-0.48642502200139887,0.19312901604325255,-0.0768508392844127,0.43066717473354504,0.8129565531068577,-0.008411090948537979,0.5066666998923423,-0.2868982030360388
5.489999999999926,-0.38002598242402236,0.31130409750475435,-0.7588504212295103,0.8176583602803879,0.3125760311189306,-0.4834490922623874,0.17816120853961936,-0.0832433540349849,0.4178457081084602,0.8112617863500553,-0.011592494676321393,0.5080746118291536,-0.2890986939033601
5.499999999999925,-0.3648476086975136,0.42803387682312544,-0.7374937739263019,0.817215374474267,0.32047064767415956,-0.4789708595813161,0.18580998329834794,-0.08571651969800954,0.4083243504834742,0.8091282406951035,-0.014425240282925026,0.5101957912174269,-0.29119071997077883
5.509999999999925,-0.3246459052050953,0.5101872792720511,-0.7116351921839154,0.8170798789359865,0.32805777675609216,-0.4740480327739798,0.21481154587698156,-0.08102864157034177,0.38634525957790294,0.8068502347382486,-0.01700035614049729,0.5125248090462279,-0.2932779624826628
5.519999999999925,-0.2526720884386477,0.5469186954348506,-0.6809030354791938,0.8172705097215198,0.3352580339522296,-0.4686810307662984,0.27037522588471385,-0.0670457069270763,0.34712779276732675,0.8044226937995562,-0.01926298975520877,0.5150603111321066,-0.29537017014992284
5.529999999999925,-0.16986602867119083,0.548110990666602,-0.6632043531316871,0.8175425910659286,0.3416035814392255,-0.46356893822863143,0.29209525644692463,-0.06040775837333579,0.3214605010762818,0.8020002637520768,-0.020941820560458534,0.5174673651177808,-0.2976142416835906
5.5399999999999245,-0.11408230067377007,0.553661409257968,-0.6503870518502028,0.8178230110886828,0.3476841042456453,-0.45853561183282004,0.28484794477289865,-0.05698449243309489,0.29059125578663786,0.7995650139735161,-0.022421149853264537,0.5198329650829179,-0.2999305120422555
5.549999999999924,-0.09723432248488313,0.5695200023100823,-0.6428160754082471,0.8181053370997271,0.3534973237011427,-0.45358162304211463,0.2412815518461519,-0.05716388047719105,0.2508598176115962,0.7971112959351142,-0.02369215764301158,0.5221561296701535,-0.3023292562165184
5.559999999999924,-0.16998426174153294,0.5916303033377861,-0.5916698519247823,0.8185576623772552,0.35914464266616336,-0.44827000951461254,0.21685988810425155,-0.06973955465669154,0.23745657770031192,0.7946310339061777,-0.02497585348768695,0.5246303263282134,-0.30445178704804327
5.569999999999924,-0.267885401218967,0.6305619863727282,-0.5325433774397204,0.8192256770470764,0.3647781212799885,-0.4424622468304166,0.20732791838772527,-0.0983137606249363,0.23695727495549584,0.7921212594214786,-0.026400641560241824,0.5273203103375337,-0.30622122588561
5.579999999999924,-0.38981611841153807,0.6927261567188487,-0.4678134804327696,0.8201795997911893,0.3704139336467666,-0.4359923517583502,0.21654447974582483,-0.14812334481469308,0.25140699011485385,0.7895728026331745,-0.028025599668872147,0.5302988732816635,-0.30752234418447444
5.5899999999999235,-0.42579771644501213,0.8141999352242678,-0.392770676982742,0.8219485215022699,0.3756965061851829,-0.4280192102239059,0.21090798031380115,-0.1735586924134228,0.25506210610959673,0.7867950285287012,-0.02962701128940762,0.533951095431812,-0.3081539869169302
5.599999999999923,-0.4128885412698374,0.9457612051297147,-0.3096410595394766,0.824297304844505,0.38043241934309835,-0.4192272741791775,0.1867415480101422,-0.1918053960427196,0.25074592350522856,0.7838366205690002,-0.030896450149648823,0.5379800795778966,-0.3085601414675798
5.609999999999923,-0.3408773262328515,1.0833303276870196,-0.21615477534662814,0.8273774718488411,0.38441706126658665,-0.40945502763690755,0.13753797759842365,-0.20310846782296543,0.23631460915176813,0.7806467226082073,-0.03168124460023102,0.5424628316127055,-0.30873434562791496
5.619999999999923,-0.2246690095438603,1.1870052461471172,-0.12957527140351954,0.8314455076906597,0.38675299243668554,-0.398805645956067,0.10737818631339631,-0.19305261746745736,0.20796702409299123,0.7771985495337472,-0.03133015515027839,0.547359324658261,-0.3088020713734364
5.629999999999923,-0.09527662519839417,1.2629755114712216,-0.06275901440295648,0.8358589121058875,0.38828079667557497,-0.38796209872769616,0.08096084706065047,-0.17662810523305647,0.16842577336227585,0.7736503527474844,-0.03037452456927039,0.552343983444682,-0.3089340733350042
5.639999999999922,0.04674413458546481,1.3026707351567661,-0.02467143641276543,0.8406311823302073,0.3888594585272294,-0.3769699223295032,0.05705536625726112,-0.15410487866738526,0.11426473689760046,0.7699936289887779,-0.028692768002357944,0.5573935791721558,-0.3091807990650572
5.649999999999922,0.178280910559369,1.2888124498565572,-0.006374942302511061,0.8453667640976068,0.3884632860796306,-0.36658010723586276,0.0455127954919416,-0.1535060743103501,0.07510321187992385,0.7663631060030937,-0.02619826717609227,0.5621457396089627,-0.3097905982688194
5.659999999999922,0.3089854575069289,1.2647236857821227,0.0040391141236849,0.8499923154197125,0.38765367886617447,-0.356637327687096,0.020316200933359726,-0.15154231533844018,0.034466499690711305,0.7627736448121297,-0.02332819771517921,0.5666785052349138,-0.3106268332668468
5.669999999999922,0.4403100180339749,1.2345124183998661,0.005818103227112828,0.85445361610739,0.386379627594859,-0.34727915881909993,-0.02834932224721108,-0.14345746422952851,-0.011198998114301313,0.7592431971123331,-0.020022937588314096,0.57092468761564,-0.31174861371196677
5.679999999999922,0.602220331844319,1.1830185526719774,0.0030572411368170196,0.8585745554963479,0.3844867065003108,-0.33907680322598027,-0.05623373573141341,-0.1348620378042128,-0.031183710054730224,0.7558397079340492,-0.016049334481418525,0.5746197331371181,-0.31342754462625755
5.689999999999921,0.7717032914937652,1.1157757172335776,0.00356089028657189,0.8624669335490881,0.38220434419486754,-0.33173069079048817,-0.07542669947912421,-0.11988476151783588,-0.04603662478358081,0.752562160111262,-0.011679536040115335,0.5779141343943975,-0.31545025201401533
5.699999999999921,0.9471398756413063,1.0276488654822846,0.010191509989103864,0.8660625521114136,0.3794241599192873,-0.3255202625379526,-0.0849093123020993,-0.09481502903023867,-0.05784992495709636,0.7494603019251771,-0.006811063462904039,0.5806792114273742,-0.3179102293096127
5.709999999999921,1.0835623933119705,0.9489919939555723,0.029019625514778963,0.8692710543612542,0.37588751059883707,-0.32101989687465343,-0.08232621561589193,-0.08311899215542078,-0.0589055198126212,0.7466728590634513,-0.001285482906964567,0.582639894969807,-0.32090551598620526
5.719999999999921,1.1668711649514503,0.8853760226396588,0.06690719677668837,0.8723871841984119,0.3719315376046868,-0.31716036414212057,-0.07568269246880717,-0.07870400888471876,-0.046640513403803444,0.7440453672735344,0.004493805782020436,0.5842801761771537,-0.3239907612471082
5.7299999999999205,1.171537492220025,0.8443781605304438,0.1334123618922718,0.8754369298084402,0.3674535643822448,-0.31397644526778035,-0.06502963661720379,-0.08330033529686845,-0.01486702356671555,0.7416112910024466,0.010544962396743747,0.5855715098920424,-0.3271057547058005
5.73999999999992,1.0502075924609326,0.8505681266686993,0.22982657547392094,0.8787924551577889,0.3623093948929243,-0.310528038493853,-0.058679628934830974,-0.0915827638156395,0.011169750061242972,0.7393757921925166,0.01656148077114563,0.5868908509457901,-0.32951761879764196
5.74999999999992,0.865902990476572,0.8762109542745342,0.3432112042340435,0.8824554033661572,0.3568501995521939,-0.3064278540965934,-0.05030521056199012,-0.10688900582317126,0.04220125412507093,0.7372105152822882,0.022393710632298648,0.5884472236165901,-0.33125905096021413
5.75999999999992,0.6055740427241804,0.9233443213029254,0.4780579807943064,0.8865640505198867,0.3510193566588868,-0.3012901915190953,-0.037472859891963375,-0.13317399103913014,0.08305502008401751,0.7351160080796173,0.027922917012220105,0.5903973335286136,-0.33203724423210673
5.76999999999992,0.29248799531769804,0.9032047105365302,0.6153222392573776,0.8913123005780751,0.34469123205352553,-0.29442629054759745,-0.035462680645072145,-0.1374770908036702,0.0836921618825652,0.7332893408894071,0.03259172174370645,0.5930506543790869,-0.3309033923251073
5.779999999999919,-0.004130791001570905,0.8505318347259239,0.7455784046791126,0.8961889051792055,0.33819426341735187,-0.28708317019588775,-0.03630098982495039,-0.14230336612343783,0.05899998691326665,0.7317371294575618,0.03665757665019277,0.5959080921036983,-0.32878138990020467
5.789999999999919,-0.25824636117697236,0.7590110571756236,0.8630173961667618,0.9011203269435697,0.3315346554291039,-0.2793612753271486,-0.039243039778970513,-0.15382253266914928,0.0008628111251675064,0.7305914936472518,0.03990178929971008,0.5989352977987427,-0.3254449004224358
5.799999999999919,-0.43019816610054035,0.6805761786105341,1.0076982777267003,0.9062229954048285,0.32379547885628257,-0.2717261709924227,-0.042863626228697785,-0.1544730176784262,-0.02074274256307875,0.7301073737371985,0.04256834035787667,0.6019271181116336,-0.32061195899496475
5.809999999999919,-0.5583362011984373,0.6047414958761889,1.1277846888513332,0.9113495328839624,0.3154744437654575,-0.2642970512863313,-0.04906459785364884,-0.1255237464629424,-0.043094479587879396,0.7299402180254035,0.04502882536059187,0.6048294618033755,-0.3151511809330699
5.819999999999919,-0.6316613337074479,0.5298069447219269,1.1960771369033316,0.9164696822978977,0.3064221577375716,-0.2572114580319082,-0.0596860789552546,-0.046750708843529803,-0.07725029859102064,0.7301503638875152,0.04728631633972974,0.607581919290263,-0.3089963949662565
5.829999999999918,-0.7072949568666352,0.49144480136393565,1.279125224535586,0.9214954240855071,0.2966386717323979,-0.2505176191634451,-0.07749701120951083,-0.012172096917583183,-0.09804462325180255,0.7306875439763212,0.0493572619637906,0.6101632055790354,-0.30220521252225013
5.839999999999918,-0.7517188246204739,0.4587976718732272,1.3467068919021539,0.9264761083025842,0.28640857212297666,-0.2440057265911784,-0.09202905011302798,0.016588859112440634,-0.11138563112738324,0.7313613350564943,0.05139800480984031,0.612659260435784,-0.2951113578445544
5.849999999999918,-0.7379698859704344,0.42528085229942075,1.3812209078118731,0.931403249450837,0.27558403563410727,-0.23770676643183236,-0.09828585245908736,0.04840441812223056,-0.11516729502532022,0.7321847580849269,0.053441246831482145,0.6150517243282276,-0.28765852058965
5.859999999999918,-0.6076034802595586,0.41251161752178556,1.399743285771426,0.9361119575999595,0.2640962411527737,-0.2320422842173445,-0.10070601954092809,0.06981290610334548,-0.12120045811767505,0.7330465119903081,0.05592628574818077,0.617126560731689,-0.2804189690125651
5.8699999999999175,-0.4373644833889013,0.4024699199938453,1.3991692439488947,0.940668606429548,0.25224675987242007,-0.22679802222715792,-0.10430326393794855,0.10043704456211441,-0.1297189871043516,0.733872330274692,0.05883277597868812,0.6189779414740204,-0.27352196261432693
5.879999999999917,-0.23095589784459675,0.39058957392633364,1.3678101625393368,0.9450108886676559,0.23993591850298987,-0.2221357554310951,-0.11142670184395063,0.15203873251049133,-0.14218664885948912,0.7346171085326862,0.06238866826519217,0.6205131672955115,-0.26720201367081853
5.889999999999917,-0.06173087658387205,0.3799116459645827,1.3300298996571205,0.9489508564511566,0.22749505797790304,-0.21825619408093283,-0.11730154603460921,0.1748970645519471,-0.14976031838414236,0.735233784603831,0.0666394959769981,0.6216267359489884,-0.2618091888380032
5.899999999999917,0.0724700254619974,0.37846241759746785,1.2946137674080809,0.952694624489582,0.21501963424489753,-0.21463627532980403,-0.12466832432464955,0.18356907917803988,-0.1532668049791628,0.7357637736148737,0.07119793719268114,0.6225776918742315,-0.25683039123617213
5.909999999999917,0.1519279906514867,0.39458245905478556,1.266160391824444,0.9562027161207228,0.20252433268810743,-0.2112366642102345,-0.13540333529957818,0.1750737387649261,-0.15062701340765453,0.7361714671890465,0.07610241043027774,0.6233655911375964,-0.2523203343458129
5.919999999999916,0.20773024554573855,0.4202907219561936,1.225579624933361,0.9594672183848882,0.1902861532409019,-0.20764913514096153,-0.14018721918721808,0.17211359651217084,-0.14641117908636056,0.7363554338439083,0.08115921371826933,0.6241584956916928,-0.24818584416632083
5.929999999999916,0.273258098892924,0.44759076652883073,1.1885059944637908,0.9626016085745747,0.17817146237477688,-0.20393201485192364,-0.13596833628077282,0.17384590378307505,-0.14126283474774257,0.7364002545206451,0.08634070217513648,0.6249542393347036,-0.244286454319696
5.939999999999916,0.36769442126410623,0.47429642279481615,1.1632802444759716,0.965570857513386,0.16620324495151684,-0.20002877220323048,-0.11600868244597991,0.18281984404718937,-0.13486375814296778,0.7362539166952269,0.09171253325091981,0.625753709040144,-0.2407110108118789
5.949999999999916,0.4772308690039661,0.4885433931413924,1.1468362930702212,0.9683492015211489,0.1541944361148935,-0.19603602868711267,-0.09724573730783623,0.19789218185177151,-0.13709381457465525,0.7359016331506313,0.09751391733942795,0.6264609852513249,-0.2376169075740102
5.959999999999916,0.5851127710390812,0.4948304812618498,1.1355798379258912,0.9710089677228985,0.14211325031531963,-0.1920413637283168,-0.0688839152534951,0.21750321140379433,-0.14149501668307893,0.7354514714319895,0.10358446600854289,0.6270833765834974,-0.2347965860852783
5.969999999999915,0.6831135679455429,0.48995881003696123,1.1313124520176234,0.9735047719424808,0.12989952835295346,-0.18808097743992938,-0.020131994989311203,0.24390672501146926,-0.146703909723412,0.7348866444207748,0.11002881864380634,0.627569386501131,-0.23233749351168106
5.979999999999915,0.7567753337859313,0.47875988630285365,1.1238156282694343,0.975776879468954,0.11754884013049244,-0.18424216008073424,0.008161147094566537,0.2646214027752573,-0.14921205447277988,0.7342463935645176,0.11681746232687425,0.6278584169526759,-0.23021906826317928
5.989999999999915,0.8151410517580997,0.46396060755005264,1.111825544341596,0.9779027231408319,0.10519298754894041,-0.18049172989056148,0.037701023699094935,0.2859410816063472,-0.1496108906028769,0.7335758829809016,0.123738416433555,0.6280319977833114,-0.22827843140655454
5.999999999999915,0.8520819171915153,0.44439438685882193,1.0917336531012383,0.979819529373069,0.09288928632552097,-0.1768738988822636,0.07933874636961978,0.311176162364062,-0.14675287914264035,0.7328755685813942,0.13078299901263982,0.6280499944265449,-0.2265601723572037
6.0099999999999145,0.8826340366956169,0.4259072203483813,1.055742797799628,0.9814830588229496,0.0808926601564357,-0.17337656112548788,0.09639057384667786,0.32977015835247564,-0.14528960415590025,0.7321340213114874,0.13781391741076765,0.6279262140943374,-0.2250925350773518
6.019999999999914,0.9161378615790429,0.4084586939639433,1.0119760269525113,0.9829977342714327,0.06915886784498723,-0.1699418734332982,0.10679383944905321,0.34752977344233227,-0.14365251341248206,0.7313539344111802,0.14482061247713682,0.6277244598259267,-0.2238119877337606
6.029999999999914,0.9593139106637091,0.39275948752088974,0.9590008100965141,0.9843107394905927,0.057850840357233674,-0.16658515790721065,0.1147885171390214,0.3667548366201017,-0.14093948406472995,0.7305095309344216,0.15178079138841072,0.6274215908915259,-0.22281857833817176
6.039999999999914,1.0244357080915774,0.3838922783946488,0.8952905610347403,0.9854125576945858,0.04717294808749911,-0.16330340774096497,0.11913444406781025,0.3819581171977516,-0.14025378440488084,0.7295414386402506,0.1587342155187338,0.6269964001351068,-0.22230696408503836
6.049999999999914,1.103202494925012,0.38497765688746766,0.8258506392349684,0.9864140231163684,0.036920249129950025,-0.15995418582619464,0.12748162322164217,0.39747567296668534,-0.13824422077478435,0.7284428838771695,0.16572625794415716,0.6265295283742536,-0.22214253463410727
6.0599999999999135,1.2011878288517877,0.4049942462064601,0.7491544978558173,0.9873008051773581,0.027295188562647787,-0.15641167665181047,0.1468645079139334,0.4158602240765439,-0.13214419423238133,0.7271144491999856,0.17280957095669974,0.6260335552777884,-0.22250812117149785
6.069999999999913,1.329638159503296,0.37594957564438275,0.6487447703140699,0.9880500446022147,0.01857202380104358,-0.15285315604799588,0.17172884415163617,0.42827637828069365,-0.1366413055876978,0.725518422191748,0.18005000326021445,0.6254001664315956,-0.22371169601540344
6.079999999999913,1.454714123244511,0.31985895026598155,0.5347081978188323,0.9886879782380448,0.010542037856382365,-0.14954954005819499,0.20451898197170196,0.44123998900215017,-0.1483012088951034,0.7238201538788709,0.1873194194081727,0.624593691290637,-0.22551146857395882
6.089999999999913,1.554329128446497,0.22870146994790191,0.40242404469637416,0.9891445003909073,0.0036157072094387087,-0.14685214795189686,0.25271248011928454,0.4589255636316665,-0.17062912296077462,0.7220366557301855,0.19456616330892934,0.6234610393347914,-0.22822459532254338
6.099999999999913,1.5606820229753735,0.0964104411530748,0.25310366229428083,0.9893602997086358,-0.0016672378744227966,-0.14542864133394967,0.2630308847014946,0.4643764506579695,-0.18702978158318073,0.7203793281132549,0.20131500746934458,0.6218775112030425,-0.23185786927123325
6.109999999999912,1.5050492935787119,-0.04424330670900167,0.09937750113827665,0.9894232519790864,-0.005744887531734072,-0.1449365480530017,0.24973962326028698,0.455810762510422,-0.19876037477355327,0.7188865009402339,0.20748826435345216,0.6200561093357659,-0.23592924955887168
6.119999999999912,1.357382119578295,-0.1796174979664136,-0.05443963689921408,0.9892659260728892,-0.007927536676058717,-0.14590641389333514,0.2028515471302827,0.42094568834775237,-0.20287568822385235,0.7177131224358458,0.21257874501613597,0.6179391474045363,-0.24048935802030294
6.129999999999912,1.187768427276396,-0.2677202967387022,-0.22076138581090468,0.9889298335424921,-0.008033143046726499,-0.14815319589482936,0.16644400965175957,0.389138181759012,-0.1869426260036223,0.7169009716733937,0.21619610866375322,0.6157711460407973,-0.24518711226023274
6.139999999999912,1.0563751226652303,-0.32593090364296207,-0.3929034026494099,0.9885162329796163,-0.006780527929063648,-0.15093765985491245,0.12271728975052583,0.35527910808314245,-0.15879248725516432,0.7161877410637509,0.21899595485142476,0.6136526290583915,-0.25006836347866584
6.1499999999999115,1.0350054433258782,-0.3410247939040819,-0.5712415554631012,0.9880282768486766,-0.0035216021202975796,-0.154213422717447,0.05373828540021329,0.31426194867977447,-0.1135056324087414,0.7154807404570892,0.22073673851726874,0.6116916357425211,-0.2553159248489661
6.159999999999911,1.147483904090327,-0.3403250156913949,-0.7318961052681386,0.9874966184975845,0.0014889100242722352,-0.1575585806824443,0.0324942550474031,0.30273935897925347,-0.08971082359338273,0.7144052608819735,0.22215902355816297,0.6098057990025538,-0.2614962297484181
6.169999999999911,1.3172598566100633,-0.3437111552679952,-0.8756916491025666,0.9869166560353142,0.007403188241622061,-0.1609951147425883,0.04318563397944104,0.29872615269132896,-0.06913855214526865,0.7130514403222606,0.22359929077884733,0.6078677896780358,-0.26838762014711665
6.179999999999911,1.5389756249819602,-0.3689410023168169,-0.9886699783758068,0.9862434107551681,0.014394184589622997,-0.16461761445711315,0.1020602596899547,0.29296334358531007,-0.04149054325430837,0.7112436133845048,0.22531394519284897,0.6057414300713041,-0.27644504441253914
6.189999999999911,1.7326001870726873,-0.41887439206173294,-1.072903857577004,0.9853702041902521,0.021906389225503576,-0.16888173355879918,0.14399276704131622,0.28197626126680403,-0.028342035464898725,0.7090797617731638,0.22750891395800613,0.603151361093731,-0.28564442605404466
6.1999999999999105,1.8855401608528974,-0.484045849863725,-1.1499503669587399,0.9843311711296033,0.02974420734311944,-0.1737024943333246,0.17720559347877982,0.26569867465386565,-0.01735120983701352,0.7067624717307089,0.22987839709068833,0.6002489488939006,-0.295463259212206
6.20999999999991,1.9516397997899442,-0.5708389403192717,-1.2299397265255778,0.9830038923907278,0.03804917177517376,-0.17951359113532048,0.20020320739034897,0.23933674258452697,-0.0009636926421797906,0.7043099400378784,0.23234373876522682,0.5968705531800924,-0.30605516342640104
6.21999999999991,1.9266583774116768,-0.6406344971000496,-1.3161381008691664,0.981301837638309,0.047141033993799694,-0.1863982618803066,0.19142722699313017,0.21802226903709948,0.010077086761539306,0.7018576047922761,0.23434903337381494,0.593187478902009,-0.3170520009885678
6.22999999999991,1.863534592678879,-0.7027931314423536,-1.4024624219825887,0.9793474484061321,0.05679451830884355,-0.1938870108233329,0.16327627068897377,0.19697774717101868,0.021293117292760805,0.6994140986344126,0.23595461252670616,0.589386729335152,-0.32820708016192635
6.23999999999991,1.7704746492663768,-0.7579350521817955,-1.4840074921460045,0.9770069496495346,0.06734637425338491,-0.2021544668284585,0.10795331120105435,0.1725099400316062,0.037406695912583665,0.6969947669528382,0.23683824155633468,0.5855131722034572,-0.33946401031467166
6.249999999999909,1.6861512983370592,-0.8145541855086315,-1.567027203727163,0.9741980745296072,0.07878802504826027,-0.21118638450680552,0.0811466800834202,0.15621253869360166,0.05104009403756452,0.6946120255225056,0.23694072761569937,0.5815988105429573,-0.3507592460298258
6.259999999999909,1.6102050134966694,-0.8674468738066148,-1.6478144411207327,0.9710629961758745,0.0907880336113297,-0.22068927360393373,0.05851279963670677,0.14401168422048496,0.063922702883672,0.6922312934424641,0.23656760411322963,0.5776552970849143,-0.36210013072670805
6.269999999999909,1.5504057854593647,-0.9084033509268614,-1.7209282462406268,0.9674127417519716,0.10359180206318472,-0.23085778852223612,0.022506735991779304,0.13625248986932217,0.07686222341140433,0.6898238642520855,0.23553041121222063,0.5736648108292708,-0.3735372494853987
6.279999999999909,1.4669886584079088,-0.9474812955949163,-1.784494779137826,0.9632159706527272,0.11703193633569595,-0.24152893652050228,0.0014860777233452662,0.12324333339860653,0.0890377477068301,0.6873714088606735,0.2338842276827628,0.5696689876338743,-0.38497743070432155
6.2899999999999086,1.3608793902987035,-0.9840654372949288,-1.8415149754400029,0.9586422775370502,0.13090393329344177,-0.2524933374200394,-0.017501964167865237,0.10436060045093475,0.10135520336227553,0.6849162103637141,0.23178157837392924,0.5657060254105948,-0.39635210870958026
6.299999999999908,1.2102465753880702,-1.0150745002821306,-1.8882914405755653,0.9534757391840395,0.14544549781457167,-0.26384532536608324,-0.044744522842814695,0.07313233981443584,0.11481842329323438,0.6824957456708187,0.2289106886160003,0.5618451502873161,-0.40753049871396807
6.309999999999908,1.0370185672600056,-1.0358509834615528,-1.919961806266856,0.94772539118181,0.16060609178828084,-0.2753071975808591,-0.05572014703524806,0.04736499188682697,0.1294340217954277,0.6801734176691325,0.22518274752334863,0.5582320209000098,-0.41827176139776123
6.319999999999908,0.860181368590437,-1.0511839936507634,-1.9432475839238852,0.941595765515419,0.17615173023970274,-0.2867648480177526,-0.062083527056333056,0.024538001501056686,0.14478364019518172,0.6779145719622152,0.22090509717317758,0.5548040287255068,-0.4286984357625837
