time,seconds_elapsed,rotationRateX,rotationRateY,rotationRateZ,gravityX,gravityY,gravityZ,accelerationX,accelerationY,accelerationZ,quaternionW,quaternionX,quaternionY,quaternionZ
1681248841781569300,0.2055693359375,-0.048566147685050964,0.12169494479894638,0.483508825302124,0.09701293706893921,-0.31505367159843445,-0.9441025853157043,0.026018694043159485,0.005132347345352173,0.023600876331329346,0.9859266790763963,0.15977540616473374,0.04919886156674176,8.245859124075713e-18
1681248841796603100,0.22060302734375,-0.056428492069244385,0.11915748566389084,0.4800539016723633,0.0964788943529129,-0.31505346298217773,-0.9441573619842529,0.02708679437637329,-0.00002530217170715332,0.018650829792022705,0.9859336318866753,0.15958787896152432,0.049527962689161875,0.0037085373115292746
1681248841811636200,0.23563623046875,-0.1018088087439537,0.12126804143190384,0.48995155096054077,0.09592962265014648,-0.31465017795562744,-0.9443477988243103,0.025484569370746613,-0.005052000284194946,0.016079425811767578,0.985960449152978,0.15918750462079673,0.04985416963064149,0.007471870237047873
1681248841826669000,0.2506689453125,-0.12299984693527222,0.13094542920589447,0.5135189294815063,0.09540075063705444,-0.3137838542461395,-0.9446895718574524,0.016140997409820557,-0.01691991090774536,0.013598263263702393,0.986075426158739,0.15910742871152714,0.04837396246436019,5.1526317818124473e-17
1681248841841702000,0.265701904296875,-0.13028301298618317,0.13774049282073975,0.5305096507072449,0.0948767364025116,-0.3127565085887909,-0.94508296251297,0.0144219771027565,-0.018984824419021606,0.01184016466140747,0.9861667899970966,0.15837030520336956,0.04875832576370882,0.004075726669451228
1681248841856735000,0.28073486328125,-0.12759731709957123,0.13161495327949524,0.5286299586296082,0.0943322628736496,-0.3116927146911621,-0.9454888105392456,0.021893933415412903,-0.005552798509597778,0.0069512128829956055,0.986243984793723,0.15761138797804447,0.04913497751859132,0.008203359773543386
1681248841871768000,0.29576806640625,-0.14329440891742706,0.11862964928150177,0.5196945071220398,0.09365197271108627,-0.3105047047138214,-0.9459472298622131,0.026022709906101227,-0.0055201053619384766,0.004510462284088135,0.9863174208080916,0.15678932420274216,0.049431797416590546,0.012306037497651261
1681248841886801000,0.31080078125,-0.1259859949350357,0.12348352372646332,0.5110791921615601,0.09300386905670166,-0.3093101680278778,-0.946402370929718,0.02947843074798584,-0.00746232271194458,-0.000695347785949707,0.9863746122938353,0.15596886050361902,0.04972441725126336,0.016317147291326873
1681248841901834000,0.325833984375,-0.09807026386260986,0.13294866681098938,0.5019860863685608,0.09245747327804565,-0.3084360361099243,-0.9467411637306213,0.025584518909454346,-0.012578397989273071,0.002145826816558838,0.98638722376751,0.15531780738724446,0.05005796185407884,0.020266818218740556
1681248841916867000,0.3408671875,-0.08251996338367462,0.13899803161621094,0.48237085342407227,0.09214707463979721,-0.30787980556488037,-0.9469524621963501,0.015763089060783386,-0.011776566505432129,0.004325509071350098,0.9863547429598883,0.15483601186575707,0.0504934159851875,0.024095715559616256
1681248841931900000,0.35589990234375,-0.10696298629045486,0.13819989562034607,0.483056902885437,0.09191391617059708,-0.30725526809692383,-0.9471779465675354,0.016133569180965424,-0.01372864842414856,0.0052071213722229,0.9863125996633585,0.15432009122087306,0.050954336285411114,0.02786380084221727
1681248841946933000,0.37093310546875,-0.1261635720729828,0.1417703926563263,0.4934690594673157,0.0916455090045929,-0.30626946687698364,-0.9475231766700745,0.018080443143844604,-0.022633761167526245,0.010099470615386963,0.9862848397720342,0.15361317629354374,0.05139470540831623,0.03168389120512013
1681248841961966000,0.385966064453125,-0.10150840133428574,0.13428397476673126,0.509360134601593,0.09129653871059418,-0.3053148686885834,-0.947864830493927,0.01694931834936142,-0.025831371545791626,0.014240562915802002,0.9862380701594556,0.15291793199262665,0.05180425657607882,0.035594660602473134
1681248841977000000,0.401,-0.058131154626607895,0.1329990029335022,0.5115489959716797,0.09088633209466934,-0.30490735173225403,-0.9480354189872742,0.015742085874080658,-0.007928341627120972,0.017661333084106445,0.9861295574189851,0.15250291956201337,0.05220287191636816,0.039577138975556175
1681248841992033000,0.416032958984375,-0.06307962536811829,0.1230827197432518,0.5169972777366638,0.09036406129598618,-0.30480000376701355,-0.9481198787689209,0.01670686900615692,-0.0014896690845489502,0.0210568904876709,0.9859833967608191,0.1522455121565791,0.052548748794893296,0.04354916339212172
1681248842007066000,0.431066162109375,-0.08436308056116104,0.12135699391365051,0.5398019552230835,0.08972872793674469,-0.30448105931282043,-0.9482826590538025,0.016411401331424713,-0.019234150648117065,0.028681278228759766,0.9858367396963511,0.15187541053384643,0.05284432802446741,0.04761479201838647
1681248842022099000,0.446098876953125,-0.09424325078725815,0.10770349949598312,0.574967622756958,0.08884499967098236,-0.3039623200893402,-0.9485322833061218,0.01395346224308014,-0.027107656002044678,0.029144465923309326,0.9856838257415429,0.1513959160613604,0.05303905955444843,0.05189864972719844
1681248842037132000,0.461132080078125,-0.09772628545761108,0.0944548025727272,0.6092526316642761,0.08759971708059311,-0.3033948242664337,-0.948829710483551,0.018754050135612488,-0.04104185104370117,0.0307847261428833,0.9855101993908243,0.15088817010509678,0.05308382998518714,0.05643118677875884
1681248842052165000,0.4761650390625,-0.1081155464053154,0.08125431090593338,0.6317081451416016,0.08602344244718552,-0.3027433454990387,-0.9491819739341736,0.023992426693439484,-0.040777772665023804,0.032281339168548584,0.9853156471854444,0.15033692056832829,0.05298885983610767,0.06118942649710194
1681248842067198000,0.491197998046875,-0.09828981012105942,0.08757320046424866,0.6613478064537048,0.08430980890989304,-0.3021221160888672,-0.9495336413383484,0.024241216480731964,-0.0417347252368927,0.03954523801803589,0.9850883737590277,0.14980246389170673,0.05284326614376593,0.06608957911605974
1681248842082231000,0.50623095703125,-0.10298661887645721,0.11051473021507263,0.6960045695304871,0.08267718553543091,-0.30159085988998413,-0.9498460292816162,0.016153991222381592,-0.04432591795921326,0.03878951072692871,0.9848067980587817,0.14930244351784494,0.05278043682581225,0.0712643449548654
1681248842097264000,0.52126416015625,-0.14430460333824158,0.1494317650794983,0.7515522837638855,0.08128786087036133,-0.30081647634506226,-0.9502114057540894,0.006068706512451172,-0.060313284397125244,0.04219144582748413,0.9844827680289742,0.1486532371856234,0.052882038819716363,0.07680644363826429
1681248842112297000,0.536296875,-0.22144044935703278,0.1854821890592575,0.7973604798316956,0.08020004630088806,-0.2991684079170227,-0.950823962688446,0.0014802590012550354,-0.07226106524467468,0.043414294719696045,0.9841504918055305,0.1475193184622113,0.05316074921417159,0.08282410467938435
1681248842127330000,0.551330078125,-0.27063408493995667,0.2293923795223236,0.8238762617111206,0.07951310276985168,-0.2966001331806183,-0.951685905456543,-0.004348300397396088,-0.0776369571685791,0.04238414764404297,0.9838185218715267,0.14588093997160337,0.053626569467243534,0.08912927229436278
1681248842142363100,0.566363037109375,-0.2547854781150818,0.29498255252838135,0.8474942445755005,0.07956880331039429,-0.2938235402107239,-0.9525421261787415,-0.003778405487537384,-0.07672086358070374,0.04716193675994873,0.9834180818004509,0.14408709187178922,0.054477912917446226,0.09570713627702686
1681248842157397000,0.58139697265625,-0.17244121432304382,0.3422142565250397,0.8616403937339783,0.08039449900388718,-0.2918461859226227,-0.9530805349349976,-0.009486906230449677,-0.06574353575706482,0.04852426052093506,0.9828757564423898,0.1426527986598528,0.055766566042007616,0.10244703148936786
1681248842172429600,0.5964296875,-0.10717273503541946,0.42253226041793823,0.9223354458808899,0.08197664469480515,-0.2910817563533783,-0.9531795382499695,-0.014273405075073242,-0.0691019594669342,0.03733181953430176,0.9821402007841156,0.14177221691377795,0.05754012521212099,0.1095006365226309
1681248842187462700,0.611462646484375,-0.14525006711483002,0.4859258830547333,0.9568207263946533,0.0844297781586647,-0.29065391421318054,-0.9530959725379944,-0.0376615896821022,-0.07287147641181946,0.057115137577056885,0.9812557807897261,0.140970525874307,0.059827498195839206,0.11698324303613536
1681248842202495200,0.6264951171875,-0.2438342273235321,0.5270243287086487,0.9939241409301758,0.08750079572200775,-0.2891281247138977,-0.9532830119132996,-0.03896258771419525,-0.0937454104423523,0.07198113203048706,0.980341212231108,0.13952148752395768,0.062387819325474624,0.12479047132305557
1681248842217528300,0.6415283203125,-0.2740607261657715,0.5596829652786255,1.0592190027236938,0.09085521847009659,-0.2867434024810791,-0.953689455986023,-0.03287182003259659,-0.1277463436126709,0.09231555461883545,0.9793571606368281,0.1375527180095847,0.06507327029491054,0.13305709815476557
1681248842232561400,0.6565615234375,-0.183177649974823,0.5865657329559326,1.0631500482559204,0.09446749091148376,-0.2849031686782837,-0.9538899660110474,-0.025619834661483765,-0.12137734889984131,0.08897602558135986,0.9782125245389598,0.1357912311895902,0.06793939514615807,0.14158072310287434
1681248842247594200,0.67159423828125,-0.09626805037260056,0.6263781189918518,1.1100462675094604,0.0986064076423645,-0.28472235798835754,-0.9535250067710876,-0.006031334400177002,-0.06801506876945496,0.08478111028671265,0.9768311059756432,0.1347891365090849,0.07119962620377682,0.15021097053561971
1681248842262627300,0.68662744140625,-0.06364954262971878,0.6810094118118286,1.1812855005264282,0.1030484065413475,-0.2854054868221283,-0.9528508186340332,-0.008153997361660004,-0.060679107904434204,0.08830314874649048,0.975218514558254,0.13412074524578002,0.07474090594906765,0.15929312490916286
1681248842277660400,0.701660400390625,-0.07308634370565414,0.7451473474502563,1.255109190940857,0.10810575634241104,-0.2866132855415344,-0.9519274830818176,-0.018292531371116638,-0.06616991758346558,0.10790282487869263,0.97334978474001,0.1335640782018698,0.07872030869368533,0.16897893915749032
1681248842292693500,0.716693603515625,-0.1390066146850586,0.7866950631141663,1.3386203050613403,0.11351659893989563,-0.2873861789703369,-0.9510642290115356,-0.01949194073677063,-0.06774690747261047,0.12025368213653564,0.9712831149447293,0.1326363991652503,0.08291846256958593,0.17927963254110635
1681248842307726300,0.731726318359375,-0.21269096434116364,0.8107237219810486,1.4236241579055786,0.11904525756835938,-0.2873784005641937,-0.9503903985023499,0.005039215087890625,-0.08908647298812866,0.10653358697891235,0.9690200078275383,0.13116705176313492,0.08717804561545811,0.19025084770034764
1681248842322759400,0.746759521484375,-0.2507644593715668,0.7990564107894897,1.532546043395996,0.12423087656497955,-0.2867218255996704,-0.949924886226654,0.00887153297662735,-0.09393918514251709,0.09157222509384155,0.9665278052032029,0.1292538517221296,0.09127429215680706,0.20195685415195708
1681248842337792500,0.76179248046875,-0.2569780647754669,0.7396034598350525,1.6090501546859741,0.12843449413776398,-0.2861591875553131,-0.9495354294776917,0.03217951953411102,-0.09219774603843689,0.04700857400894165,0.9637619295145442,0.12734518923382912,0.09494996377912795,0.21431443309386114
1681248842352826400,0.776826416015625,-0.2564181983470917,0.696381151676178,1.567043662071228,0.13182416558265686,-0.28559622168540955,-0.9492403268814087,0.05411943793296814,-0.05409497022628784,0.0032869577407836914,0.9608378135328649,0.12544469504205144,0.09820114488311314,0.22673969100114327
1681248842367859500,0.791859375,-0.31105348467826843,0.6517167687416077,1.5418626070022583,0.13476869463920593,-0.28490036725997925,-0.9490359425544739,0.07249142229557037,0.017413794994354248,-0.03898590803146362,0.9578768800191354,0.12351067826013137,0.10112938071150746,0.23872549716603622
1681248842382892300,0.806892333984375,-0.44874563813209534,0.6204957365989685,1.5542596578598022,0.1372416466474533,-0.2826666831970215,-0.9493494033813477,0.0584980845451355,0.003980159759521484,-0.045081138610839844,0.9548800854653624,0.12080881050531167,0.10358829386064343,0.2507563149406351
1681248842397925400,0.82192529296875,-0.47051557898521423,0.5405092835426331,1.5611913204193115,0.13903407752513885,-0.27933648228645325,-0.9500740170478821,0.05926913022994995,-0.04488226771354675,-0.02322310209274292,0.9518313152429838,0.11760872180962471,0.10550441619228718,0.26278125535072144
1681248842412958500,0.83695849609375,-0.43194249272346497,0.4557887613773346,1.58881676197052,0.13956992328166962,-0.2761978209018707,-0.9509127140045166,0.07057411968708038,-0.07333526015281677,-0.0429532527923584,0.9486323782946465,0.11463697311393295,0.10678016131541343,0.2748690883860995
1681248842427991300,0.8519912109375,-0.42075005173683167,0.3257119655609131,1.5623992681503296,0.13868245482444763,-0.27369338274002075,-0.951766312122345,0.11955727636814117,-0.005008399486541748,-0.08593815565109253,0.9453444817397296,0.11219159981317162,0.10737731744606831,0.28671777046744235
1681248842443024400,0.8670244140625,-0.5534254908561707,0.21224109828472137,1.5453391075134277,0.1361156553030014,-0.27007830142974854,-0.953168511390686,0.1406482607126236,-0.0011924803256988525,-0.09758222103118896,0.9421051431396303,0.10947847165525644,0.10691211295387118,0.2983657597326971
1681248842458057500,0.882057373046875,-0.6436018347740173,0.1302386373281479,1.5528252124786377,0.1323530673980713,-0.26459330320358276,-0.9552345275878906,0.14399883151054382,0.0009061694145202637,-0.0923423171043396,0.9389283178138188,0.1060841932885355,0.10549345831413444,0.30988840639398746
1681248842473090300,0.89709033203125,-0.5701783895492554,0.05446317791938782,1.5968281030654907,0.12751322984695435,-0.25882771611213684,-0.9574698805809021,0.12613360583782196,-0.01291605830192566,-0.0847817063331604,0.9355967025101762,0.10276358499791552,0.1034635297389138,0.3215489707794531
1681248842488123400,0.912123291015625,-0.4922598898410797,-0.048880256712436676,1.6068371534347534,0.12137798219919205,-0.2543042302131653,-0.9594773054122925,0.10133929550647736,0.012650787830352783,-0.10233598947525024,0.9320333249047116,0.10031823474492856,0.10098309189041645,0.33324565250339455
1681248842503156500,0.927156494140625,-0.49049243330955505,-0.16689103841781616,1.5772043466567993,0.11380382627248764,-0.25009670853614807,-0.9615094065666199,0.11426928639411926,0.038258910179138184,-0.12299376726150513,0.928432643930887,0.09838244273656582,0.0978069149763778,0.34462673048299325
1681248842518189300,0.942189208984375,-0.5351936221122742,-0.27842745184898376,1.6392346620559692,0.10460589081048965,-0.24533498287200928,-0.9637781381607056,0.12480998039245605,0.03038443624973297,-0.12543994188308716,0.9247464090986411,0.09656560184488573,0.09373369152449201,0.35599579477618837
1681248842533223400,0.957223388671875,-0.5476325750350952,-0.37772154808044434,1.6917001008987427,0.09371384233236313,-0.23990583419799805,-0.9662623405456543,0.11441602557897568,0.022193416953086853,-0.1161503791809082,0.920813142384258,0.09482248603459809,0.08875542801749182,0.3677423409260289
1681248842548256500,0.972256591796875,-0.5025612115859985,-0.4344886839389801,1.6939568519592285,0.0817105695605278,-0.2345457524061203,-0.9686648845672607,0.12448142468929291,0.0746641606092453,-0.09275168180465698,0.9166979252473404,0.09346480922607453,0.08325792490233223,0.3794698962911218
1681248842563289300,0.987289306640625,-0.5429600477218628,-0.4440414309501648,1.8009428977966309,0.06917137652635574,-0.22900888323783875,-0.9709635972976685,0.13375523686408997,0.09058111906051636,-0.07874953746795654,0.91228297868345,0.09226186988029567,0.077498143397564,0.3914352440469615
1681248842578322400,1.002322509765625,-0.653891921043396,-0.4139692783355713,1.9386630058288574,0.0566285140812397,-0.2220623940229416,-0.9733865857124329,0.1188322901725769,0.1119854599237442,-0.04300129413604736,0.9073448375827959,0.09050181443857974,0.07152701796198606,0.4042506000496388
1681248842593355500,1.01735546875,-0.7661916017532349,-0.40398404002189636,2.091813802719116,0.0439654104411602,-0.21313782036304474,-0.9760324358940125,0.1205548420548439,0.11009521782398224,-0.03255826234817505,0.901804706247813,0.08796870953660402,0.06515588605603821,0.41804842047245905
1681248842608388400,1.032388427734375,-0.8894373774528503,-0.37390947341918945,2.231292724609375,0.03155648335814476,-0.20236609876155853,-0.9788013696670532,0.12066517770290375,0.12421058118343353,-0.021381676197052002,0.8956007499044953,0.08468871956851608,0.0585416794839672,0.432781732370895
1681248842623421400,1.04742138671875,-1.0305479764938354,-0.35424232482910156,2.291006088256836,0.019543234258890152,-0.18904979526996613,-0.9817730188369751,0.11175863444805145,0.13993175327777863,-0.015098929405212402,0.8888476729207864,0.08037157559515215,0.05151608299011377,0.44814766136857787
1681248842638454500,1.06245458984375,-1.0962392091751099,-0.3821634352207184,2.3305954933166504,0.00784505158662796,-0.17370936274528503,-0.9847657084465027,0.09650979191064835,0.17161889374256134,0.024179160594940186,0.8816846243583113,0.07533339599094557,0.04406837516457529,0.4636971768844822
1681248842653487400,1.0774873046875,-1.0846537351608276,-0.40751883387565613,2.384526014328003,-0.0038442269433289766,-0.15757857263088226,-0.9874989986419678,0.09995932877063751,0.16578778624534607,0.04542136192321777,0.8740464807079353,0.0702258458339363,0.03631591599299125,0.47936641685995035
1681248842668520400,1.0925205078125,-1.080915927886963,-0.43584075570106506,2.4349474906921387,-0.015588035807013512,-0.14122001826763153,-0.9898555278778076,0.11898157745599747,0.16941824555397034,0.11589312553405762,0.8658797159755421,0.06533040327308998,0.028358174322324327,0.4951566824087264
1681248842683553500,1.107553466796875,-1.1738160848617554,-0.3989032506942749,2.5447587966918945,-0.026768017560243607,-0.12372725456953049,-0.9919551610946655,0.13216045498847961,0.1400083601474762,0.16210591793060303,0.8570942620135236,0.0601071809134612,0.020237248841413525,0.5112407293978194
1681248842698586400,1.12258642578125,-1.3106266260147095,-0.3324187695980072,2.7269504070281982,-0.03672085702419281,-0.10396081209182739,-0.9939032793045044,0.12133082747459412,0.1013210266828537,0.2470923662185669,0.8473772907140842,0.05390772876208056,0.011929683482506339,0.5281129720835641
1681248842713620500,1.137620361328125,-1.4837323427200317,-0.30114951729774475,2.9148333072662354,-0.04536532983183861,-0.08144883811473846,-0.9956445693969727,0.1332101672887802,0.07349900156259537,0.26915836334228516,0.8365284209418473,0.04655171978755629,0.003265207584856304,0.5459326437854437
1681248842728653300,1.1526533203125,-1.729534387588501,-0.31267088651657104,3.053818941116333,-0.05297631770372391,-0.05522547662258148,-0.9970675110816956,0.1895424723625183,0.07030114531517029,0.25007355213165283,0.8245661713190616,0.03777564332039274,-0.006263911833923602,0.5644682024612037
1681248842743686400,1.167686279296875,-1.9192222356796265,-0.3152797222137451,3.1634132862091064,-0.05957380682229996,-0.02519284375011921,-0.997905969619751,0.22560466825962067,0.07774410396814346,0.23875069618225098,0.8115640517400221,0.027628419904187428,-0.016843282938686283,0.5833666827146733
1681248842758719500,1.182719482421875,-2.013939142227173,-0.2838573455810547,3.2144980430603027,-0.064524345099926,0.007459464482963085,-0.9978882670402527,0.2495981752872467,0.12149254977703094,0.21506661176681519,0.7976019668009655,0.016474326894799888,-0.028008392467730684,0.6023083167703525
1681248842773752600,1.197752685546875,-1.9457505941390991,-0.2240837663412094,3.2641453742980957,-0.06718162447214127,0.04052430018782616,-0.9969174265861511,0.23876670002937317,0.13241879642009735,0.2256009578704834,0.7828323411938015,0.005005507058979607,-0.03893863985715358,0.6209930022227689
1681248842788785400,1.212785400390625,-1.8190747499465942,-0.15935136377811432,3.3787319660186768,-0.0672534853219986,0.07196781039237976,-0.9951369762420654,0.1858295202255249,0.11393000185489655,0.24875330924987793,0.7670259090583029,-0.0061037803268987,-0.04893112851274393,0.6397184684565963
1681248842803818500,1.227818603515625,-1.796842098236084,-0.07187611609697342,3.447685480117798,-0.06449912488460541,0.10225911438465118,-0.9926645755767822,0.1669618785381317,0.06306985020637512,0.23456215858459473,0.750155027699811,-0.017182331019379726,-0.058073106538044206,0.6584828718859125
1681248842818851600,1.2428515625,-1.849045991897583,0.015349065884947777,3.5286965370178223,-0.058760326355695724,0.13260982930660248,-0.989425003528595,0.14204277098178864,0.03336000442504883,0.22984248399734497,0.7323315180050511,-0.028817568598624672,-0.06676106930308778,0.6770547643695106
1681248842833884400,1.257884521484375,-1.8988933563232422,0.08956737071275711,3.585543155670166,-0.050054024904966354,0.16339422762393951,-0.9852902889251709,0.12801116704940796,0.008633360266685486,0.2173612117767334,0.7135091120779857,-0.04119136387834521,-0.07522057112773785,0.695377568071142
1681248842848917500,1.27291748046875,-1.897058129310608,0.16521605849266052,3.6170895099639893,-0.03851468116044998,0.1939045637845993,-0.9802640676498413,0.09964136779308319,0.035847023129463196,0.1832212209701538,0.6938236357858691,-0.054065797455584805,-0.08333580212847504,0.7132607015613441
1681248842863950600,1.28795068359375,-1.7767428159713745,0.2553611397743225,3.6152772903442383,-0.02410338819026947,0.2227659970521927,-0.9745739102363586,0.07770749181509018,0.052960291504859924,0.16024291515350342,0.673497685836516,-0.06706455425981786,-0.09063875516755382,0.7305393765553932
1681248842878983400,1.3029833984375,-1.6025601625442505,0.3920329511165619,3.623337984085083,-0.006580669898539782,0.24827659130096436,-0.9686668515205383,0.027683552354574203,0.11726295948028564,0.12758713960647583,0.6526892978871398,-0.07981557931818363,-0.09641605745935256,0.7472149487041297
1681248842894017500,1.318017578125,-1.465897798538208,0.5186806917190552,3.632565498352051,0.014216320589184761,0.27028605341911316,-0.9626750946044922,-0.012537878006696701,0.12151387333869934,0.10081291198730469,0.6314642619817523,-0.09248954665636744,-0.10053919954739948,0.7632762228478921
1681248842909050400,1.33305029296875,-1.406187653541565,0.6394952535629272,3.686657190322876,0.03796294704079628,0.2895108461380005,-0.9564216136932373,-0.04511934146285057,0.08779323101043701,0.0857398509979248,0.6096385185994265,-0.10532650054343663,-0.103419171212412,0.7788142954978323
1681248842924083500,1.34808349609375,-1.3661261796951294,0.7405976057052612,3.6690614223480225,0.06439214944839478,0.30654770135879517,-0.9496747851371765,-0.06771858781576157,0.054902493953704834,0.06768625974655151,0.5872331908072561,-0.11854511321528505,-0.10540241771689432,0.7937220644953465
1681248842939116500,1.363116455078125,-1.2987173795700073,0.8423279523849487,3.590876340866089,0.09276174008846283,0.3212311565876007,-0.9424467086791992,-0.09321952611207962,0.09089347720146179,0.01776409149169922,0.5647413376136314,-0.13196299609604553,-0.10659462205476977,0.8076450284182943
1681248842954149400,1.3781494140625,-1.1929311752319336,0.9400081634521484,3.447141647338867,0.12266261130571365,0.33312004804611206,-0.9348716139793396,-0.12348660826683044,0.11619025468826294,-0.0079537034034729,0.5425889778513022,-0.14542461042633253,-0.10684512495888407,0.8203858523458629
1681248842969182500,1.393182373046875,-1.0701587200164795,1.020296573638916,3.294445037841797,0.15350398421287537,0.34200796484947205,-0.9270744919776917,-0.17791807651519775,0.15866342186927795,-0.10005563497543335,0.5211655614233365,-0.1587537810833357,-0.10611312862791898,0.8318195605905592
1681248842984215600,1.408215576171875,-0.928593635559082,1.0899020433425903,3.212416887283325,0.18509770929813385,0.3476240038871765,-0.9191824793815613,-0.22998909652233124,0.166032612323761,-0.13707667589187622,0.500301972708792,-0.1718465882431556,-0.10429533137033721,0.8421931349823977
1681248842999248400,1.423248291015625,-0.7905002236366272,1.080736517906189,3.0687992572784424,0.2166057974100113,0.3498803973197937,-0.9114086031913757,-0.2649762034416199,0.1556738018989563,-0.19583016633987427,0.47992746907505857,-0.18436556569293197,-0.10151370222300724,0.8516889303041109
1681248843014281500,1.438281494140625,-0.7135462164878845,1.071385383605957,2.772418260574341,0.24669905006885529,0.3498959541320801,-0.9037213921546936,-0.27213549613952637,0.19244718551635742,-0.2435411810874939,0.4608157285408124,-0.19613467207226606,-0.09833860855646741,0.8599474189621048
1681248843029314600,1.453314453125,-0.626537024974823,1.064811110496521,2.4042770862579346,0.27468055486679077,0.3488236665725708,-0.8960316181182861,-0.24988505244255066,0.3427656888961792,-0.33898425102233887,0.44379252580074174,-0.20719820962946722,-0.09514776486897439,0.866639488152096
1681248843044347600,1.46834765625,-0.5911960005760193,1.1023608446121216,2.1155264377593994,0.30100569128990173,0.3471609055995941,-0.8881862759590149,-0.2703660726547241,0.3707193434238434,-0.3539096713066101,0.42885477038136327,-0.2178401796744717,-0.09193760499523855,0.8718810897850363
1681248843059381500,1.483381591796875,-0.6085107922554016,1.1138454675674438,1.913066029548645,0.3262243866920471,0.3456196188926697,-0.8798435926437378,-0.3214483857154846,0.2808299660682678,-0.3496791124343872,0.4154351872924259,-0.22839534029421646,-0.08895936656211828,0.8759768786064758
1681248843074414600,1.49841455078125,-0.6482111811637878,1.1095396280288696,1.7722684144973755,0.3503837287425995,0.3444885313510895,-0.870952844619751,-0.3536186218261719,0.2225433588027954,-0.349902868270874,0.4028876014834488,-0.23885180984985624,-0.08644870003208831,0.8792940636503692
1681248843089447400,1.513447509765625,-0.7580345869064331,1.1467434167861938,1.6220821142196655,0.3738740086555481,0.344448983669281,-0.8611463904380798,-0.3777344822883606,0.1871519684791565,-0.32020431756973267,0.3911276307288064,-0.24952903185220285,-0.08462891560937646,0.8818120449265094
1681248843104480500,1.52848046875,-0.7830140590667725,1.1177922487258911,1.562631607055664,0.3965851366519928,0.3451543152332306,-0.8506401777267456,-0.4296509623527527,0.1737360954284668,-0.2992469072341919,0.3798333754341053,-0.2602291747426867,-0.08343071191614683,0.8837684609642795
1681248843119513600,1.543513671875,-0.8265969753265381,1.098171353340149,1.3755441904067993,0.4182974100112915,0.34638214111328125,-0.8396705389022827,-0.4763266444206238,0.20406338572502136,-0.40201336145401,0.36903819376896735,-0.2707664015364962,-0.08276637810186997,0.8852378297692882
1681248843134546400,1.55854638671875,-0.7245081067085266,1.1644904613494873,1.256088137626648,0.4391239285469055,0.34794360399246216,-0.8283147811889648,-0.4707096815109253,0.33278149366378784,-0.4447259306907654,0.35950460818614005,-0.28120475629518277,-0.08225870605159794,0.8859535438701049
1681248843149579500,1.57357958984375,-0.6555324792861938,1.1602957248687744,1.340661883354187,0.4602412283420563,0.34744250774383545,-0.8169833421707153,-0.47638505697250366,0.41210949420928955,-0.44581878185272217,0.3501991854564689,-0.2915107086965541,-0.08080744547058766,0.8864830953302822
1681248843164611000,1.588611083984375,-0.8491852283477783,1.1169395446777344,1.3638654947280884,0.4812552332878113,0.34690535068511963,-0.8050155639648438,-0.48714515566825867,0.28313007950782776,-0.39656829833984375,0.3401377680474589,-0.3018706525086361,-0.07978921260022151,0.8870254059624237
1681248843179644200,1.60364404296875,-1.008551001548767,1.0394867658615112,1.1283162832260132,0.5008352994918823,0.3486763834953308,-0.7922049760818481,-0.3751639723777771,0.0383475124835968,-0.31106650829315186,0.33013587046918813,-0.3121565904959774,-0.0803478547599383,0.8871937045637931
1681248843194677000,1.618677001953125,-1.0220098495483398,0.9734290242195129,0.6997095942497253,0.5175804495811462,0.3539530634880066,-0.7789914608001709,-0.314150333404541,0.05894976854324341,-0.3239748477935791,0.3222033653770913,-0.32199207449037043,-0.08261589497012502,0.8863862691538514
1681248843209710000,1.6337099609375,-0.626258909702301,0.8558485507965088,0.31091150641441345,0.5308305025100708,0.3598184883594513,-0.7673002481460571,-0.2323380708694458,0.2881765067577362,-0.32184159755706787,0.3173713463864636,-0.3303859921154993,-0.08482321313063276,0.884830778518144
1681248843224743200,1.6487431640625,-0.21956197917461395,0.7763881087303162,-0.031481266021728516,0.540984570980072,0.36351728439331055,-0.7584133744239807,-0.22589057683944702,0.34552812576293945,-0.3725222945213318,0.31590476796807027,-0.33691794524510865,-0.08532060955665215,0.8828424761893373
1681248843239777000,1.663777099609375,0.15278373658657074,0.7101649045944214,-0.3681415915489197,0.5482115149497986,0.3655051589012146,-0.7522433996200562,-0.20670455694198608,0.4310952126979828,-0.38766443729400635,0.3176954001499605,-0.34172868307050663,-0.08426030387872831,0.8804495455103135
1681248843254810000,1.67881005859375,0.22835499048233032,0.6800003051757812,-0.5927424430847168,0.5533670783042908,0.3670913279056549,-0.7476823329925537,-0.21367597579956055,0.3820541799068451,-0.3637983798980713,0.3219038667356318,-0.34549460859925096,-0.08241551565334714,0.8776212594096803
1681248843269843200,1.69384326171875,0.10074429959058762,0.6690174341201782,-0.7480204701423645,0.557141900062561,0.3708498179912567,-0.743009626865387,-0.24415361881256104,0.2237088978290558,-0.29516786336898804,0.32719521689227954,-0.34908849096267286,-0.08143955511455488,0.8743272425392008
1681248843284876000,1.7088759765625,0.024471737444400787,0.6190615892410278,-0.8390420079231262,0.559920608997345,0.376944363117218,-0.7378359436988831,-0.23153620958328247,0.16382712125778198,-0.24847692251205444,0.3329653255548965,-0.3527438165355457,-0.08157094988415169,0.8706618804571428
1681248843299909000,1.7239091796875,-0.026936965063214302,0.5673768520355225,-0.9283713102340698,0.5613685250282288,0.3843950927257538,-0.7328749895095825,-0.16615068912506104,0.10403874516487122,-0.20868384838104248,0.3390783562572299,-0.3560404160220228,-0.08244830371807929,0.8668698712543457
1681248843314942200,1.738942138671875,0.0694497600197792,0.4761451482772827,-1.0010085105895996,0.5615155696868896,0.3926119804382324,-0.7283927798271179,-0.11824780702590942,0.1424984633922577,-0.2158515453338623,0.3457245152568506,-0.35888349295548416,-0.08370327710051417,0.8629431305336408
1681248843329975000,1.75397509765625,0.27885571122169495,0.37110450863838196,-1.0432206392288208,0.5600115060806274,0.3991730809211731,-0.7259806990623474,-0.02171194553375244,0.2156035304069519,-0.1703510880470276,0.3530696652912232,-0.36045176494110703,-0.08416746817567741,0.8592626047963866
1681248843345008000,1.769008056640625,0.341632217168808,0.26180997490882874,-1.1304837465286255,0.5568655729293823,0.4049312472343445,-0.7252112627029419,0.0217171311378479,0.2369755208492279,-0.2043389081954956,0.36117098296998046,-0.36096410726610806,-0.08425719111588109,0.8556641414414001
1681248843360041200,1.784041259765625,0.373155415058136,0.19762353599071503,-1.0687321424484253,0.552466630935669,0.41023844480514526,-0.7255929112434387,0.11513584852218628,0.32248854637145996,-0.12143772840499878,0.3694417462002504,-0.36068307546808137,-0.08432839549688022,0.8522377616281531
1681248843375074000,1.799073974609375,0.18337202072143555,0.19633562862873077,-0.9718586206436157,0.5482978820800781,0.41534945368766785,-0.7258472442626953,0.1295737624168396,0.27454617619514465,-0.06886100769042969,0.3768552489760018,-0.36044021217248406,-0.0846122773812077,0.8490604599822745
1681248843390107100,1.814107177734375,-0.15315060317516327,0.22825440764427185,-0.9140526056289673,0.544625461101532,0.42292335629463196,-0.7242368459701538,0.08911782503128052,0.11288902163505554,0.03960549831390381,0.38304275990109893,-0.3611151349420886,-0.08647216564236672,0.8458113140374348
1681248843405141000,1.82914111328125,-0.5136017799377441,0.2915084660053253,-0.8407634496688843,0.5417856574058533,0.4336542785167694,-0.7200085520744324,0.07965898513793945,0.04763847589492798,0.08730286359786987,0.3878740287408527,-0.3631248134561917,-0.09020027408914051,0.8423527460632237
1681248843420174000,1.844174072265625,-0.886985182762146,0.37521401047706604,-0.7933781147003174,0.539976179599762,0.4478153586387634,-0.7126619815826416,0.04396241903305054,-0.02500954270362854,0.1741335391998291,0.3913219459863855,-0.36670826503820136,-0.09588557627748909,0.838569100718288
1681248843435207200,1.859207275390625,-1.1854499578475952,0.45410990715026855,-0.77286297082901,0.5389706492424011,0.4652695059776306,-0.7021644711494446,0.018799126148223877,-0.06410068273544312,0.20498734712600708,0.3936432569337394,-0.3717832354242397,-0.10341651872623354,0.8343424524245867
1681248843450240300,1.874240234375,-1.3177547454833984,0.6016011238098145,-0.7307708859443665,0.5390207767486572,0.48462975025177,-0.6889054775238037,-0.03448891639709473,-0.12064659595489502,0.2538774013519287,0.39522106067299945,-0.3781815729488247,-0.11191949193334684,0.8296102642512456
1681248843465273000,1.889273193359375,-1.2439574003219604,0.7989309430122375,-0.6704079508781433,0.5409921407699585,0.5035529136657715,-0.6736185550689697,-0.05953162908554077,-0.13723516464233398,0.2766001224517822,0.39647581222410094,-0.3857713998830785,-0.11987970452459479,0.8243884360044161
1681248843480306200,1.90430615234375,-1.0419150590896606,0.9785257577896118,-0.6234226226806641,0.544926106929779,0.5203133225440979,-0.6575177907943726,-0.06410646438598633,-0.1412392258644104,0.29911935329437256,0.39793374087863737,-0.3940996214652661,-0.1262006650680921,0.8187842531156153
1681248843495339300,1.91933935546875,-0.83766108751297,1.1414551734924316,-0.5508650541305542,0.550610363483429,0.5343349575996399,-0.6413379311561584,-0.04870307445526123,-0.1542842984199524,0.29389530420303345,0.39978343434247926,-0.40285522175481703,-0.13053237934059878,0.8129219850086391
1681248843510372000,1.9343720703125,-0.692724883556366,1.205157995223999,-0.4333552122116089,0.5578811764717102,0.5456928014755249,-0.6252902746200562,0.04117882251739502,-0.1803821325302124,0.28125035762786865,0.40163885000715704,-0.411871057260678,-0.13310556122571396,0.807051029866262
1681248843525405200,1.9494052734375,-0.6601954698562622,1.176445722579956,-0.28466957807540894,0.5659946799278259,0.5549191832542419,-0.6096841096878052,0.1114802360534668,-0.21403783559799194,0.26712435483932495,0.40291572714103324,-0.4207441957114353,-0.13465606665281432,0.80156157602911
1681248843540438300,1.964438232421875,-0.6648553013801575,1.1041944026947021,-0.14875836670398712,0.5744398236274719,0.562767744064331,-0.5943999886512756,0.2630845308303833,-0.26877665519714355,0.28008419275283813,0.40326614317549003,-0.4293437502983102,-0.1358820633656074,0.7966030769636557
1681248843555471000,1.97947119140625,-0.645785927772522,1.0720125436782837,0.005680219270288944,0.5834172368049622,0.5692179799079895,-0.5793231129646301,0.30540716648101807,-0.279438316822052,0.2797320485115051,0.4026519534552181,-0.4377585602130236,-0.1367694592762738,0.7921698038807643
1681248843570505200,1.994505126953125,-0.5641709566116333,1.075126051902771,0.1346091628074646,0.5932011008262634,0.573830246925354,-0.5646514892578125,0.3329005837440491,-0.2589040994644165,0.2880401611328125,0.4013470449035719,-0.4460170854553906,-0.13690509601120845,0.7881917740448099
1681248843585538000,2.0095380859375,-0.5120928287506104,1.073044776916504,0.3148985207080841,0.6041299104690552,0.5763250589370728,-0.5503421425819397,0.3231772184371948,-0.25178593397140503,0.2804599404335022,0.39934095677132625,-0.45421540190184845,-0.1360782492695933,0.7846641953197715
1681248843600571100,2.024571044921875,-0.49278610944747925,1.031331181526184,0.4892815053462982,0.6162092685699463,0.5767284035682678,-0.5363492965698242,0.33267372846603394,-0.2632518410682678,0.2901182174682617,0.39631209992149913,-0.46231509402516857,-0.13449951332884372,0.7817361429397999
1681248843615604200,2.039604248046875,-0.4765273928642273,0.9901635050773621,0.6523878574371338,0.629197359085083,0.575244665145874,-0.5226894617080688,0.3199755549430847,-0.27658432722091675,0.27838099002838135,0.39228698311765847,-0.470256039004902,-0.13234249053049146,0.7793944136419048
1681248843630637000,2.054636962890625,-0.464109867811203,0.9706827402114868,0.8452284336090088,0.6431952118873596,0.5717637538909912,-0.509299635887146,0.2564629912376404,-0.3060166835784912,0.2647165060043335,0.38720847833944944,-0.47807882935055396,-0.12957936073100895,0.7776370776500806
1681248843645670100,2.069670166015625,-0.4396340250968933,0.9873743653297424,1.0587420463562012,0.6586881279945374,0.5659002065658569,-0.495869904756546,0.20300620794296265,-0.29995477199554443,0.25754284858703613,0.38095021652435285,-0.4859992046011557,-0.12597550225423745,0.7764095996004038
1681248843660703200,2.084703125,-0.3789377808570862,1.0459800958633423,1.3018814325332642,0.6760451197624207,0.5571192502975464,-0.48226675391197205,0.11497050523757935,-0.2727869749069214,0.26632434129714966,0.37350526976085674,-0.4941477841050559,-0.12117998636336358,0.7756463324199877
1681248843675736000,2.099736083984375,-0.30714109539985657,1.1604936122894287,1.5552849769592285,0.6957489252090454,0.544837474822998,-0.46806570887565613,0.07715445756912231,-0.24906110763549805,0.25656360387802124,0.3648704042887839,-0.5027874686787672,-0.1147689470036128,0.7751789449422926
1681248843690769200,2.11476904296875,-0.29005610942840576,1.2086215019226074,1.7999221086502075,0.7175147533416748,0.5290305018424988,-0.45309963822364807,0.1243431568145752,-0.22390049695968628,0.2583974599838257,0.3549851667218995,-0.511892241671645,-0.10684810544753796,0.7749421314939796
1681248843705802000,2.129802001953125,-0.37181296944618225,1.1857925653457642,2.0004374980926514,0.7403919100761414,0.5103490948677063,-0.43745121359825134,0.19230151176452637,-0.2130926251411438,0.25370484590530396,0.3435756241213013,-0.5211823451506556,-0.0982005612528962,0.7750363726101418
1681248843720836000,2.144836181640625,-0.52176433801651,1.1167160272598267,2.1564130783081055,0.7633982300758362,0.4897432029247284,-0.4211588501930237,0.38067519664764404,-0.218686044216156,0.2538156509399414,0.3305446912575782,-0.5304527703581987,-0.08966849732446366,0.7754480357783239
1681248843735869200,2.159869140625,-0.6613274812698364,1.0628550052642822,2.2901406288146973,0.7861468195915222,0.46751514077186584,-0.4042309820652008,0.4264233112335205,-0.20483508706092834,0.2398175299167633,0.3158573465800594,-0.5396590838290015,-0.08156335696945875,0.7761117956812894
1681248843750902300,2.17490234375,-0.7393926978111267,1.076934576034546,2.3650388717651367,0.8084778189659119,0.4437207281589508,-0.38662073016166687,0.44294118881225586,-0.1842297613620758,0.20746725797653198,0.29996621642433696,-0.5488748089497443,-0.07366197427521087,0.7767436423174803
1681248843765935000,2.18993505859375,-0.7576588988304138,1.0776658058166504,2.366048812866211,0.829974353313446,0.41880008578300476,-0.36844155192375183,0.40430909395217896,-0.15187805891036987,0.17058080434799194,0.2835660291093436,-0.5580737754952184,-0.06582470213888407,0.777052867773702
1681248843780968200,2.20496826171875,-0.7599543929100037,1.0415915250778198,2.3433361053466797,0.8500868678092957,0.39313948154449463,-0.3504193425178528,0.36913609504699707,-0.12925398349761963,0.11763125658035278,0.2671077504496599,-0.5669360772191818,-0.0580845627160003,0.7770863414037318
1681248843796001300,2.220001220703125,-0.8222100138664246,0.9955050349235535,2.314099073410034,0.8686327934265137,0.3670646548271179,-0.3327774107456207,0.36461305618286133,-0.11833110451698303,0.08968961238861084,0.25053917351905164,-0.5753624582229773,-0.05068864481183261,0.7769291873214517
1681248843811033900,2.235033935546875,-0.9513943195343018,0.9560564160346985,2.2877492904663086,0.8856381177902222,0.3410111367702484,-0.3152087926864624,0.38303864002227783,-0.1282578706741333,0.0761188268661499,0.2336006977844392,-0.5834858064721281,-0.04404447371189333,0.7765533612594133
1681248843826067000,2.25006689453125,-1.1276123523712158,0.9199655055999756,2.2739264965057373,0.9012066125869751,0.3151664733886719,-0.29748374223709106,0.38954949378967285,-0.11835861206054688,0.06858667731285095,0.2159915544510898,-0.5914212650702191,-0.03845796326313229,0.7759442179320875
1681248843841100000,2.26510009765625,-1.3054683208465576,0.8765392303466797,2.2592079639434814,0.9154154658317566,0.2894769012928009,-0.27967390418052673,0.43977850675582886,-0.11467224359512329,0.09122785925865173,0.19757458481888776,-0.5991717133266584,-0.034004504918660534,0.7751136387644676
1681248843856132900,2.2801328125,-1.435916781425476,0.8270763158798218,2.2463948726654053,0.9282575845718384,0.2638539671897888,-0.26214277744293213,0.45896464586257935,-0.08779805898666382,0.09655439853668213,0.17840893606809782,-0.6066228436843281,-0.030615979781721137,0.7741069664102517
1681248843871167200,2.295167236328125,-1.4870884418487549,0.770729660987854,2.2114765644073486,0.9397196769714355,0.23813855648040771,-0.24539145827293396,0.47777605056762695,-0.045023322105407715,0.10581928491592407,0.15889288380610248,-0.6136167525137044,-0.027906070065915594,0.7729481143841674
1681248843886200000,2.310199951171875,-1.4904040098190308,0.7525925040245056,2.1640801429748535,0.9498463869094849,0.21234461665153503,-0.2295679748058319,0.4558389186859131,-0.006366223096847534,0.09573312103748322,0.1394294199874251,-0.6201319462758342,-0.025541806286658773,0.7715849568414177
1681248843901233200,2.325233154296875,-1.5252680778503418,0.7656283974647522,2.092543125152588,0.9587620496749878,0.18681375682353973,-0.2141864001750946,0.36774539947509766,0.04269367456436157,0.0705401599407196,0.12017868128288478,-0.6263802510503264,-0.023549537936604435,0.7698377709690688
1681248843916266000,2.340265869140625,-1.5901952981948853,0.794112503528595,2.0055835247039795,0.9665583372116089,0.16193421185016632,-0.19885234534740448,0.3126622438430786,0.07199829816818237,0.0481717586517334,0.10109610318558974,-0.6325204176947804,-0.022175375052996642,0.7675973591990932
1681248843931299000,2.355299072265625,-1.6685121059417725,0.8102976083755493,1.9011377096176147,0.9732788801193237,0.13811850547790527,-0.18344387412071228,0.20559990406036377,0.09155680239200592,0.020739376544952393,0.08219098101968247,-0.6385989098610414,-0.021667766567134577,0.7648311408453371
1681248843946332000,2.370331787109375,-1.701706886291504,0.7928733229637146,1.7749691009521484,0.9789091348648071,0.1156136766076088,-0.16843579709529877,0.15167570114135742,0.1126730889081955,-0.0022185593843460083,0.06363248025046205,-0.6444343498828734,-0.022056112349416554,0.7616882236647315
1681248843961365000,2.385364990234375,-1.679592490196228,0.7417507767677307,1.6477736234664917,0.9834772348403931,0.09447582066059113,-0.15442390739917755,0.03594714403152466,0.14238637685775757,-0.04661065340042114,0.04574013121902115,-0.6498112112206135,-0.023096299993444397,0.7583665054335383
1681248843976398000,2.400398193359375,-1.626693606376648,0.6839386224746704,1.5221840143203735,0.9870803952217102,0.07469492405653,-0.1417502462863922,-0.026341259479522705,0.1695677936077118,-0.07356655597686768,0.028743544880897483,-0.6546162590282024,-0.024544477550406733,0.7550159130612306
1681248843991431000,2.415430908203125,-1.5623096227645874,0.6412050127983093,1.4303771257400513,0.9898804426193237,0.056048836559057236,-0.13036660850048065,-0.17097163200378418,0.19887977838516235,-0.11929775774478912,0.012653117465971083,-0.6588859656291028,-0.02619126298800226,0.7516803340686987
1681248844006464000,2.430464111328125,-1.4935282468795776,0.6238885521888733,1.3846948146820068,0.9920588731765747,0.03800119832158089,-0.11989691853523254,-0.24193674325942993,0.2157524973154068,-0.14281369745731354,-0.002728152995183056,-0.6627806853923094,-0.027808345683514667,0.7482921404780676
1681248844021497900,2.445497802734375,-1.378043532371521,0.6272785067558289,1.3745622634887695,0.9937390089035034,0.0199146531522274,-0.10993731766939163,-0.3498486280441284,0.243986114859581,-0.17204511165618896,-0.01751246063528724,-0.6664742484892398,-0.029041620797144067,0.7447563135303406
1681248844036531000,2.460531005859375,-1.2328466176986694,0.5862029790878296,1.3854641914367676,0.9949241876602173,0.0013330660294741392,-0.10061892867088318,-0.3701378107070923,0.2768346965312958,-0.1926702857017517,-0.0316643010442437,-0.669939576614671,-0.02952119157426862,0.7411523810144917
1681248844051564000,2.47556396484375,-1.081445336341858,0.5022779703140259,1.3828301429748535,0.995549201965332,-0.017683828249573708,-0.0925683081150055,-0.3411151170730591,0.32198986411094666,-0.2129889726638794,-0.04506614830794664,-0.6729544242126241,-0.02912366449840387,0.737735107514765
1681248844066596900,2.490596923828125,-0.9829712510108948,0.37832140922546387,1.3660141229629517,0.9955773949623108,-0.03686746582388878,-0.08640840649604797,-0.3111596703529358,0.34887921810150146,-0.22670197486877441,-0.057782606221855166,-0.6752857273960997,-0.02801753983214205,0.7347552912269095
1681248844081630000,2.5056298828125,-0.9182047843933105,0.2526678740978241,1.3019874095916748,0.9950466752052307,-0.055700719356536865,-0.0823385939002037,-0.24147605895996094,0.37811896204948425,-0.22955107688903809,-0.06991938757941077,-0.6768482185036064,-0.026593115064629327,0.732311846560721
1681248844096663000,2.5206630859375,-0.88654625415802,0.137457937002182,1.2149063348770142,0.9940631985664368,-0.07343515008687973,-0.08028396219015121,-0.21066176891326904,0.3957313299179077,-0.22687548398971558,-0.08138254871914764,-0.6776586380362135,-0.025234687206641977,0.7304237063241551
1681248844111696100,2.535696044921875,-0.9049322009086609,0.04613840579986572,1.113155722618103,0.992737889289856,-0.08975498378276825,-0.08009689301252365,-0.16684067249298096,0.39583104848861694,-0.20844686031341553,-0.0922978397287,-0.677763648086705,-0.024248497914675607,0.7290607326324152
1681248844126729000,2.55072900390625,-0.9207741618156433,0.003003982827067375,0.9945614337921143,0.9912244081497192,-0.10440127551555634,-0.08108367770910263,-0.15965092182159424,0.39480656385421753,-0.19481050968170166,-0.1027456956283723,-0.6774118870616224,-0.023901783525571235,0.7280007887374048
1681248844141762000,2.565761962890625,-0.9003002643585205,-0.03560679405927658,0.8718757629394531,0.9896535277366638,-0.1171446442604065,-0.08284449577331543,-0.15330392122268677,0.3688536286354065,-0.18516087532043457,-0.1124933343738024,-0.6767530828595418,-0.024145706231202622,0.7271640839124405
1681248844156795100,2.580795166015625,-0.8234222531318665,-0.045665815472602844,0.7608703970909119,0.9880926012992859,-0.12820886075496674,-0.08506312966346741,-0.14151960611343384,0.36946558952331543,-0.18774878978729248,-0.12136841347136904,-0.6759136952734303,-0.02468019037731757,0.7264994057364834
1681248844171830300,2.595830322265625,-0.6861695647239685,-0.04864456504583359,0.627868115901947,0.986640453338623,-0.13755451142787933,-0.08728887140750885,-0.09658008813858032,0.379024863243103,-0.18178462982177734,-0.1290152505908353,-0.6750695655858393,-0.025231879172360364,0.7259473158008608
1681248844186863000,2.610863037109375,-0.5357840657234192,-0.032322049140930176,0.47391611337661743,0.9854104518890381,-0.14492765069007874,-0.08923056721687317,-0.06883031129837036,0.3883511424064636,-0.17950725555419922,-0.135125977530056,-0.674331879513106,-0.025714434534147738,0.7255041102772426
1681248844201896200,2.625896240234375,-0.40029552578926086,0.020531844347715378,0.2979094088077545,0.9845441579818726,-0.15002381801605225,-0.0903642550110817,0.005186676979064941,0.41242924332618713,-0.1635420322418213,-0.13958303261744465,-0.673889774436632,-0.026276324355076135,0.7250508493954222
1681248844216929300,2.64092919921875,-0.30852800607681274,0.08046814799308777,0.09508280456066132,0.9841588735580444,-0.1524885892868042,-0.09043644368648529,0.06219744682312012,0.4242933988571167,-0.1545129418373108,-0.14242320931733918,-0.6738253912791737,-0.027223529877653915,0.7245232711725706
1681248844231962000,2.655962158203125,-0.25085991621017456,0.10594101995229721,-0.12625570595264435,0.9843257069587708,-0.15187717974185944,-0.08964460343122482,0.21452677249908447,0.427817165851593,-0.12455826252698898,-0.14372312668357615,-0.6740484698601379,-0.028919836838378243,0.7239930432654433
1681248844246995200,2.6709951171875,-0.1871202439069748,0.11695905029773712,-0.3589819073677063,0.9850201606750488,-0.14797714352607727,-0.08853334933519363,0.28741025924682617,0.42458850145339966,-0.11591917276382446,-0.1435116639226057,-0.6743453841945711,-0.03149011279334158,0.7236512386528985
1681248844262028300,2.6860283203125,-0.03114161640405655,0.14884667098522186,-0.5871988534927368,0.9862222671508789,-0.1407879739999771,-0.08685686439275742,0.36349380016326904,0.4289960265159607,-0.12716293334960938,-0.141489457902253,-0.6748106226487205,-0.034672617161275926,0.7234701145653244
1681248844277061000,2.70106103515625,0.26912030577659607,0.14511185884475708,-0.7983701825141907,0.9878413677215576,-0.13061033189296722,-0.0843217596411705,0.37049591541290283,0.4330090582370758,-0.1474287509918213,-0.1371161764481455,-0.6755828090034531,-0.037775500240323806,0.7234361989424153
1681248844292094200,2.71609423828125,0.6861255764961243,0.004490558989346027,-1.0023704767227173,0.989619791507721,-0.11785701662302017,-0.08223392069339752,0.36298030614852905,0.44904905557632446,-0.21822690963745117,-0.12979459843490843,-0.6762367818015022,-0.0398353262017561,0.7240651488726045
1681248844307128000,2.731128173828125,1.0597748756408691,-0.12848347425460815,-1.2452675104141235,0.9913921356201172,-0.10222204774618149,-0.0818064734339714,0.3241748809814453,0.4419437646865845,-0.2563741207122803,-0.11922330932172885,-0.6763443352591137,-0.04068295972073804,0.725733461906479
1681248844322161200,2.7461611328125,1.3185930252075195,-0.20811384916305542,-1.4756892919540405,0.9930826425552368,-0.08333154767751694,-0.08271987736225128,0.1344960331916809,0.4123263359069824,-0.2792643904685974,-0.10573614141144895,-0.67599101764165,-0.04094149132764285,0.7281344384113678
1681248844337194200,2.7611943359375,1.5008630752563477,-0.17346292734146118,-1.6400800943374634,0.9945382475852966,-0.061738621443510056,-0.08415473997592926,0.05085664987564087,0.37950292229652405,-0.24943292140960693,-0.09006377811020379,-0.6754562014661515,-0.041006720281421834,0.7307296774564113
1681248844352227300,2.776227294921875,1.756296157836914,-0.14889021217823029,-1.7205109596252441,0.9956170916557312,-0.03857351467013359,-0.08519677817821503,0.023990333080291748,0.34100276231765747,-0.13895481824874878,-0.07261267919055467,-0.6750972031942246,-0.040563225885520714,0.7330250342889041
1681248844367260200,2.79126025390625,2.097013473510742,-0.24710385501384735,-1.7654609680175781,0.9960694313049316,-0.014933795668184757,-0.08730671554803848,0.09343850612640381,0.3148910701274872,-0.0940135046839714,-0.05328119737752755,-0.6744243395289151,-0.038709828002984926,0.7354007998905137
1681248844382293200,2.806293212890625,2.44124436378479,-0.38447105884552,-1.8012410402297974,0.9957274794578552,0.00870214868336916,-0.09192952513694763,0.24017333984375,0.3018294870853424,-0.04053204506635666,-0.03197720661067992,-0.6729095192223522,-0.03504303812431573,0.7382020100171819
1681248844397326300,2.821326416015625,2.633286476135254,-0.5451586842536926,-1.836911916732788,0.9944998025894165,0.032256077975034714,-0.09964767843484879,0.2791360020637512,0.2827311158180237,-0.0255049467086792,-0.00907639157663282,-0.6702825622340215,-0.02995740862861402,0.7414455301075259
1681248844412359200,2.836359130859375,2.5936567783355713,-0.7432782053947449,-1.8827388286590576,0.9922497272491455,0.05584174767136574,-0.11100507527589798,0.2954394221305847,0.23076409101486206,-0.0009181424975395203,0.014382241825588189,-0.6662520742008854,-0.024609671714182647,0.7451816206815013
1681248844427392300,2.851392333984375,2.3632736206054688,-0.9038801193237305,-1.9436415433883667,0.9888247847557068,0.07992257922887802,-0.12584802508354187,0.28574174642562866,0.17227470874786377,0.019265368580818176,0.037389433160865036,-0.6608037526862479,-0.020356583466149457,0.7493503259159445
1681248844442426000,2.866426025390625,2.1014771461486816,-1.0217088460922241,-1.9896458387374878,0.9841362833976746,0.1046430841088295,-0.1432669311761856,0.2424108386039734,0.0858171284198761,0.05851961672306061,0.05940834574396075,-0.6542537276096981,-0.01784918626230932,0.7537267519265056
1681248844457459200,2.881459228515625,1.892751932144165,-1.1278107166290283,-2.0264220237731934,0.978119969367981,0.12969668209552765,-0.1626654863357544,0.22312813997268677,0.04649655520915985,0.0857306718826294,0.08043873553777202,-0.6468241026652,-0.01690673002404592,0.7581967774370327
1681248844472492300,2.8964921875,1.7042224407196045,-1.2015036344528198,-2.0666964054107666,0.970704972743988,0.1550011783838272,-0.1835937201976776,0.17207157611846924,0.003049403429031372,0.11422722041606903,0.10068224471129258,-0.6386733867824975,-0.017304447671999006,0.7626664186796075
1681248844487525000,2.911525146484375,1.4970879554748535,-1.2637965679168701,-2.095273494720459,0.961837112903595,0.18057066202163696,-0.2055814117193222,0.1433417797088623,-0.026838302612304688,0.14007535576820374,0.12013521265014218,-0.6299577254777379,-0.01904089429664195,0.7670451926597188
1681248844502558200,2.92655810546875,1.2593854665756226,-1.2703969478607178,-2.137868642807007,0.9515290856361389,0.2065069079399109,-0.22791993618011475,0.07229000329971313,-0.06954394280910492,0.18038877844810486,0.13865423528334772,-0.6209226334959577,-0.02225117567785328,0.7711906854898084
1681248844517591300,2.94159130859375,1.0092887878417969,-1.2406333684921265,-2.195350408554077,0.9398635625839233,0.23323802649974823,-0.2495127022266388,0.036378562450408936,-0.10607121884822845,0.20948883891105652,0.15625745048415293,-0.6119718087011586,-0.02709527729208085,0.7748161307105569
1681248844532624100,2.9566240234375,0.7601200342178345,-1.1833083629608154,-2.2508363723754883,0.9268501996994019,0.2610103487968445,-0.26985642313957214,-0.048325419425964355,-0.14890402555465698,0.23637861013412476,0.17300412536951798,-0.6032766563449388,-0.033601541176332524,0.7778161162192802
1681248844547657200,2.9716572265625,0.5216370224952698,-1.0865695476531982,-2.285742998123169,0.9126816987991333,0.2897173762321472,-0.28822898864746094,-0.08373278379440308,-0.18270748853683472,0.25188249349594116,0.18885961642274224,-0.5951076113121176,-0.04162262806261291,0.7800298346594128
1681248844562690300,2.986690185546875,0.3321087062358856,-0.9767170548439026,-2.287946939468384,0.8976126313209534,0.3190213441848755,-0.3041662871837616,-0.1482076644897461,-0.2070675492286682,0.2556127607822418,0.20380557435046057,-0.5876474934359669,-0.050865267481732576,0.7813747967262386
1681248844577724200,3.00172412109375,0.21890221536159515,-0.8903882503509521,-2.2660577297210693,0.8818280696868896,0.3482462763786316,-0.3179681897163391,-0.14885693788528442,-0.2222086787223816,0.261739581823349,0.21799493469261125,-0.5807960259967259,-0.060760802022468204,0.781960552563016
1681248844592757200,3.01675732421875,0.12882211804389954,-0.8504562973976135,-2.2419958114624023,0.8653172254562378,0.37699148058891296,-0.3303082585334778,-0.11130422353744507,-0.20908379554748535,0.2537091076374054,0.2315719745722118,-0.5742888867526384,-0.07097994409046342,0.7820028949311737
1681248844607790300,3.031790283203125,-0.01536217425018549,-0.8348714709281921,-2.23032546043396,0.8479125499725342,0.40546929836273193,-0.34152430295944214,-0.04781806468963623,-0.22028860449790955,0.262010782957077,0.24450837056237038,-0.5679450703174049,-0.08170826672256636,0.7816506625103233
1681248844622823200,3.0468232421875,-0.2531113028526306,-0.8850193619728088,-2.2163283824920654,0.8294083476066589,0.4342153072357178,-0.3514809310436249,0.09838706254959106,-0.24680685997009277,0.290155827999115,0.25647691327966937,-0.5617050231109918,-0.09352541182152457,0.78099936890056
1681248844637856300,3.061856201171875,-0.4950591027736664,-0.9164257049560547,-2.158210277557373,0.8097406625747681,0.46325963735580444,-0.3601534366607666,0.16938525438308716,-0.28186315298080444,0.3220980167388916,0.2670697810081232,-0.5554537132375299,-0.10674479161087544,0.7802245927539828
1681248844652889300,3.076889404296875,-0.6309884786605835,-0.799607515335083,-2.0306782722473145,0.7899091839790344,0.49166804552078247,-0.3664778470993042,0.2096940279006958,-0.30572444200515747,0.3599928915500641,0.2762670464604082,-0.5497408300902007,-0.12060716745711118,0.779047780104929
1681248844667922200,3.091922119140625,-0.6291714310646057,-0.6623199582099915,-1.8437024354934692,0.7711572051048279,0.5179795622825623,-0.3701537847518921,0.20557314157485962,-0.3239182233810425,0.3657134771347046,0.2842838196484786,-0.5449793777463181,-0.1338677637316675,0.7773414044210546
1681248844682955300,3.106955322265625,-0.5458725690841675,-0.5578143000602722,-1.6220097541809082,0.7539318799972534,0.5411545634269714,-0.37247610092163086,0.1932116150856018,-0.3291947841644287,0.36010125279426575,0.29137661790701463,-0.5408644696225179,-0.145696843429329,0.7754596631353382
1681248844697989000,3.121989013671875,-0.5495093464851379,-0.4506274461746216,-1.3622850179672241,0.7386961579322815,0.560973048210144,-0.37368056178092957,0.19768989086151123,-0.34898269176483154,0.3519825339317322,0.29734199789608573,-0.5374192761164618,-0.15601360888067553,0.7735812710787764
1681248844713022200,3.137022216796875,-0.6789509654045105,-0.33917146921157837,-1.0564323663711548,0.7260876893997192,0.5777342319488525,-0.3728533983230591,0.1953294277191162,-0.3781493306159973,0.34265628457069397,0.30146081410208453,-0.5350163203672775,-0.16532040219653196,0.7717175357461981
1681248844728055300,3.15205517578125,-0.8322727680206299,-0.2524847984313965,-0.7386962175369263,0.7165544033050537,0.5917072892189026,-0.3693675398826599,0.2011244297027588,-0.4007740020751953,0.33794966340065,0.30324729611686,-0.5338953522191042,-0.17398843944930736,0.7698863258188821
1681248844743088000,3.167088134765625,-0.8559101819992065,-0.17930936813354492,-0.4183083474636078,0.7101888060569763,0.6026129126548767,-0.36399129033088684,0.20878702402114868,-0.39887750148773193,0.29843947291374207,0.3028769804730949,-0.5338337771067988,-0.18173016279501322,0.7682846490855931
1681248844758121200,3.182121337890625,-0.7713788747787476,-0.1870594322681427,-0.10526414215564728,0.7068634033203125,0.6098673939704895,-0.3583374619483948,0.21191394329071045,-0.3725017309188843,0.26554879546165466,0.30087263240306944,-0.5343447182972356,-0.18790152804339183,0.7672315580985463
1681248844773154300,3.197154296875,-0.7089388966560364,-0.20081758499145508,0.22049131989479065,0.7062917351722717,0.6132100224494934,-0.35373058915138245,0.230460524559021,-0.2942098379135132,0.18632641434669495,0.29731220083094395,-0.5349102160878936,-0.1923688308773854,0.7671183968931472
1681248844788187400,3.2121875,-0.7342358231544495,-0.1348646730184555,0.549248993396759,0.7089243531227112,0.6129010915756226,-0.34896790981292725,0.24871724843978882,-0.2706616520881653,0.17105039954185486,0.29199029186604397,-0.5360681868549595,-0.1953124145968415,0.7676103859122211
1681248844803220200,3.22722021484375,-0.8571125268936157,-0.08804097026586533,0.9555045962333679,0.7152037024497986,0.6090357899665833,-0.342868834733963,0.33649301528930664,-0.256832480430603,0.1809273064136505,0.28432823037800986,-0.5382505947156349,-0.19710878656418473,0.7684997447185702
1681248844818254300,3.24225439453125,-0.9686741232872009,-0.020634502172470093,1.4137094020843506,0.7256683111190796,0.6008927226066589,-0.33516165614128113,0.40012502670288086,-0.25071877241134644,0.20479056239128113,0.2736633780741764,-0.5415880867155431,-0.19774104721415917,0.7698630325357797
1681248844833287200,3.257287109375,-0.9358986020088196,0.08626691997051239,1.8602485656738281,0.7404759526252747,0.5876346826553345,-0.3261609375476837,0.5253931879997253,-0.24093973636627197,0.25624513626098633,0.26027116907233927,-0.5461498036775823,-0.19657041831353378,0.7715824208352156
1681248844848320300,3.2723203125,-0.7418916821479797,0.16048628091812134,2.2228450775146484,0.7589246034622192,0.5685834884643555,-0.3174055516719818,0.5309008359909058,-0.21427440643310547,0.2560041546821594,0.24505196980407778,-0.5514872517798131,-0.19276677421184873,0.7737262637929148
1681248844863353300,3.287353271484375,-0.5971685647964478,0.22989465296268463,2.407571792602539,0.7793078422546387,0.5447779893875122,-0.30967098474502563,0.4217418432235718,-0.16761130094528198,0.18297722935676575,0.22903983400583744,-0.5571012460051423,-0.18655486179109396,0.7761289628484195
1681248844878386200,3.30238623046875,-0.6233900189399719,0.32766780257225037,2.466327428817749,0.8001432418823242,0.5184961557388306,-0.3015502989292145,0.3045930862426758,-0.14294683933258057,0.12254941463470459,0.21261719863655362,-0.563097102309537,-0.17929447531809592,0.7781831991758097
1681248844893419300,3.317419189453125,-0.7463308572769165,0.4010576009750366,2.4502170085906982,0.8204494118690491,0.49161770939826965,-0.291847288608551,0.12472575902938843,-0.18548059463500977,0.06671911478042603,0.19577843650217358,-0.5695525052798016,-0.17229711642600798,0.7794834672534189
1681248844908452400,3.332452392578125,-0.7588632702827454,0.5149322748184204,2.4516847133636475,0.8399878144264221,0.4643584191799164,-0.28069835901260376,0.06598740816116333,-0.19455251097679138,0.04122695326805115,0.17869107037640472,-0.5763865685443486,-0.16561808151980964,0.780011908659664
1681248844923485200,3.347485107421875,-0.5356125235557556,0.642143189907074,2.499739408493042,0.8591386079788208,0.43551379442214966,-0.26871636509895325,0.07115912437438965,-0.18461358547210693,0.03910210728645325,0.16201366110537832,-0.5836824449487521,-0.15797662471724944,0.7798138607628186
1681248844938518300,3.362518310546875,-0.21739761531352997,0.6463331580162048,2.5693140029907227,0.8777186274528503,0.4038934111595154,-0.2578374147415161,0.11674243211746216,-0.147911936044693,0.03861439228057861,0.14626679738016707,-0.5908586260831528,-0.1482139656058564,0.7794387069490238
1681248844953552100,3.37755224609375,-0.05643376335501671,0.6300585865974426,2.61474347114563,0.895227313041687,0.3697706162929535,-0.24867211282253265,0.2701932191848755,-0.1167646050453186,0.07731592655181885,0.13121181722141223,-0.5974829800109736,-0.13666758387157252,0.7791787570973466
1681248844968585200,3.392585205078125,-0.13238424062728882,0.6679913401603699,2.633448362350464,0.9114939570426941,0.33442696928977966,-0.2394523024559021,0.3022359013557434,-0.09420785307884216,0.0977134108543396,0.11612218141459076,-0.603926033148913,-0.12468837794122413,0.778615324387308
1681248844983618300,3.407618408203125,-0.2959812581539154,0.7255781888961792,2.6425564289093018,0.9265177249908447,0.2986816167831421,-0.2288099080324173,0.2693439722061157,-0.08325806260108948,0.1456495225429535,0.10030028124630877,-0.6105332251219887,-0.11333238623963125,0.7773960750098505
1681248844998651400,3.4226513671875,-0.367042601108551,0.8104147911071777,2.594416856765747,0.9401636719703674,0.2630360722541809,-0.21657346189022064,0.21806979179382324,-0.043156951665878296,0.14920590817928314,0.08404286064820445,-0.6173866332092028,-0.10269865515997421,0.7753859411881728
1681248845013684200,3.437684326171875,-0.3168012797832489,0.8726192712783813,2.5465588569641113,0.9523053765296936,0.22756291925907135,-0.20329633355140686,0.13036662340164185,0.016592949628829956,0.12161603569984436,0.0680872214493474,-0.6243748041909893,-0.09223849701443558,0.772665611027407
1681248845028717300,3.45271728515625,-0.23855040967464447,0.9421136975288391,2.480046510696411,0.9629145860671997,0.19215913116931915,-0.18939504027366638,0.08745473623275757,0.06345614790916443,0.0943327248096466,0.05279594591035203,-0.631388376297911,-0.08155488239247813,0.7693570042806924
1681248845043750400,3.46775048828125,-0.24158892035484314,1.0118567943572998,2.3959548473358154,0.9720048308372498,0.1572900265455246,-0.17454630136489868,0.002833425998687744,0.09277103841304779,0.04742532968521118,0.038161762329236584,-0.6385121399557607,-0.07091612885527807,0.7653866942105236
1681248845058784300,3.4827841796875,-0.298261821269989,1.0348774194717407,2.2908196449279785,0.979535698890686,0.12356209009885788,-0.1588778793811798,-0.04499596357345581,0.11276605725288391,0.014712825417518616,0.023914148865182325,-0.6456401694330018,-0.06090837559646586,0.7608331093178784
1681248845073817300,3.4978173828125,-0.2980934977531433,1.0189876556396484,2.174670457839966,0.9854744672775269,0.09124533087015152,-0.14322811365127563,-0.11323636770248413,0.13810954988002777,-0.01975099742412567,0.010127988679550467,-0.6524742237674265,-0.05160747545510564,0.7559837601791015
1681248845088850200,3.51285009765625,-0.2341834157705307,0.985237181186676,2.049182891845703,0.989929735660553,0.060397613793611526,-0.12802831828594208,-0.14497435092926025,0.18207982182502747,-0.046852707862854004,-0.0028193006790286075,-0.6589111068567055,-0.042684855405170134,0.7510034884139442
1681248845103883300,3.52788330078125,-0.15590469539165497,0.9359005093574524,1.915541410446167,0.9930389523506165,0.031172482296824455,-0.11358658224344254,-0.20795899629592896,0.2446606606245041,-0.07926928997039795,-0.01467449829648788,-0.6648704837371018,-0.03396980138583469,0.7460415191664529
1681248845118916400,3.542916259765625,-0.11982876807451248,0.9081666469573975,1.7752015590667725,0.9950052499771118,0.003791206981986761,-0.09975161403417587,-0.23452234268188477,0.2790304720401764,-0.09202088415622711,-0.025459021948388432,-0.6704247901377933,-0.025588973310675018,0.7410990181124062
1681248845133949200,3.55794921875,-0.15066923201084137,0.85844886302948,1.6293578147888184,0.9960172772407532,-0.021525872871279716,-0.08652406185865402,-0.2638241648674011,0.29281190037727356,-0.10785771161317825,-0.035444646975814835,-0.6755866525733903,-0.017906556051481125,0.736210444159431
1681248845148982300,3.572982177734375,-0.21966172754764557,0.7947900295257568,1.463126540184021,0.9962494969367981,-0.04447731003165245,-0.0742206946015358,-0.26163041591644287,0.30628764629364014,-0.11814689636230469,-0.044821038353342106,-0.6802664230797553,-0.011280275719144955,0.7315062897715565
1681248845164015400,3.588015380859375,-0.28414085507392883,0.7272365093231201,1.2886167764663696,0.9959041476249695,-0.064840167760849,-0.06301330775022507,-0.23714560270309448,0.3081721067428589,-0.1355798840522766,-0.05360750993402693,-0.6844405287151649,-0.005874342776539031,0.7270714265147814
1681248845179048700,3.603048583984375,-0.3642403781414032,0.6676565408706665,1.1337957382202148,0.9951743483543396,-0.08262936770915985,-0.05291592329740524,-0.21488583087921143,0.32016295194625854,-0.14833229780197144,-0.06182614249183096,-0.6881418034438191,-0.0017020479226745355,0.7229352334867638
1681248845194081800,3.618081787109375,-0.4601631760597229,0.6204941272735596,1.0077818632125854,0.9941879510879517,-0.0983244851231575,-0.04384459927678108,-0.1418473720550537,0.3267180621623993,-0.1487365961074829,-0.06975638967451522,-0.6914304205686538,0.0012941146001041886,0.7190662259698656
1681248845209115000,3.633114990234375,-0.5752089023590088,0.6055460572242737,0.9166461229324341,0.993029773235321,-0.11238618195056915,-0.03551654890179634,-0.09601128101348877,0.33301302790641785,-0.15115946531295776,-0.07763788360178142,-0.6944289560576212,0.0031859728345495987,0.7153535920716437
1681248845224147700,3.648147705078125,-0.6709878444671631,0.5822383165359497,0.8368615508079529,0.991747260093689,-0.12518015503883362,-0.027705583721399307,0.015119314193725586,0.3365907073020935,-0.14795362949371338,-0.08563181721168309,-0.6972307918244387,0.004053575709336101,0.7117022607692187
1681248845239180800,3.663180908203125,-0.7416039705276489,0.48076680302619934,0.7693267464637756,0.9903597831726074,-0.13689734041690826,-0.02113986760377884,0.08421003818511963,0.34916236996650696,-0.15662503242492676,-0.09365786320432148,-0.699580579524221,0.004132613084199962,0.7083772169343769
1681248845254214000,3.6782138671875,-0.8461394309997559,0.33929967880249023,0.6635920405387878,0.9889339208602905,-0.1474130004644394,-0.016703197732567787,0.1981387734413147,0.376783162355423,-0.18468230962753296,-0.10166360341157457,-0.7011680325915387,0.003433791017386426,0.7057025131475604
1681248845269246700,3.693246826171875,-1.0471131801605225,0.18209464848041534,0.4846121668815613,0.9876792430877686,-0.15577639639377594,-0.014942203648388386,0.21161574125289917,0.3986353278160095,-0.20621871948242188,-0.10966065907871929,-0.7018027926500227,0.001318472344956148,0.7038789555405672
1681248845284280800,3.70828076171875,-1.3885630369186401,0.023513518273830414,0.319502592086792,0.9867540597915649,-0.1613980531692505,-0.01634052023291588,0.17842227220535278,0.4226895868778229,-0.2407395839691162,-0.11813587512978442,-0.7012990735876852,-0.0030576684520737373,0.703003669177049
1681248845299313700,3.723313720703125,-1.7667081356048584,-0.02965116687119007,0.19950294494628906,0.9861142635345459,-0.16480694711208344,-0.020431961864233017,0.1712496280670166,0.40684187412261963,-0.23576313257217407,-0.1278638047652529,-0.6997733524906974,-0.010063521167788901,0.7027566378225888
1681248845314346800,3.7383466796875,-1.891139030456543,0.0556754469871521,0.05844622850418091,0.9857919216156006,-0.16609971225261688,-0.025002693757414818,0.13745325803756714,0.3549577593803406,-0.19405251741409302,-0.1382933600029744,-0.6979475692868604,-0.01917925899021283,0.702407501869211
1681248845329379800,3.7533798828125,-1.6348539590835571,0.19252650439739227,-0.08451572060585022,0.9858704805374146,-0.16521957516670227,-0.02760019712150097,0.1008298397064209,0.37963610887527466,-0.19296562671661377,-0.14758950583305555,-0.6966846258180965,-0.02881723767333041,0.7014395012868031
1681248845344413000,3.768412841796875,-1.1165900230407715,0.2731323838233948,-0.25479212403297424,0.9863848686218262,-0.1621377021074295,-0.027497168630361557,0.11476552486419678,0.4951303005218506,-0.22033607959747314,-0.15390868233422939,-0.6963198090257477,-0.037284572093629044,0.7000432823737075
1681248845359445800,3.78344580078125,-0.4707223176956177,0.2533264756202698,-0.43186303973197937,0.9873133301734924,-0.15673981606960297,-0.02539447881281376,0.14842873811721802,0.5268722772598267,-0.2513236999511719,-0.15622168994551314,-0.6967074584810063,-0.04360593731820271,0.6987788792632513
1681248845374478800,3.798478759765625,0.209124356508255,0.126589834690094,-0.6488770842552185,0.9886152744293213,-0.1487276703119278,-0.022794071584939957,0.18618923425674438,0.5421755909919739,-0.31573742628097534,-0.1540037913381711,-0.6973985730141494,-0.047309556460876506,0.6983406815363666
1681248845389512000,3.813511962890625,0.7881000638008118,-0.0017300527542829514,-0.9171772599220276,0.9903134703636169,-0.13727165758609772,-0.02087942324578762,0.1494724154472351,0.5371739864349365,-0.3514045476913452,-0.14720030777147897,-0.6979829515318854,-0.04878614644015263,0.6991222233211032
1681248845404545800,3.8285458984375,1.1925524473190308,0.00004787370562553406,-1.1638083457946777,0.9923483729362488,-0.1219799742102623,-0.01912040263414383,-0.027474164962768555,0.5140393376350403,-0.34542733430862427,-0.13644192879918268,-0.6985982292609281,-0.048992984974929016,0.7006738273370509
1681248845419579000,3.843578857421875,1.5353615283966064,0.06008191406726837,-1.335178017616272,0.9944894313812256,-0.1035618707537651,-0.01630399003624916,-0.09863066673278809,0.4725957214832306,-0.304328978061676,-0.12262231939565202,-0.6996443387665467,-0.04843350776958106,0.7022220623402373
1681248845434611700,3.85861181640625,1.8958491086959839,0.05026896297931671,-1.4228436946868896,0.9964497685432434,-0.08318042010068893,-0.01299068983644247,-0.06876128911972046,0.4094286262989044,-0.20969611406326294,-0.1062697031569887,-0.7009415391764412,-0.04675054629028785,0.7037059484910835
1681248845449644800,3.873644775390625,2.2907419204711914,-0.04638727009296417,-1.463016390800476,0.9980281591415405,-0.06186670809984207,-0.010586433112621307,0.017718791961669922,0.37868496775627136,-0.1734345555305481,-0.08757067503348372,-0.7020200319464853,-0.04329732244914331,0.7054250247327807
1681248845464678000,3.888677978515625,2.5898101329803467,-0.23401229083538055,-1.4755287170410156,0.9991361498832703,-0.04013433679938316,-0.010776807554066181,0.19037795066833496,0.34967413544654846,-0.15108847618103027,-0.06684435589424875,-0.7022604366086959,-0.037972033180671334,0.7077571689051942
1681248845479710700,3.903710693359375,2.684539556503296,-0.4714086055755615,-1.4790499210357666,0.9997189044952393,-0.01845727488398552,-0.01488081831485033,0.24683260917663574,0.3178499937057495,-0.14562642574310303,-0.04507358633058595,-0.7011199405464957,-0.03147093818396814,0.7109210724275864
1681248845494743800,3.918743896484375,2.5704843997955322,-0.6739542484283447,-1.485817790031433,0.9997240900993347,0.003091641468927264,-0.023281430825591087,0.27693289518356323,0.25897806882858276,-0.12601059675216675,-0.023349898965492086,-0.6983807475822207,-0.024972313375896543,0.7149093619016238
1681248845509777700,3.933777587890625,2.2695980072021484,-0.8374773859977722,-1.5037435293197632,0.9990830421447754,0.024429405108094215,-0.035160891711711884,0.2689833641052246,0.21168510615825653,-0.10302269458770752,-0.0027358847178356785,-0.6942871607158375,-0.019618701004912927,0.7194254406145452
1681248845524810800,3.948810791015625,1.964058518409729,-0.982288122177124,-1.533994436264038,0.9976939558982849,0.045956291258335114,-0.04994779825210571,0.2572193145751953,0.15471205115318298,-0.049936290830373764,0.01639435725714397,-0.6890326685827409,-0.016127080861387144,0.7243653237143501
1681248845539843800,3.96384375,1.7888320684432983,-1.0818997621536255,-1.5551239252090454,0.9954642057418823,0.06748756021261215,-0.06705401092767715,0.24728775024414062,0.11874599009752274,-0.020317845046520233,0.034344308350724224,-0.6828425996030106,-0.014105978612261899,0.729621364928842
1681248845554877000,3.978876953125,1.7105885744094849,-1.1875773668289185,-1.6073641777038574,0.9923091530799866,0.0890335962176323,-0.08599679917097092,0.20645177364349365,0.1049513965845108,-0.004365794360637665,0.05183676948065518,-0.6758958873464462,-0.012897662272606698,0.7350586996755158
1681248845569909800,3.99390966796875,1.5724328756332397,-1.3386342525482178,-1.722212553024292,0.9879767894744873,0.11137353628873825,-0.10722752660512924,0.19154280424118042,0.10206642746925354,0.006641574203968048,0.06926900056350754,-0.6680005399023315,-0.012708925011141124,0.7408208445287503
1681248845584942800,4.00894287109375,1.3054733276367188,-1.4701952934265137,-1.8755395412445068,0.9821223020553589,0.1354026049375534,-0.1307743638753891,0.1828404664993286,0.09291468560695648,0.03581887483596802,0.08639593978159213,-0.6590943589036634,-0.014403022588181496,0.7469423949165116
1681248845599976000,4.023975830078125,0.9221011996269226,-1.5231561660766602,-2.046360731124878,0.9745125770568848,0.16183406114578247,-0.15535441040992737,0.17227697372436523,0.05102606117725372,0.07017982006072998,0.1027599448762113,-0.6495914036157877,-0.01880968731944206,0.7530720918938649
1681248845615009800,4.039009765625,0.5792977809906006,-1.5411357879638672,-2.2523856163024902,0.9649483561515808,0.19128647446632385,-0.1796787977218628,0.11355823278427124,-0.01994548738002777,0.1141270250082016,0.11831374550054947,-0.6398988295068511,-0.026269509049558753,0.7588421610463283
1681248845630043000,4.05404296875,0.3659280836582184,-1.5177593231201172,-2.4731674194335938,0.9531652331352234,0.22403143346309662,-0.20318977534770966,0.09023076295852661,-0.05166815221309662,0.14427554607391357,0.13366991810375442,-0.6301449331341035,-0.03636590379397565,0.7640204934114863
1681248845645075700,4.06907568359375,0.24148213863372803,-1.467814326286316,-2.7417075634002686,0.9388734698295593,0.26007482409477234,-0.2255604863166809,0.03929108381271362,-0.06172582507133484,0.1761678159236908,0.1496158226193441,-0.6203817404468728,-0.04843811538524102,0.7683718200727939
1681248845660108800,4.08410888671875,0.10096470266580582,-1.399127721786499,-3.0095696449279785,0.9216650724411011,0.2997693717479706,-0.24631604552268982,0.033565521240234375,-0.07396981120109558,0.18917186558246613,0.16649148752315662,-0.6106869444221437,-0.062477442249943685,0.7716466107479676
1681248845675142000,4.099141845703125,-0.05136624723672867,-1.3303958177566528,-3.1928091049194336,0.9014096260070801,0.342244029045105,-0.26519787311553955,0.04021036624908447,-0.08420264720916748,0.2271423637866974,0.1839446637217033,-0.6010623620355601,-0.07826306207420132,0.773798051016884
1681248845690174700,4.1141748046875,-0.25607919692993164,-1.1926765441894531,-3.36179780960083,0.8782373666763306,0.3867311179637909,-0.2813151180744171,0.06574755907058716,-0.1407441794872284,0.2524607479572296,0.20149875568226153,-0.5917648169399814,-0.0956914037718307,0.7746326860332591
1681248845705207800,4.129207763671875,-0.46017515659332275,-1.0065090656280518,-3.5142428874969482,0.8522735834121704,0.43304529786109924,-0.2934306859970093,0.08421933650970459,-0.15850913524627686,0.2674754858016968,0.2190981709327539,-0.5832074052142511,-0.11468991956039686,0.7737644182245738
1681248845720241700,4.14424169921875,-0.7689068913459778,-0.8496605753898621,-3.627622127532959,0.8236241936683655,0.48075008392333984,-0.30086982250213623,0.11222785711288452,-0.19679924845695496,0.29200446605682373,0.23630125421144782,-0.5755373511548183,-0.1353581989481811,0.7711009613366442
1681248845735274800,4.159274658203125,-1.0010448694229126,-0.7386575937271118,-3.8173959255218506,0.7917383909225464,0.5300357341766357,-0.3036651015281677,0.1660405397415161,-0.21362948417663574,0.34780871868133545,0.2530465169735732,-0.5685007543523165,-0.1580327416012062,0.766681177815164
1681248845750307800,4.174307861328125,-0.9042025208473206,-0.5772601962089539,-3.985805034637451,0.7561154961585999,0.5799626111984253,-0.30320408940315247,0.20062577724456787,-0.1814030408859253,0.3350796699523926,0.27048638623554055,-0.5616442367713397,-0.18153156976503643,0.7605518755442094
1681248845765341000,4.1893408203125,-0.5456428527832031,-0.46074000000953674,-4.048220157623291,0.7172179222106934,0.6279120445251465,-0.3022002577781677,0.24375009536743164,0.07937866449356079,0.26689139008522034,0.28956694791796006,-0.5544484503537526,-0.20368304092836584,0.7531608135576083
1681248845780373800,4.204373779296875,-0.2592390775680542,-0.4374631643295288,-4.045799255371094,0.6756197810173035,0.6720281839370728,-0.3031764626502991,0.30701565742492676,0.17517030239105225,0.24595600366592407,0.31006670234483064,-0.5462817996200984,-0.22357988878582027,0.7452830825219185
1681248845795406800,4.21940673828125,-0.2819555699825287,-0.4227510690689087,-4.026792049407959,0.6315464377403259,0.712929368019104,-0.3047634959220886,0.3908228278160095,0.250663161277771,0.248611181974411,0.33080050429439983,-0.537411181817147,-0.24250252432982905,0.7368532772890041
1681248845810440000,4.23443994140625,-0.42641666531562805,-0.42714419960975647,-3.8833539485931396,0.5859977602958679,0.7507727146148682,-0.3048723042011261,0.4472511410713196,0.2035578489303589,0.2603318393230438,0.35043246966510133,-0.5284503541263499,-0.26135046868644973,0.7277591404256749
1681248845825473800,4.249473876953125,-0.652402400970459,-0.38352110981941223,-3.755683422088623,0.5400385856628418,0.7855966091156006,-0.3019874393939972,0.4595646858215332,0.07829511165618896,0.2659156024456024,0.3681644045754459,-0.5199343803242148,-0.28048977971578776,0.7179476151375751
1681248845840507000,4.2645068359375,-0.7002745270729065,-0.2512488067150116,-3.6146981716156006,0.49417510628700256,0.8172786831855774,-0.296389102935791,0.46877652406692505,0.04230988025665283,0.2636895179748535,0.3845978314516848,-0.5120805789063505,-0.2992974011860553,0.707304090249264
1681248845855539700,4.279539794921875,-0.966677725315094,-0.042659908533096313,-3.6428208351135254,0.4483188986778259,0.846470832824707,-0.28722357749938965,0.4394679367542267,0.02578258514404297,0.25875067710876465,0.4001458721042744,-0.5053084721875545,-0.317886067747041,0.6953381341583506
1681248845870572800,4.29457275390625,-1.207575798034668,0.13074170053005219,-3.73757004737854,0.4006803333759308,0.874704122543335,-0.27266788482666016,0.48039257526397705,0.08276951313018799,0.28235724568367004,0.41528970273141763,-0.4998559417683703,-0.3373575100751536,0.6810787690276617
1681248845885606000,4.30960595703125,-1.4550271034240723,0.1660831868648529,-3.6754941940307617,0.35165849328041077,0.9010294079780579,-0.25393372774124146,0.5897630453109741,0.11114716529846191,0.25127866864204407,0.4294852640474266,-0.49516722410280506,-0.357550773871734,0.6652137405117724
1681248845900638700,4.324638671875,-1.7195000648498535,0.18462730944156647,-3.6435108184814453,0.3022955060005188,0.9246212840080261,-0.23171766102313995,0.6599694490432739,0.06878691911697388,0.24105602502822876,0.44218967638683465,-0.49105739764250317,-0.37815843767395513,0.6483264642668429
1681248845915671800,4.339671875,-2.1862945556640625,0.23437967896461487,-3.7136294841766357,0.25117331743240356,0.9463141560554504,-0.2034730315208435,0.6527115106582642,0.08533245325088501,0.2354097068309784,0.4533479333778659,-0.4878478059750879,-0.4003348644856233,0.6294537608678199
1681248845930705700,4.35470556640625,-2.8732192516326904,0.28225186467170715,-3.6621458530426025,0.1987042874097824,0.9658105373382568,-0.16651248931884766,0.6556047201156616,0.10483753681182861,0.20926763117313385,0.46214779232745695,-0.48620262833949834,-0.42467724514058863,0.6080094601356951
1681248845945738800,4.36973876953125,-3.6890995502471924,0.4934714138507843,-3.6451427936553955,0.1461607962846756,0.9823001623153687,-0.11714673042297363,0.5878784656524658,-0.027313649654388428,0.24832653999328613,0.46757175897720327,-0.48741602839714265,-0.4514999980914529,0.58305232341002
1681248845960771800,4.384771728515625,-3.6337294578552246,1.0304354429244995,-3.759087324142456,0.09203766286373138,0.9939302802085876,-0.06026400625705719,0.5425601005554199,-0.016711652278900146,0.2554086446762085,0.4722686752359241,-0.49082660304234366,-0.47849476713643946,0.5541609191377431
1681248845975805000,4.399804931640625,-3.021686315536499,1.5464296340942383,-3.888117551803589,0.03552219271659851,0.9993279576301575,-0.009035888127982616,0.3309786319732666,0.33903563022613525,0.1476619839668274,0.4801789257101573,-0.49398499074820756,-0.5014587566810502,0.5233985415096322
1681248845990837800,4.414837646484375,-1.8460439443588257,1.7309648990631104,-4.003742694854736,-0.02420179545879364,0.999316930770874,0.027927963063120842,0.27449169754981995,0.588817834854126,0.07261216640472412,0.49258543794674176,-0.49410840707812,-0.5194428397076778,0.49335141310722513
1681248846005870800,4.429870849609375,-1.1117408275604248,1.6415973901748657,-4.170140743255615,-0.08616837114095688,0.9951443076133728,0.047567546367645264,0.2116261124610901,0.6276583671569824,-0.11110520362854004,0.5087912891530864,-0.4894296281411356,-0.5331438946904768,0.4662054955430765
1681248846020904700,4.44490478515625,-1.1067928075790405,1.6919481754302979,-4.410394668579102,-0.15163485705852509,0.9865551590919495,0.06095724180340767,0.2525412142276764,0.44947993755340576,-0.15034329891204834,0.5260929224901268,-0.48181765740782373,-0.5461962713238815,0.4390303259876397
1681248846035937800,4.459937744140625,-0.8137508034706116,1.8711177110671997,-4.527139663696289,-0.21932004392147064,0.9730854034423828,0.07073427736759186,0.16342711448669434,0.21995341777801514,-0.12069154530763626,0.5442129408004854,-0.4730045984847951,-0.5582416949677058,0.41044491827708074
1681248846050971000,4.474970947265625,-0.23841433227062225,1.9006668329238892,-4.554615497589111,-0.2872779667377472,0.9552165269851685,0.07093996554613113,0.10821610689163208,0.18350094556808472,-0.2536029815673828,0.5639691393133974,-0.4615072808168775,-0.5678741172911821,0.3827122607214281
1681248846066003700,4.490003662109375,0.06364758312702179,2.0530760288238525,-4.5416035652160645,-0.35386329889297485,0.9332191348075867,0.06231158226728439,0.011913865804672241,0.22995829582214355,-0.28702783584594727,0.5848419740814879,-0.44767176354467064,-0.5751050197024088,0.35609551683657903
1681248846081036800,4.505036865234375,-0.12608975172042847,2.1246767044067383,-4.5060906410217285,-0.4183388948440552,0.9069079756736755,0.05010547116398811,0.054462552070617676,0.2098979949951172,-0.21168076992034912,0.605634019885422,-0.4333909341364206,-0.5807108010034666,0.3288688447834713
1681248846096070000,4.52006982421875,-0.6032765507698059,2.220979928970337,-4.380465030670166,-0.47945457696914673,0.8766347169876099,0.04043327644467354,0.14185389876365662,-0.05722254514694214,-0.03730523958802223,0.6244497700463613,-0.420712017416343,-0.5858481339619609,0.29974291292213284
1681248846111102700,4.535102783203125,-0.81222003698349,2.393369436264038,-4.173543453216553,-0.5361528396606445,0.8435037136077881,0.03227980062365532,0.20929419994354248,-0.16761553287506104,-0.0201491080224514,0.6415352804008382,-0.41022209030768525,-0.589794655837271,0.2688730717552982
1681248846126136800,4.55013671875,-0.6309336423873901,2.479811429977417,-3.892671585083008,-0.5872671008110046,0.8091243505477905,0.02086278796195984,0.22140705585479736,-0.25436049699783325,-0.06184792518615723,0.6577986898005518,-0.40054993313675197,-0.5916004947508098,0.23847333335266202
1681248846141169700,4.565169677734375,-0.5436912178993225,2.534949541091919,-3.6941890716552734,-0.6327477693557739,0.7743459343910217,0.0043178703635931015,0.2880059480667114,-0.22028404474258423,-0.04804956912994385,0.673711736237877,-0.3907168084727714,-0.5911846671301175,0.2096509939880825
1681248846156202800,4.58020263671875,-0.7892886996269226,2.471022844314575,-3.4929192066192627,-0.673611044883728,0.7389734983444214,-0.012900437228381634,0.374691367149353,-0.20694535970687866,-0.05835813283920288,0.6882675309236015,-0.3818050071169506,-0.5897242729618739,0.18093671412086496
1681248846171235800,4.59523583984375,-1.0604397058486938,2.23606014251709,-3.15348744392395,-0.7089385986328125,0.7047544717788696,-0.02696969173848629,0.4403839111328125,-0.23409712314605713,-0.06290459632873535,0.7001120223965338,-0.3750129853094169,-0.5881159879779382,0.15273541157598336
1681248846186269000,4.61026904296875,-0.9340107440948486,2.0609686374664307,-2.844247579574585,-0.7388864159584045,0.672656774520874,-0.039743244647979736,0.5668741464614868,-0.3668096661567688,-0.10135483741760254,0.7098641045435553,-0.3694529128865084,-0.586202118357795,0.12635066248331303
1681248846201301800,4.6253017578125,-0.5897977352142334,2.0124928951263428,-2.5817482471466064,-0.7642247080802917,0.6425902843475342,-0.055120643228292465,0.5752294063568115,-0.27451783418655396,-0.125970721244812,0.7190220574923543,-0.36344211514859404,-0.5833948125974511,0.10279872785850777
1681248846216336000,4.6403359375,-0.305745005607605,1.637762427330017,-2.281611680984497,-0.785545289516449,0.6145337820053101,-0.07257261127233505,0.5683059096336365,-0.10481399297714233,-0.12600529193878174,0.7276366820096009,-0.35636869432831597,-0.5802715299591384,0.08265091171138077
1681248846231368700,4.65536865234375,-0.25010836124420166,1.3245675563812256,-2.009514570236206,-0.8030968904495239,0.5893716216087341,-0.08761674910783768,0.6126365661621094,-0.15246671438217163,-0.1814873218536377,0.7344845923466117,-0.34936206267192066,-0.5780465162526225,0.06588530609207048
1681248846246401800,4.67040185546875,-0.235813707113266,1.1792484521865845,-1.7866647243499756,-0.8178516626358032,0.566558837890625,-0.10064741969108582,0.6257434487342834,-0.22988885641098022,-0.09829671680927277,0.7400815899979836,-0.3430461989396604,-0.5761905891913096,0.051019976194727576
1681248846261435000,4.685434814453125,-0.13998931646347046,0.9984627366065979,-1.5204026699066162,-0.8298995494842529,0.5464521646499634,-0.11250283569097519,0.5598951578140259,-0.18535292148590088,-0.043396249413490295,0.7448459324289,-0.3373973246384397,-0.5743793404813169,0.038157810797815404
1681248846276467700,4.7004677734375,0.08054065704345703,0.7917523980140686,-1.2932460308074951,-0.8396760821342468,0.5288487076759338,-0.12354408949613571,0.5095064043998718,-0.1350499391555786,-0.07494229078292847,0.7489965512116621,-0.3317286421470653,-0.572873514770305,0.02786085803335357
1681248846291500800,4.715500732421875,0.2853162884712219,0.5593050718307495,-1.08950674533844,-0.8476935625076294,0.5133998394012451,-0.1335524469614029,0.5212775468826294,-0.09437823295593262,-0.1003800630569458,0.7525717855891938,-0.3256711227311698,-0.571980851559521,0.020296180621472728
1681248846306534000,4.730533935546875,0.31301531195640564,0.38724085688591003,-0.9078239798545837,-0.8543272018432617,0.5000066757202148,-0.1418391764163971,0.4614744782447815,-0.09609133005142212,-0.11516463756561279,0.755447048616174,-0.31972556891913706,-0.571713192168788,0.014810925316733524
1681248846321567700,4.745567626953125,0.327811062335968,0.22711032629013062,-0.7184489965438843,-0.859739363193512,0.48875364661216736,-0.14821647107601166,0.40664488077163696,-0.09979185461997986,-0.10166150331497192,0.7576214337169922,-0.3143571389631503,-0.5719015234876094,0.010863965712537667
1681248846336600800,4.760600830078125,0.2318112850189209,0.17326094210147858,-0.56717449426651,-0.8639256954193115,0.47986382246017456,-0.1528496891260147,0.316455602645874,-0.08211302757263184,-0.09777593612670898,0.7591842818701229,-0.31000840949998565,-0.5722498934333672,0.008000703240149523
1681248846351633700,4.775633544921875,0.18980322778224945,0.10382087528705597,-0.4396040439605713,-0.8672308921813965,0.47281432151794434,-0.15606702864170074,0.2667519450187683,-0.064992755651474,-0.07759079337120056,0.7602641463904579,-0.3067070469199345,-0.5726231478396359,0.005638588730780126
1681248846366666800,4.790666748046875,0.3147618770599365,-0.061617620289325714,-0.2834559977054596,-0.8697077035903931,0.46752074360847473,-0.1582169383764267,0.1746852993965149,-0.025489002466201782,-0.1581893265247345,0.7609776408413587,-0.30370457179547655,-0.573284454378549,0.004618976670935321
1681248846381699800,4.805699951171875,0.3371976912021637,-0.07505619525909424,-0.22110259532928467,-0.8716378211975098,0.4635249674320221,-0.1593494564294815,0.15143823623657227,-0.014397799968719482,-0.20023924112319946,0.7613491519746142,-0.30085230906191157,-0.5742936200512962,0.0047168113025798375
1681248846396733000,4.82073291015625,0.37854859232902527,-0.17088259756565094,-0.09042234718799591,-0.8730436563491821,0.46054020524024963,-0.1603049337863922,0.07560396194458008,0.030930161476135254,-0.15802396833896637,0.7616562561169127,-0.2980358557088207,-0.575345254294808,0.0056821965216876606
1681248846411766800,4.835766845703125,0.3369799852371216,-0.236070916056633,-0.023223865777254105,-0.8738468885421753,0.4590519070625305,-0.16019684076309204,0.06204879283905029,-0.000052303075790405273,-0.15886443853378296,0.7616053097167274,-0.29571512557357743,-0.5765883685560496,0.007471094353297685
1681248846426799900,4.8507998046875,0.22551791369915009,-0.28114625811576843,0.015545368194580078,-0.8745026588439941,0.45832353830337524,-0.15869681537151337,0.044638216495513916,0.04485026001930237,-0.12719190120697021,0.7610931034547529,-0.29406240136262557,-0.5780820835822117,0.00925975248567471
1681248846441832700,4.865832763671875,0.13518200814723969,-0.183095321059227,0.011816143058240414,-0.8749180436134338,0.4581727683544159,-0.15683244168758392,0.018945634365081787,0.06282338500022888,-0.11347706615924835,0.7604623221389473,-0.2931323479768021,-0.5793593077828793,0.01065017130064692
1681248846456865800,4.88086572265625,0.1413956880569458,-0.09723260253667831,-0.00038939062505960464,-0.8751847147941589,0.4579735994338989,-0.15592271089553833,-0.06396323442459106,0.1062353253364563,-0.09720534086227417,0.7601498674748195,-0.29241977470063313,-0.5801114706396535,0.011556302620184188
1681248846471899000,4.89589892578125,0.19887809455394745,0.05856870859861374,-0.12495129555463791,-0.8756181001663208,0.45687317848205566,-0.1567157506942749,-0.08364087343215942,0.11763545870780945,-0.12869994342327118,0.7604026154395707,-0.29120245915211435,-0.5803819907654848,0.01207044734357279
1681248846486931700,4.910931640625,0.356202095746994,0.19137468934059143,-0.23544132709503174,-0.8765661120414734,0.45376455783843994,-0.16040386259555817,-0.13031554222106934,0.15275698900222778,-0.12780414521694183,0.7616174764881376,-0.28886508611331335,-0.5799612309672237,0.011858688405718684
1681248846501965800,4.9259658203125,0.6819954514503479,0.16856950521469116,-0.30106160044670105,-0.8779321312904358,0.44897735118865967,-0.16629651188850403,-0.17680108547210693,0.15022003650665283,-0.12276601791381836,0.7635454345005415,-0.28481845260275407,-0.5794222954409488,0.012110061983351619
1681248846516998700,4.94099853515625,1.0194191932678223,0.11366099119186401,-0.2916018068790436,-0.8796002268791199,0.4427402913570404,-0.17402487993240356,-0.23046141862869263,0.1982203722000122,-0.09904646873474121,0.766042152890089,-0.2785039415644398,-0.5791572428234794,0.013855268771482281
1681248846532031700,4.95603173828125,1.0353872776031494,0.018535804003477097,-0.2478947937488556,-0.8811733722686768,0.43642380833625793,-0.18184594810009003,-0.25485873222351074,0.21656081080436707,-0.055855512619018555,0.7685315406438441,-0.2712693338219608,-0.57921496467997,0.016803532951611334
1681248846547064800,4.97106494140625,0.8134071826934814,0.09609797596931458,-0.2089655101299286,-0.8825865983963013,0.4307308793067932,-0.1884455680847168,-0.28451234102249146,0.1304415464401245,0.06355233490467072,0.7706141992568779,-0.26488579910695054,-0.5793209186133494,0.019403204079227
1681248846562097700,4.98609765625,0.6557603478431702,0.2261153608560562,-0.20145060122013092,-0.8833699226379395,0.426005482673645,-0.19538848102092743,-0.3206247091293335,0.1038101315498352,0.08891263604164124,0.7728195760308159,-0.2598417611645098,-0.5786086908377631,0.02107112582343467
1681248846577130800,5.001130859375,0.8243690729141235,0.2802891135215759,-0.23287084698677063,-0.8840111494064331,0.42102038860321045,-0.20314092934131622,-0.19502943754196167,0.07073992490768433,0.02217164635658264,0.7752874415844326,-0.2548710298456088,-0.5774688702341687,0.022359446600794634
1681248846592164900,5.016164794921875,1.3574676513671875,0.45527184009552,-0.06335318088531494,-0.8838860392570496,0.4154304265975952,-0.21485577523708344,-0.09144043922424316,0.05771404504776001,0.012493684887886047,0.7789687740262733,-0.24803355984919434,-0.57537071813741,0.025209502640217336
1681248846607197700,5.03119775390625,1.8515509366989136,0.28338104486465454,0.17677339911460876,-0.8822258710861206,0.41073673963546753,-0.23015840351581573,-0.040793538093566895,0.019027024507522583,0.08524566888809204,0.7836131350970676,-0.23862727423452723,-0.572693479786529,0.03208853859068164
1681248846622230800,5.046230712890625,1.7217791080474854,0.16129055619239807,0.39172059297561646,-0.8797006011009216,0.40795275568962097,-0.24433831870555878,0.01930338144302368,-0.05556634068489075,0.06292654573917389,0.7876980075183275,-0.22908791797004185,-0.5703942211967309,0.04124215316339597
1681248846637264000,5.061263916015625,1.4017584323883057,0.0957067534327507,0.46164029836654663,-0.8765173554420471,0.40802332758903503,-0.25540950894355774,0.03282850980758667,-0.24632605910301208,0.12632015347480774,0.7906811154669411,-0.2218766445917743,-0.5683889525322725,0.05027894501550532
1681248846652296700,5.076296630859375,1.513035535812378,0.08709356188774109,0.4082944989204407,-0.8734458088874817,0.40829479694366455,-0.2653068006038666,0.020571112632751465,-0.19828814268112183,0.1889823079109192,0.7932158916989313,-0.21534220823347508,-0.566545967463276,0.058838192828158414
1681248846667329800,5.091329833984375,1.8366984128952026,0.04989399015903473,0.3566659390926361,-0.8708092570304871,0.40643590688705444,-0.27658799290657043,-0.06075495481491089,0.10076618194580078,0.17591050267219543,0.7960193134990386,-0.2069328063401263,-0.564698877585708,0.06816985279497469
1681248846682363600,5.10636376953125,1.809327244758606,0.028891239315271378,0.2245558351278305,-0.8688290119171143,0.40246567130088806,-0.28837069869041443,-0.08170199394226074,0.17143264412879944,0.14820343255996704,0.7988332205696628,-0.19708513416273632,-0.5630027492161616,0.07778768379725107
1681248846697396700,5.121396728515625,1.316390037536621,0.0643983706831932,0.10145974159240723,-0.8677120208740234,0.3974834382534027,-0.2984674572944641,-0.11388593912124634,0.07880440354347229,0.16267946362495422,0.8012149565089173,-0.18821526946707687,-0.561552565568854,0.08537194511645656
1681248846712429800,5.136429931640625,0.7219995856285095,0.07984843105077744,0.06580054759979248,-0.8668373227119446,0.394012987613678,-0.3055275082588196,-0.1446068286895752,-0.009399980306625366,0.16290360689163208,0.8029065419634553,-0.18254401261591605,-0.5602802218561429,0.09002764024258299
1681248846727424500,5.151424560546875,0.36878231167793274,0.025253094732761383,0.08092224597930908,-0.8661779761314392,0.3924737572669983,-0.3093545436859131,-0.09297430515289307,-0.1563287079334259,0.12324300408363342,0.8038112117943674,-0.17971659195204104,-0.5594860828050384,0.09254682870036778
1681248846742457600,5.16645751953125,0.4197847545146942,0.007600864861160517,0.13566164672374725,-0.8655014038085938,0.3921293616294861,-0.31167668104171753,-0.03650689125061035,-0.18666967749595642,0.07258695363998413,0.8098386550452342,-0.24210339328010932,-0.5343665530152707,-3.6876687780736786e-17
1681248846757490700,5.18149072265625,0.5427245497703552,0.07926200330257416,0.15229761600494385,-0.8644470572471619,0.39179423451423645,-0.31500619649887085,0.03642868995666504,-0.1682528853416443,-0.007854282855987549,0.810861095417374,-0.2397700258530041,-0.5338606936392469,0.0027665190527176135
1681248846772523500,5.1965234375,0.5124963521957397,0.12841330468654633,0.14476646482944489,-0.8630555272102356,0.3911101520061493,-0.3196380138397217,0.04667949676513672,-0.11480385065078735,-0.01646706461906433,0.8122727372673325,-0.23701880057160912,-0.5329193883620305,0.005687845168889222
1681248846787557600,5.2115576171875,0.23927101492881775,0.1713879406452179,0.15569394826889038,-0.8615089058876038,0.3911372721195221,-0.3237503468990326,0.09409844875335693,-0.1343470811843872,-0.04473388195037842,0.8135186927230798,-0.23522154145098614,-0.5317853384033555,0.007919586724303575
1681248846802590700,5.2265908203125,-0.19362086057662964,0.27978071570396423,0.14047770202159882,-0.859488844871521,0.3928229808807373,-0.3270617127418518,0.12932509183883667,-0.17855897545814514,-0.010004699230194092,0.8145296171468589,-0.23559070394103981,-0.5300624095231862,0.008519525791673161
1681248846817623600,5.24162353515625,-0.5902217626571655,0.21168076992034912,0.14574037492275238,-0.8574334383010864,0.3966487944126129,-0.32783839106559753,0.15649020671844482,-0.21648812294006348,0.041293829679489136,0.8147796925431134,-0.23866294929041,-0.5283188450202548,0.007318837387175302
1681248846832656600,5.25665673828125,-0.6601940393447876,0.12793207168579102,0.1636008769273758,-0.8556271195411682,0.4018823504447937,-0.3261796236038208,0.1995753049850464,-0.20927056670188904,-0.009086251258850098,0.814285739676332,-0.24329554987028168,-0.5269890571172791,0.005368373030596104
1681248846847689700,5.271689697265625,-0.4660313129425049,0.004764598328620195,0.19587917625904083,-0.8541911840438843,0.40703287720680237,-0.3235456645488739,0.268604576587677,-0.1753128468990326,-0.0446029007434845,0.813484049394802,-0.24754261045872733,-0.5262602312269218,0.004074920902355654
1681248846862723600,5.2867236328125,-0.10743265599012375,-0.05185340344905853,0.28129661083221436,-0.8529053926467896,0.4114411771297455,-0.3213544189929962,0.2844848036766052,-0.1484711468219757,-0.050120532512664795,0.8128088172751311,-0.25026679876349317,-0.5260126550563989,0.004375432053583908
1681248846877756700,5.301756591796875,0.26352354884147644,-0.07681334763765335,0.42348676919937134,-0.8510090112686157,0.41558992862701416,-0.321043461561203,0.2946886420249939,-0.188478022813797,0.013762235641479492,0.8126949505811073,-0.2511662371798801,-0.5257316723938922,0.006987274250335959
1681248846892789500,5.31678955078125,0.474714070558548,-0.11488989740610123,0.47724106907844543,-0.848564863204956,0.4196181893348694,-0.3222710192203522,0.3083271384239197,-0.20039504766464233,0.040014177560806274,0.8130218861127025,-0.2506586905431312,-0.5253900493362007,0.011454534515789582
1681248846907822600,5.331822509765625,0.5734719038009644,-0.2592684030532837,0.6091243028640747,-0.8460995554924011,0.4237353205680847,-0.3233638405799866,0.3730921745300293,-0.10890063643455505,0.043533146381378174,0.8132570973553879,-0.2494207021562496,-0.5254592279876409,0.017174497298550872
1681248846922855700,5.346855712890625,0.4148569405078888,-0.3979538381099701,0.810921311378479,-0.843123197555542,0.4303327202796936,-0.32242417335510254,0.40382248163223267,-0.13805052638053894,0.02049875259399414,0.812791516781613,-0.24910796100469002,-0.5260543089228814,0.024129668526738535
1681248846937888500,5.361888427734375,0.36770913004875183,-0.5528126358985901,1.0526196956634521,-0.8393229246139526,0.44025492668151855,-0.31892457604408264,0.4094064235687256,-0.256111741065979,0.02876371145248413,0.8114373326917258,-0.2504136815034301,-0.5270964784512914,0.03212400952863526
1681248846952921600,5.376921630859375,0.6209390759468079,-0.7618987560272217,1.3673886060714722,-0.8343802690505981,0.45316776633262634,-0.3137657344341278,0.4095143675804138,-0.2543456256389618,0.005523204803466797,0.8093636638549757,-0.25213333323689724,-0.5287210123178276,0.042586396642108934
1681248846967955700,5.391955810546875,1.0428745746612549,-0.8801186084747314,1.7800562381744385,-0.8273493647575378,0.4689013361930847,-0.3092326819896698,0.4625420570373535,-0.20629748702049255,-0.02328658103942871,0.8070755030788177,-0.2530518723612278,-0.5304228612380975,0.05697097002580893
1681248846982988500,5.406988525390625,1.4503096342086792,-0.9487727284431458,2.254560708999634,-0.8171404600143433,0.4879988133907318,-0.30682045221328735,0.4578263759613037,-0.21720096468925476,-0.0021849870681762695,0.8047652268170731,-0.25304932715184647,-0.5315597882412004,0.07591640928606627
1681248846998021600,5.422021728515625,1.849326252937317,-0.9188478589057922,2.802978754043579,-0.8025176525115967,0.5111255645751953,-0.30776000022888184,0.42727339267730713,-0.18307679891586304,0.0522213876247406,0.8024816903164905,-0.25257406866969473,-0.5313438984695573,0.09951504471700062
1681248847013054700,5.4370546875,2.1610047817230225,-0.8671852350234985,3.407717227935791,-0.7822098731994629,0.5386332869529724,-0.31308460235595703,0.3975357413291931,-0.17057597637176514,0.07930496335029602,0.8001034913348225,-0.251972734991526,-0.5291194945564549,0.1279718010430602
1681248847028087600,5.452087646484375,2.012877941131592,-0.7377973794937134,3.968137741088867,-0.7552223205566406,0.5712445974349976,-0.32143300771713257,0.3605536222457886,-0.12690848112106323,0.08171766996383667,0.7969094970105433,-0.2529616653165779,-0.5246845709990963,0.1601623829911947
1681248847043121700,5.46712158203125,1.3574508428573608,-0.5472607612609863,4.382016658782959,-0.721245288848877,0.6092743873596191,-0.3295304775238037,0.3230365514755249,-0.10977774858474731,0.10798835754394531,0.7921403015385223,-0.25826693011725216,-0.5182016512387045,0.19307839696338575
1681248847058154500,5.482154541015625,0.534052848815918,-0.45124074816703796,4.787774085998535,-0.6801737546920776,0.6529403328895569,-0.3332158625125885,0.2933785915374756,-0.06320327520370483,0.08849561214447021,0.7848736191098565,-0.2696504438731868,-0.5105690090286439,0.2249032898551589
1681248847073187600,5.4971875,0.12663555145263672,-0.43355605006217957,5.166209697723389,-0.6316836476325989,0.700607419013977,-0.3318514823913574,0.28623974323272705,-0.07318109273910522,0.0599401593208313,0.7748011778495315,-0.286090498824395,-0.5022215436538443,0.25614282238194336
1681248847088220700,5.512220703125,0.21749189496040344,-0.44185125827789307,5.423824310302734,-0.5760328769683838,0.7482076287269592,-0.3291986584663391,0.335249125957489,0.1098247766494751,0.05180943012237549,0.7625895822489304,-0.30436762382110855,-0.492707840379036,0.288195626663014
1681248847103253500,5.52725341796875,0.9102721214294434,-0.5291008949279785,5.755046367645264,-0.5139626264572144,0.7911416888237,-0.3315681219100952,0.3184517025947571,0.2723655104637146,0.045939117670059204,0.749326655669084,-0.320555592840188,-0.4811029489173702,0.32294541435000185
1681248847118286600,5.54228662109375,1.1755410432815552,-0.5335928797721863,6.358062267303467,-0.4429951608181,0.8289226293563843,-0.3415302336215973,0.3019885718822479,0.4007071852684021,0.0019461214542388916,0.7345941367625555,-0.33432010168478654,-0.4663313758314514,0.36212814923396824
1681248847133320400,5.557320556640625,0.2847670316696167,-0.19884391129016876,6.686369895935059,-0.361508309841156,0.8645350933074951,-0.349128782749176,0.222287118434906,0.33944451808929443,0.039635032415390015,0.7164308471769082,-0.35148154236714196,-0.4493287542655035,0.401610918150539
1681248847148353500,5.572353515625,-1.428884744644165,0.14161859452724457,6.6206440925598145,-0.2729862630367279,0.8990214467048645,-0.3424021899700165,0.0857304036617279,0.0741385817527771,0.18059825897216797,0.6939501020590999,-0.37619006393498194,-0.432758524429254,0.43547053136366404
1681248847163386600,5.58738671875,-2.8605687618255615,0.11144816875457764,6.290503978729248,-0.18329788744449615,0.9323649406433105,-0.31160491704940796,0.07627274096012115,-0.106955885887146,0.14177486300468445,0.6660019362740722,-0.4090496733187323,-0.4205661757763727,0.46069941635110684
1681248847178419500,5.60241943359375,-2.673842191696167,-0.428068608045578,6.262908458709717,-0.09507398307323456,0.9579988718032837,-0.2705535888671875,0.38058122992515564,-0.01216745376586914,0.09608486294746399,0.6342748608013878,-0.4421261405917323,-0.411397235531523,0.48267205564208693
1681248847193452300,5.617452392578125,-1.395983338356018,-0.9442986249923706,6.50653600692749,-0.005058751441538334,0.9707881808280945,-0.23988495767116547,0.43734028935432434,0.09622848033905029,0.01684752106666565,0.6012115722273352,-0.4686540301039303,-0.4005258028224307,0.5084163513224532
1681248847208485400,5.6324853515625,-0.3593403697013855,-0.9476049542427063,6.4909844398498535,0.08674361556768417,0.9695886969566345,-0.22885313630104065,0.30772665143013,0.37652671337127686,0.012926250696182251,0.5697537036905197,-0.48754712975326686,-0.38454028214084984,0.5383378172824689
1681248847223519200,5.647519287109375,-0.8194195628166199,-0.6395390033721924,6.114116191864014,0.17581084370613098,0.9586220979690552,-0.22390718758106232,0.1109018623828888,0.3879051208496094,0.046676650643348694,0.5395661634029779,-0.5039771210400636,-0.36613312589181346,0.5664115622415968
1681248847238552300,5.66255224609375,-2.970776319503784,-0.4921381175518036,5.826752662658691,0.2589064836502075,0.945029616355896,-0.19971640408039093,-0.015635520219802856,0.14693522453308105,0.1647740602493286,0.5052793462378359,-0.5246889746646574,-0.3533316810836817,0.5869847697206396
1681248847253585400,5.67758544921875,-5.520014762878418,-0.5800024271011353,5.801209449768066,0.3397725224494934,0.9297955632209778,-0.14154566824436188,0.014551937580108643,-0.04162710905075073,0.20241326093673706,0.46048456002360766,-0.5533366239631994,-0.3507787694120657,0.598938243760122
1681248847268618200,5.6926181640625,-6.646992206573486,-0.9223917126655579,5.530813217163086,0.4169767498970032,0.9069992899894714,-0.059017255902290344,0.299881249666214,-0.3739486336708069,0.258022665977478,0.4060287756435212,-0.5855089246566979,-0.35731032828751064,0.6038621059217851
1681248847283651300,5.7076513671875,-5.330967903137207,-1.6259872913360596,5.418778419494629,0.48982203006744385,0.8716986179351807,0.014697536826133728,0.3824772238731384,-0.23945069313049316,0.26203620433807373,0.3500952034024858,-0.6121558011160978,-0.3641621117214812,0.6083458182012955
1681248847298684400,5.722684326171875,-2.4324188232421875,-2.5193796157836914,5.460388660430908,0.5603111386299133,0.8268624544143677,0.048478562384843826,0.4941170811653137,0.4504660367965698,0.14869582653045654,0.30103304678188975,-0.6270377457340002,-0.3620261690764302,0.6205964457085692
1681248847313718300,5.73771826171875,-0.02834758721292019,-2.7621753215789795,5.500157833099365,0.628412127494812,0.776952862739563,0.037984736263751984,0.4209197163581848,0.7556094527244568,0.08512341976165771,0.2624496240914665,-0.6313140185679664,-0.3470374314295755,0.6419719735641344
1681248847328751400,5.75275146484375,0.5587475895881653,-2.472538948059082,5.334025859832764,0.6906697154045105,0.7231340408325195,0.007279438432306051,0.18736696243286133,0.7501631379127502,0.046233415603637695,0.23101267488724728,-0.631343010855688,-0.32410757777735294,0.6655776882668387
1681248847343784400,5.767784423828125,-0.20671333372592926,-2.061025619506836,4.902977466583252,0.7440906763076782,0.6677883863449097,-0.019706133753061295,0.04697096347808838,0.5809910297393799,0.14713257551193237,0.20073595548171808,-0.6314877624339882,-0.3022749395905013,0.685243324764151
1681248847358817300,5.7828173828125,-1.2042943239212036,-1.771802544593811,4.624715328216553,0.7889679074287415,0.6134619116783142,-0.034560251981019974,0.01774919033050537,0.2802758812904358,0.17338502407073975,0.16839110970351745,-0.6330927221093814,-0.2862053098965414,0.6992315263154725
1681248847373850400,5.797850341796875,-1.5862685441970825,-1.7001272439956665,4.494472980499268,0.8281815052032471,0.558824360370636,-0.04279138520359993,0.050297677516937256,0.2372419238090515,0.15740042924880981,0.1336577521512699,-0.6351876057620232,-0.27411860998099513,0.7095995550335101
1681248847388884200,5.81288427734375,-1.1902259588241577,-1.6491117477416992,4.312549114227295,0.8622025847434998,0.5038187503814697,-0.0526634082198143,0.10941612720489502,0.223827064037323,0.09549511224031448,0.0997759248541079,-0.6363307034769284,-0.2622051321447025,0.7185934303894034
1681248847403917300,5.827917236328125,-0.49065762758255005,-1.5525354146957397,4.203530788421631,0.8912224769592285,0.4484906494617462,-0.06766996532678604,0.07273656129837036,0.29020264744758606,0.07264458388090134,0.06951613845048277,-0.6363258821695797,-0.2474962405617613,0.7273258031714507
1681248847418950400,5.842950439453125,0.1690928339958191,-1.3570276498794556,4.12448787689209,0.9158844351768494,0.39198166131973267,-0.08663886785507202,0.026849448680877686,0.34945809841156006,0.046539075672626495,0.043274798383895,-0.635812597670772,-0.22896048811321307,0.7358307340313789
1681248847433983200,5.857983154296875,0.557367205619812,-1.0543793439865112,3.995882034301758,0.9363412261009216,0.33484864234924316,-0.10555509477853775,0.0014946460723876953,0.34526604413986206,0.05282098054885864,0.02051808912719162,-0.6356676562371948,-0.20772357790017432,0.7432071046209159
1681248847449016300,5.873016357421875,0.7681804299354553,-0.707939088344574,3.872959613800049,0.9530041813850403,0.277678906917572,-0.12115205824375153,0.008971095085144043,0.2584080696105957,0.05801147222518921,0.0003101768681020773,-0.6365021162348411,-0.18517296588851248,0.7487163377543452
1681248847464049400,5.88804931640625,0.9116393327713013,-0.45182424783706665,3.7135589122772217,0.9661756753921509,0.2211972028017044,-0.13257759809494019,0.035167396068573,0.2735995054244995,0.06208221614360809,-0.017860173307266303,-0.6382895938571272,-0.16216532187052593,0.7523098180291544
1681248847479083300,5.903083251953125,1.0004816055297852,-0.2968921959400177,3.4845848083496094,0.9759349822998047,0.1665249764919281,-0.1407865583896637,0.1293509602546692,0.322625994682312,0.05002753436565399,-0.03409116733895309,-0.6404707164989824,-0.13929817982429474,0.7544742163250158
1681248847494116400,5.918116455078125,1.0710023641586304,-0.1933562010526657,3.2028000354766846,0.982501745223999,0.11495330929756165,-0.1465483009815216,0.1678280234336853,0.3900515139102936,0.035067856311798096,-0.04833736716096708,-0.6426469241415275,-0.11717841649670227,0.7556042985237943
1681248847509149400,5.9331494140625,1.1446930170059204,-0.09600622206926346,2.8635222911834717,0.9863573312759399,0.06746842712163925,-0.1501578688621521,0.2118239402770996,0.470037579536438,0.018718913197517395,-0.060385574601085526,-0.6447327579980067,-0.09612876318450388,0.7559316102300668
1681248847524182300,5.948182373046875,1.2794878482818604,-0.07782161980867386,2.4711709022521973,0.9880332946777344,0.0250847265124321,-0.15218760073184967,0.22664272785186768,0.5193793177604675,0.009716585278511047,-0.06974598320369568,-0.6465988060682427,-0.07626388857386862,0.7557971880852915
1681248847539215400,5.96321533203125,1.4485435485839844,-0.10939951986074448,2.081448554992676,0.9880465865135193,-0.01183214969933033,-0.15370219945907593,0.24936509132385254,0.557303249835968,-0.01579219102859497,-0.07607176290519059,-0.647961642488536,-0.057398695858565114,0.7556880661489918
1681248847554248400,5.97824853515625,1.5387216806411743,-0.08596476912498474,1.7178168296813965,0.9870228171348572,-0.04352699965238571,-0.15456940233707428,0.2515637278556824,0.5874416828155518,-0.011461198329925537,-0.07957517544213628,-0.648962095404314,-0.03954104408243616,0.7556141381451826
1681248847569282300,5.9932822265625,1.4206929206848145,0.0009903665632009506,1.339759349822998,0.9855828285217285,-0.0696772113442421,-0.15418151021003723,0.2030770182609558,0.5602777004241943,0.02928858995437622,-0.08100164804786703,-0.6498874447261833,-0.023570159949174163,0.7553341482064407
1681248847584315400,6.0083154296875,1.1747750043869019,0.18788862228393555,0.9578902721405029,0.9844133853912354,-0.08970674127340317,-0.1512719988822937,0.1640700101852417,0.5248720645904541,0.05831576883792877,-0.08108893843226958,-0.651346723202616,-0.010556804865425663,0.7543611249298289
1681248847599348200,6.02334814453125,0.9050722122192383,0.3286595642566681,0.6362403035163879,0.9838571548461914,-0.10366494953632355,-0.14587324857711792,0.08308333158493042,0.4255032241344452,0.08189338445663452,-0.08049126350740116,-0.6535000659109755,-0.001021177305040442,0.7526340173230063
1681248847614381300,6.03838134765625,0.7480063438415527,0.46042025089263916,0.4229442775249481,0.9838461875915527,-0.11315615475177765,-0.1387183517217636,0.06696581840515137,0.3936431109905243,0.05903719365596771,-0.07941093573137058,-0.6562052782406442,0.005954676985880924,0.7503688034226345
1681248847629414400,6.053414306640625,0.6717497706413269,0.5441631078720093,0.24031881988048553,0.9843010902404785,-0.119538314640522,-0.12985482811927795,0.10316246747970581,0.30047693848609924,0.019717156887054443,-0.07783847062834334,-0.6595038230244452,0.011282326272730908,0.7475752600306425
1681248847644448300,6.0684482421875,0.6428948044776917,0.37174153327941895,0.052360907196998596,0.9849340319633484,-0.12294502556324005,-0.12161268293857574,0.1555231809616089,0.2827807664871216,-0.015319392085075378,-0.0754245507281778,-0.6625370779380666,0.01543623030206791,0.7450621171002512
1681248847659481300,6.0834814453125,0.5777546763420105,0.1799425482749939,-0.2095162570476532,0.9855295419692993,-0.1230291947722435,-0.11660034954547882,0.2251182198524475,0.35238397121429443,-0.105460524559021,-0.07202579224705194,-0.6643510099571613,0.018372874637022633,0.743715401277873
1681248847674514200,6.09851416015625,0.5028432011604309,0.1361047774553299,-0.5894593000411987,0.9865041971206665,-0.11812425404787064,-0.1133851408958435,0.16997474431991577,0.42372721433639526,-0.12816117703914642,-0.06712529621083994,-0.6655317599901788,0.019362471310933282,0.7430927345732402
1681248847689547300,6.11354736328125,0.3444432318210602,0.1806035339832306,-0.9552183747291565,0.9880853891372681,-0.10727661848068237,-0.11036039888858795,0.01049572229385376,0.4927135407924652,-0.14487308263778687,-0.06066558243230481,-0.6667115215482133,0.01776369888103911,0.7426305417334524
1681248847704580400,6.128580322265625,0.3009530305862427,0.19507035613059998,-1.2445050477981567,0.9900515079498291,-0.09133952111005783,-0.1070292741060257,-0.006942868232727051,0.48542818427085876,-0.11695420742034912,-0.05298282416717475,-0.6680521501884704,0.013845191190817754,0.7420967444888655
1681248847719613400,6.143613525390625,0.5308877229690552,0.1274241954088211,-1.47081458568573,0.9919782876968384,-0.07166115939617157,-0.104134202003479,0.07696104049682617,0.4814969003200531,-0.09793763607740402,-0.043414229004273594,-0.6692155254664585,0.009136728030611148,0.7417428031490866
1681248847734647300,6.158647216796875,0.971713125705719,0.0659046545624733,-1.656992793083191,0.9935540556907654,-0.04939742758870125,-0.10203145444393158,0.12140578031539917,0.47910013794898987,-0.10831063240766525,-0.030944634730968756,-0.6700415643179207,0.005345477072969845,0.7416591320909705
1681248847749680400,6.173680419921875,1.4840072393417358,-0.025042830035090446,-1.8137900829315186,0.9945616722106934,-0.02529939077794552,-0.10103122889995575,0.1553102731704712,0.4806520938873291,-0.14303278923034668,-0.015049912892242688,-0.6704270853379298,0.0034507615607979555,0.7418148608443942
1681248847764713200,6.188713134765625,1.8358289003372192,-0.1219153106212616,-1.9509536027908325,0.9947972297668457,0.00034700121614150703,-0.10187507420778275,0.15333521366119385,0.4451332688331604,-0.15465539693832397,0.003915205229834057,-0.6701130989512555,0.0033009875241024225,0.7422414302160457
1681248847779746300,6.203746337890625,2.021754264831543,-0.21329928934574127,-2.082068920135498,0.9941139817237854,0.027531852945685387,-0.10478433221578598,0.13238155841827393,0.365336149930954,-0.13752496242523193,0.024956020302055733,-0.6690233729821615,0.003944785954083968,0.7428119227578763
1681248847794779400,6.218779296875,2.1059963703155518,-0.3039615750312805,-2.181553840637207,0.9923557639122009,0.05607995763421059,-0.10993415117263794,0.1237332820892334,0.3048819303512573,-0.11678063869476318,0.0472582035548905,-0.6670914050631301,0.004688294272512667,0.7434608020565089
1681248847809813200,6.233813232421875,2.173455238342285,-0.4061206877231598,-2.2659599781036377,0.9893769025802612,0.08559708297252655,-0.11750102788209915,0.10715019702911377,0.23860637843608856,-0.07945911586284637,0.07043666602622764,-0.6642445031845169,0.005359831948873325,0.7441701572635672
1681248847824846300,6.248846435546875,2.194197654724121,-0.5105026960372925,-2.3314027786254883,0.9850486516952515,0.1157161146402359,-0.12762899696826935,0.09515172243118286,0.1951664388179779,-0.05822277069091797,0.09423706938134496,-0.6604172682960815,0.005876631084867126,0.7449389228001404
1681248847839879200,6.263879150390625,2.1025991439819336,-0.6005567312240601,-2.38273024559021,0.9792817234992981,0.1462135761976242,-0.14010347425937653,0.04134821891784668,0.1252860277891159,-0.025194689631462097,0.11815561511831736,-0.6556782703338119,0.005853820598304217,0.7457151269347077
1681248847854912300,6.278912353515625,1.8893591165542603,-0.6578873991966248,-2.420902729034424,0.9720454216003418,0.1770324558019638,-0.15423206984996796,0.005707442760467529,0.0702209621667862,0.00016438961029052734,0.1414885034618912,-0.6502784734248751,0.0046767776400750164,0.7463894746117934
