seconds_elapsed,rotationRateX,rotationRateY,rotationRateZ,gravityX,gravityY,gravityZ,accelerationX,accelerationY,accelerationZ,quaternionW,quaternionX,quaternionY,quaternionZ
6.0,1.3108014469799105,0.08450817227340592,1.1691164119655335,0.9850602483414853,-0.07862765543821991,-0.15288135895477237,0.18564625247215305,0.5444562525288915,0.04225974517978558,-0.08104065483975376,-0.6505395414287545,-0.017754980683154654,0.7548993406762463
6.01,1.1445520325813285,0.2036634541871998,0.9218460849266495,0.9843510540377289,-0.09127090207202143,-0.1506670133834516,0.15499461988508256,0.5137367639904236,0.060957883168149686,-0.08102196280974065,-0.6515880274006164,-0.00948823972158826,0.7541675847588627
6.02,0.9651414637180449,0.2973065142970399,0.7078794315527558,0.9839810406696677,-0.1005561232765759,-0.1470756791758314,0.10112099862499148,0.44763503752993306,0.07664208649653857,-0.08062437998383021,-0.6530204650745438,-0.003144989244546176,0.7530186854251267
6.029999999999999,0.8355740855169805,0.3869607151609734,0.541861592262612,0.9838523020818046,-0.10786459513363822,-0.1427073670693718,0.07595169321777044,0.4114058380957413,0.07178003226495365,-0.08001324267808889,-0.6546970617394501,0.002065481880525944,0.751631710938546
6.039999999999999,0.7397955264592175,0.46943714316666263,0.40328034274326247,0.9838951685832277,-0.11384334468376879,-0.13776398450317723,0.07086324079027835,0.3836115767038156,0.05480346497098534,-0.07924162280188506,-0.6565604443294236,0.006528323998009218,0.7500680126359694
6.049999999999999,0.6890692700518908,0.5251433132336523,0.28179696888833855,0.9841977721155052,-0.11808878957281406,-0.131867923979299,0.09494143398709043,0.3216369697077762,0.02864757855515691,-0.07819561109875892,-0.6587546529261672,0.010072303125729376,0.7482097335074921
6.059999999999999,0.659109703211458,0.46863294377980036,0.15798288239147176,0.9845783536415472,-0.12103064201089661,-0.12624431371908637,0.12609934930912872,0.2927250386554375,0.004369215080220956,-0.07678104050919635,-0.6608325560551037,0.013101965454779027,0.7464743647490157
6.0699999999999985,0.6361709079201056,0.35194365182094905,0.025329413499176084,0.9849955017177627,-0.12295371368024054,-0.12109529968785322,0.16270692247112017,0.28996535089087316,-0.024623943176470445,-0.075073723962782,-0.6627243156916289,0.015739356705097504,0.7449231063530928
6.079999999999998,0.5928400704438558,0.2243600733848469,-0.14886976552286457,0.9853916315385329,-0.12300970255254118,-0.11776112442831617,0.20900114088363178,0.33626500117060976,-0.08458530452071007,-0.0728128894268115,-0.6639309328070979,0.017692795576731698,0.7440272787565517
6.089999999999998,0.545271219244085,0.16093341323610197,-0.3742689001750299,0.9859521764017138,-0.12090229190186438,-0.11520615603936843,0.2012066533354399,0.38332015517764917,-0.11530408549739099,-0.0699008167027178,-0.6648630121964435,0.01880198808090161,0.7434453976884734
6.099999999999998,0.48718739023737423,0.14050291036796544,-0.6256099062603095,0.9866604777269582,-0.11705210402088247,-0.11308618383698724,0.15421228284061642,0.4305456303233234,-0.12981293515063774,-0.06648683612807856,-0.6656483643302169,0.019204453105653177,0.7430470527227961
6.109999999999998,0.38182064436007807,0.17010322652008225,-0.8689107328683744,0.9877122775353251,-0.1098363194159712,-0.11107414290192837,0.048127757340628435,0.4764349367355704,-0.14092959835253924,-0.06218987178533482,-0.6664331349131891,0.01814095890777641,0.74273960471192
6.119999999999997,0.325775817795307,0.1868131662910635,-1.0793896580293678,0.9889293115118676,-0.10043589605266068,-0.10893057139361295,0.0030105099898774575,0.4895864279566393,-0.1328893900353252,-0.05736789179572657,-0.6672869631229106,0.016081747468087274,0.7424014185312693
6.129999999999997,0.32266717629566233,0.1886821135588786,-1.2658768478958158,0.9902334655993815,-0.08948117251050593,-0.1067558746601982,0.0009806933701916416,0.4850569289737643,-0.11515835575153345,-0.05207920293695266,-0.6681620148636926,0.013400542086027792,0.7420633196335517
6.139999999999997,0.4756184072947473,0.14368427766236114,-1.4164166470363033,0.9915151483724992,-0.07639123981268935,-0.10483008939775329,0.056793089458966,0.4824418615672262,-0.10250864219094162,-0.04571422863085257,-0.6689358853877019,0.01026849955253982,0.7418278798960346
6.149999999999997,0.7181551189575941,0.10129002948919469,-1.5499051005986468,0.9926476909732214,-0.062203285474457484,-0.1032409321114693,0.09584164637739112,0.48047872975808925,-0.10234419704078634,-0.03811701057244384,-0.669566435699259,0.007526163643965123,0.7417072587791937
6.159999999999997,1.017812607381213,0.05772062162506477,-1.6711024101912761,0.993644727431978,-0.04722893301341098,-0.10194144778972927,0.12445672215815431,0.47923979281215595,-0.11143515285319604,-0.029514326596173233,-0.6700762559505676,0.005174978523974756,0.7416731455543769
6.169999999999996,1.358587696612902,-0.002777120500374902,-1.775403062916157,0.9943149881286171,-0.03119905793596981,-0.10127610352765887,0.1470097952279169,0.4802721449499105,-0.13453213127753308,-0.01894124931745754,-0.6703327023092069,0.003914624694908915,0.7417767354228361
6.179999999999996,1.6319090111100525,-0.06576690448163366,-1.8714520459606556,0.9946606978926532,-0.014517943141499564,-0.10138597174260175,0.15447998091403806,0.465720389165749,-0.14791879956783974,-0.007077195794284985,-0.6702950890794593,0.0033877982818187762,0.7419941856923039
6.189999999999996,1.8517443965735185,-0.1297379192976152,-1.9621772749637805,0.9947387426868963,0.002674066200322911,-0.10212411115334809,0.15154154864909383,0.43830251312099744,-0.15318900548194136,0.005716331256943851,-0.6700198167376807,0.003356097656693366,0.7422902652522283
6.199999999999996,1.9754208765281709,-0.19052601479837472,-2.0493944277252076,0.9942842500299561,0.02075727275550901,-0.10405933279827166,0.1376032980522701,0.3852219299354308,-0.1417939392604222,0.01971256006943931,-0.6692949373091033,0.0037843486585779126,0.7426697536001785
6.2099999999999955,2.056798707088489,-0.2510145057133183,-2.123454323930051,0.9933825688249838,0.039407771769819945,-0.10692664017485495,0.12878390355561492,0.34018739094544187,-0.1288953911324084,0.034233656096144,-0.6682196806030148,0.004254082999581888,0.7430818544385009
6.219999999999995,2.1114737950891347,-0.31225653863019454,-2.1884073245737863,0.9921138907629187,0.05847664524997301,-0.11054855516664831,0.12238679342750952,0.2995005867182878,-0.11375026122583862,0.049140213856393625,-0.6668602465611568,0.004742820789373725,0.7435183992249474
6.229999999999995,2.156344858834484,-0.3802088804327438,-2.2445510649824456,0.9901324659239924,0.07811031019837046,-0.11558175268559984,0.11135635831062761,0.25541661967684204,-0.08892540900031952,0.06455764224636298,-0.6649665961129847,0.005189502015501674,0.7439902352287979
6.239999999999995,2.1819915767457485,-0.4490780813941705,-2.2928923220042288,0.9875956533000719,0.09799227560424609,-0.12166909441146796,0.10221234226774718,0.22072909654279257,-0.07071950590115061,0.0802314890322934,-0.6626694421330073,0.0055725155740715526,0.7444865351942915
6.249999999999995,2.187168665812328,-0.5174131666296756,-2.3353414910919046,0.9846061153044738,0.11805639634774162,-0.12858625011408073,0.09102300651051379,0.18980403029961362,-0.055688297000640055,0.09607250525698469,-0.6600536121202343,0.005874880678055634,0.7449984863259113
6.2599999999999945,2.1262358857428167,-0.5773185370985441,-2.369485335033748,0.9807698633327607,0.13834379079004944,-0.13688446997707107,0.055232063841427564,0.1433184741274911,-0.03371749438597553,0.11198350069964584,-0.6569011556201764,0.005859706781124845,0.7455148296096329
6.269999999999994,2.0157773184714354,-0.6238992214270432,-2.398272377791539,0.976335424212099,0.15876164899481324,-0.14585600803960586,0.02683688497213956,0.1028659897837859,-0.014869603954097255,0.1276557262600157,-0.6534797139432728,0.00537458121923219,0.7459896912229401
6.279999999999994,1.8694737680357254,-0.6601248370599104,-2.423600662524154,0.971415209770206,0.17929400130106918,-0.1553091564545765,0.0004423721844608866,0.06422573781045729,0.0029946029839497965,0.1430986990927529,-0.6498635798801906,0.0044735429063649515,0.7464209908918076
6.289999999999994,1.6866446153256218,-0.6806962074034948,-2.4484059051144906,0.9656209389368728,0.20008702119867805,-0.1652120671897061,-0.04796554943043799,0.009104662695634765,0.029016048502625336,0.15790310157096746,-0.6460489806455407,0.0026049694624125977,0.746710756734543
6.299999999999994,1.5123087412645144,-0.6919293932153852,-2.4765380531416157,0.9592232907926795,0.22111153498538644,-0.17515129363371626,-0.0754894717795653,-0.032008445437128316,0.04970866937825941,0.17223762753560282,-0.6421924613250432,3.269909793598047e-05,0.7468621750720883
6.309999999999993,1.3486000441528456,-0.6956276966482144,-2.5057913333636717,0.9523312811860924,0.2423153494023491,-0.18509601462576641,-0.08998302582008612,-0.06404601927010774,0.06740539668648467,0.18620303416031506,-0.6383087201830349,-0.0030931230148430184,0.7468941950366124
6.319999999999993,1.2296439033367785,-0.6865843558532599,-2.5258467131908047,0.9445500545300894,0.26376921822266053,-0.19488107643724545,-0.10955491372271957,-0.09654262360661084,0.08928873875584398,0.19961535057806193,-0.6344258037090391,-0.007053862890460089,0.7466691911121662
6.329999999999993,1.1418194021786645,-0.6675566526470506,-2.538753278529281,0.9362174581963377,0.2852147804340474,-0.2044773638423584,-0.12013440492734576,-0.12287459516192316,0.10556241793938773,0.212775759244051,-0.6305660577300494,-0.011345752099072423,0.7462396961162767
6.339999999999993,1.076841433096992,-0.6414020914257547,-2.5457475727793293,0.9274366018457549,0.30662733039954493,-0.21391030909901237,-0.12545454709453935,-0.1444941771616154,0.118186725989542,0.2257383458437953,-0.6267276368298553,-0.01588472960663245,0.7456377350296559
6.3499999999999925,1.0306853184777953,-0.6111095664380375,-2.5421091344266964,0.9179089955179016,0.3277798075319886,-0.22299406393250004,-0.13803436720936013,-0.1606018519081597,0.13184828605408289,0.23842587509784738,-0.62294416889205,-0.020662465583892585,0.7446999180690047
6.359999999999992,0.9810397548460352,-0.5779468159296731,-2.5240309077980863,0.9079750728278916,0.3486046213150731,-0.23179973547289467,-0.1399591613608872,-0.17759615284320038,0.14428797720839695,0.25089419122534207,-0.6192162244552067,-0.02551603465549527,0.7435518950644672
6.369999999999992,0.9274132161183603,-0.5445442819953624,-2.494726985632513,0.8977144469200466,0.36913349380880683,-0.2403695611911561,-0.13214698198412497,-0.19522635177823028,0.15564164033856906,0.2631627162864879,-0.6155358693788726,-0.030430984699649357,0.7422349333095353
6.379999999999992,0.8576083462315376,-0.5289488207311527,-2.4522823995078693,0.8869730524062427,0.38894165458834334,-0.24848475393438052,-0.0997349400129527,-0.21311614017779326,0.1644876590720747,0.2749306100300824,-0.6119514068106323,-0.03543983126902374,0.74067006583551
6.389999999999992,0.773647744365037,-0.5302072750791933,-2.397203707788371,0.8759527781124412,0.40824694650682525,-0.25641405518495014,-0.06291420730211915,-0.230283219226961,0.17496641205602817,0.28627549450387835,-0.6083792660513323,-0.04057298166568904,0.7390443119835837
6.3999999999999915,0.6781058963807813,-0.5420310581034027,-2.329304007279343,0.8647207304093939,0.42709875774913275,-0.2641718848209683,-0.021606688172242046,-0.24626985529350548,0.18714718892152424,0.29723649913811173,-0.6048228574189232,-0.045809766914737364,0.7373768135306364
6.409999999999991,0.5651100533372295,-0.5386345154924423,-2.2180760189498843,0.8533278448644986,0.4448606860344015,-0.2714839710792099,0.03496410759741446,-0.2547850803177638,0.20543148837971345,0.30725372464275674,-0.6013447591631884,-0.05122146374857969,0.7357243566848334
6.419999999999991,0.44518840464657367,-0.5238866556921131,-2.087181499308299,0.8421337131375727,0.46170338962166213,-0.278234280558962,0.07644232913476744,-0.26329160610073765,0.21963471647695926,0.3165028765237911,-0.5980400322308037,-0.0566541536751005,0.7340991125269463
6.429999999999991,0.32041138926709367,-0.501435302322818,-1.9400963470258126,0.8311398052636568,0.47774104449334737,-0.2844888787695766,0.10834131627104845,-0.270777872487824,0.23099276872985308,0.3250822696426903,-0.5948914317693695,-0.06209516949305557,0.7325028498552092
6.439999999999991,0.19787786140365787,-0.48577227528737565,-1.7699892175993683,0.8208261564039142,0.49211206027821114,-0.28967952351144044,0.157377358874905,-0.26586379701478036,0.24386698790488703,0.33230470290102404,-0.592109629071127,-0.06745121821659371,0.7310188967074635
6.44999999999999,0.07812344094055788,-0.4871059756936134,-1.5997626103187093,0.8110348474916568,0.5054282977263403,-0.2943209044632231,0.19916505764227224,-0.2652038462027442,0.2521899068786274,0.33866479335856403,-0.5895175609097241,-0.07273785618935917,0.7296907762214544
6.45999999999999,-0.038308644475550574,-0.5025628632025146,-1.4297284310853597,0.8016963516892175,0.5178367225753063,-0.29851012031569263,0.2368585613438567,-0.26680130239012534,0.2573920762037044,0.3442797384790688,-0.5870799537364815,-0.07796747290332469,0.7285085856934919
6.46999999999999,-0.13793273535214096,-0.5371769996167127,-1.26349736573131,0.7932001358272763,0.5286329644328182,-0.3021374595047321,0.29241826570989204,-0.2559485639362698,0.26638851491200954,0.3485367320417068,-0.5848130530531971,-0.08312769244480876,0.7277240028356667
6.47999999999999,-0.23012777040768143,-0.5527455362216555,-1.1004501520558132,0.7852714237603511,0.538501130471702,-0.30542812411009435,0.3259419308655271,-0.2527665146288686,0.27224126204938676,0.35203151537222116,-0.5826578086083369,-0.08820550041117284,0.7271749564925551
6.4899999999999896,-0.31402294384788726,-0.5506115940053813,-0.9397116482029214,0.7778588794099278,0.5475533496236525,-0.3084027760831392,0.33953556953427594,-0.2551052779234217,0.27531784056564274,0.3548683124213196,-0.580612787469851,-0.09319466502548372,0.7268217246278326
6.499999999999989,-0.35886859825260764,-0.5022032690796786,-0.7769129177087926,0.7716548147682654,0.5550534895041459,-0.31051303667574026,0.30790025586955605,-0.25185646624151636,0.2729519253754712,0.35661312288451963,-0.5789360351334583,-0.09780226421351822,0.7266927870908411
6.509999999999989,-0.3684933034387936,-0.44511101535285097,-0.6089720807226746,0.7663520403095317,0.561483150239099,-0.3121108222982338,0.2808606977823041,-0.25170149143884096,0.2691656793381085,0.3578290495398175,-0.577530524018001,-0.10195458351590694,0.726645471085816
6.519999999999989,-0.3478379928232567,-0.38304483082027263,-0.43692555721460036,0.761852040831707,0.5669456637628137,-0.3132930099257502,0.258315001830624,-0.2535802906107396,0.2636087907811623,0.35858777206831066,-0.57635353954045,-0.10568559406010732,0.7266783384639304
6.529999999999989,-0.2849700571687934,-0.35282412208102265,-0.26405874187284406,0.7589057088217722,0.5703309461526652,-0.31428466270798266,0.25048193210276765,-0.2485511745336562,0.24703069236162845,0.358669988839328,-0.5754225559399505,-0.10836397749192087,0.7269788045273932
6.5399999999999885,-0.22444626394328798,-0.3234235652689855,-0.09175480058541796,0.7568706078738461,0.5724394734535948,-0.3153693927554049,0.25319761379045486,-0.24652869438573247,0.2361802071078903,0.35838151359298115,-0.5745685506337669,-0.1103847382918021,0.7274936580730248
6.549999999999988,-0.1691487965234905,-0.2970089324513079,0.07964148947129633,0.755644442252877,0.5734147934633022,-0.3165390021111342,0.26618785037840786,-0.24691444298161702,0.23013268677415366,0.35775544742915744,-0.5737811508435313,-0.11182854605818597,0.7282035686210151
6.559999999999988,-0.17831578557096925,-0.31557639016441846,0.2422884553558862,0.7557841573444666,0.5724805578168155,-0.3178917486846415,0.31262444472012807,-0.2467516138439443,0.2272124669142988,0.3564087670855521,-0.573075591145012,-0.11241924471691304,0.7293266249101195
6.569999999999988,-0.25333802530891203,-0.3359938789382886,0.41981096557763276,0.7566692168133821,0.5706390803613306,-0.3190887128341119,0.34890123582357674,-0.24641262468280237,0.23043381975186147,0.35436025913571334,-0.5724700020240194,-0.11284306530097926,0.7307313296104094
6.579999999999988,-0.38514410993690784,-0.3563115505772654,0.6090948140057415,0.7582406391925447,0.5679840358004439,-0.3200999315788946,0.37823378305067895,-0.2461765867391383,0.24022240089124375,0.35165414464690037,-0.5719714029665133,-0.11313154632349995,0.7323851854531851
6.589999999999987,-0.5611278820332193,-0.3395493580809809,0.7842769823934848,0.7612997616251289,0.5640128502700309,-0.3198441027170123,0.4418086726452085,-0.251583942570049,0.282880322293257,0.3472913386172628,-0.5720098934147615,-0.11350141229972244,0.7343703908685036
6.599999999999987,-0.7061055246688211,-0.3318712954095187,0.9410243930966742,0.7650778584663294,0.5594360350486167,-0.31884546307088457,0.48620049903818763,-0.25590427965022117,0.31408355084890127,0.3420932121280848,-0.5723567622610232,-0.11395032976882269,0.7364607534385456
6.609999999999987,-0.8211598597725823,-0.3317398870932684,1.0804634262091022,0.7695037848313491,0.5542988571128108,-0.31719565500152247,0.5132279788045694,-0.25916017355805715,0.3352189796823825,0.3361453557582636,-0.5729753365116429,-0.11446132666547816,0.7386483864586185
6.619999999999987,-0.84420683151847,-0.3255983669876331,1.1782370400720992,0.7748194558760474,0.5480160840470686,-0.3151166493284705,0.5143679546238072,-0.25877477600795484,0.3490253314654001,0.32924300984684474,-0.5738091696125546,-0.1148229602918971,0.7410342062671456
6.629999999999987,-0.8574490243838244,-0.2891784679801274,1.2395642562870066,0.7804322394901305,0.5412868960049656,-0.3128695062358619,0.4867817595919014,-0.2530900858659411,0.3463542846017302,0.3221378475335813,-0.5747495373510348,-0.11501158109708953,0.7433921985445817
6.639999999999986,-0.8633095457175468,-0.22453211794207703,1.267710742277744,0.7863169243992086,0.5341618086794815,-0.310439815136626,0.4309151302398512,-0.24306708622016626,0.3281873207551176,0.31485195576969977,-0.5757992693103755,-0.11504430166592834,0.7457117582212521
6.649999999999986,-0.9103497537785186,-0.10507874129199905,1.2565484533735853,0.792569320764574,0.5269076094734194,-0.3068411238026953,0.2727568795998957,-0.24361832162184469,0.27566534762308553,0.3074784731851821,-0.5773785636790846,-0.11494437824711676,0.7475624123424672
6.659999999999986,-0.9776454559079717,0.017232526637085584,1.2396147238061241,0.7989736188072443,0.5198547486811862,-0.3022089129187519,0.1653942257998307,-0.24829272756885268,0.24149342727033646,0.3000505393590899,-0.5793802844362324,-0.11493958323651715,0.7490292910564207
6.669999999999986,-1.0625375838575166,0.1407289505703392,1.2185203489790344,0.8055213749578027,0.5129866094740335,-0.2966064522714673,0.10479575599157448,-0.256920544212515,0.2238149831530523,0.29256721261930774,-0.5817779566426763,-0.11502554466630777,0.750137125754685
6.6799999999999855,-1.1176663806754197,0.2033648684042795,1.243160967635144,0.8123479948700031,0.5062511829743382,-0.28936081845346107,0.08470283386916347,-0.27571288967536456,0.20329283742756576,0.2848106342844772,-0.5848203842825634,-0.1153261358179224,0.7506888419386878
6.689999999999985,-1.1290606101896468,0.23097465709342566,1.2899880498837888,0.8193376418850059,0.4991022097536972,-0.2819554814661332,0.09045939119855834,-0.28448123967797667,0.18907068792902704,0.2768843463069312,-0.5879399935132492,-0.11551459401142782,0.7511853836132338
6.699999999999985,-1.1000085225195477,0.22615235750601806,1.3576204713596078,0.8264834387633704,0.49154854892872657,-0.27441030808396716,0.12077877236645186,-0.28378394102269916,0.18084682149860093,0.2687958530924997,-0.5911289136199646,-0.11559079914928064,0.7516331376416547
6.709999999999985,-1.0753928992956936,0.22242497084308993,1.4408844768961009,0.8339479253813873,0.4826514904783373,-0.26737102578604205,0.18940437086382983,-0.2719334074180391,0.18269839303790947,0.2603971196084318,-0.5941811710538032,-0.1151455880083227,0.7522259630988425
6.719999999999985,-1.0900195298501905,0.24278275938662355,1.523912021471887,0.841644684160997,0.47308424177279795,-0.2602197157397791,0.2206102765579384,-0.2549399254872215,0.18304971654193625,0.2517164656910246,-0.5973033666856014,-0.11451344857140504,0.7528001377913137
6.729999999999984,-1.1422786760212766,0.28613006144572795,1.606604299336092,0.8495664220982888,0.4628698337528386,-0.252952655173406,0.21581186541983904,-0.23288905046895386,0.18202968507096856,0.24276060636626726,-0.6004957114609989,-0.11370307534922806,0.7533541740103297
6.739999999999984,-1.2257726683578554,0.33689979332123376,1.6772695988945552,0.8579168839334489,0.451635300948586,-0.2446888469047806,0.16818003939466813,-0.19306133861476313,0.18716415174017256,0.23305123566004401,-0.6040797580747648,-0.11285592781118972,0.7536475706696639
6.749999999999984,-1.290826822026031,0.3815527226839096,1.7416335884593577,0.8663889536555452,0.4399144268399083,-0.2359903365647216,0.13140276009025198,-0.1616082870534685,0.18791086787670813,0.22299898099623058,-0.6078243281892591,-0.11201063492397854,0.753798618727408
6.759999999999984,-1.3376899118143188,0.4202430882435153,1.7998435453142856,0.8749801238295146,0.4277154646878941,-0.2268660620757243,0.10519290847786332,-0.13831243609146976,0.18436041997249053,0.21261071457847924,-0.6117261904533852,-0.11116642204299262,0.7538099587362377
6.769999999999984,-1.3152048362065343,0.46465667131184596,1.8592971955798088,0.8836814200427305,0.4143652236303499,-0.21733803170598848,0.06345317196323255,-0.10466209792958568,0.1768827212368836,0.2018327352620328,-0.6158048589697954,-0.11002890855275371,0.7535744085729846
6.779999999999983,-1.2746463548739686,0.5181984762603273,1.9238341725608232,0.8924233243984796,0.40030888591613056,-0.20769712077825295,0.02735790787550796,-0.07800697011737806,0.16497549249601345,0.19097477797865353,-0.6199613333319218,-0.10857638077021403,0.7532046718724776
6.789999999999983,-1.2159543586709813,0.5808988620388329,1.9934713825576982,0.9012059719526996,0.38554410318503113,-0.19794295387053007,-0.003074111207505087,-0.05837031756264019,0.14862400186878028,0.18003657673490692,-0.6241958723090845,-0.10680779101015792,0.7527003023525807
6.799999999999983,-1.159758896019022,0.661990373981966,2.0639701348875734,0.910073040080579,0.36918390132523465,-0.18773055723989215,-0.06568236085852117,-0.04185828072688044,0.11776473188972346,0.16899191589149637,-0.6286929322655492,-0.104241819225114,0.7518278777655495
6.809999999999983,-1.107536188225066,0.733051035704728,2.1180046043410226,0.9188693526558693,0.3521490290659174,-0.17725332166456795,-0.11248463996294714,-0.026091138910676062,0.09064013633424739,0.15792379843386709,-0.6333138784030871,-0.1013431428173467,0.7507495356241315
6.8199999999999825,-1.0593967036211762,0.7936946090118444,2.15506827087438,0.9275923821229534,0.3344258169552868,-0.16650515098655277,-0.14285844735577843,-0.011078060611343588,0.06742730883197437,0.1468319707000392,-0.6380613530433737,-0.09810506704325574,0.7494605872030818
6.829999999999982,-0.9992973187694268,0.8114913746905943,2.1717941256735083,0.9358387552845311,0.31576885599527754,-0.1556416438456842,-0.1742710619138244,0.004386849388717673,0.03697075993960652,0.13583549322178357,-0.6428469048731318,-0.09438391673471197,0.7478682570092006
6.839999999999982,-0.9240201835403506,0.821694479952988,2.1812764727265455,0.9437394612552737,0.29675711886915995,-0.14499651694378643,-0.19719237613996068,0.023845906384470223,0.012518728342884863,0.12498098904832802,-0.647539462330811,-0.09041648187206607,0.7462037459192125
6.849999999999982,-0.8328217496436193,0.8243574032992391,2.1833293220509575,0.9512799238289634,0.2773807762067383,-0.1345837860680189,-0.2111171858390524,0.04752589366010374,-0.005496406234837551,0.11427560407725748,-0.6521331843734651,-0.08619403293277247,0.7444663630756524
6.859999999999982,-0.7015795032751013,0.8417755481641965,2.1728766791605216,0.9580615115709964,0.2575002372151005,-0.12464280205641223,-0.23919221755643072,0.08278971362172938,-0.02651009142894465,0.10411354929712714,-0.6565346372936567,-0.08135689642396324,0.7425816055235618
6.8699999999999815,-0.5724566724471697,0.8701193079717535,2.1578674405616116,0.9644521622939851,0.2374646170061552,-0.11479825497244565,-0.2638143168318364,0.11332748925176304,-0.04439563634266067,0.0943173942876123,-0.6608889138811888,-0.07617425317038083,0.7405794362243009
6.879999999999981,-0.44640934104345165,0.9100526909177254,2.138147145722714,0.970432568811439,0.21727017368420928,-0.10504942118244466,-0.28441088683526644,0.13850558154319872,-0.05882365699688723,0.08490842856281852,-0.6651956256877392,-0.07062795991969226,0.7384525036471788
6.889999999999981,-0.3387680549847255,0.966516324341115,2.117662275688406,0.9756643233171379,0.19690336221685512,-0.09502130212543261,-0.30086144941584675,0.15710067481053078,-0.07366967866391744,0.07618753085984765,-0.6695543682500357,-0.06447423085495078,0.7359783215741758
6.899999999999981,-0.2586860436122198,1.0086092480497528,2.090720571269428,0.9804951951642092,0.1765753679935597,-0.08477774690794829,-0.30606308493245815,0.17275577786994364,-0.08864824109293784,0.06773764107987915,-0.6739431102288321,-0.05815294825768646,0.7333240598973857
6.909999999999981,-0.20885328440089088,1.0342080319261238,2.0565939345459188,0.9848993215471772,0.15629544981387486,-0.07430146254785616,-0.29882494483400085,0.18531135628993486,-0.10376319237186636,0.05957122383901455,-0.6783638971857988,-0.051661427103273046,0.7304784028801842
6.91999999999998,-0.17875044509937546,1.027961191341168,2.02386882013009,0.9884767849697923,0.13630008854837952,-0.06375873961999567,-0.24694934920194686,0.19145302359353905,-0.12309639701486652,0.05175826913756444,-0.6826806949118093,-0.04512113657524156,0.7274367178332378
6.92999999999998,-0.14535761715826814,1.0242765187864808,1.997371701189019,0.9916429340188847,0.11644136739047531,-0.05331862281622286,-0.2042999303626487,0.2027127177340329,-0.1410820998035256,0.04409850281638155,-0.6868947666589055,-0.03856501202374224,0.7243498846879692
6.93999999999998,-0.10747816891893672,1.0246843449636844,1.9779607452412888,0.9943677489325684,0.09672889820700513,-0.04299850131177646,-0.17384420415641685,0.22007037830986034,-0.15737044577283527,0.03660145014515086,-0.6909948941715975,-0.03199251313139361,0.7212184314682113
6.94999999999998,-0.04201564594272281,1.0031924425797216,1.9460297408165474,0.9963460010885785,0.07722958994901989,-0.032814855059653425,-0.11255843364332907,0.2532879974390001,-0.18199346511084502,0.0294649197612461,-0.6949262607525198,-0.02526791105765653,0.7179885256367211
6.9599999999999795,0.04196096285434153,0.9494933467140005,1.9068600211157478,0.9979436480857257,0.057995651188729486,-0.023057638803605316,-0.058969242786101134,0.2862063838494774,-0.2053905710881466,0.022657561754825216,-0.6986434372632119,-0.018422051663627866,0.714836549606582
6.969999999999979,0.14647355845193602,0.8588790566116249,1.8597402778310252,0.9991273193567971,0.03906437966901912,-0.013796193673013152,-0.01584794850900763,0.3180485247797411,-0.22696404457010438,0.01622125405430985,-0.7021161690772205,-0.011440389266522301,0.7117808081464656
6.979999999999979,0.24086088708615316,0.7527228694607064,1.7954754427261865,0.9996621303523491,0.020884302578423084,-0.006024969777314676,0.06520349121154027,0.3546318139140519,-0.250705658814454,0.010572475448791313,-0.7049384865795228,-0.0042128158206759135,0.7091408845302569
6.989999999999979,0.3154954393505211,0.6449832491145177,1.7145259567863786,0.999917613703983,0.003320256079961896,0.0009628501443659035,0.12285969754707765,0.38624332003311257,-0.2678911829294639,0.00534102682931732,-0.7074219141456297,0.0030007775076140246,0.7067369843727319
6.999999999999979,0.3668117964353753,0.53619442451038,1.6143585574004706,0.9998715015567032,-0.013540804957374444,0.007086465801104903,0.1501185583748275,0.4115798039006006,-0.27702943690073845,0.0005703041251555402,-0.709531819596452,0.010183778291661184,0.7045952969009224
7.0099999999999785,0.3252137820126684,0.44831718186609854,1.5014737606132367,0.9994474641094979,-0.02882113822431131,0.011875709603871895,0.156227258073122,0.4175756276234522,-0.28163398116946087,-0.0036175786971211314,-0.7110764426266902,0.016846138925120987,0.7028787490106866
7.019999999999978,0.2346409083070718,0.389049848037913,1.3824127650382931,0.9988887907458712,-0.04321023020737348,0.016203001503055273,0.15078297532132642,0.41659944647443803,-0.28117815670520463,-0.007729624949194152,-0.7124323082178932,0.0229567769799289,0.7013060100196219
7.029999999999978,0.08940164930514813,0.36392609746952775,1.2565240135513558,0.9981879440428078,-0.056597216989508745,0.0200449730673769,0.1323922614477634,0.40824572408043147,-0.27473847096110765,-0.011786080152484085,-0.7135911949022415,0.02841674933358926,0.699883709901391
7.039999999999978,-0.05140089809019484,0.3886190093172267,1.1360033513980532,0.997344894513995,-0.06825281780739811,0.02380942655711913,0.0909109398630668,0.3681628003439584,-0.246127340057465,-0.015987977633411074,-0.7147302278857469,0.03250038085942188,0.6984478819842114
7.049999999999978,-0.14773969295027534,0.4235902849401419,1.021764987720445,0.9964556355337009,-0.07906408626906143,0.027772005141207465,0.06353431942113237,0.34111033314039924,-0.2270970014474683,-0.020167378078841107,-0.7159503753171713,0.036005313270694374,0.696920537865597
7.059999999999977,-0.18768972292515224,0.46781256769364227,0.915126107290079,0.9955184447983173,-0.08893231872662047,0.03199339033345891,0.05594516398315048,0.33314462820739094,-0.22201062939103322,-0.024306794041597093,-0.717275559249379,0.038878604980973286,0.6952774741778895
7.069999999999977,-0.11594001973027591,0.4959970886664089,0.8196165559122689,0.994542765720949,-0.09739166260005687,0.0367419604968488,0.08424365948713723,0.3473716649905216,-0.2332428689550594,-0.02785832441136949,-0.7187885760172862,0.04134688242163057,0.693429637967584
7.079999999999977,-0.028334281976572638,0.503301185749959,0.7170976524465987,0.9935759385233262,-0.1050804763161005,0.04161509486229504,0.11607493983108871,0.3645131384933906,-0.2510767942862448,-0.030909119717869894,-0.7203381209867395,0.043779705987518805,0.6915437323388428
7.089999999999977,0.07005658052279548,0.4846745942266637,0.6043963529008183,0.9926241568419416,-0.11188551213528714,0.04660430628510271,0.14932477171801609,0.3834882870990042,-0.27610256633760555,-0.03335626054667296,-0.7219187310147204,0.04620230764493609,0.6896262576323959
7.0999999999999766,0.0844363995681102,0.44220666705185296,0.45237096802722926,0.9918227860519478,-0.11678466077052388,0.051239683241056086,0.22221456649164606,0.4167548940324148,-0.3276600059445523,-0.03486340298740971,-0.7233884229294306,0.04822625085684802,0.6878678021269901
7.109999999999976,0.08043263649318166,0.35472389030038265,0.2850201362132456,0.9911753283004129,-0.12044275257221924,0.055298877588424326,0.2856356509012304,0.4410355093795394,-0.3658601611879334,-0.03593727538286465,-0.7246851516548307,0.0497983545799592,0.6863368984844748
7.119999999999976,0.06025181000992261,0.20904760467177969,0.10104554888291056,0.9907198047781598,-0.12262401896932142,0.058618177164132694,0.3322536006706194,0.4517529799012317,-0.38335902057511284,-0.03652362599760383,-0.725760253056501,0.050802617719598674,0.6850962318220217
7.129999999999976,0.09793098193563654,-0.048328173647048084,-0.10095602614022603,0.9907541813687776,-0.12219398875583691,0.0589472144689685,0.42357528772458686,0.4614140914157071,-0.4115054042387984,-0.036117986294349626,-0.7258655126271606,0.05092017255819398,0.6849977074930361
7.139999999999976,0.19176812347720876,-0.26062959446483375,-0.3244447793905534,0.9910792703847291,-0.12007528059896438,0.05772169278458139,0.47422592262599056,0.4693505945236525,-0.42907076214175444,-0.03485795577618831,-0.7254589380932186,0.05069074113778521,0.6855078629553102
7.1499999999999755,0.35662099777462725,-0.39761721634681557,-0.575581733260967,0.9917499384597394,-0.11592204017982355,0.05469113248432502,0.4634151814693724,0.47502276530750365,-0.43076006063444633,-0.03253042396572008,-0.7244563581121047,0.0500838079379937,0.6867280936513688
7.159999999999975,0.6107231277112071,-0.37778656221344714,-0.7919180319887712,0.9927591300504336,-0.10836309935159905,0.05145117909733398,0.29410002185759737,0.4731509727827731,-0.4011703529660722,-0.027977679229154097,-0.7233890124063495,0.049325306959039694,0.6880977523509421
7.169999999999975,0.8785054927124486,-0.3417426410881773,-0.9846174669448677,0.9938476839105634,-0.09925283646097066,0.04857401620197892,0.15403786144100354,0.4621831159355372,-0.36785311163381523,-0.022207637410725824,-0.7224359144831352,0.04871361336636557,0.6893445735873437
7.179999999999975,1.1541308184500045,-0.3030433646442514,-1.1482333940593188,0.9950050513775571,-0.08837968985064638,0.04623996091879479,0.07619038858094122,0.4392624467988906,-0.3333043130377045,-0.014996119308802342,-0.7216536958618359,0.04833038846891999,0.690397288478811
7.189999999999975,1.4171881374413577,-0.25966847638106805,-1.2509812486512877,0.9960993084731328,-0.07553735714050662,0.04457232699990442,0.034847917512331565,0.39443162280529226,-0.2723438176072703,-0.005843698194869344,-0.7210610451590135,0.048548046596144784,0.6911095359011674
7.199999999999974,1.6692587484451733,-0.23907514947538233,-1.3143116773738723,0.997094302260209,-0.06211770632947575,0.04308643125153316,0.019045801825244152,0.3551781358244273,-0.2275067296596368,0.004156493935445925,-0.7204989114127618,0.04923084818003856,0.6916545933993319
7.209999999999974,1.9070968215174795,-0.25246483104330786,-1.3288745530529116,0.9979533699037512,-0.04814056039142731,0.041769265400497635,0.03526924292851532,0.3272649596148442,-0.21008137889899106,0.01511365276479579,-0.7199538128421379,0.050506204801209965,0.69200477313538
7.219999999999974,2.135572823143656,-0.34729997614048874,-1.3345368924375065,0.9985892458548629,-0.03399382729669272,0.039394558182509094,0.10949804255867016,0.31440413174910903,-0.2020640750518125,0.027250575870049525,-0.7189593316240253,0.05282946464058988,0.6924439598754633
7.229999999999974,2.3485850888826887,-0.4649639959608538,-1.3318897062910673,0.9991069416190558,-0.019844825153619742,0.03596676264012414,0.17066926391049497,0.30838614588774566,-0.20093736856871305,0.03999413178766978,-0.7175466028367188,0.055704866901091166,0.693063504345039
7.239999999999974,2.539874769911915,-0.6037667335077941,-1.3181952311844904,0.999483134270294,-0.005719823592428622,0.03112752844870064,0.2028449166967302,0.3102173096108475,-0.20864384631434824,0.0534585291263867,-0.7155780494911422,0.05924054595073404,0.6939396677105888
7.249999999999973,2.5782117934844364,-0.7266275229370305,-1.3074487590681663,0.999611625074372,0.008030144258094686,0.024113376326962914,0.21519815841249657,0.31779854529549895,-0.2132193284903424,0.06741027364464128,-0.7127661488293843,0.06330282564563224,0.695191780982565
7.259999999999973,2.5465053866940752,-0.8523454795867731,-1.3054995911039062,0.9995801097838622,0.02162086515543088,0.015916767070845012,0.21957135448313866,0.31854911748963205,-0.20915261731579868,0.08132623027062531,-0.7095212979859102,0.06727297093662837,0.6966660924480343
7.269999999999973,2.4339068137371487,-0.9853294814965647,-1.3166183104243578,0.9993456199575963,0.035032553689786736,0.0062817418937789,0.21515704583622614,0.30771562011122383,-0.19229044360002628,0.09509973591231852,-0.7057581857642242,0.07100657020130154,0.6984165550360277
7.279999999999973,2.317778424875022,-1.1025189357140253,-1.3111449536509852,0.9987399402966652,0.04814041011470862,-0.005435443792546833,0.22218410787687579,0.2891586963375826,-0.15314743721188329,0.10835985140337664,-0.7012719519528631,0.07405208509824962,0.7006269438532402
7.2899999999999725,2.2055049170242595,-1.211618725187467,-1.3021778917951812,0.9978995325533426,0.06096046434628017,-0.018162990458652443,0.23101587209280755,0.2674584965744317,-0.11514513102295094,0.12131618145192992,-0.6964265859896067,0.07677336930281681,0.7030595017118432
7.299999999999972,2.100052026748177,-1.3109798955082108,-1.2909315236719578,0.9967593770011706,0.07338316553877244,-0.032085255186586344,0.24045902925632737,0.24228710252056024,-0.0833483273917096,0.13389108325882088,-0.6911532100897676,0.07911518666265673,0.7057543572323874
7.309999999999972,1.9542044748995113,-1.4024357395270242,-1.2867643933871287,0.9951165874402261,0.08535786751982571,-0.047397334829467515,0.23524013147286443,0.2099904328960709,-0.05454436146151351,0.1458726078104775,-0.6853864137493275,0.08078855505898169,0.7087576285998066
7.319999999999972,1.7807016032959797,-1.4862590194100667,-1.2897738395691412,0.9931571472809941,0.09717337392773849,-0.0633742692854675,0.2240277435870327,0.180009840863479,-0.027803162046868633,0.15743935255433403,-0.6793962815071941,0.08195609286535765,0.7119294080843263
7.329999999999972,1.5707628679671715,-1.5593242238882583,-1.3029752505615253,0.9907892064296082,0.10882579196778937,-0.0801364972026173,0.20619801248196826,0.155355826415955,-0.0037840157111527356,0.16845692539007456,-0.6731481061432253,0.08244195883771767,0.7153097115363779
7.339999999999971,1.387286201987506,-1.613297759895008,-1.3412725649777117,0.987759457474755,0.12060154294944923,-0.09764443963180268,0.15446457010642275,0.10787876838007579,0.02428117318995603,0.17867236407462514,-0.666684676048978,0.08176653886048109,0.7189124897647332
7.349999999999971,1.2172065493816178,-1.6447123400292896,-1.3766891534686878,0.9843381327823965,0.13255884178563096,-0.11533882987515866,0.10621270607808363,0.06512152332804388,0.050749820157474805,0.18856189719624494,-0.6601721074430147,0.08052176514048537,0.7225441428117432
7.359999999999971,1.0633674653123983,-1.642736297728234,-1.4013079650044158,0.9804156265653848,0.14479205149241606,-0.13316967461956275,0.07185875986158052,0.03571416552632946,0.07357457476789578,0.19809393880127513,-0.653628018644615,0.07859549642959651,0.7261715398653475
7.369999999999971,0.8705579849953013,-1.6339621904981694,-1.4748353457853483,0.9758075940906482,0.15762838613921973,-0.15060646409797487,0.0023246701488106453,0.00671905655060873,0.10912291829136386,0.20701589397823902,-0.647267409180001,0.07559131511433642,0.7296562073547768
7.379999999999971,0.6758504238436682,-1.6231591334300581,-1.5513905388060771,0.9707629407014182,0.17105738612477933,-0.1677601661565411,-0.05774752418595188,-0.022058530310852878,0.1367030930187924,0.21565538554430433,-0.641036086808172,0.07189217491113532,0.7330346702191298
7.38999999999997,0.4879574016074612,-1.6106085749810777,-1.620510003418781,0.9651408151644627,0.18535507022173525,-0.1845263968968145,-0.09234135545249804,-0.050566747906500877,0.147206544182484,0.22396445737261186,-0.6349808138958293,0.06727046035001694,0.7362664441862012
7.39999999999997,0.32252507489991056,-1.5538047291429875,-1.6747346475278457,0.9588143546934171,0.20056730239257634,-0.2003943646125954,-0.1489158662039718,-0.0872854585067053,0.17072321218432343,0.23175099731029375,-0.6292630920029547,0.0615970579284247,0.7392233754007248
7.40999999999997,0.1704905626438113,-1.4927874027549923,-1.7264470374221006,0.9521304845250657,0.21625746879516028,-0.21556377588921027,-0.19419446624727452,-0.11894036641555354,0.19220653786279138,0.2392740720369185,-0.6237923887465341,0.05542094436981484,0.7419610023420894
7.41999999999997,0.035964818763080275,-1.4367635999797654,-1.777892529451258,0.9450092272956868,0.2325402243025814,-0.22974325888139113,-0.21315874032524257,-0.13926283527961406,0.2063961411769372,0.2464756662922193,-0.6186661147481882,0.04864685410764802,0.7443858312274768
7.4299999999999695,-0.05152089585060002,-1.389013643152544,-1.8161977372144549,0.9372387539522883,0.24961301643935463,-0.24287008637256013,-0.2314920447233576,-0.13927870853832755,0.21407421065040044,0.25344390473097356,-0.6138586682338697,0.041212035203634735,0.7464399571710539
7.439999999999969,-0.11036690797411362,-1.3418500463739766,-1.8429594752450464,0.9291402610812612,0.2668899859498324,-0.25545697074587514,-0.24218514957559945,-0.13958058954909286,0.22264796671510384,0.26030755927275034,-0.6091889756275709,0.03357520953378145,0.74829747679779
7.449999999999969,-0.1311972415554671,-1.2932184201620613,-1.8526105156006631,0.9206403007933653,0.28429826795981733,-0.26737809546624064,-0.23907487033226613,-0.146645981808252,0.23486344313093513,0.26705131279043604,-0.6046736907530629,0.025771316067622903,0.7499087074619707
7.459999999999969,-0.14957107650903825,-1.2329937747278878,-1.8640320647173885,0.9116855671412849,0.301721632072071,-0.27841327035902874,-0.22722948464546064,-0.14554076917763714,0.24425227907917968,0.2737423312817557,-0.6003560518031565,0.01793397344863667,0.7511633148216871
7.469999999999969,-0.16885064248009396,-1.1743309793868992,-1.8655619847852305,0.9025081919554311,0.31908824234098304,-0.2889088815943138,-0.2124353047236969,-0.14454635112843578,0.2552096192321042,0.28036799216951724,-0.5961649058303378,0.010094718633980945,0.75221740681103
7.4799999999999685,-0.19065758529250157,-1.1224793944309914,-1.8478446521718404,0.8930625161010413,0.33634277862516593,-0.298682198060763,-0.19499177245721883,-0.14648515572801507,0.27006782760315945,0.2868879628750762,-0.5921464431847263,0.0022630098060162935,0.7530122057515629
7.489999999999968,-0.2271065043472553,-1.0724742717547024,-1.8101366242480923,0.8834050247294911,0.3531699640581922,-0.3075964997122274,-0.13555794484453693,-0.14438451372750377,0.2874989146755919,0.29310763223013886,-0.5883280466358032,-0.0055101861021415975,0.7535681798562309
7.499999999999968,-0.2760030251959484,-1.0219081640709826,-1.7605574440909784,0.8736966198264433,0.3696891320380431,-0.31594641270065926,-0.0736885527166351,-0.14575626566452526,0.3038282220168629,0.2990791131642164,-0.5846562551892097,-0.013253246428781867,0.7539977363487889
7.509999999999968,-0.34379000293523765,-0.969584397323116,-1.6951419510438837,0.8639658862190542,0.385764369775304,-0.3235103710022729,-0.02227093129459054,-0.155335400135952,0.31708645559253235,0.30467696687027723,-0.5811969651993404,-0.020958913419319405,0.7542680301041096
7.519999999999968,-0.4227250573461144,-0.9336754818259911,-1.5969228907831299,0.8544287129412922,0.4010473401421117,-0.3300190341414342,0.07909901931392241,-0.15669288050678343,0.3391895106836982,0.30955735722622363,-0.5780425584044818,-0.02862263290362143,0.754434392561045
7.529999999999967,-0.5095934248190391,-0.9150217344764612,-1.4894896650125975,0.845035825981293,0.41579646673603105,-0.33601696094830474,0.17630319397380695,-0.15906096181573373,0.35988264275053994,0.31394662692052366,-0.5750212026380752,-0.036277759162427675,0.754612972849332
7.539999999999967,-0.6079771881892001,-0.9244779412879622,-1.3764483053006196,0.83585597037095,0.42978717251780835,-0.3414055913032216,0.24563225639514147,-0.16666730064777638,0.37429465525591893,0.3176337127832261,-0.5721468509266365,-0.04393209651463583,0.7548566554829994
7.549999999999967,-0.7209804800084975,-0.9448682426700896,-1.2704095765266916,0.8268906902355776,0.4430005538168517,-0.34619435930789494,0.35351668326906144,-0.1734037837861858,0.39420490898759714,0.3203894593840035,-0.5693740459078572,-0.051743597476428815,0.7552774690405818
7.559999999999967,-0.8390791529108668,-0.961710574682043,-1.1673920777221496,0.818080376421828,0.45580504401861793,-0.35056343465186535,0.44395758252836287,-0.18086565725383216,0.41096539734993826,0.3225814900225974,-0.5666829990882172,-0.059673138165930464,0.7557923729366723
7.5699999999999665,-0.9615063827010809,-0.9666114669736823,-1.0676454707598222,0.8094989777742221,0.4680948022099684,-0.3543204629329731,0.48211633083837674,-0.19019155872493052,0.41890421006968676,0.32400455879273743,-0.5641176552445656,-0.06777970212456437,0.7564264580370513
7.579999999999966,-1.06756529756939,-0.9414009107380713,-0.9876426542982566,0.8012878631185145,0.4799361724347522,-0.35704567341083016,0.49859830503051195,-0.19937827323406762,0.42247739247613847,0.32458304977750096,-0.5618232583333294,-0.07609140805330034,0.757079019768935
7.589999999999966,-1.1529046216412646,-0.900589829671795,-0.917246891494987,0.7933375311880475,0.49153353777136793,-0.3590827177892883,0.5013952707838681,-0.20931598550215644,0.42205203586722434,0.32474988753130474,-0.5597298123500132,-0.0844589073998582,0.7576800092451952
7.599999999999966,-1.2016641488791273,-0.8403594877443873,-0.8582614998206406,0.7857725858404002,0.5028168585197212,-0.3601277630609564,0.48499390272402704,-0.22091406291862456,0.41511850714631693,0.3244271507813544,-0.5579399011140047,-0.09285135335725246,0.7581629058638328
7.609999999999966,-1.201016789137075,-0.7444065746226939,-0.8017445338572902,0.7787878163365435,0.513565576122935,-0.36006986991593576,0.4276938348171114,-0.238285680823856,0.3931976653022299,0.3238053232249724,-0.556537663015706,-0.1009633404609788,0.7584094092502671
7.6199999999999655,-1.1874266825933966,-0.6345888181281343,-0.7397370612480667,0.7722488845428628,0.5239054636817092,-0.35931290860453907,0.3715892618065258,-0.2551407899976917,0.3707408538845561,0.3230538588448318,-0.55541439751803,-0.10880213412756438,0.7584803192030893
7.629999999999965,-1.169778780474202,-0.5119624890325968,-0.6644856891761676,0.7664014430160886,0.5336125314061125,-0.3575667361966956,0.33821950428835806,-0.26802458001169793,0.35448102086120215,0.3221654605598557,-0.5547116963956498,-0.11618029385928982,0.7582827662300613
7.639999999999965,-1.2050340190650128,-0.38936729719344887,-0.5432156289505025,0.7617123943885704,0.542328722572644,-0.3544232776889337,0.3157907281818441,-0.28138934295947454,0.33273727428507627,0.32083099603011933,-0.554645349419792,-0.12301086812722964,0.7578112783903834
7.649999999999965,-1.2617139640008532,-0.2696439970889154,-0.4093299141445175,0.7578282953663951,0.5503995318166657,-0.350320201604017,0.31198522057697986,-0.29259901605287203,0.3162118490541911,0.31908854512038004,-0.5550123225143594,-0.12956342197966367,0.7571924028893852
7.659999999999965,-1.3387717631786826,-0.1563979457636806,-0.2713325135532716,0.7551497465945721,0.5575367247724105,-0.34478858762335335,0.344485165067945,-0.29868054613559614,0.3143951771538156,0.31666022743116434,-0.5560214927007695,-0.13577783982644048,0.7563855921421001
7.669999999999964,-1.3808867652580552,-0.0661574880642828,-0.12262551938754078,0.7538354535728208,0.5635239626641868,-0.337822643351978,0.4411881681429318,-0.3047455768492059,0.33391870326537804,0.3134529058550175,-0.5576925899899247,-0.14158890647289352,0.7554149177659528
7.679999999999964,-1.388902148859889,0.009257116650652592,0.03961327111071353,0.7533901202886771,0.5685935309056065,-0.3302669388682874,0.533011682194069,-0.30810551145820264,0.35303083113715816,0.3097862716930872,-0.5596776714841528,-0.14702768687664286,0.7544263111641005
7.689999999999964,-1.3373245821221695,0.06322361191831052,0.22730312439637734,0.7541928205652708,0.5721790576387572,-0.32215453148907486,0.5767887626726532,-0.3051644446062944,0.35899678348186,0.30549301293967407,-0.56201721436491,-0.1518283378526025,0.7534894479018966
7.699999999999964,-1.2211748464385648,0.15459248186217467,0.4077278099761349,0.756553301150311,0.5735602584480242,-0.31402886069929253,0.5757016312596382,-0.2840485111165412,0.3521717755089855,0.30071926060739557,-0.5646396097614615,-0.1554267917116714,0.752707622441583
7.7099999999999635,-1.0803362664704996,0.2840665426503,0.5728531166522451,0.7598953592245444,0.5736085437648479,-0.3057734564454761,0.5441311023405969,-0.26077332285370125,0.3368898239819636,0.2958038006335407,-0.5675294267687386,-0.15817358115537464,0.7519162461882497
7.719999999999963,-0.9197026865377204,0.4823534830530515,0.7055858568053496,0.7646447892802496,0.571800386925618,-0.2972136658378336,0.46669474273670797,-0.24346552330813465,0.30909504782847436,0.29084223944158494,-0.5708896574045852,-0.15960744834609308,0.7510065844017917
7.729999999999963,-0.7563776216649126,0.715461473366618,0.8429354349129461,0.7709991885529193,0.5680753140625389,-0.28768197165333104,0.30814500557942265,-0.2353557721584008,0.27480365511837435,0.28603302980663686,-0.5750774983686203,-0.159479685373055,0.7496747837344685
7.739999999999963,-0.5927720306930396,0.9522689744694898,0.9854879180633116,0.7783558509962245,0.5630931744767416,-0.27749166249797386,0.16254548030438437,-0.23514474148286568,0.24389216641422312,0.2813112549799204,-0.5798012334342398,-0.15834049526899208,0.7480649537588373
7.749999999999963,-0.43024762654287246,1.1752632744847078,1.1379307516884587,0.787144754898985,0.5562511706323447,-0.2663054820270039,0.10277200474104899,-0.2485017216645542,0.22568203141625373,0.27670626997589126,-0.5853109517164926,-0.15571762326527794,0.7460425614499481
7.7599999999999625,-0.22912497200964663,1.3386326785107265,1.3005351160769645,0.7972807120124542,0.5471791126648076,-0.25444390339629364,0.06750396338615572,-0.27783109058064726,0.2006892280080128,0.2721699765461736,-0.5914482259727181,-0.151432805130029,0.743727697162842
7.769999999999962,0.004088557981495364,1.458512641182,1.4660397647798447,0.8081311618073359,0.5366011357571194,-0.24255846153202543,0.050609861727066704,-0.30044596766394055,0.17546049809528647,0.2677294171527245,-0.5978006719305158,-0.14602568763500728,0.7413449233514261
7.779999999999962,0.29234571207885685,1.5089942460303654,1.6317796115746561,0.8198607748361191,0.5237375652492442,-0.23109139482573435,0.06352295020191591,-0.29446380872181266,0.15444284678360454,0.2634860590705337,-0.6042602888464736,-0.1389151962031053,0.7389953800560336
7.789999999999962,0.5951340329560051,1.4992234883929902,1.7927983126289002,0.8321433198245528,0.5082774434024996,-0.2211451926731378,0.12265378447383402,-0.275478408652551,0.12974181654230807,0.259578388831023,-0.6103188430159379,-0.12987057962374457,0.7370085740791984
7.799999999999962,0.8927442730885686,1.4702434122265562,1.949735076014994,0.8446737393761522,0.49122025841646044,-0.21220364137626285,0.1807796369709263,-0.25337578598366844,0.107719447192277,0.25586671291258467,-0.6160548547991196,-0.11965980679768945,0.7352752534781409
7.809999999999961,1.165500093576147,1.4362414300470148,2.0994323410056097,0.8574404511936617,0.4719029129688639,-0.2047698039772816,0.20093971481172399,-0.23292163398806617,0.09562672304599878,0.2524193986979291,-0.6212402156342075,-0.10782783014145098,0.7339383805211377
7.819999999999961,1.5254396056997805,1.41635708829233,2.225555748654461,0.8702923642877041,0.45021829912935435,-0.19874749543027223,0.19981500296589796,-0.20361981582857241,0.0852034417198091,0.24950018713726158,-0.6258151028929161,-0.09410384541223772,0.7328838872687705
7.829999999999961,1.9032655156424085,1.3880492001980087,2.3426467931125887,0.8830821234764139,0.42705734673439066,-0.19370478179172548,0.18614405025772163,-0.17095625179610563,0.07680368561887661,0.24701752734921767,-0.6299111588771213,-0.07913586491214242,0.7320067532557639
7.839999999999961,2.258741561115397,1.3250209920930576,2.4542526218783176,0.8956312489712368,0.4017813875382892,-0.19019600620999091,0.1554564757170203,-0.13631161666491515,0.07259455454143053,0.24530123131193995,-0.6331922347404357,-0.06230151225985725,0.7313853536315924
7.849999999999961,2.5539970553776326,1.3022343379241803,2.5285324301283794,0.9077233069745438,0.37450258293890176,-0.18778632539758655,0.11313730978631889,-0.06410903366166656,0.09523679806292187,0.24427053280337627,-0.6355969186122408,-0.043767554879480135,0.7309068009903636
7.85999999999996,2.7449453710907754,1.3223452686066735,2.5611141310958208,0.9194192707778234,0.3464192131077245,-0.18534997264155761,0.06937681979709245,0.0014778720111575734,0.1194663442592691,0.24357456318432283,-0.6376489372818223,-0.02449362471824139,0.7303055086109886
7.86999999999996,2.6922941631323196,1.4290111228457398,2.5079844430375693,0.9303913253831074,0.3178116103396524,-0.18186984073076354,0.031760901371591134,0.015175058719452482,0.12456301175083932,0.24322673224152083,-0.6394698341696435,-0.004612100665520515,0.7292293640222426
7.87999999999996,2.3637314175090824,1.529088110016847,2.4559548812407597,0.9404925626889797,0.2902045682527247,-0.17535271705425434,-0.037203941511939356,-0.001090524870221793,0.13617952091170227,0.24212046335556697,-0.6418152472463393,0.014180837554184717,0.7273587035453538
7.88999999999996,1.9026811815027376,1.6165909149303122,2.407115697272346,0.9500159986923735,0.26338986302310924,-0.1668056697162028,-0.10300950185411917,-0.020545480211177466,0.1464403432520334,0.2401631545973586,-0.6445926031930488,0.0318895908887681,0.7250640074470773
7.8999999999999595,1.3125766860164902,1.673309996710346,2.3666277484367626,0.9586621436113556,0.2379612803728334,-0.15515539494460495,-0.12986489130678647,-0.02105027711294824,0.146543836182137,0.23641791417177363,-0.6481454097875763,0.047436342666165476,0.722272504880896
7.909999999999959,0.6392757486452215,1.68856446908539,2.3063469480415826,0.9663181869808164,0.2141770436725513,-0.1410552439025232,-0.15234921695342046,-0.05314248085028676,0.1106452572761519,0.2304676936640193,-0.6525016115558219,0.060190917216861886,0.7192926862826284
7.919999999999959,-0.0703757612921757,1.6903999314276061,2.249286231418005,0.9733155511299909,0.19142024712306016,-0.12558863696780465,-0.17154778912615493,-0.0860881509496979,0.06369755658929706,0.2229468546324167,-0.6573737626809272,0.07097602569543096,0.716278666411514
7.929999999999959,-0.806418646871266,1.6934080084506173,2.2221377336549684,0.97930942371135,0.1701272944854927,-0.10844211821115646,-0.18516398425253747,-0.08957032362118501,0.019603965303103155,0.21287491644976222,-0.6630036961646257,0.07858987230286987,0.7133515218871301
7.939999999999959,-1.4879165712328897,1.6195878917964137,2.214010541464153,0.9844168738155827,0.14942593124109624,-0.09028753680576114,-0.19980348476850004,-0.13516169509971854,-0.03175523761447362,0.20012439868058948,-0.6692464393354278,0.08327237701876046,0.7106226364593464
7.949999999999958,-2.088669522369081,1.4906408153893689,2.2016389724570327,0.988899431016976,0.12900820304364452,-0.07229427871213336,-0.20835137778660462,-0.1772726622489419,-0.0817489182792705,0.18584373980651972,-0.6755869243407593,0.0861641405211015,0.7081869950589049
7.959999999999958,-2.4935533594238732,1.2711496943145302,2.1550965879887523,0.992372568712574,0.10884222171585507,-0.05591076915008758,-0.19651776980068558,-0.16244577021976297,-0.11949900976757258,0.16964552238794775,-0.6815681039447233,0.08658987234519896,0.7064625160301043
7.969999999999958,-2.620178472729254,1.153140150968266,2.1091428652157918,0.9950060566377276,0.08894075135911624,-0.04149684703566012,-0.16726857273953138,-0.0979229104630561,-0.16198124249535686,0.15278985971427164,-0.6869423130066912,0.08570754920014577,0.7051511289981819
7.979999999999958,-2.559612781965203,1.0918206797447378,2.071520952243363,0.9971328015449361,0.06908131835493729,-0.028091245624271587,-0.14288235635613047,-0.014125363207844972,-0.19453271798764601,0.13594941101045777,-0.6919546066768509,0.08453992829769202,0.7039082267533627
7.989999999999958,-2.2108147904406508,1.097641119122529,2.060538569224687,0.9985803978451797,0.04905010294896074,-0.01568715482655959,-0.15483559237419744,0.07471420359172325,-0.18897091105758126,0.11992854507409906,-0.696490391596039,0.08396787698402536,0.7024063449226099
7.999999999999957,-1.8628536658747812,1.1256287890302665,2.0620282280915068,0.999424861757988,0.028614168955185953,-0.0037774137137999222,-0.1703287523196976,0.19336141686144087,-0.19933477287873827,0.10525609615605533,-0.7006484040451691,0.08481118086634927,0.7004956339771952
8.009999999999957,-1.5579923852581876,1.1643896293657485,2.0597582799422605,0.999853047183313,0.007983276154926265,0.008000313664803617,-0.18025731501718562,0.3000525253562249,-0.21244093739883757,0.0913885921690301,-0.704637307403561,0.08648633599353582,0.6982824538980399
8.019999999999957,-1.398885176696489,1.2119682460171854,2.0289973938277686,0.999621812408648,-0.012802705990194611,0.019950076031620523,-0.1667799198816814,0.32853236685414156,-0.21485962459433058,0.07856710429786355,-0.7085252828832052,0.08921497322314612,0.6955531526487777
8.029999999999957,-1.3538976619285308,1.1728766041447878,1.9720825966347335,0.9988032132709066,-0.03312816708049193,0.03149885385261676,-0.12046222601124977,0.31172343480713083,-0.24586913508979039,0.0662267414091912,-0.7122336404564926,0.09198274214627025,0.6926590089657055
8.039999999999957,-1.3476374054846652,1.09623797982233,1.894342839214039,0.9976235544821981,-0.05301609757803024,0.04251830774773792,-0.06373504091095142,0.2893651175943412,-0.279260884649702,0.05418893900688132,-0.7157488738602271,0.0946498244232948,0.689756704186441
8.049999999999956,-1.3242121967707008,1.0038544139854528,1.778259731088796,0.9959600280408667,-0.07197823377578652,0.05220676527856832,-0.014548129306713141,0.30856071636235605,-0.2824532091777163,0.042571569437990175,-0.7188235074614986,0.0969078081215146,0.6870482367202511
8.059999999999956,-1.2639314232420855,0.877500010029867,1.6716204884750796,0.9940232167714333,-0.08979315037821935,0.060417432103229474,0.0609749201330527,0.35377879949145835,-0.3208866416631305,0.03158997154013912,-0.7214104330692329,0.09884643724590546,0.6846353875146572
8.069999999999956,-1.1773858308375729,0.7459363867303637,1.569616140003153,0.9919372499226348,-0.10682902655349302,0.0675979657001465,0.13357282937086418,0.4066014137244166,-0.36477909567994055,0.02111256490308249,-0.7236481146494005,0.10065166262451022,0.6824437239733617
8.079999999999956,-1.0477189661698425,0.6445169083596026,1.470954052354574,0.9896992710662066,-0.12266432869078654,0.07313408699923425,0.15718578995807483,0.4496273977500133,-0.3776025940012014,0.01156703597648445,-0.7253089839663687,0.10242968538136756,0.6806366176202338
8.089999999999955,-0.9259703264113963,0.5679159842109627,1.3592446182537308,0.9874076755338316,-0.1372750947308307,0.07782212141404722,0.16701692799652634,0.4878394003252579,-0.3904507932650774,0.00294395323476547,-0.7266665680808648,0.10423078160290349,0.6789998515334966
8.099999999999955,-0.8107845172701017,0.4991155055487989,1.2419410481022384,0.9851088628900898,-0.15099468216322637,0.0819581906469935,0.17147234256747276,0.5201973354239128,-0.39994623722955086,-0.005040790777549691,-0.7278307581209145,0.10602112572391705,0.6774822169697403
8.109999999999955,-0.7083672158230115,0.4214325683489897,1.1235880359201424,0.9828661361047961,-0.16321355845215646,0.08530476602678318,0.17686166677404255,0.5376536517926069,-0.396563333759652,-0.012021378253610297,-0.7287279148369857,0.10773426323008821,0.6761548174304949
8.119999999999955,-0.6106269746363922,0.3506356455935924,1.00765511442387,0.9807549768554156,-0.17412655021589252,0.08794446212956072,0.19663433968867844,0.549932589038992,-0.3881731463124973,-0.01815686595421273,-0.7293916389983478,0.10935483413857461,0.6750399561440258
8.129999999999955,-0.5109555420845014,0.28563489879973947,0.8928511223398105,0.978751382984232,-0.18411738987985451,0.09014643927036141,0.21881659305605616,0.5595801662504742,-0.3798667125610042,-0.023695641793470352,-0.7299114531978422,0.11091391001862431,0.6740621606554066
8.139999999999954,-0.3957285100174259,0.23218959744894627,0.7784862505122155,0.9769558931500231,-0.19262298027830488,0.09178951467685846,0.22645843726839104,0.5674260028487427,-0.3803019756149944,-0.028273467669004806,-0.7302492454629322,0.11238314437764972,0.6732741729217355
8.149999999999954,-0.2565917677018132,0.18315443186035993,0.6645639956374423,0.9753749020640445,-0.1998371380400367,0.09317805146060858,0.23294467711950007,0.5754451022578226,-0.3823365295241776,-0.03191976388485718,-0.7304908593488405,0.11388944218634395,0.6725965491956745
8.159999999999954,-0.099994013652375,0.13504305205684264,0.5474381827804685,0.9739631151373258,-0.20609778042735802,0.09441339080516083,0.23976547600413742,0.5838157224195107,-0.3852848501422557,-0.03485370079152056,-0.7306688759940951,0.11545099249840039,0.6719955001963559
8.169999999999954,0.08603627770631514,0.08280395728758838,0.41618349472222016,0.9728676224991633,-0.21072543393811083,0.0954714055419038,0.2500669923721213,0.5933357239344066,-0.3891443305759879,-0.036507493100451004,-0.730756128409739,0.11717543695178086,0.6715135697615473
8.179999999999954,0.29460730516125366,0.02331979167521723,0.2713969517661478,0.9721258706181145,-0.21373351189380527,0.09636350603326858,0.2737931990128396,0.6022453741382189,-0.3937840163489698,-0.036865485839519145,-0.7307513266297296,0.11908825393943602,0.6711625473318906
8.189999999999953,0.5079651425556411,-0.0361640426909175,0.11716966090172816,0.971656000298598,-0.2155149557033418,0.09714909466552664,0.29842088975607106,0.609535484267494,-0.39879644511820994,-0.036267801598907856,-0.7306875277750611,0.12111617637259893,0.6709016072493786
8.199999999999953,0.698223465738756,-0.08153958881059936,-0.0517116675246109,0.9716781642627675,-0.2151225068350917,0.09779514547532414,0.3008246291617755,0.6109802258174332,-0.4039085892260054,-0.034042588541053784,-0.7305467386709172,0.12327723075588777,0.6707770109303449
8.209999999999953,0.9023665327266687,-0.11312420872535307,-0.2318820796674987,0.9721142065249145,-0.21275977736850976,0.0985943806040696,0.2799704906276929,0.6099896363131847,-0.40202433545466976,-0.030459593337798317,-0.7304502122588847,0.12544730451146585,0.6706453713123326
8.219999999999953,1.1225020889249226,-0.1579492547146385,-0.4157363786476791,0.9728603463700951,-0.20893948740701213,0.09938502329370916,0.2555988987221954,0.6057687293906959,-0.3976676203283915,-0.025832966819577304,-0.7303381173157714,0.12766111630575264,0.6705446693297105
8.229999999999952,1.3860848395136058,-0.291793018907948,-0.5926252809457689,0.9741454743920787,-0.2026380485869555,0.09981530726914002,0.26405731282783096,0.5919973030575714,-0.39676828841259076,-0.01931869588960684,-0.7300625117489231,0.13005449522395873,0.6705991424435576
8.239999999999952,1.6452984802796906,-0.4212570827542373,-0.7733621263340501,0.9758916881246005,-0.19427233427247112,0.09920853912407372,0.2909150982307949,0.5727452397463693,-0.39676322952112325,-0.01111026751578715,-0.7293802187249223,0.13268062017507615,0.6709894452185536
8.249999999999952,1.8874584641566479,-0.5347000636870188,-0.9559444479714772,0.977937981762915,-0.18440590654531844,0.0979518615944279,0.31270797679080486,0.5498183286554378,-0.395269740980186,-0.0017093988169109785,-0.7284438648934337,0.13543723960181653,0.6715593596333046
8.259999999999952,2.058478387141833,-0.5819337709926433,-1.1385783278309014,0.98036559005311,-0.17208504212692585,0.0959564258247237,0.26874561508759626,0.5218458199008695,-0.3846771106766941,0.009519555739589628,-0.7272216310404837,0.13828664456377424,0.672221911514049
8.269999999999952,2.1713243216616727,-0.6190652765474403,-1.3139382045656018,0.9829543669246579,-0.1578838163342607,0.09347552246112567,0.1648370251791919,0.4711321572538608,-0.3598641802294441,0.02183044426015225,-0.7258722487974687,0.14086444410719523,0.6728249680928385
8.279999999999951,2.2581605810660332,-0.6470473903381041,-1.4758093736208795,0.9856156143731921,-0.14238774538568333,0.09064444309786546,0.04807478843627894,0.4137635501011041,-0.3278226288605005,0.034874102791702624,-0.7244328494475349,0.14324031984722277,0.6733628340931203
8.289999999999951,2.3577998343301814,-0.6541840769895865,-1.5883081746841603,0.9882434425951219,-0.12504412372424706,0.08725731306975339,0.013962501479087897,0.3788913418474476,-0.2945749719253953,0.048919737138469296,-0.7228562665747857,0.14527517269989026,0.6737216318759656
8.299999999999951,2.4889015786529365,-0.6858929107678589,-1.6657130140534817,0.9906757064758881,-0.10681245040713783,0.08334096006076377,0.018527478540972538,0.3452398021478023,-0.2588366417200848,0.06370415197067075,-0.7210704159942762,0.14738845924625657,0.6739015865826897
8.30999999999995,2.635238477507519,-0.7340188351504093,-1.7196461913002652,0.9929421173673104,-0.08802401244661541,0.07892894744730619,0.04396656044538809,0.31468694515354223,-0.22699847046591864,0.07903217473179183,-0.7190812591859371,0.14961223316629665,0.6739680171176984
8.31999999999995,2.7779408813224364,-0.8029319614039803,-1.7437616103488889,0.9948590736795321,-0.06867546695520906,0.07332635446879927,0.07615498761990482,0.2971045696785046,-0.222146981429353,0.09524669717760936,-0.7165830943467258,0.1522060659484888,0.6739143369500262
8.32999999999995,2.8979237604030494,-0.8965781882847145,-1.7483495831319478,0.9964546160088731,-0.04929249543886413,0.06637629580503804,0.12755735491465892,0.2838174682297439,-0.22161870468462655,0.11198992657387476,-0.7135256245326812,0.1551060521754342,0.6738762491756709
8.33999999999995,2.989944582159697,-1.0071990243199942,-1.738391667992302,0.997799469634759,-0.029997365801949245,0.05832500844345974,0.18306419356865375,0.27171167617892844,-0.22197097830595974,0.12905007862210224,-0.7100196947007327,0.1582033709882644,0.6738853956504081
8.34999999999995,2.993405015320476,-1.1402299523676023,-1.7044537619833688,0.9986876934725584,-0.011283609607735338,0.04808316301787967,0.20606959539061942,0.2537896330658545,-0.21477415278829817,0.1463368488065365,-0.7056519741482778,0.1615078350772464,0.6741094335893874
8.35999999999995,2.9611274341698635,-1.2732948555077301,-1.6781960347825038,0.9991945557350828,0.006851270335039143,0.03593244826042578,0.22916488020303072,0.23527093891409664,-0.19453419287655596,0.16349603843094385,-0.7006006645845491,0.1646315914726729,0.6746411592495474
8.36999999999995,2.9001927184370526,-1.4041350944571884,-1.6529087428229814,0.999397364091113,0.024497991103905183,0.02238511325300438,0.24856781405073006,0.21761223529402535,-0.16819900538353566,0.18050726589674565,-0.6950515224156426,0.16759080540694907,0.6754035431698047
8.37999999999995,2.784426543811391,-1.5219878990705888,-1.6093637232536702,0.9990251820645321,0.04111772433967152,0.006685220314984069,0.24631093269171853,0.20678819907062396,-0.14711963357572982,0.19705836223195983,-0.6887449217383176,0.17015904826291484,0.676544968970903
8.389999999999949,2.6417272895147907,-1.6288771553164856,-1.579950794342964,0.9981645318738346,0.0569813144389609,-0.01046947412223038,0.24515702941912274,0.1969164992977839,-0.1127284521073175,0.21307408181383466,-0.6819689395130364,0.1722049066643879,0.6780088639442732
8.399999999999949,2.4827046444304717,-1.7334032176919671,-1.5536216520733157,0.996915689893285,0.07224935119412894,-0.028704185652647957,0.24468255226172567,0.18620102261541002,-0.07352558824157296,0.228651064051174,-0.6748474864101109,0.17383163572356455,0.679726795846484
8.409999999999949,2.314938292940043,-1.860524215143283,-1.498397245699487,0.9949453890912275,0.08643333926597004,-0.048622550358013904,0.2446329914293803,0.16711457117354417,-0.04989228231392701,0.243356262723947,-0.6672010736959132,0.1746624762836447,0.6819073661069612
8.419999999999948,2.247571720002537,-1.9427736782356821,-1.45551423975978,0.992391392223452,0.09977379216049324,-0.06964375608193678,0.2420424938114991,0.1414966338620313,-0.01795582087754255,0.2576901578880487,-0.6591230593019309,0.17520444570503377,0.6843274909955862
8.429999999999948,2.218513657377332,-2.0039211114733466,-1.4173571298022865,0.9893815618575236,0.1124087847361791,-0.09146835908755534,0.2358400666652219,0.11229275156428166,0.01816103043490966,0.2717171251175666,-0.6507195411644369,0.17554284838725978,0.6869277186371209
8.439999999999948,2.0679026916869336,-2.093679732005499,-1.3643676835726521,0.9855725811553976,0.12358717155369588,-0.11442914576344634,0.21564532856711022,0.08393113311417888,0.05076388801926941,0.2851261740234016,-0.6417997324972717,0.1756280231072391,0.6898108653341711
8.449999999999948,1.6224611488061857,-2.2437554421494514,-1.3458011934692293,0.980985326528866,0.1346181094265939,-0.13833602077680476,0.18847580851955753,0.0650879002644208,0.07803988177348385,0.2974577267139624,-0.6327652488390872,0.17433331883554903,0.6932560061646332
8.459999999999948,0.9874475110283212,-2.410731415287932,-1.3521324097004668,0.9757584874581836,0.1457632011448344,-0.16281272154455523,0.15754126753429631,0.045631492934738706,0.10409438318983386,0.30874348792974865,-0.6237769604660105,0.17168880240253911,0.6971851434796594
8.469999999999947,0.23657642042248772,-2.451485010184887,-1.3909288671524354,0.9692723622074775,0.15828199976678584,-0.18739745172681893,0.12879653985529096,-0.016216569999554557,0.1431531165665742,0.3171875050983323,-0.6155652785264419,0.1653328696315711,0.7021753740149945
8.479999999999947,-0.42578436978473716,-2.4181304668050005,-1.4338388713512635,0.9620637446666528,0.17232310948815016,-0.21050598385610747,0.06975438652785165,-0.10355706551521657,0.19764858225967602,0.32372852695181503,-0.6083865828891055,0.1566302448249438,0.7074046019008625
8.489999999999947,-1.005865662852463,-2.3410027275944763,-1.4822674126234572,0.9542962557599033,0.18760506530476895,-0.23237197174600155,-0.0027934188258099705,-0.19478438791559616,0.25554324987562627,0.3288671665246604,-0.6020090792833785,0.14617408747186422,0.7127596237747545
8.499999999999947,-1.3751450106046175,-2.2702273214906397,-1.5528291124182205,0.9456288988046776,0.20524379527299347,-0.25166658859588453,-0.04078588063113851,-0.20250650085199765,0.27048350155647544,0.3321426268198159,-0.5969337692454867,0.13324434925400602,0.7179822422403435
8.509999999999946,-1.5878284883259854,-2.1899145348206503,-1.5995556319369357,0.9364018199172496,0.2240081350697579,-0.26937308339029964,-0.08365067661739267,-0.18300930145803185,0.2886675434469485,0.33480489019054493,-0.5923848244424813,0.11946537901109229,0.722895107244865
8.519999999999946,-1.6883419116126055,-2.101104411448304,-1.6295381747499396,0.9267568377213864,0.24353721472546086,-0.28582934499650414,-0.12512526248361916,-0.15109633992440946,0.3079975798334575,0.3370580099157965,-0.5882121203043181,0.10515114951207091,0.7275324479304394
8.529999999999946,-1.6711731260868234,-1.9921893434418054,-1.6441656774143736,0.9165593920885198,0.2635895656916358,-0.3002171081093242,-0.1323557106159783,-0.15373092752400852,0.32061922391587766,0.3390840310904225,-0.5844287967852522,0.09076609265494796,0.731520324754192
8.539999999999946,-1.6319799852657486,-1.8827912278640893,-1.6577553274906647,0.9060819644113195,0.28371402092399833,-0.3132993606696182,-0.14659020097714684,-0.15266238406013913,0.3271928613535102,0.3411489620970528,-0.5808329882875056,0.07661523222588659,0.7350232951948512
8.549999999999946,-1.5738621371706938,-1.7731783337603888,-1.66787570569368,0.8953975995410656,0.3038437100952779,-0.32534538236585614,-0.1630175543574214,-0.14956389857106522,0.33066220334730506,0.34325655654407305,-0.5773815211309208,0.06268745551453216,0.738136923313752
8.559999999999945,-1.475132483623745,-1.6643384971156638,-1.654671240208045,0.8844764162900184,0.323635162916527,-0.3356947339844367,-0.16058209560047862,-0.14920683091289172,0.34036193012423177,0.3455125694337354,-0.5741364035893204,0.0493730115750829,0.740583352094205
8.569999999999945,-1.362171013675046,-1.5606877129083676,-1.6254004560828408,0.8735262944528333,0.34284028280610535,-0.3451266201594633,-0.1465395424296938,-0.1423521828668295,0.34888663102550344,0.34788916703031514,-0.5709687204265614,0.03665476719377671,0.7426516817166682
8.579999999999945,-1.238792065000545,-1.4595041583928061,-1.582684140114699,0.8625794505768115,0.36151195137502995,-0.3538346888565383,-0.12457407105956506,-0.1326914524891905,0.3570039729541878,0.3503603073771871,-0.5678609865833626,0.02444975590524513,0.7444219258919023
8.589999999999945,-1.1056642409760886,-1.3500081922059946,-1.5139380634280988,0.8518308563726332,0.3788524336387356,-0.361448497771575,-0.09976882693749396,-0.1359650761324916,0.3683527397524394,0.3529700059392399,-0.5648354353211041,0.013338050446091565,0.7457430743454746
8.599999999999945,-0.9715020555070826,-1.2237251999982963,-1.4182300401449537,0.8414983168657275,0.3949942324864839,-0.36831558904342937,-0.06166268908780309,-0.1281069059434432,0.38321777519394973,0.3555736553005019,-0.5619412306540532,0.003099980429088783,0.7468073041148282
8.609999999999944,-0.8360944103902339,-1.08760330818428,-1.2997680470645587,0.8315626333789329,0.41008114536789864,-0.37456887640458447,-0.015552038610354832,-0.11396983740101632,0.39959397988299417,0.3581505403194655,-0.5591651117156512,-0.006387082223377517,0.7476710038424161
8.619999999999944,-0.6954066455328576,-0.9656695875564999,-1.1371651174563722,0.8227484332165301,0.4227889077511699,-0.3797573057844053,0.021327568639438757,-0.11160449835183871,0.40770561410066497,0.36050898838002154,-0.5566737196659026,-0.014311761517901445,0.7482709367460499
8.629999999999944,-0.5561659032673222,-0.8693999130266619,-0.959859402008472,0.8148030298830122,0.43368181026997704,-0.3846110320584667,0.09139964669636236,-0.09812941019062041,0.41821110695920344,0.3626075134641318,-0.5542770253710648,-0.02117335851861923,0.7488786454904003
8.639999999999944,-0.41969635684318857,-0.7962370047441722,-0.7737486023036002,0.8075764664391363,0.44305294804772216,-0.38924510696559605,0.18161604575156878,-0.07799497539834313,0.43013190012655833,0.36448193800021744,-0.5519390503488398,-0.027156942914987065,0.7495166321522284
8.649999999999944,-0.30167434628528195,-0.7786691084355096,-0.6020139494638068,0.8015709163036421,0.4496632794700079,-0.3940061464987742,0.24215435719602824,-0.06866058092418396,0.43952102602858567,0.3658967796066712,-0.5495294162756069,-0.03166292527302808,0.7504142080857205
8.659999999999943,-0.20551636748808008,-0.7745901817862684,-0.4447683945161869,0.7961508500114368,0.4547810186957998,-0.3990998672090081,0.31746549303982036,-0.05878128382945331,0.4517865376856229,0.3670240296858492,-0.5469776648111341,-0.03544037870901039,0.7515597386113604
8.669999999999943,-0.12960977136048613,-0.7768573996866913,-0.3011810782394433,0.791216263263702,0.4586879101245248,-0.4044456850309651,0.39712242017402366,-0.049784199112860125,0.46542564856761814,0.36790538082830865,-0.5443190732796156,-0.03863123698588067,0.7529065366222207
8.679999999999943,-0.10696213622260851,-0.7420525320231548,-0.1955932117525549,0.7870615588638548,0.4609114667798673,-0.40996438283428926,0.40655511532665983,-0.05523551400852744,0.47139096876770603,0.3683191396629652,-0.5415963295784427,-0.04105068825290874,0.7545343097160923
8.689999999999943,-0.10111296141889246,-0.6619668786298981,-0.10804995884734521,0.7834941258364838,0.4625141782669561,-0.4149702147003623,0.3670712673876563,-0.07103312441053054,0.47295127696010375,0.36845778201570684,-0.5391196084740297,-0.043131398186709496,0.756123530960281
8.699999999999942,-0.10541151613481861,-0.5459626207639146,-0.03580978147721076,0.7804500359797847,0.4636080832792089,-0.41948072229608996,0.2927757807658536,-0.09395648594740548,0.4710232969730414,0.36837394099338977,-0.5368815684436676,-0.04491577458273257,0.7576549354307951
8.709999999999942,-0.0829751413822297,-0.39514719305887613,0.01021291448157411,0.7785748615228216,0.46402097136665305,-0.4224926622892386,0.23067417703056972,-0.1113405672253191,0.465783065769986,0.36802556855940316,-0.5353757856955779,-0.04609496385336713,0.758816849795934
8.719999999999942,-0.05178444036371637,-0.24309919916689754,0.04819258681161612,0.7773811156929143,0.4640769132007854,-0.42462926907421505,0.1588136485180841,-0.13602142462683325,0.4511385170606525,0.3676702018294868,-0.5343132191131745,-0.04684409453376656,0.7596928002232581
8.729999999999942,-0.019948246145018358,-0.0875177865905668,0.08427482554412742,0.7767988892964903,0.46381733679148185,-0.42597773028408425,0.08452232842582717,-0.16506934561174869,0.4301906779609438,0.36729162443600843,-0.5336489482603192,-0.047222120035052106,0.7603195990689011
8.739999999999942,-0.07008940238361361,0.10407593122263917,0.17765515030444307,0.7775889286127418,0.4629053580033278,-0.4255273214397294,0.07797720596029703,-0.17868212031039293,0.4198135317628008,0.3666650409595236,-0.5338848273305818,-0.04693898700816361,0.7604737755443661
8.749999999999941,-0.1667305131803169,0.3122331186272403,0.2928611887163124,0.7796187889365916,0.4615593977810101,-0.4232543509375221,0.11646385380158553,-0.1953200795730331,0.4186260490669282,0.36546651515293965,-0.5349955878145354,-0.046373781791873986,0.7603025881597936
8.759999999999941,-0.29813476399826205,0.5258531775225326,0.42294042404478643,0.7827160139538228,0.4598417121249716,-0.4193986267620385,0.19069908216894402,-0.2135164486591226,0.42474202272835354,0.3637581511161453,-0.5368634227808393,-0.04557859686223117,0.759854439633345
8.769999999999941,-0.41170695987332495,0.6264384727141417,0.5223940670149538,0.7875035507097218,0.4575614975260918,-0.41284680367197524,0.2797792860912278,-0.21971153287796374,0.4340141407841907,0.3610009773116578,-0.5399839554365692,-0.04459706061854009,0.7590111969596173
8.77999999999994,-0.527171869648976,0.6874277991555637,0.6483324721428749,0.7928767540974336,0.4548248501918966,-0.40549268213757717,0.4171687453633621,-0.22642373904381982,0.4453422477270702,0.3576187642268362,-0.5434549472296032,-0.04361721258971702,0.7581867175146708
8.78999999999994,-0.6440213059169586,0.7207850492097816,0.79457416966857,0.7987827599502153,0.4516561422867835,-0.3974172026531753,0.5846933314779766,-0.23272900796953402,0.45725289845579214,0.35366646675089825,-0.5472405578925167,-0.04263267861680619,0.7573814397349701
8.79999999999994,-0.7588294864528368,0.8200544058872825,0.9284436674630714,0.8058752435383704,0.4472696870765555,-0.38786481761348024,0.6094908571918973,-0.2248002954620233,0.45089760624477043,0.34842244352373536,-0.5516628801307869,-0.04154319841328192,0.7566513083676374
8.80999999999994,-0.8448826962103202,0.8702765508161382,0.9997286316331888,0.813377946433191,0.4425358826122298,-0.37744984198288434,0.5584860724868758,-0.19809952781463927,0.40329656712890194,0.34273031868420717,-0.5564391344474114,-0.04045346183711402,0.7558051520975925
8.81999999999994,-0.9067140846341114,0.8705678622337413,1.017988311026589,0.8211760694316061,0.4375241748899625,-0.366374836450403,0.44697358174568086,-0.15674285904303092,0.3220797603329875,0.33666245354573143,-0.5614797645341185,-0.039390236181011735,0.7548796976006203
8.82999999999994,-0.9529179774475337,0.6717505442251315,0.996089284740637,0.8281937543894412,0.4326176715426184,-0.35616360544558595,0.3612091062137016,-0.12833824677643996,0.24101882003528913,0.33038546970675464,-0.5660370135347335,-0.0388618338246869,0.7542601929353655
8.83999999999994,-1.0091039457339848,0.4843459151298228,1.0212612412319086,0.8345833447730864,0.42764480634500796,-0.3471690455002706,0.2782950845490336,-0.12171271192845412,0.14276721206067028,0.3238799515539367,-0.5700066800496085,-0.038749371548755934,0.7540974534657671
8.84999999999994,-1.0714438467236649,0.3130873575579709,1.0870820490600122,0.8404440189912518,0.4225727649180136,-0.3392329818525904,0.19951302291027528,-0.13362817434982388,0.03279668442720336,0.31715136179089254,-0.5734654858570963,-0.03899087325818758,0.7543395664162158
8.859999999999939,-1.0822460127772877,0.2960414629266199,1.1819556874738897,0.8462324965496937,0.4164802316167537,-0.3322308584024543,0.1615702838105782,-0.15274754756220207,-0.014641978382817979,0.30968004724585213,-0.5764810291610645,-0.03936680366144836,0.7551070542140675
8.869999999999939,-0.942179618010278,0.3445105548533602,1.2767083303259217,0.8523704870233934,0.40930543200727565,-0.3253526931041676,0.06413013795190457,-0.1548236755407427,-0.06096422351744005,0.3021989214518665,-0.5794743361807386,-0.03909205049156029,0.7558590495555535
8.879999999999939,-0.6667816782273192,0.4516996389900032,1.3704951256013276,0.8588428210882587,0.4010942778353764,-0.31859289361027965,-0.08174305656172952,-0.1414009885290727,-0.10494347067559609,0.2947486396770974,-0.5824484020210748,-0.038161397478048906,0.7565829843436555
8.889999999999938,-0.2343421493721773,0.6257326517983002,1.4400200317117555,0.8662652511785951,0.3899113089584996,-0.3121640752231507,-0.15055407684948197,-0.1043045193794111,-0.10999183886860213,0.2884042681835377,-0.5854191732352253,-0.034520053115790886,0.7568920454699891
8.899999999999938,0.16279096570960883,0.7643302516743484,1.486219730890612,0.874007948909311,0.37730994524012806,-0.30593490110402094,-0.1824956047634877,-0.04947514483589086,-0.11347159113343068,0.28289243039228124,-0.5883403492727152,-0.029361498374976903,0.7569198209857629
8.909999999999938,0.5241426063720638,0.8696183875062055,1.5120727563136827,0.8820346299327622,0.36340638694030464,-0.29989477043598783,-0.18020826407420204,0.019270322482870104,-0.11544809486595758,0.2781459868487827,-0.591209888258797,-0.022810834584430367,0.7566912895357929
8.919999999999938,0.7240057712097937,0.9042362466447005,1.5468665422968075,0.8901005407169403,0.34776642304777333,-0.29430115321575295,-0.11944431350760917,0.02669866201132346,-0.11328683536392553,0.2744561323851546,-0.5938043089809575,-0.014431091832359563,0.7561863522502162
8.929999999999938,0.8440059615285839,0.9101394288879535,1.606991637290726,0.8980853080400564,0.33138396041904966,-0.2888454580102141,-0.022819714351105885,0.007810371887955806,-0.11188221761800574,0.2708680677367753,-0.5962373857157693,-0.005547287921508902,0.7556765233071758
8.939999999999937,0.888405230764218,0.8900961419697755,1.6902493993968035,0.9059932273333026,0.31429993986756044,-0.2835114256546115,0.10453562043879498,-0.033823691061118974,-0.11143742805075271,0.26735715792049103,-0.5985205619936902,0.003798644658927887,0.7551658604209346
8.949999999999937,0.7848085625750273,0.8744632914064395,1.7809654342120615,0.9137491477682389,0.2959013318755301,-0.27801805343323566,0.14838351458464966,-0.02321030434395594,-0.12375177015768421,0.26313949275079596,-0.6006368482652028,0.013377743799033514,0.754823163037344
8.959999999999937,0.6229077396177087,0.853027940319338,1.84263169036546,0.9213046684189166,0.2773466920326284,-0.27212245505468946,0.20207423410674014,-0.01887799245865908,-0.13843886787881662,0.2583365782735933,-0.602814461309928,0.022597958773338055,0.7545256763874516
8.969999999999937,0.4059950327065742,0.8255626157877267,1.8769575724650958,0.9286633793956799,0.25865379181334514,-0.2658453283197145,0.263761444158976,-0.020386661132929303,-0.15548991814007965,0.25296973687588614,-0.6050504601252269,0.03146371141317534,0.7542732806403083
8.979999999999936,0.14155704697969912,0.7553838824566629,1.8923285672520251,0.9353301043194527,0.2404468369901141,-0.2591024779574592,0.2451683608909421,-0.021170465696471682,-0.1830403288812258,0.24632357574801578,-0.6073721615894637,0.03895286734300529,0.7542242185589998
8.989999999999936,-0.059110592640236395,0.6744900039392189,1.8812830314140752,0.9415254265453897,0.22263940270912536,-0.25252750293636916,0.19147962578478045,-0.016300059205268676,-0.23044779058875597,0.23919462089503926,-0.6096105595776076,0.04571811323039945,0.7543345075878096
8.999999999999936,-0.19743475006406258,0.5832801240804832,1.8446121764338108,0.9472615551635419,0.20522122640247747,-0.2461222246943168,0.10450371782967854,-0.005912302270321094,-0.29656116886452805,0.23160481327497623,-0.6117653321072257,0.05178513002875516,0.7545990616717869
9.009999999999936,-0.1656884406111163,0.48373659223827487,1.76290838196494,0.9519514925656019,0.18870048312774063,-0.24087301888776214,0.0538784647331468,0.0182406652294202,-0.32586405014969533,0.22414201362077477,-0.6134203314476143,0.057125932751449955,0.7550954804432088
9.019999999999936,-0.07904978675413589,0.37635949696300286,1.6890737743683517,0.9561087254751736,0.1725098336315009,-0.23655344080493707,-0.0055241841191309635,0.0478081044368724,-0.3508188218805332,0.21712560165800743,-0.6146608574839373,0.0624556440803878,0.755719099083397
9.029999999999935,0.061524772363634114,0.26131492684790397,1.62298046717874,0.9597414952973755,0.1566438648682869,-0.23314937465665292,-0.07349939164800082,0.08268707089299088,-0.37146402386895694,0.21054900071272148,-0.6154931536998014,0.06777487930062304,0.7564679677242382
9.039999999999935,0.19736300536042764,0.17385679651903446,1.5645962241316416,0.9624742843249842,0.14105716610153865,-0.23155805952076677,-0.09352812153787145,0.1092766315469197,-0.3586420119995392,0.20502599050502324,-0.6154717556527205,0.07347879025283165,0.7574481239275328
9.049999999999935,0.299274451423403,0.099920197494094,1.4989199883178834,0.9648408039188138,0.1257404866799862,-0.23055660061317657,-0.1254032803556617,0.12777440985109714,-0.3269137115826428,0.19993949546164982,-0.6151592840823807,0.07926729163644754,0.7584795450682389
9.059999999999935,0.3669596097351769,0.03962449591540841,1.4258873870693953,0.966837820704746,0.11069621029574729,-0.2301502051002096,-0.1692294466797647,0.13810897270952838,-0.27611222060999036,0.19529336907597128,-0.614553169433395,0.08514113020368745,0.7595626837058839
9.069999999999935,0.37977410713871906,-0.000982907505832617,1.3600276928730517,0.9682344927566986,0.09650339821451186,-0.23044848023780126,-0.19227619322135894,0.1396881138823352,-0.2468240289611584,0.19121947608218673,-0.6136058065784673,0.09081271364495011,0.7606908401048289
9.079999999999934,0.3779679646876346,-0.04320315374154976,1.2925714237774528,0.9693793877118324,0.0827801059907279,-0.23100565369202666,-0.21692300396846784,0.13755404461415677,-0.21173759571044048,0.18733641401222073,-0.6125438923635325,0.09629419497259215,0.761840373949222
9.089999999999934,0.36133190271996385,-0.08720659885553218,1.2234204084988032,0.97026693032593,0.0695382641593787,-0.23182695867613787,-0.24334602018643392,0.13162397781824026,-0.17052234795748555,0.1836477379635689,-0.6113652798727237,0.10157992846278768,0.7630117926830337
9.099999999999934,0.3509768069376758,-0.1306546722779775,1.1381847569892973,0.9706901084413551,0.05745043957012749,-0.23320616042593695,-0.25073896295594617,0.14587354066422303,-0.15451228964426306,0.18034083719934688,-0.6099786297513494,0.10635060175704793,0.7642474153163391
9.109999999999934,0.36989007021096143,-0.17110060581117964,1.0478677506555767,0.970910394341782,0.045985837775288634,-0.23485919411012685,-0.2566417947378565,0.1616425284143226,-0.1346626014196585,0.17734346032791012,-0.6084847844017751,0.11093196365781595,0.7654898490677533
9.119999999999933,0.41986503167183364,-0.20835928028717532,0.9523556163808075,0.970920901408875,0.03516920126192183,-0.23679626113966404,-0.2612097520688553,0.17876243625346738,-0.11039504311931278,0.17467041730518004,-0.606879613851116,0.11531866607661033,0.7667386845374851
9.129999999999933,0.5398881175797426,-0.2363119726245967,0.8420366184224195,0.9706122873209883,0.02550867625025922,-0.23918756910371664,-0.26530916189399306,0.1932622574844162,-0.1034104940802654,0.1729921884599668,-0.6050359350921422,0.11969203731373422,0.7678968049748618
9.139999999999933,0.6704161283365386,-0.25452578384725605,0.7359767821673542,0.9701942460664643,0.016385423328690314,-0.24169300579020572,-0.2781091231449165,0.21720755523167812,-0.09956242385633031,0.17193307016410841,-0.6030899776066421,0.12419088200901562,0.7689507005177018
9.149999999999933,0.8109532949614413,-0.26229422443145584,0.6348807418547953,0.9696633366477704,0.007824946305287926,-0.24431361527913487,-0.3004248822333464,0.25152763181775495,-0.09877892509356204,0.17152952299511148,-0.6010372724706683,0.12882709488903332,0.7698926242949246
9.159999999999933,0.8757854047409851,-0.28061651700730034,0.5476414101864274,0.9690080959817277,0.00016945523842232767,-0.24696115696399407,-0.299412774328203,0.26391552066678997,-0.09365599045803406,0.1721210090062447,-0.5988686025896717,0.13364653723807424,0.7706197110449432
9.169999999999932,0.902683790018699,-0.3070690638814229,0.4639634403577416,0.9682649379583829,-0.006934225708290977,-0.24977968960642208,-0.27999052223015325,0.2629766837992789,-0.08375348946617527,0.17302497202586012,-0.5966266763252978,0.13832649125408414,0.7713309657774904
9.179999999999932,0.8892342885261333,-0.34233593762408315,0.3838751771938799,0.9674267651617576,-0.01344521160176725,-0.2527893306235949,-0.2405923566248458,0.24772594341595233,-0.06861447902328818,0.17425038561654935,-0.5943059431778811,0.14284451668501774,0.7720307648974966
9.189999999999932,0.8472610240746442,-0.3638161941497411,0.31049694199100664,0.9664530218272958,-0.01879422416550046,-0.2561148147534072,-0.21632420447321887,0.24307219140246855,-0.0593289319716477,0.17578700733032565,-0.5919282231875689,0.1468079239201875,0.7727580614052978
9.199999999999932,0.8140375153077778,-0.38550358039017824,0.23728321059064403,0.9654248911068082,-0.02355184632003302,-0.2595867979978516,-0.18537393777067493,0.24406031147947518,-0.048380539387580426,0.1774754386984114,-0.589535482203329,0.15048663705860432,0.7734947602519939
9.209999999999932,0.7919882974839714,-0.4079570560112595,0.1640023656414173,0.9643392709864488,-0.027672405784435833,-0.26321552319618363,-0.1461444772386712,0.2511446954495891,-0.035291979524819855,0.1793269091457772,-0.5871276111432263,0.1538584877265118,0.774241242380559
9.219999999999931,0.7997596071449163,-0.4253089495344342,0.086725146479336,0.963185367635692,-0.030781378947962335,-0.267045612516493,-0.12614689247179778,0.2616370666802437,-0.028549116045780677,0.18157521210908678,-0.5846939192551326,0.15685184891414344,0.7749518997661752
9.229999999999931,0.817558003265491,-0.43802940649706235,0.012678649517159649,0.9620079828722018,-0.033413996819696236,-0.2709499380765402,-0.10734891679983852,0.27677642245903966,-0.021461194932780328,0.1840836627259727,-0.5822430724292175,0.1597232220089756,0.7756187033433898
9.239999999999931,0.8458058368272018,-0.44550976422899424,-0.05735224373816904,0.9608060536953851,-0.035530875947189185,-0.2749325526471854,-0.08905405122686011,0.29725505306703615,-0.01366211622414321,0.18688119045941573,-0.5797731463938122,0.16246821735055625,0.7762352946447619
9.24999999999993,0.8874467691188039,-0.43607758844782524,-0.12343661159708189,0.9596212883924643,-0.03691421914372865,-0.2788454269152987,-0.08673455688231824,0.3071169611658817,-0.007870627679739988,0.19019015258540545,-0.5773239540084734,0.1651287380481685,0.77668822431789
9.25999999999993,0.9377750195613076,-0.42340460298179744,-0.18576526089503254,0.958469314581708,-0.037981142978947356,-0.2826428529630271,-0.08565591650847101,0.31421360173308155,0.001684583077052236,0.19377596765311708,-0.5749033834849864,0.16780495909786372,0.7770232918476375
9.26999999999993,0.9978920811330527,-0.40776917900896636,-0.24375535026222014,0.9573562214310886,-0.0387057409268307,-0.28630393143923044,-0.08516203668500656,0.318561873382083,0.015932496569607445,0.19766884427539277,-0.5725164169833149,0.17050515767542104,0.7772245093433773
9.27999999999993,1.0768266548071865,-0.3977673931550711,-0.29204622601144037,0.956305057458894,-0.03905781037977,-0.28973862027898867,-0.08177615681344394,0.31984324965742583,0.024228221838122066,0.202111346913146,-0.5701397438673718,0.17338967188842952,0.7771807125872169
9.28999999999993,1.1703149936659085,-0.384802212632503,-0.33943472115446977,0.9552873777994788,-0.03930083792951499,-0.2930468862660545,-0.0787264136681626,0.32423871444865854,0.03461965892395635,0.20687584682129956,-0.5677455980610774,0.17644754876020283,0.7769900237668002
9.29999999999993,1.2806959759537717,-0.3677487471242301,-0.38636055156961513,0.9543072865109079,-0.03943316750092184,-0.29621272505513296,-0.07629480079767943,0.3327348280233136,0.04803720342634197,0.21200495616143109,-0.5653289179752343,0.1797093787171647,0.7766326116382715
9.30999999999993,1.4118630384741049,-0.34247920972487433,-0.426178042650238,0.9534253128360031,-0.039578846423389186,-0.29901419630437853,-0.0834677789349154,0.33889393977547444,0.053962932565142084,0.21781680250965366,-0.5628573960762113,0.1835033230343506,0.7759154011201087
9.31999999999993,1.5421728071710197,-0.3166780034315657,-0.4638804907192217,0.9526074444332943,-0.03976569586364103,-0.3015879166764968,-0.10050487942274385,0.34777507454547285,0.0601676871657009,0.22398325431620708,-0.5603568763661176,0.18760065206082652,0.7749870199960892
9.329999999999929,1.6697187686509105,-0.29085220743202483,-0.49943795208493097,0.9518639802255193,-0.04000430540992603,-0.30389855950282624,-0.12943051793522597,0.3603360750085756,0.06733013673177823,0.23055007627875426,-0.5578235372891734,0.19204468263319746,0.7738164708451089
9.339999999999929,1.7864209458454074,-0.25452950488493975,-0.5232300264290958,0.9512618344368661,-0.040430843707292406,-0.30571957676343114,-0.14394376092680378,0.36382530405737895,0.0734241874915941,0.23768249585080845,-0.555236968177529,0.19706580766854534,0.7722293705760183
9.349999999999929,1.903148677895372,-0.21705678555569194,-0.5463942911366975,0.9507525051055767,-0.040994601312549936,-0.3072268997909056,-0.16194148059790286,0.3661392254752942,0.08273664977588469,0.24507520015098197,-0.552632331074465,0.20240027860007082,0.7704040302035021
9.359999999999928,2.0209088353252462,-0.1790349231252966,-0.5698146082420597,0.9503525092034633,-0.04172193056453204,-0.3083658117030934,-0.18585980033250954,0.36773940731741955,0.09638997406891539,0.2527589147773731,-0.5500087796450656,0.2080946453726483,0.7683030108342302
9.369999999999928,2.1299365558802332,-0.1417117531496838,-0.6408029480764988,0.950134654834995,-0.04234657792984341,-0.308951028575266,-0.19629452090599286,0.3747848784008256,0.10168181312211534,0.26103121552204045,-0.547356789385184,0.21424481928486572,0.7657008099406163
9.379999999999928,2.2508814426045096,-0.09258328265112466,-0.7386880584417842,0.9500602217065182,-0.042571662841015274,-0.30914926458266806,-0.19511742582673075,0.4026558187494676,0.10874814517452791,0.26975728179251574,-0.5447496361807028,0.22056928452070262,0.7627325774481382
9.389999999999928,2.3888886365752646,-0.027388715558154614,-0.8680089212741922,0.9501609309533715,-0.04226625659815214,-0.3088814731443814,-0.17962747137585922,0.4581664978945599,0.11909750713783389,0.27903618022295196,-0.5422062137714447,0.22708193867482415,0.7593211762119939
9.399999999999928,2.5423773626160577,0.02845631051546133,-0.9854939976496692,0.9505987972347768,-0.04085769447590999,-0.3077181642732234,-0.15040873382058492,0.4929716471484955,0.12341693116306075,0.289382187394352,-0.5397944414002079,0.23395351383016688,0.7550154902028051
9.409999999999927,2.7019162708096034,0.084601496632761,-1.0813259918533522,0.9511735237359451,-0.039098466507916145,-0.30616389744191375,-0.09919301113657421,0.5301965029264084,0.13185960968164565,0.3002343782144493,-0.5373617044853104,0.2411060679848863,0.7502461877009325
9.419999999999927,2.868037519855492,0.14227472355710852,-1.1484262045224498,0.951898697834823,-0.03698217436201874,-0.30417182952229016,-0.018991650153300385,0.5732479759028912,0.1467571993980119,0.3116643673964783,-0.53488415497864,0.2486070733310553,0.744937809781943
9.429999999999927,3.038807775405482,0.25185348646804423,-1.1699558309097495,0.9529819268422346,-0.034896968049417054,-0.3009970042793203,0.026792891197176753,0.5834057302094473,0.1533502405261188,0.32366138930197397,-0.5324032696092318,0.25691839882111334,0.738675963713377
9.439999999999927,3.2090494576681547,0.3271165792528191,-1.1793320053225127,0.9542275875820254,-0.03301557684519254,-0.2972357959330904,0.09965435492085259,0.5916518882744867,0.15858072704224926,0.335886688711239,-0.5298385801236145,0.26572574940164484,0.7319181413341092
9.449999999999926,3.3779151873660216,0.34636465848113207,-1.177394612913132,0.9556579132035138,-0.03142164348200738,-0.2927933016919795,0.21584298608144006,0.6015478384392229,0.16296878366511203,0.3483630028048961,-0.5271544353964174,0.2751347552008355,0.7245778152043585
9.459999999999926,3.504095843860568,0.18965611957380935,-1.1952754508852221,0.956723999488264,-0.03016153199888734,-0.2894179598277677,0.3029300492896529,0.6083213113740948,0.15722517592854818,0.3613966971796052,-0.5234870711452713,0.28494248086949053,0.7169220036097732
9.469999999999926,3.5886913889651573,0.008300803272836887,-1.2480708257669186,0.9574008987001213,-0.0286843300401285,-0.287331741881286,0.3907146781712332,0.6112244694590306,0.1496238839007449,0.3748368751012846,-0.5191396211958849,0.2945801433475113,0.7092609050990666
9.479999999999926,3.6184916516021826,-0.1831062942311421,-1.3492563401294753,0.9575597338351192,-0.02683822100531979,-0.2869822728648427,0.4838566163563647,0.6089012974508091,0.14079899824935513,0.3887918028809599,-0.5139384874740937,0.3039083902100677,0.7016389903923881
9.489999999999926,3.514920534117463,-0.23989603988922575,-1.5087833563945194,0.9572436729928226,-0.02309255556397888,-0.2883429956628656,0.44182425352675064,0.5868186460674856,0.13454494902886174,0.4032927196673153,-0.5083068940432698,0.3120895554358263,0.6938142532640158
9.499999999999925,3.373025134443839,-0.24172920002616144,-1.6859117518041513,0.9568701002091138,-0.017838043754427043,-0.2899266944067713,0.322972885393503,0.5449144041085153,0.14089504522219487,0.4178910834219497,-0.5029252805819039,0.3194902738146621,0.6857145507395299
9.509999999999925,3.1952169788099307,-0.1827055652279795,-1.8800152454155372,0.9564880332551234,-0.010615862921248127,-0.2915649710193131,0.11029830506125715,0.4763026769780869,0.16587923440665694,0.43254658041690686,-0.49799279290500587,0.3259004087895118,0.6772325832702504
9.519999999999925,3.095394647747801,-0.110993532322878,-1.9962029703649564,0.9561762230898405,-0.0008551513046275178,-0.2926957991186581,0.04000598793953775,0.4320740502897474,0.19332516349021506,0.44708736026425455,-0.4939140173610134,0.3311767258074528,0.6680564425903021
9.529999999999925,3.0638732915959785,-0.03811322490258427,-2.0535517621128934,0.9558672227900176,0.00945186048066637,-0.2935624343831954,0.020846006930999837,0.3877381746360208,0.227778178431333,0.4615140464900248,-0.49003628884637535,0.3362535052736705,0.6585244234350139
9.539999999999925,3.124267913246399,0.03426426071263937,-2.0336796866459848,0.9555497507665708,0.020144131977728186,-0.29411114118130743,0.055146426579291405,0.33877958358217836,0.2726732108486046,0.47578434872956415,-0.4863150545851976,0.3412273261152635,0.6485660824307674
9.549999999999924,3.276483399044936,0.09755359647602443,-1.9453211323021005,0.9552568946337752,0.029524632258300224,-0.2942218154245303,0.10113305543103832,0.32552597215160006,0.2889845809410902,0.48978862539755463,-0.4821360454967584,0.3469946779395939,0.6380045853071806
9.559999999999924,3.4316342509810607,0.13729933743539358,-1.8443662522247255,0.9549629941272237,0.03786932895089541,-0.2942636703465911,0.1635516318906066,0.326126725271785,0.2980856190942639,0.5036420271567612,-0.4775220236561177,0.3532821965194395,0.6271705825417034
9.569999999999924,3.5730021356292383,0.14124715108927216,-1.737059749221468,0.9546624718814094,0.044822570730351306,-0.2942836721240335,0.24987985838624746,0.3416852139103633,0.3014143589041017,0.5173078303517581,-0.4723048849018048,0.36024136838494675,0.6160224256966287
9.579999999999924,3.5936507957851553,0.08648992983586506,-1.6662594000077544,0.9541449239386656,0.05033860371063275,-0.2950554282390274,0.2810995828527606,0.3524369415062892,0.29621662774325075,0.5306818180178554,-0.4662270092860441,0.36749756572158654,0.6047624171065206
9.589999999999923,3.5377462097119414,0.023824250103884455,-1.6196673874176568,0.953447952505503,0.05555354387720494,-0.296374960664663,0.2882509005108828,0.3624967007142128,0.284012357988248,0.5438003264302348,-0.4599006301807842,0.374522742665733,0.5935890835049294
9.599999999999923,3.382661880488711,-0.038868230291909674,-1.6048077018258684,0.9525039574196539,0.060591119988369684,-0.2984289399760525,0.26801164428433016,0.3724812259985155,0.26217313932325553,0.556563297555128,-0.4533559319014797,0.3811024435172323,0.5825829763162707
9.609999999999923,3.1875086892407185,-0.06108471032822848,-1.6278148087744428,0.9512779329929613,0.06634423349969253,-0.301073117966172,0.23039142067657936,0.3627556334170103,0.25865748256046317,0.5686318292474907,-0.4471715052972094,0.3866066014387975,0.5718857685335226
9.619999999999923,3.022766793460293,-0.07034819636565096,-1.6661428434575818,0.9499115389483014,0.07272409981630665,-0.30389546324926453,0.17484884503741638,0.3491099546312281,0.2585200373810415,0.5804004044105877,-0.44127596687601195,0.39154504732484396,0.5612312179055606
9.629999999999923,2.9191477714563883,-0.06749552635211398,-1.7212227604608739,0.948375966572936,0.07999086146972037,-0.306876373498128,0.09319998157981497,0.33360191059805877,0.2596639063827467,0.5918296577787405,-0.43578185635699695,0.39578690397322297,0.5505740956635539
9.639999999999922,2.904161947159773,-0.08468579983204284,-1.7647315765556506,0.9466069040674187,0.0877749575070738,-0.3101440062887567,0.06273006975692591,0.329815875472372,0.2631211420141963,0.6030725455877529,-0.43037727314993,0.3995993427967363,0.5396668504663832
9.649999999999922,2.9013295472564042,-0.11966684274494467,-1.801358137360905,0.9446182371541233,0.09578301939793768,-0.3138217169629285,0.04163826423803333,0.32571275143720396,0.26685177996249687,0.6143061743869759,-0.4248969340293943,0.4031553473326738,0.5286150157769249
9.659999999999922,2.8962236677395548,-0.1803184464405791,-1.8290633304689043,0.9423090217029458,0.10404419098746287,-0.31813746503438617,0.02334252638023747,0.3179590910129244,0.27044682252999597,0.6255729494154159,-0.41926105989337753,0.4063784841441782,0.5173776089010338
9.669999999999922,2.825796566869742,-0.24338837045335304,-1.8379170527266069,0.9395307792138368,0.11230661798439028,-0.3234357957136768,0.016587142425525992,0.2964655345939131,0.2782164790210533,0.636678968780181,-0.41344144345701084,0.4090545884361029,0.5061826625200444
9.679999999999922,2.7229030813108133,-0.29690653043766707,-1.8335978946850804,0.9364901841484684,0.12064469381504371,-0.3292119650498095,0.006305436734196991,0.2620485790687445,0.29228977396062344,0.647592382682392,-0.40765690649055064,0.4113337520021096,0.4951117252016563
9.689999999999921,2.5806558799356716,-0.33262018517175873,-1.811109329994696,0.9331146553304221,0.12911790612172386,-0.33556124293024436,-0.013613497920743187,0.2084380617272384,0.3164524044459708,0.6582070753029325,-0.4019880792548349,0.4130593638608576,0.4842506863489977
9.699999999999921,2.414514459389991,-0.34630472975938775,-1.7445530856403768,0.9295396699835292,0.13727551186872813,-0.3421167249621198,-0.023526537151725882,0.1806391153668294,0.33715879206699295,0.6680826028212828,-0.3966386622064783,0.41425015221820694,0.4739340355853403
9.709999999999921,2.2454122666530307,-0.3545832206669288,-1.6557602870894927,0.92591315749404,0.1451107342273753,-0.34868804175182183,-0.026157483064610756,0.16243747044063916,0.3644898787817102,0.6774653190400285,-0.39149644280525,0.41518284000120437,0.4640247681359941
9.71999999999992,2.0783256518903857,-0.3597840352915896,-1.5397455946261185,0.9222540217689809,0.15245014832857212,-0.3552240450242004,-0.018489074246138694,0.15385974920679332,0.40511992843579475,0.6861704379547529,-0.3866364106411127,0.4158068610441818,0.4546964891131125
9.72999999999992,1.9401389422100233,-0.3793580969197117,-1.4100362924759933,0.9186314285406776,0.15872493779271996,-0.3617614163985985,-0.00014619397978519327,0.1543540327071101,0.42773088614614274,0.6940269714124889,-0.38197230424822104,0.4161784286757108,0.4462468143714718
9.73999999999992,1.81380014977215,-0.40465635721173504,-1.2733515078211244,0.9150258901058534,0.16429630853368163,-0.3683784597683224,0.029423649171295446,0.16031751197442484,0.44328688990032244,0.7014361336470981,-0.3773562642427691,0.41641876533657307,0.43833476160872753
9.74999999999992,1.7001423899264172,-0.4359418829933067,-1.1280730269288988,0.9114403237233926,0.16889362617857676,-0.3751463194034229,0.07668566608411184,0.17358460717083363,0.4515670931585453,0.7082840479989597,-0.3727649470134256,0.41649566599295107,0.43114512878984046
9.75999999999992,1.5680603124348147,-0.4600129040864579,-0.9928545160755216,0.9079422916380878,0.1722212793669028,-0.3820238889134357,0.10180153918840201,0.17930475590044612,0.4532677574439366,0.7144290193933007,-0.36821964659306605,0.41640230143000506,0.42492692572202134
9.76999999999992,1.4248349967443215,-0.48366043415051346,-0.8719297093445992,0.9044857415554809,0.17499987914694096,-0.388915940541522,0.12429227280273818,0.18436868388335598,0.4511901558977368,0.7201757031744858,-0.3637902253142844,0.4161629462583871,0.4192668994925571
9.77999999999992,1.2665981403028157,-0.5091334212762963,-0.7752528526214368,0.9010781047444336,0.177171915572584,-0.39579595728068967,0.14979551038677386,0.19092529229934835,0.4441449906869412,0.7254021707913152,-0.35957045370788854,0.4157007640274676,0.41434096609393406
9.78999999999992,1.112877928359681,-0.5331573001249564,-0.7185014086335721,0.8976562592347982,0.1791443777392304,-0.40259956372699096,0.1645589231189235,0.19258824000113925,0.4443114447070074,0.7300898052589279,-0.35578166474838163,0.4148632340318413,0.4101806491297177
9.799999999999919,0.9652471770914396,-0.5544675267907827,-0.68120500239435,0.894186534380196,0.18119738925241996,-0.4093577815248715,0.18113997470911117,0.19155828968038935,0.44717224379932785,0.7345205020226931,-0.3522826034270297,0.4137796259987099,0.4063836586233965
9.809999999999919,0.8280885576486995,-0.5708865835178417,-0.6672126023740508,0.8906259867122102,0.18349219217949042,-0.41605496626527894,0.20566069385243002,0.18705072816052076,0.45259048057866147,0.7386480277214428,-0.3491957375613698,0.4123496247002038,0.4030139093435576
9.819999999999919,0.6911003342510669,-0.5724815784505576,-0.6715134067598632,0.88697206279976,0.1863539445922716,-0.42251320898019457,0.21751127807862913,0.1767127348866512,0.46066222192301925,0.7424544369776893,-0.34669269283776005,0.41053916776515276,0.40000684728851743
9.829999999999918,0.5473049194353208,-0.5619672974524816,-0.6912746710296623,0.8832709669881296,0.18972774091872588,-0.4287316329737686,0.2208849970149737,0.1538217892439212,0.47013265752069255,0.7460727334375428,-0.3446140946053002,0.40850017421253154,0.39715780495303704
9.839999999999918,0.38930291042430076,-0.5326883427763776,-0.735266092681621,0.8795120997581286,0.19392076962410293,-0.43455492548090313,0.2121091923829166,0.10737614553510796,0.48136562797962423,0.7494386013139651,-0.3431655985777733,0.4061503492726548,0.394480828275448
9.849999999999918,0.22594085707863035,-0.4713790350396793,-0.8009198101223662,0.8757976494440395,0.1995520790617552,-0.4394517718692083,0.1946147357209506,0.07378542306921744,0.49032964586538685,0.7524529558680694,-0.3427237561978171,0.40349767791740004,0.3918314352170951
9.859999999999918,0.07440348928864583,-0.39307306120804375,-0.8767792043706801,0.8721562935059712,0.20612489465704395,-0.44364864450435215,0.16199944346711748,0.03765628772838332,0.4976237640246651,0.7552568979404152,-0.3429166882646135,0.40072463551883736,0.3891091572939961
9.869999999999918,-0.04932539068770514,-0.29325870387733494,-0.9644243961571864,0.8686508014481426,0.2140452603736256,-0.44677728357710395,0.10106008150529289,-0.009881033028448429,0.5023967461528765,0.7577736594256705,-0.34400098607988827,0.39783458703710284,0.386218008245856
9.879999999999917,-0.11398199169394752,-0.1688317692251199,-1.0426475624238456,0.8654589431598503,0.2232954366867742,-0.4483999577025929,0.06624990632004225,-0.03645916662369232,0.501618162333804,0.7599849328650728,-0.34596998678744056,0.3950924339582607,0.3829019865580618
9.889999999999917,-0.13784089613368625,-0.03532727676289443,-1.1078939708902997,0.8625092276992732,0.2330962620707982,-0.44911211636364057,0.03778174492699644,-0.0558384838199407,0.4933246232803971,0.7620374563024889,-0.3483274790063064,0.3925651176968893,0.37927240221781805
9.899999999999917,-0.10122161633961227,0.10589008392527763,-1.149212516617052,0.8599369787269835,0.24344668465314095,-0.448568484677181,0.010228170779617712,-0.06982266652078699,0.4712219172943049,0.7638925249980995,-0.35109951308724324,0.3904379913462844,0.375163399392753
9.909999999999917,-0.005170516543993281,0.22894862684467004,-1.1663715029143615,0.8578808903016758,0.25358610195469317,-0.44684801397788104,0.012939323136671784,-0.075841352042254,0.45734717826945465,0.7656156623738247,-0.35385855790048387,0.3890437112495327,0.370461978025145
9.919999999999916,0.10684960274509425,0.33512282319959286,-1.1764008233155419,0.8560756806802672,0.263458435591418,-0.4446217864500369,0.0383572605838419,-0.07590059175798891,0.44309816569807076,0.767314397016609,-0.3564868872799432,0.3880775049376028,0.36541409622598015
9.929999999999916,0.2231737629577997,0.4126360046364526,-1.1832269755248033,0.8545634012664128,0.2728362569904814,-0.44187857455538654,0.09916618154634946,-0.06668350605038806,0.4235565872206107,0.7690287395298835,-0.35882447600119993,0.38769092292280644,0.3598967145322221
9.939999999999916,0.28154837818932854,0.5081563436611054,-1.1747468384538304,0.8533472667333095,0.28176015962780115,-0.4385872374806885,0.13326402540967716,-0.06104040306568767,0.41289859721491734,0.7706941051711935,-0.360934280856375,0.3878535825054908,0.3539808986891736
9.949999999999916,0.30385857837765373,0.625415576001284,-1.1476841600701986,0.8524513438458251,0.2904199448377023,-0.43468282575621314,0.15964968651571051,-0.05425388934200945,0.40414748237859494,0.7721928096410858,-0.3630417478397219,0.3884031570512289,0.34791606824531
9.959999999999916,0.2750843917399023,0.7833020746853231,-1.0858428671456037,0.8521358990601131,0.2987227719588612,-0.4296560687747494,0.18343218541696585,-0.04270318228259348,0.39471556037494326,0.7733282821843982,-0.36527608965030844,0.38954289917455115,0.34173255553205123
9.969999999999915,0.2523749983316553,0.9075190660431819,-1.0164933354167016,0.8526793635132659,0.30650569021863766,-0.4230024350249946,0.20583047767180865,-0.041270303049199625,0.38964536493663965,0.7738579424618551,-0.3677829565627174,0.39144381670652995,0.33559525455427014
9.979999999999915,0.2519571942323752,0.9841656141488919,-0.942487009589539,0.8535665278932121,0.31386896670904463,-0.41578147784840147,0.24713463562179727,-0.036127863103778114,0.38324038222262496,0.7741321236825641,-0.3703016948150361,0.3936770156223546,0.3295424852551859
9.989999999999915,0.3018502724856448,0.9664070163515569,-0.8618726284538317,0.8547508731916035,0.3205388040530887,-0.40820073223018194,0.33518952504451965,-0.015656463938519657,0.3708688486579046,0.7741650025827308,-0.3726788616529138,0.39624078571230154,0.3236659861092893
9.999999999999915,0.35874885667205964,0.9663960979432613,-0.7811975348288203,0.856026614093692,0.326063407600438,-0.4010701484371981,0.3755671185414837,-0.002674950450401524,0.35520191180347466,0.7741823799112009,-0.37449898846073837,0.3990104781873167,0.31805590897554975
10.009999999999915,0.3859427171933096,0.9760747091467232,-0.7149298993797426,0.8574057413938188,0.3310749274465257,-0.3939777579406919,0.38461634884733614,0.009985181184062856,0.33137514089780395,0.7741277451699485,-0.3761188985810745,0.4019222767498673,0.3125785354759357
10.019999999999914,0.3339695296425571,0.9981065618162325,-0.6848160900009356,0.8589825547946511,0.33557046531320267,-0.3866783993079268,0.3471990573075463,0.026876163820837573,0.2893112674457119,0.7739030323344286,-0.3776115251728947,0.4050518031776022,0.3072546404746283
10.029999999999914,0.14324796838487747,0.9184753088606042,-0.6887429217075282,0.8602687940295415,0.34068811958605066,-0.37923758223931475,0.31360402664641357,0.02474870613282986,0.2629785144960145,0.7734308862929887,-0.3796284952483553,0.40774629053775724,0.30234156201895723
10.039999999999914,-0.13519664239367155,0.7953334181227358,-0.684031686750562,0.8612232376544547,0.3464262284548409,-0.3718189713445643,0.28861886078218785,0.0038737374903154344,0.24366916219226614,0.7727398537495782,-0.3822014526293357,0.40988742221370933,0.2979574264269667
10.049999999999914,-0.5405734768975488,0.6329587314854428,-0.6323619282174573,0.8615283936126595,0.3533216152674725,-0.3645600497055382,0.28316799909819984,-0.05180983088618389,0.23118328016507653,0.7716607498829564,-0.38583537734189133,0.410909889969478,0.2946462350245129
10.059999999999913,-0.9842092962860619,0.5503048168519362,-0.5907897569940054,0.8614070900426491,0.36152407278815485,-0.35665079513273,0.2979709997603189,-0.10377575743846416,0.2349318333906555,0.769756278964212,-0.3911233174454636,0.4107045118155594,0.29291182884840816
10.069999999999913,-1.379214903443772,0.5438769780488615,-0.552948007822059,0.8612283487238634,0.37046909906968734,-0.34780196526318535,0.2962211669324417,-0.15710211856449266,0.24908720396878012,0.7672449680062785,-0.39745387793842146,0.41001035735252245,0.2919456061011818
10.079999999999913,-1.6142625936335595,0.6796702338598518,-0.5172534391431138,0.8612270402966405,0.38038755233425203,-0.3369419598391607,0.23440761543275193,-0.21695969031387818,0.2785033044433004,0.7637495610868338,-0.4052919561794595,0.40896093358646596,0.2918119047363345
10.089999999999913,-1.5985652450816523,0.8383618993317961,-0.5001533684094647,0.8618554592411276,0.39002595557143405,-0.3239255518427072,0.16561499415024322,-0.22876248211232342,0.27830253208103567,0.7595707739515655,-0.4135971163157361,0.4085760012668282,0.29155496426725036
10.099999999999913,-1.4459512358086255,0.9749912788125911,-0.5037351432721445,0.862708914619294,0.39930329219546223,-0.3101640400360341,0.0931838538370439,-0.21304424241229974,0.25840244439775456,0.7552637834940054,-0.4217852961891595,0.4086521553602752,0.2909512451783816
10.109999999999912,-1.123218723283836,1.0314124317862627,-0.5490953715788788,0.8636604913416015,0.40781407767789973,-0.29613715448285255,0.016495080109509716,-0.1611742516206373,0.2086383439187344,0.7511716378200124,-0.42925989446359486,0.40945127235133055,0.2894897672134622
10.119999999999912,-0.7610275874655467,1.0592091214338455,-0.606421304483057,0.864248962348597,0.4154678941705501,-0.28345112272786016,0.0012135212618466723,-0.1471119804277281,0.162302213689551,0.7479520682105347,-0.43529992795389955,0.41081553929925363,0.2868509837972682
10.129999999999912,-0.4080707746605663,1.0774884104409932,-0.6691267157794122,0.8645731349205074,0.4226991971511536,-0.2716404874999859,0.00033730730113888706,-0.1578186370821856,0.1109213242402885,0.7539324749821246,-0.41062233543541665,0.4348016010244701,0.23569888738783362
10.139999999999912,-0.11695354458967422,1.0941289302025012,-0.7365343877036126,0.8644648454619048,0.4294869412854394,-0.26113839116187904,-0.014262473244905313,-0.2056672635233222,0.04200294899075446,0.7855112552091341,-0.2991495411498367,0.5231477221462475,0.04649307793486493
10.149999999999912,0.12247976632703145,1.0973823336044506,-0.794346136801704,0.863918381555955,0.4360839219963431,-0.25180597227460366,-0.03932564530476744,-0.23281202122998348,-0.0013749577857959036,0.7911195374502947,-0.2729956836295172,0.5473233091889896,-0.0037695312724186935
10.159999999999911,0.32317237168200913,1.0706986623859107,-0.851656871146324,0.8630344628329528,0.4426580950301388,-0.24329908778191733,-0.06681078766864217,-0.2492291746074269,-0.0323046258880411,0.7883876202337426,-0.27442997696037724,0.5504869571199787,-0.009023059117263827
10.169999999999911,0.4584881705045707,0.9676757197093064,-0.9168032246785958,0.8615693811870943,0.44934968921786655,-0.23611888523738384,-0.09135049883134799,-0.2537587315818987,-0.05091400961088753,0.7860153503280646,-0.27524603379627727,0.5533330000018841,-0.015040568613323403
10.179999999999911,0.4892295717154864,0.8468539472336793,-0.8921370485858374,0.8595128027319628,0.45603159151122163,-0.23072070860072727,-0.09331398799883302,-0.2469417138460812,-0.0767405850256693,0.7841487613419069,-0.2757772307675778,0.5555036658139837,-0.02116830812283142
10.18999999999991,0.4571264792015278,0.7525809313106753,-0.7951412766696566,0.8574277461078595,0.4623180092478314,-0.22597511790840166,-0.08048271809694688,-0.24183061450749732,-0.09729868243369692,0.7824643236138461,-0.2761825046075416,0.5574356684240198,-0.02700471695273867
10.19999999999991,0.33978724375722347,0.7590349411420216,-0.568147827390522,0.8558722496482,0.4673909371007081,-0.22138771770567983,-0.045452368470571776,-0.25384620217431314,-0.09401980715089106,0.7808153962450057,-0.27649564298216406,0.5593345205048001,-0.03182465470283199
10.20999999999991,0.358604445068694,0.7955481551398835,-0.3134427264485974,0.8556665881097268,0.4701309571607706,-0.21631879599613096,-0.02873072793131927,-0.2653865860589718,-0.050881137524132425,0.7790327659396998,-0.27614249715456285,0.5617667281858333,-0.03548804023115716
10.21999999999991,0.451033607904154,0.8466418956726826,-0.04310228505072081,0.8564186602678219,0.47111916104857504,-0.21114783200029522,-0.02224426249488412,-0.2695337369397231,-0.017154755267212222,0.777230631544231,-0.2750891585691568,0.5645764421237809,-0.03852121786714722
10.22999999999991,0.6268921740582182,0.9107946375017468,0.24631393635417026,0.8587291048476025,0.4691042425992755,-0.20618959660075753,-0.028056534114859248,-0.2504968940080866,-0.05832897750634772,0.7755158902221468,-0.27253695249567383,0.567998959888688,-0.04082991790285165
10.23999999999991,0.8195737652819107,0.9878764433163327,0.5047050716028721,0.8625232940493801,0.46413897555693234,-0.20145735962260694,-0.03327287282805835,-0.21225475461073887,-0.10514126553353664,0.7738839682249852,-0.2682503287982388,0.5720916275362922,-0.042765880464726895
10.24999999999991,0.9213863685632276,1.0392730006738617,0.741320434541182,0.8672042438618449,0.4574233774654704,-0.19666895799485762,-0.03071646609081805,-0.15966988877288468,-0.1679698856683481,0.7722520228620289,-0.26310139637708885,0.5765637019602031,-0.044274905356061274
10.25999999999991,0.7003583571188712,0.9895688638234805,0.942797886771675,0.8730506931868546,0.44843335243882687,-0.19142131237087315,-0.0029961269464845314,-0.08246021291392916,-0.27733851204179016,0.770520239677111,-0.25717033274038364,0.5814918997126586,-0.04481128996616413
10.269999999999909,0.6054047331889895,0.8443829767322799,1.1460292937530652,0.8794235914836098,0.4378610232426256,-0.18650491529497001,0.03108882937415217,-0.057747975431075245,-0.3805040810914936,0.7689862221652088,-0.2513925016888707,0.5861053463439974,-0.043700017450102276
10.279999999999909,0.5644481839652202,0.7057600844807091,1.3632977772070916,0.8862150561770901,0.4259820227479028,-0.1818846219174988,0.06147462747739514,-0.0505026491572948,-0.4651683070400831,0.7675959683009113,-0.2454269353603721,0.590596514191545,-0.04165965442487039
10.289999999999909,0.5470398424822365,0.713364143514464,1.6268233486299983,0.8937723694337767,0.411633091269933,-0.1778593803239043,0.07083754097808909,-0.035717225516692666,-0.4938988404967048,0.7664468299574667,-0.23861410553792778,0.5950722010921572,-0.038539220766564505
10.299999999999908,0.49780782007552205,0.7293789526238671,1.7449141355212971,0.9019241189082359,0.39521801102911713,-0.17354553454972635,0.04801075581768077,0.011434530155780942,-0.4105516596931136,0.7652284346913516,-0.2312504199099426,0.5997543729266583,-0.03444128956006224
10.309999999999908,0.32248725695931346,0.7172013867528393,1.7543954322322617,0.9100591323327808,0.3784518730103627,-0.16875217916445273,0.020709321149632094,0.051931229610522,-0.3189316268047718,0.7638596221182253,-0.22418077357734903,0.6044449348293527,-0.029758495666166822
10.319999999999908,-0.26151111311058683,0.5920709907613507,1.5758599683286088,0.9173079838648323,0.3632959457295397,-0.16263751307651353,0.02206708080932267,0.023546175044816167,-0.35334280782691607,0.7620467629612968,-0.21893278179190823,0.6088786953182114,-0.02433327819684423
10.329999999999908,-0.7016011992165869,0.3710482532337954,1.458879560159445,0.9233352505023426,0.35044036607203777,-0.15660678239672307,0.0029308858308422676,0.06277778904354135,-0.3198116135801055,0.7602409091543753,-0.21646325314114145,0.6122372056006814,-0.01742293937800183
10.339999999999907,-0.9430117419502819,0.13942465762775672,1.3986393741145295,0.9287302502334843,0.33846690456070766,-0.1511644537747265,-0.008625625565470675,0.13420234743086668,-0.27362276675512714,0.7585961764850072,-0.2151303341248318,0.6149271595018188,-0.009822232266843471
