time,seconds_elapsed,z,y,x
1681506760368829200,0.0098291015625,-0.9589691162109375,-0.287445068359375,-0.0399932861328125
1681506760378845200,0.01984521484375,-0.9227752685546875,-0.286834716796875,-0.03515625
1681506760388861200,0.029861083984375,-0.89990234375,-0.2960968017578125,-0.030364990234375
1681506760398878200,0.039878173828125,-0.9169158935546875,-0.3189239501953125,-0.0280609130859375
1681506760408894000,0.04989404296875,-0.86724853515625,-0.3165740966796875,-0.0038604736328125
1681506760418910200,0.05991015625,-0.9130859375,-0.31329345703125,0.0086669921875
1681506760428926200,0.06992626953125,-1.0019683837890625,-0.3189697265625,0.00775146484375
1681506760438942200,0.079942138671875,-1.045501708984375,-0.3207550048828125,0.02716064453125
1681506760448959200,0.089959228515625,-1.0433807373046875,-0.315826416015625,0.0260467529296875
1681506760458975000,0.09997509765625,-0.986175537109375,-0.3095245361328125,0.0179595947265625
1681506760468991000,0.109990966796875,-0.9681243896484375,-0.3484039306640625,-0.018890380859375
1681506760479007200,0.12000732421875,-0.938690185546875,-0.3492584228515625,-0.0659637451171875
1681506760489023200,0.130023193359375,-0.8814849853515625,-0.3409881591796875,-0.0600128173828125
1681506760499039200,0.140039306640625,-0.8600616455078125,-0.262298583984375,-0.120208740234375
1681506760509056000,0.150055908203125,-0.8894805908203125,-0.263214111328125,-0.08953857421875
1681506760519072000,0.160072021484375,-0.88720703125,-0.341796875,-0.0467681884765625
1681506760529088300,0.170088134765625,-0.92950439453125,-0.3798675537109375,-0.0031890869140625
1681506760539104300,0.180104248046875,-0.92779541015625,-0.3731842041015625,0.0168609619140625
1681506760549120300,0.190120361328125,-0.90020751953125,-0.3543243408203125,0.0092620849609375
1681506760559137000,0.200136962890625,-0.88397216796875,-0.3411102294921875,0.0086212158203125
1681506760569153000,0.210153076171875,-0.872344970703125,-0.3389434814453125,0.0201568603515625
1681506760579169000,0.2201689453125,-0.869232177734375,-0.33880615234375,0.02911376953125
1681506760589185300,0.230185302734375,-0.8657379150390625,-0.3212432861328125,0.01123046875
1681506760599201300,0.240201171875,-0.8699798583984375,-0.2912139892578125,-0.01904296875
1681506760609217300,0.25021728515625,-0.876556396484375,-0.2659759521484375,-0.0314483642578125
1681506760619234000,0.260234130859375,-0.8429412841796875,-0.3407440185546875,0.0141754150390625
1681506760629250000,0.27025,-0.8223724365234375,-0.381988525390625,0.0203857421875
1681506760639266300,0.280266357421875,-0.864044189453125,-0.42230224609375,0.057220458984375
1681506760649282300,0.2902822265625,-0.9110565185546875,-0.4117889404296875,0.1041412353515625
1681506760659298300,0.30029833984375,-0.9434661865234375,-0.3416900634765625,0.101318359375
1681506760669315000,0.310315185546875,-0.984527587890625,-0.28662109375,0.0765380859375
1681506760679331000,0.3203310546875,-1.0014495849609375,-0.2827301025390625,0.0550537109375
1681506760689347300,0.330347412109375,-1.0155181884765625,-0.306610107421875,0.0421600341796875
1681506760699363300,0.34036328125,-1.0239105224609375,-0.3199462890625,0.0288238525390625
1681506760709379000,0.350379150390625,-1.0072784423828125,-0.3207244873046875,0.0141754150390625
1681506760719395000,0.36039501953125,-0.973846435546875,-0.32928466796875,0.01971435546875
1681506760729412000,0.370412109375,-0.94879150390625,-0.33062744140625,0.02734375
1681506760739428000,0.380427978515625,-0.9527435302734375,-0.344329833984375,0.0247955322265625
1681506760749444400,0.3904443359375,-0.963043212890625,-0.3641815185546875,0.011199951171875
1681506760759460000,0.400460205078125,-0.9503021240234375,-0.3436737060546875,-0.005767822265625
1681506760769476000,0.41047607421875,-0.9474029541015625,-0.305450439453125,-0.011749267578125
1681506760779492000,0.4204921875,-0.953338623046875,-0.290008544921875,-0.0000457763671875
1681506760789509000,0.430509033203125,-0.973175048828125,-0.2854156494140625,0.0363616943359375
1681506760799525400,0.440525390625,-1.0258636474609375,-0.2863922119140625,0.062225341796875
1681506760809541000,0.450541015625,-1.082672119140625,-0.29901123046875,0.0607757568359375
1681506760819557000,0.46055712890625,-1.08831787109375,-0.3061370849609375,0.0493316650390625
1681506760829573000,0.470572998046875,-1.038330078125,-0.293212890625,0.0512237548828125
1681506760839590100,0.480590087890625,-0.9788970947265625,-0.273162841796875,0.0522003173828125
1681506760849606100,0.490606201171875,-0.956512451171875,-0.2727813720703125,0.0428924560546875
1681506760859622100,0.5006220703125,-0.9504241943359375,-0.275848388671875,0.02618408203125
1681506760869638100,0.51063818359375,-0.9481048583984375,-0.2655029296875,0.0072784423828125
1681506760879654100,0.520654052734375,-0.96002197265625,-0.259674072265625,0.0087127685546875
1681506760889670100,0.530670166015625,-0.9727325439453125,-0.2583770751953125,0.0146942138671875
1681506760899687200,0.540687255859375,-0.975738525390625,-0.25762939453125,0.0105743408203125
1681506760909703200,0.550703125,-0.9766387939453125,-0.264251708984375,0.0042877197265625
1681506760919719200,0.56071923828125,-0.965911865234375,-0.2711944580078125,-0.0204010009765625
1681506760929735200,0.570735107421875,-0.941070556640625,-0.294403076171875,-0.056671142578125
1681506760939751200,0.580751220703125,-0.9313812255859375,-0.3246002197265625,-0.0867767333984375
1681506760949767200,0.59076708984375,-0.9373931884765625,-0.330047607421875,-0.1121673583984375
1681506760959784000,0.600783935546875,-0.96405029296875,-0.3065643310546875,-0.1221923828125
1681506760969800200,0.61080029296875,-1.00177001953125,-0.277252197265625,-0.109771728515625
1681506760979816200,0.620816162109375,-1.0167083740234375,-0.25140380859375,-0.0801239013671875
1681506760989832200,0.630832275390625,-1.02197265625,-0.2292327880859375,-0.0456390380859375
1681506760999848200,0.64084814453125,-1.028778076171875,-0.2185211181640625,-0.01361083984375
1681506761009865000,0.650864990234375,-1.033111572265625,-0.209869384765625,0.0150299072265625
1681506761019881200,0.660881103515625,-1.033355712890625,-0.2021942138671875,0.0318145751953125
1681506761029898000,0.67089794921875,-1.025970458984375,-0.19622802734375,0.0316162109375
1681506761039914200,0.680914306640625,-1.011016845703125,-0.201629638671875,0.0196533203125
1681506761049930000,0.690929931640625,-1.0092010498046875,-0.22125244140625,0
1681506761059946000,0.700946044921875,-1.0036163330078125,-0.2331695556640625,-0.030120849609375
1681506761069963000,0.710962890625,-0.9663238525390625,-0.2399749755859375,-0.02557373046875
1681506761079979000,0.72097900390625,-0.9178924560546875,-0.2547760009765625,0.00787353515625
1681506761089995000,0.7309951171875,-0.8856658935546875,-0.2663116455078125,0.02716064453125
1681506761100011000,0.741010986328125,-0.870697021484375,-0.279205322265625,0.0374298095703125
1681506761110027000,0.751027099609375,-0.8516387939453125,-0.298583984375,0.0286712646484375
1681506761120043000,0.76104296875,-0.8578948974609375,-0.3186187744140625,0.0206451416015625
1681506761130060000,0.77106005859375,-0.8895416259765625,-0.328857421875,0.0063629150390625
1681506761140076000,0.781075927734375,-0.9147796630859375,-0.3256072998046875,-0.012054443359375
1681506761150092000,0.791092041015625,-0.926605224609375,-0.325469970703125,-0.0426788330078125
1681506761160108000,0.80110791015625,-0.9103546142578125,-0.32916259765625,-0.0688629150390625
1681506761170124000,0.8111240234375,-0.885986328125,-0.336212158203125,-0.0838775634765625
1681506761180141000,0.82114111328125,-0.8858795166015625,-0.3389739990234375,-0.08685302734375
1681506761190157000,0.831156982421875,-0.9164276123046875,-0.332855224609375,-0.0897064208984375
1681506761200173000,0.841173095703125,-0.95269775390625,-0.32464599609375,-0.0920562744140625
1681506761210189000,0.85118896484375,-0.9641571044921875,-0.324737548828125,-0.0728912353515625
1681506761220205000,0.861205078125,-0.9576873779296875,-0.3179931640625,-0.0554351806640625
1681506761230221000,0.871220947265625,-0.955078125,-0.3057098388671875,-0.051239013671875
1681506761240237800,0.88123779296875,-0.98480224609375,-0.30401611328125,-0.0532989501953125
1681506761250253800,0.89125390625,-1.0069122314453125,-0.314300537109375,-0.0600738525390625
1681506761260270000,0.90127001953125,-1.010223388671875,-0.32537841796875,-0.0803070068359375
1681506761270286000,0.9112861328125,-1.0084991455078125,-0.3338623046875,-0.1051025390625
1681506761280302000,0.921302001953125,-0.9980010986328125,-0.3455047607421875,-0.118560791015625
1681506761290318000,0.931318115234375,-0.967193603515625,-0.3547515869140625,-0.1126708984375
1681506761300334800,0.9413349609375,-0.8118438720703125,-0.3588409423828125,-0.0706024169921875
1681506761310351000,0.95135107421875,-0.841949462890625,-0.371002197265625,-0.04473876953125
1681506761320367000,0.9613671875,-0.8803253173828125,-0.34857177734375,-0.0654144287109375
1681506761330383000,0.971383056640625,-0.9899749755859375,-0.3352203369140625,-0.140625
1681506761340399000,0.981399169921875,-1.05987548828125,-0.3253326416015625,-0.1725311279296875
1681506761350415000,0.9914150390625,-1.0968017578125,-0.312530517578125,-0.1865081787109375
1681506761360431900,1.001431884765625,-1.0887908935546875,-0.2827301025390625,-0.175537109375
1681506761370448100,1.0114482421875,-1.0389556884765625,-0.2733917236328125,-0.1318817138671875
1681506761380464000,1.021464111328125,-0.980224609375,-0.2734375,-0.0636444091796875
1681506761390480100,1.031480224609375,-0.95281982421875,-0.290008544921875,-0.0282135009765625
1681506761400496000,1.04149609375,-0.96246337890625,-0.301239013671875,-0.0467987060546875
1681506761410513000,1.051512939453125,-1.005279541015625,-0.3283233642578125,-0.0493011474609375
1681506761420529200,1.061529052734375,-1.0256195068359375,-0.296142578125,-0.1333465576171875
1681506761430545200,1.071545166015625,-1.042694091796875,-0.250518798828125,-0.1971282958984375
1681506761440561200,1.08156103515625,-1.0481414794921875,-0.24078369140625,-0.23388671875
1681506761450577000,1.091576904296875,-1.028961181640625,-0.2657318115234375,-0.2342071533203125
1681506761460593000,1.101593017578125,-1.01519775390625,-0.2884979248046875,-0.21917724609375
1681506761470610200,1.111610107421875,-1.021392822265625,-0.2874908447265625,-0.207000732421875
1681506761480626200,1.121626220703125,-1.05181884765625,-0.2735443115234375,-0.206817626953125
1681506761490642200,1.13164208984375,-1.067138671875,-0.280242919921875,-0.1903533935546875
1681506761500658000,1.141657958984375,-1.0442657470703125,-0.28497314453125,-0.1986541748046875
1681506761510674000,1.151673828125,-1.0251617431640625,-0.262969970703125,-0.225555419921875
1681506761520690000,1.16168994140625,-1.0607757568359375,-0.256256103515625,-0.2373504638671875
1681506761530707200,1.171707275390625,-1.0590362548828125,-0.2705841064453125,-0.21990966796875
1681506761540723200,1.18172314453125,-1.0624237060546875,-0.27801513671875,-0.20855712890625
1681506761550739000,1.191739013671875,-1.0308990478515625,-0.28326416015625,-0.2842254638671875
1681506761560755000,1.2017548828125,-0.853363037109375,-0.2493743896484375,-0.2796783447265625
1681506761570771000,1.21177099609375,-0.7267608642578125,-0.3191070556640625,-0.231231689453125
1681506761580787000,1.221786865234375,-0.6488037109375,-0.31744384765625,-0.2386474609375
1681506761590804200,1.23180419921875,-0.68121337890625,-0.2827301025390625,-0.19873046875
1681506761600820000,1.241820068359375,-0.7962493896484375,-0.3053741455078125,-0.1273040771484375
1681506761610836000,1.2518359375,-0.822723388671875,-0.26190185546875,-0.129180908203125
1681506761620852000,1.26185205078125,-0.874969482421875,-0.285247802734375,-0.0852813720703125
1681506761630868000,1.271867919921875,-0.95330810546875,-0.302642822265625,-0.10614013671875
1681506761640884000,1.281884033203125,-0.984283447265625,-0.266876220703125,-0.19610595703125
1681506761650901000,1.29190087890625,-1.0049591064453125,-0.2705535888671875,-0.2455291748046875
1681506761660917000,1.3019169921875,-1.0365142822265625,-0.2620086669921875,-0.2539520263671875
1681506761670933000,1.31193310546875,-1.04132080078125,-0.2467193603515625,-0.2418975830078125
1681506761680949000,1.321948974609375,-1.0066986083984375,-0.238800048828125,-0.2187347412109375
1681506761690965000,1.331965087890625,-0.9478759765625,-0.2245330810546875,-0.176177978515625
1681506761700981200,1.341981201171875,-0.909332275390625,-0.2468414306640625,-0.1069183349609375
1681506761710998000,1.351998046875,-0.8983612060546875,-0.2628173828125,-0.0684051513671875
1681506761721014000,1.362013916015625,-0.893280029296875,-0.270721435546875,-0.0477447509765625
1681506761731030000,1.372030029296875,-0.910888671875,-0.2667694091796875,-0.051971435546875
1681506761741046000,1.3820458984375,-0.93963623046875,-0.253265380859375,-0.0809326171875
1681506761751062000,1.39206201171875,-0.9797515869140625,-0.24981689453125,-0.110198974609375
1681506761761078000,1.402078125,-1.027679443359375,-0.2458038330078125,-0.1208343505859375
1681506761771095000,1.412094970703125,-1.0286712646484375,-0.220733642578125,-0.1075592041015625
1681506761781111000,1.422111083984375,-1.0021820068359375,-0.2119903564453125,-0.0717620849609375
1681506761791127000,1.432126953125,-0.9626922607421875,-0.2286376953125,-0.0327301025390625
1681506761801143000,1.44214306640625,-0.9250335693359375,-0.2239837646484375,-0.021087646484375
1681506761811159000,1.452158935546875,-0.909149169921875,-0.2310638427734375,-0.026885986328125
1681506761821176000,1.462176025390625,-0.9198455810546875,-0.2747344970703125,-0.032196044921875
1681506761831192000,1.472192138671875,-0.9170379638671875,-0.283233642578125,-0.054046630859375
1681506761841208000,1.4822080078125,-0.9167022705078125,-0.2722930908203125,-0.096099853515625
1681506761851224000,1.49222412109375,-0.9487457275390625,-0.2798309326171875,-0.1259765625
1681506761861239800,1.50223974609375,-0.974273681640625,-0.2765350341796875,-0.1557464599609375
1681506761871256000,1.512256103515625,-0.9798583984375,-0.270477294921875,-0.198638916015625
1681506761881273000,1.522273193359375,-0.9367828369140625,-0.2736053466796875,-0.2579498291015625
1681506761891289000,1.5322890625,-0.8487396240234375,-0.305206298828125,-0.3024444580078125
1681506761901305000,1.54230517578125,-0.7609405517578125,-0.342926025390625,-0.3449859619140625
1681506761911320800,1.55232080078125,-0.713714599609375,-0.384735107421875,-0.3758392333984375
1681506761921337000,1.562337158203125,-0.7635650634765625,-0.4111175537109375,-0.395660400390625
1681506761931353000,1.57235302734375,-0.825897216796875,-0.379486083984375,-0.475006103515625
1681506761941370000,1.5823701171875,-0.8786163330078125,-0.35736083984375,-0.5446014404296875
1681506761951385900,1.5923857421875,-0.8909912109375,-0.3586883544921875,-0.5974273681640625
1681506761961401900,1.60240185546875,-0.8405609130859375,-0.340972900390625,-0.647552490234375
1681506761971418000,1.612418212890625,-0.7550048828125,-0.3017730712890625,-0.7523345947265625
1681506761981434000,1.62243408203125,-0.707122802734375,-0.315155029296875,-0.788665771484375
1681506761991450000,1.6324501953125,-0.7070770263671875,-0.3629302978515625,-0.84320068359375
1681506762001467000,1.642466796875,-0.6676788330078125,-0.3449554443359375,-0.9408416748046875
1681506762011483000,1.65248291015625,-0.67333984375,-0.302398681640625,-0.98944091796875
1681506762021499000,1.662498779296875,-0.7000885009765625,-0.2623748779296875,-1.019439697265625
1681506762031513900,1.672513916015625,-0.6402130126953125,-0.2578582763671875,-0.9696197509765625
1681506762041529900,1.68252978515625,-0.56121826171875,-0.2419281005859375,-0.82525634765625
1681506762051545900,1.6925458984375,-0.4980316162109375,-0.21380615234375,-0.5909576416015625
1681506762061563000,1.70256298828125,-0.5197906494140625,-0.183441162109375,-0.496734619140625
1681506762071578600,1.71257861328125,-0.4237823486328125,-0.11688232421875,-0.5860137939453125
1681506762081595000,1.722594970703125,-0.3028717041015625,-0.1156158447265625,-0.59527587890625
1681506762091611000,1.73261083984375,-0.245880126953125,-0.1042633056640625,-0.610443115234375
1681506762101627000,1.742626953125,-0.1573944091796875,-0.0428466796875,-0.638946533203125
1681506762111643000,1.752642822265625,-0.0769805908203125,-0.0224151611328125,-0.6038970947265625
1681506762121659600,1.76265966796875,-0.087738037109375,-0.001953125,-0.538238525390625
1681506762131676000,1.772676025390625,-0.2008819580078125,0.06048583984375,-0.5386199951171875
1681506762141692000,1.78269189453125,-0.2302398681640625,0.1453704833984375,-0.419189453125
1681506762151708000,1.7927080078125,-0.3729400634765625,0.177337646484375,-0.3366241455078125
1681506762161724000,1.802723876953125,-0.3302764892578125,0.2717437744140625,-0.2664031982421875
1681506762171740000,1.812739990234375,-0.3537750244140625,0.3031005859375,-0.2095184326171875
1681506762181757000,1.8227568359375,-0.24896240234375,0.3214874267578125,-0.2003631591796875
1681506762191773000,1.83277294921875,-0.211822509765625,0.3531646728515625,-0.2153472900390625
1681506762201789000,1.842788818359375,-0.181396484375,0.3766326904296875,-0.1992340087890625
1681506762211805000,1.852804931640625,-0.119964599609375,0.43341064453125,-0.2547760009765625
1681506762221821000,1.862821044921875,-0.1063385009765625,0.479522705078125,-0.2960205078125
1681506762231836700,1.872836669921875,-0.1839141845703125,0.5604095458984375,-0.338409423828125
1681506762241854000,1.88285400390625,-0.391998291015625,0.58660888671875,-0.4175567626953125
1681506762251870000,1.892869873046875,-0.5764617919921875,0.637908935546875,-0.4336700439453125
1681506762261886000,1.902885986328125,-0.680694580078125,0.6787872314453125,-0.44476318359375
1681506762271902000,1.91290185546875,-0.708404541015625,0.72747802734375,-0.47796630859375
1681506762281917700,1.922917724609375,-0.65478515625,0.750701904296875,-0.566619873046875
1681506762291933700,1.93293359375,-0.5734100341796875,0.76971435546875,-0.6892547607421875
1681506762301951000,1.942950927734375,-0.5520477294921875,0.829681396484375,-0.8331146240234375
1681506762311967000,1.952967041015625,-0.6258544921875,0.8822174072265625,-0.9733428955078125
1681506762321983000,1.96298291015625,-0.80267333984375,0.9221343994140625,-1.0925750732421875
1681506762331998700,1.972998779296875,-0.965545654296875,0.945159912109375,-1.1874542236328125
1681506762342014700,1.9830146484375,-1.0435028076171875,0.9516143798828125,-1.274017333984375
1681506762352030700,1.99303076171875,-1.026214599609375,0.9574432373046875,-1.3152313232421875
1681506762362048000,2.003048095703125,-0.938507080078125,0.9939422607421875,-1.319366455078125
1681506762372064000,2.01306396484375,-0.8047943115234375,1.04718017578125,-1.31463623046875
1681506762382079700,2.023079833984375,-0.672576904296875,1.0782012939453125,-1.3314208984375
1681506762392095700,2.033095703125,-0.5792694091796875,1.1072235107421875,-1.35052490234375
1681506762402111700,2.04311181640625,-0.56134033203125,1.1539306640625,-1.403656005859375
1681506762412129000,2.05312890625,-0.622467041015625,1.1923370361328125,-1.4791717529296875
1681506762422144800,2.063144775390625,-0.74310302734375,1.2231597900390625,-1.5560455322265625
1681506762432160800,2.073160888671875,-0.9181365966796875,1.2175750732421875,-1.590850830078125
1681506762442176800,2.0831767578125,-1.02532958984375,1.1867828369140625,-1.5894927978515625
1681506762452192800,2.09319287109375,-1.0431365966796875,1.1582183837890625,-1.5466766357421875
1681506762462208800,2.103208740234375,-1.0027008056640625,1.1011962890625,-1.4610748291015625
1681506762472225800,2.113225830078125,-0.90850830078125,1.0372772216796875,-1.363311767578125
1681506762482241800,2.12324169921875,-0.78607177734375,0.9987640380859375,-1.2644195556640625
1681506762492257800,2.1332578125,-0.64349365234375,0.9847412109375,-1.1751556396484375
1681506762502273800,2.143273681640625,-0.5245819091796875,0.9891204833984375,-1.09326171875
1681506762512289800,2.153289794921875,-0.4634857177734375,1.014862060546875,-1.0459442138671875
1681506762522306000,2.16330615234375,-0.494659423828125,1.0468292236328125,-1.05560302734375
1681506762532322800,2.17332275390625,-0.6294708251953125,1.0558013916015625,-1.093505859375
1681506762542338800,2.1833388671875,-0.7873992919921875,1.0333099365234375,-1.1417999267578125
1681506762552354800,2.193354736328125,-0.9217071533203125,0.988555908203125,-1.20391845703125
1681506762562370800,2.203370849609375,-1.0206146240234375,0.9180755615234375,-1.2695159912109375
1681506762572386800,2.21338671875,-1.05816650390625,0.83349609375,-1.334197998046875
1681506762582403000,2.223403076171875,-0.9938812255859375,0.7370758056640625,-1.366241455078125
1681506762592419800,2.233419921875,-0.8714752197265625,0.643951416015625,-1.3484649658203125
1681506762602435800,2.243435791015625,-0.7315826416015625,0.592742919921875,-1.2995452880859375
1681506762612451800,2.253451904296875,-0.6207427978515625,0.5854339599609375,-1.2471771240234375
1681506762622467800,2.2634677734375,-0.53875732421875,0.5843048095703125,-1.2060546875
1681506762632483800,2.27348388671875,-0.4949951171875,0.5748443603515625,-1.1856231689453125
1681506762642499800,2.283499755859375,-0.5177459716796875,0.5481414794921875,-1.202392578125
1681506762652516900,2.293516845703125,-0.5572967529296875,0.4947662353515625,-1.251678466796875
1681506762662532900,2.303532958984375,-0.592803955078125,0.440643310546875,-1.3286590576171875
1681506762672548900,2.313548828125,-0.634490966796875,0.387725830078125,-1.422454833984375
1681506762682564900,2.32356494140625,-0.6130523681640625,0.3348388671875,-1.4853057861328125
1681506762692580900,2.333580810546875,-0.56268310546875,0.308563232421875,-1.50506591796875
1681506762702598000,2.343597900390625,-0.5091552734375,0.2986907958984375,-1.4881439208984375
1681506762712614000,2.35361376953125,-0.4486083984375,0.31463623046875,-1.46136474609375
1681506762722630000,2.3636298828125,-0.3937835693359375,0.343658447265625,-1.42694091796875
1681506762732645600,2.373645751953125,-0.3519134521484375,0.365142822265625,-1.401397705078125
1681506762742662000,2.383661865234375,-0.3157501220703125,0.38714599609375,-1.3888397216796875
1681506762752678000,2.393677978515625,-0.3139801025390625,0.4262237548828125,-1.3791961669921875
1681506762762695000,2.40369482421875,-0.3438568115234375,0.4533538818359375,-1.3730926513671875
1681506762772711000,2.4137109375,-0.3719635009765625,0.488128662109375,-1.3798370361328125
1681506762782726700,2.4237265625,-0.397064208984375,0.52130126953125,-1.381683349609375
1681506762792743000,2.433742919921875,-0.4161834716796875,0.54022216796875,-1.40020751953125
1681506762802759000,2.443759033203125,-0.39501953125,0.560089111328125,-1.421875
1681506762812776000,2.45377587890625,-0.3505401611328125,0.5798187255859375,-1.4187469482421875
1681506762822792000,2.4637919921875,-0.298797607421875,0.607635498046875,-1.3975067138671875
1681506762832807700,2.4738076171875,-0.25421142578125,0.64471435546875,-1.3628082275390625
1681506762842823700,2.48382373046875,-0.2048492431640625,0.6879119873046875,-1.3177642822265625
1681506762852840000,2.49383984375,-0.1571807861328125,0.732818603515625,-1.2677459716796875
1681506762862856000,2.50385595703125,-0.1241302490234375,0.77301025390625,-1.2194976806640625
1681506762872872700,2.513872802734375,-0.112548828125,0.81488037109375,-1.1811065673828125
1681506762882888700,2.523888671875,-0.1012115478515625,0.8526153564453125,-1.1388092041015625
1681506762892904700,2.53390478515625,-0.1043853759765625,0.8756256103515625,-1.0986328125
1681506762902921000,2.5439208984375,-0.102783203125,0.8890838623046875,-1.0618133544921875
1681506762912937000,2.55393701171875,-0.0826416015625,0.9062347412109375,-1.028656005859375
1681506762922953700,2.56395361328125,-0.0583038330078125,0.9179840087890625,-1.0061798095703125
1681506762932969700,2.5739697265625,-0.0642547607421875,0.921966552734375,-0.985626220703125
1681506762942985700,2.58398583984375,-0.054962158203125,0.9290618896484375,-0.9693603515625
1681506762953002000,2.594001953125,-0.030853271484375,0.9328460693359375,-0.9445648193359375
1681506762963018000,2.60401806640625,-0.024017333984375,0.9392852783203125,-0.900238037109375
1681506762973034000,2.614033935546875,-0.039337158203125,0.94091796875,-0.8455657958984375
1681506762983050800,2.62405078125,-0.053558349609375,0.9599456787109375,-0.8011016845703125
1681506762993066800,2.634066650390625,-0.0512237548828125,0.9889068603515625,-0.7590484619140625
1681506763003082800,2.644082763671875,-0.0394134521484375,1.0122222900390625,-0.7125091552734375
1681506763013099000,2.65409912109375,-0.0267333984375,1.033935546875,-0.6641845703125
1681506763023115000,2.664114990234375,-0.017913818359375,1.0526275634765625,-0.6173095703125
1681506763033135000,2.674135009765625,-0.001708984375,1.0679779052734375,-0.565093994140625
1681506763043152100,2.684152099609375,0.024261474609375,1.091156005859375,-0.5051422119140625
1681506763053168000,2.694168212890625,0.0338134765625,1.10479736328125,-0.438568115234375
1681506763063184100,2.70418408203125,0.0337677001953125,1.10992431640625,-0.3567962646484375
1681506763073200000,2.7142001953125,0.0014190673828125,1.121551513671875,-0.2681121826171875
1681506763083216100,2.724216064453125,-0.0356597900390625,1.1332244873046875,-0.18682861328125
1681506763093233200,2.734233154296875,-0.070770263671875,1.1402740478515625,-0.123779296875
1681506763103249200,2.744249267578125,-0.0909881591796875,1.1372528076171875,-0.104217529296875
1681506763113265200,2.75426513671875,-0.0933074951171875,1.12823486328125,-0.10992431640625
1681506763123281000,2.764281005859375,-0.09967041015625,1.105712890625,-0.1229400634765625
1681506763133297200,2.774297119140625,-0.1052093505859375,1.0622711181640625,-0.137176513671875
1681506763143314200,2.784314208984375,-0.0951385498046875,1.0111083984375,-0.1529998779296875
1681506763153330200,2.794330078125,-0.0857391357421875,0.96466064453125,-0.1683197021484375
1681506763163346200,2.80434619140625,-0.0805816650390625,0.9276123046875,-0.1760101318359375
1681506763173362000,2.81436181640625,-0.0868988037109375,0.8895416259765625,-0.1775970458984375
1681506763183378200,2.824378173828125,-0.087249755859375,0.8539581298828125,-0.17681884765625
1681506763193394200,2.834394287109375,-0.0992279052734375,0.8277435302734375,-0.195892333984375
1681506763203411200,2.8444111328125,-0.095062255859375,0.8118438720703125,-0.2220306396484375
1681506763213427000,2.854427001953125,-0.057830810546875,0.7943115234375,-0.2431793212890625
1681506763223443000,2.86444287109375,0.0009613037109375,0.789031982421875,-0.2660369873046875
1681506763233459000,2.874458984375,0.0584259033203125,0.7848968505859375,-0.2865447998046875
1681506763243475200,2.88447509765625,0.101654052734375,0.7884063720703125,-0.296630859375
1681506763253492200,2.8944921875,0.1256866455078125,0.8028717041015625,-0.307647705078125
1681506763263508000,2.904508056640625,0.1269683837890625,0.8159637451171875,-0.313385009765625
1681506763273524000,2.91452392578125,0.103057861328125,0.83203125,-0.3207550048828125
1681506763283540000,2.9245400390625,0.0722503662109375,0.84375,-0.33355712890625
1681506763293556200,2.93455615234375,0.046356201171875,0.839080810546875,-0.34576416015625
1681506763303573200,2.9445732421875,0.02056884765625,0.832916259765625,-0.3758697509765625
1681506763313589000,2.954589111328125,-0.0007171630859375,0.8436737060546875,-0.4236602783203125
1681506763323605000,2.96460498046875,-0.0245208740234375,0.85186767578125,-0.47039794921875
1681506763333621000,2.97462109375,-0.048126220703125,0.8505096435546875,-0.51043701171875
1681506763343637000,2.984636962890625,-0.06610107421875,0.8456878662109375,-0.5511932373046875
1681506763353653200,2.9946533203125,-0.0794219970703125,0.8359222412109375,-0.5804290771484375
1681506763363670000,3.004669921875,-0.094024658203125,0.8250885009765625,-0.6126708984375
1681506763373686000,3.01468603515625,-0.1086273193359375,0.800567626953125,-0.6590576171875
1681506763383702000,3.024701904296875,-0.108612060546875,0.7797698974609375,-0.7125396728515625
1681506763393718000,3.034718017578125,-0.1054534912109375,0.754364013671875,-0.7522125244140625
1681506763403734300,3.044734375,-0.1040802001953125,0.7325592041015625,-0.782623291015625
1681506763413751000,3.0547509765625,-0.1043853759765625,0.714599609375,-0.8018951416015625
1681506763423767000,3.06476708984375,-0.0992279052734375,0.6937255859375,-0.8139495849609375
1681506763433783000,3.074782958984375,-0.0987396240234375,0.6771240234375,-0.8269805908203125
1681506763443799000,3.084799072265625,-0.0960540771484375,0.66925048828125,-0.8382110595703125
1681506763453815300,3.094815185546875,-0.085418701171875,0.6656494140625,-0.8510894775390625
1681506763463832000,3.10483203125,-0.0824127197265625,0.66204833984375,-0.860687255859375
1681506763473848000,3.11484814453125,-0.0789794921875,0.6676177978515625,-0.8677215576171875
1681506763483864000,3.124864013671875,-0.076385498046875,0.6766357421875,-0.883880615234375
1681506763493880000,3.134880126953125,-0.0684814453125,0.6824493408203125,-0.9116668701171875
1681506763503896000,3.14489599609375,-0.054229736328125,0.6778411865234375,-0.9377288818359375
1681506763513913000,3.1549130859375,-0.048980712890625,0.6642913818359375,-0.9551239013671875
1681506763523929000,3.16492919921875,-0.0607757568359375,0.6519012451171875,-0.9616851806640625
1681506763533945000,3.174945068359375,-0.0753631591796875,0.6401824951171875,-0.973785400390625
1681506763543961000,3.184961181640625,-0.086090087890625,0.637542724609375,-0.9882659912109375
1681506763553977000,3.19497705078125,-0.0901031494140625,0.650146484375,-1.011505126953125
1681506763563994000,3.204994140625,-0.0977935791015625,0.670135498046875,-1.0412139892578125
1681506763574010000,3.215010009765625,-0.1018218994140625,0.685089111328125,-1.0598602294921875
1681506763584026000,3.225026123046875,-0.0951690673828125,0.690399169921875,-1.074432373046875
1681506763594042000,3.2350419921875,-0.08447265625,0.6941375732421875,-1.0952301025390625
1681506763604058000,3.24505810546875,-0.074951171875,0.69793701171875,-1.12310791015625
1681506763614075100,3.2550751953125,-0.07476806640625,0.709197998046875,-1.154449462890625
1681506763624091100,3.265091064453125,-0.0779571533203125,0.734588623046875,-1.18731689453125
1681506763634107100,3.275107177734375,-0.089080810546875,0.762542724609375,-1.2266693115234375
1681506763644123100,3.285123046875,-0.0911407470703125,0.7881317138671875,-1.2532806396484375
1681506763654140000,3.295139892578125,-0.0811004638671875,0.8242034912109375,-1.2723388671875
1681506763664156200,3.30515625,-0.060211181640625,0.88690185546875,-1.2967529296875
1681506763674172200,3.315172119140625,-0.03448486328125,0.96905517578125,-1.3243255615234375
1681506763684188200,3.325188232421875,-0.01824951171875,1.0495147705078125,-1.360687255859375
1681506763694204200,3.3352041015625,0.00421142578125,1.1160736083984375,-1.391448974609375
1681506763704221000,3.345220947265625,0.016845703125,1.1486968994140625,-1.4105072021484375
1681506763714237200,3.3552373046875,0.0054779052734375,1.1337738037109375,-1.4109039306640625
1681506763724253200,3.365253173828125,-0.038238525390625,1.0699005126953125,-1.4141387939453125
1681506763734269200,3.375269287109375,-0.0852813720703125,0.98974609375,-1.428253173828125
1681506763744285200,3.38528515625,-0.12384033203125,0.9165802001953125,-1.4209747314453125
1681506763754302000,3.395302001953125,-0.177490234375,0.8527069091796875,-1.3949432373046875
1681506763764318000,3.40531787109375,-0.241943359375,0.811126708984375,-1.355010986328125
1681506763774334200,3.415334228515625,-0.2988128662109375,0.82061767578125,-1.30670166015625
1681506763784350200,3.42535009765625,-0.329315185546875,0.84307861328125,-1.2415313720703125
1681506763794366200,3.4353662109375,-0.321685791015625,0.884429931640625,-1.167083740234375
1681506763804383000,3.445383056640625,-0.274749755859375,0.9255523681640625,-1.0855712890625
1681506763814399000,3.45539892578125,-0.2213134765625,0.9521942138671875,-1.000091552734375
1681506763824415200,3.465415283203125,-0.1640167236328125,0.9654083251953125,-0.9192657470703125
1681506763834431200,3.47543115234375,-0.108917236328125,0.9713592529296875,-0.849517822265625
1681506763844447200,3.485447265625,-0.06036376953125,0.9766693115234375,-0.791107177734375
1681506763854464000,3.495464111328125,-0.0296478271484375,0.9808502197265625,-0.758636474609375
1681506763864480000,3.50547998046875,-0.0143585205078125,0.979248046875,-0.7423248291015625
1681506763874496300,3.515496337890625,-0.02166748046875,0.9712066650390625,-0.7407073974609375
1681506763884512300,3.52551220703125,-0.0390777587890625,0.9575653076171875,-0.7427215576171875
1681506763894529000,3.535529052734375,-0.0672149658203125,0.9494171142578125,-0.7386932373046875
1681506763904545000,3.545544921875,-0.1078033447265625,0.9456939697265625,-0.7205810546875
1681506763914561000,3.55556103515625,-0.1377716064453125,0.9438629150390625,-0.6913604736328125
1681506763924577000,3.565576904296875,-0.150604248046875,0.94036865234375,-0.6613006591796875
1681506763934593300,3.57559326171875,-0.1494903564453125,0.9344024658203125,-0.6378021240234375
1681506763944610000,3.585610107421875,-0.136383056640625,0.9264678955078125,-0.616058349609375
1681506763954626000,3.5956259765625,-0.1250457763671875,0.9195556640625,-0.5957794189453125
1681506763964642000,3.60564208984375,-0.1240386962890625,0.916748046875,-0.57611083984375
1681506763974658000,3.615657958984375,-0.1280975341796875,0.915985107421875,-0.5506744384765625
1681506763984674300,3.62567431640625,-0.1417999267578125,0.9174346923828125,-0.5213775634765625
1681506763994691000,3.635691162109375,-0.165557861328125,0.9166259765625,-0.483154296875
1681506764004707000,3.64570703125,-0.1974334716796875,0.9111480712890625,-0.4417572021484375
1681506764014723000,3.65572314453125,-0.2303314208984375,0.8994598388671875,-0.4095916748046875
1681506764024739000,3.665739013671875,-0.254974365234375,0.875,-0.3889617919921875
1681506764034752500,3.67575244140625,-0.2651214599609375,0.8497467041015625,-0.378082275390625
1681506764044768500,3.6857685546875,-0.252685546875,0.8269195556640625,-0.36773681640625
1681506764054784500,3.695784423828125,-0.236663818359375,0.7989501953125,-0.353790283203125
1681506764064800800,3.70580078125,-0.216705322265625,0.7806396484375,-0.34552001953125
1681506764074816800,3.715816650390625,-0.192840576171875,0.763641357421875,-0.33795166015625
1681506764084833500,3.72583349609375,-0.171966552734375,0.746368408203125,-0.334686279296875
1681506764094849500,3.735849609375,-0.1501312255859375,0.7313232421875,-0.3250579833984375
1681506764104865500,3.745865478515625,-0.1375732421875,0.7283782958984375,-0.308563232421875
1681506764114881800,3.7558818359375,-0.14556884765625,0.7417449951171875,-0.2815704345703125
1681506764124898600,3.765898681640625,-0.1640472412109375,0.75921630859375,-0.25341796875
1681506764134914600,3.77591455078125,-0.171173095703125,0.7878875732421875,-0.234222412109375
1681506764144930600,3.7859306640625,-0.1702117919921875,0.8324737548828125,-0.22314453125
1681506764154946600,3.795946533203125,-0.1618194580078125,0.876861572265625,-0.2204742431640625
1681506764164962600,3.805962646484375,-0.137969970703125,0.900604248046875,-0.212249755859375
1681506764174979600,3.8159794921875,-0.1109466552734375,0.9116973876953125,-0.2114410400390625
1681506764184995600,3.82599560546875,-0.0871734619140625,0.9225311279296875,-0.2244873046875
1681506764195011600,3.836011474609375,-0.0665283203125,0.934356689453125,-0.2466583251953125
1681506764205027600,3.846027587890625,-0.05560302734375,0.954559326171875,-0.2720489501953125
1681506764215044900,3.856044921875,-0.0458526611328125,0.990386962890625,-0.2967376708984375
1681506764225060600,3.866060546875,-0.0445404052734375,1.024017333984375,-0.3138427734375
1681506764235076600,3.87607666015625,-0.0460052490234375,1.0506134033203125,-0.3313140869140625
1681506764245092600,3.886092529296875,-0.0424957275390625,1.0732574462890625,-0.36285400390625
1681506764255109600,3.896109619140625,-0.0409698486328125,1.0725250244140625,-0.3923187255859375
1681506764265125600,3.906125732421875,-0.0285491943359375,1.0639190673828125,-0.4143524169921875
1681506764275141600,3.9161416015625,-0.0281219482421875,1.0512847900390625,-0.441925048828125
1681506764285157600,3.92615771484375,-0.0391082763671875,1.03753662109375,-0.4728240966796875
1681506764295173600,3.936173583984375,-0.05157470703125,1.01873779296875,-0.50726318359375
1681506764305190700,3.946190673828125,-0.058685302734375,0.9930572509765625,-0.54046630859375
1681506764315206700,3.95620654296875,-0.062347412109375,0.9554443359375,-0.568756103515625
1681506764325222700,3.96622265625,-0.06890869140625,0.92620849609375,-0.601348876953125
1681506764335238700,3.97623876953125,-0.0706787109375,0.9142913818359375,-0.6407318115234375
1681506764345255700,3.986255615234375,-0.072540283203125,0.9056854248046875,-0.677825927734375
1681506764355271700,3.996271728515625,-0.057098388671875,0.8932037353515625,-0.719573974609375
1681506764365287400,4.006287353515625,-0.02850341796875,0.878448486328125,-0.7633819580078125
1681506764375303700,4.0163037109375,0.0010986328125,0.86676025390625,-0.8054656982421875
1681506764385320700,4.02632080078125,0.0337982177734375,0.8527984619140625,-0.838653564453125
1681506764395336700,4.036336669921875,0.0567474365234375,0.8389434814453125,-0.8603363037109375
1681506764405352700,4.046352783203125,0.0768280029296875,0.822784423828125,-0.863739013671875
1681506764415368400,4.056368408203125,0.0929107666015625,0.8070220947265625,-0.8615264892578125
1681506764425385700,4.0663857421875,0.0960235595703125,0.7964630126953125,-0.844329833984375
1681506764435401700,4.076401611328125,0.08245849609375,0.7899169921875,-0.814727783203125
1681506764445417700,4.086417724609375,0.0560302734375,0.7810821533203125,-0.789703369140625
1681506764455433700,4.096433837890625,0.036895751953125,0.7670440673828125,-0.7691497802734375
1681506764465450800,4.10645068359375,0.029296875,0.7497406005859375,-0.7705230712890625
1681506764475466800,4.116466796875,0.0429534912109375,0.7309112548828125,-0.7791595458984375
1681506764485482800,4.126482666015625,0.0779571533203125,0.7068634033203125,-0.793701171875
1681506764495498800,4.136498779296875,0.1122589111328125,0.679351806640625,-0.7997589111328125
1681506764505515500,4.146515625,0.1295013427734375,0.6551971435546875,-0.8058013916015625
1681506764515531500,4.156531494140625,0.1364898681640625,0.6357421875,-0.8175811767578125
1681506764525547800,4.1665478515625,0.1371917724609375,0.6215667724609375,-0.8206634521484375
1681506764535563800,4.176563720703125,0.112396240234375,0.6138458251953125,-0.8170166015625
1681506764545579800,4.186579833984375,0.0610809326171875,0.61798095703125,-0.8079681396484375
1681506764555596500,4.196596435546875,0.011322021484375,0.629058837890625,-0.7920684814453125
1681506764565612500,4.206612548828125,-0.037811279296875,0.6312103271484375,-0.7791748046875
1681506764575628800,4.21662890625,-0.0704345703125,0.6286163330078125,-0.7710418701171875
1681506764585645600,4.2266455078125,-0.0994415283203125,0.626495361328125,-0.7794647216796875
1681506764595661600,4.23666162109375,-0.1131591796875,0.6236419677734375,-0.79937744140625
1681506764605677600,4.246677490234375,-0.1005401611328125,0.6124420166015625,-0.8236083984375
1681506764615693600,4.256693603515625,-0.085693359375,0.5975341796875,-0.852813720703125
1681506764625709600,4.26670947265625,-0.0703582763671875,0.5837860107421875,-0.882171630859375
1681506764635726600,4.2767265625,-0.058746337890625,0.5746307373046875,-0.9009552001953125
1681506764645742600,4.28674267578125,-0.07318115234375,0.5786285400390625,-0.9192352294921875
1681506764655758600,4.296758544921875,-0.1017303466796875,0.592437744140625,-0.93096923828125
1681506764665774600,4.306774658203125,-0.1436309814453125,0.601898193359375,-0.944580078125
1681506764675791600,4.31679150390625,-0.1727752685546875,0.613922119140625,-0.9631500244140625
1681506764685807600,4.3268076171875,-0.185699462890625,0.6312408447265625,-0.9856719970703125
1681506764695823600,4.33682373046875,-0.190887451171875,0.644927978515625,-1.0196990966796875
1681506764705839600,4.346839599609375,-0.1801910400390625,0.6506195068359375,-1.06292724609375
1681506764715856600,4.356856689453125,-0.17578125,0.658203125,-1.10211181640625
1681506764725872600,4.36687255859375,-0.17730712890625,0.68670654296875,-1.1310272216796875
1681506764735888600,4.376888671875,-0.16534423828125,0.732391357421875,-1.164306640625
1681506764745905700,4.38690576171875,-0.1645355224609375,0.7567596435546875,-1.203216552734375
1681506764755921700,4.396921630859375,-0.1627655029296875,0.77447509765625,-1.252044677734375
1681506764765937700,4.406937744140625,-0.14111328125,0.8071441650390625,-1.310302734375
1681506764775953400,4.416953369140625,-0.1373748779296875,0.8424224853515625,-1.3479766845703125
1681506764785970700,4.426970703125,-0.14971923828125,0.899658203125,-1.35491943359375
1681506764795986700,4.436986572265625,-0.1710662841796875,0.9874267578125,-1.360137939453125
1681506764806002700,4.447002685546875,-0.185089111328125,1.0841522216796875,-1.378997802734375
1681506764816018700,4.457018798828125,-0.18634033203125,1.166168212890625,-1.3903045654296875
1681506764826035700,4.46703564453125,-0.1901092529296875,1.212249755859375,-1.3916778564453125
1681506764836051700,4.4770517578125,-0.1786956787109375,1.2112579345703125,-1.382293701171875
1681506764846067700,4.487067626953125,-0.1788482666015625,1.1739501953125,-1.3654632568359375
1681506764856083700,4.497083740234375,-0.200225830078125,1.1048736572265625,-1.3603057861328125
1681506764866100500,4.5071005859375,-0.20849609375,1.04742431640625,-1.35211181640625
1681506764876116700,4.51711669921875,-0.209991455078125,1.0183868408203125,-1.32958984375
1681506764886132700,4.5271328125,-0.2211761474609375,1.0129547119140625,-1.2924346923828125
1681506764896148700,4.537148681640625,-0.2404937744140625,1.0248260498046875,-1.233734130859375
1681506764906165500,4.54716552734375,-0.252777099609375,1.0707244873046875,-1.1649169921875
1681506764916181500,4.557181396484375,-0.2422332763671875,1.132080078125,-1.1009368896484375
1681506764926197800,4.56719775390625,-0.2196502685546875,1.190216064453125,-1.025726318359375
1681506764936213800,4.5772138671875,-0.1974639892578125,1.226715087890625,-0.953216552734375
1681506764946230500,4.58723046875,-0.167022705078125,1.21551513671875,-0.8839263916015625
1681506764956246500,4.59724658203125,-0.1342010498046875,1.1796875,-0.829437255859375
1681506764966262500,4.607262451171875,-0.119140625,1.138336181640625,-0.7934722900390625
1681506764976279800,4.61727978515625,-0.1221466064453125,1.0978851318359375,-0.77044677734375
1681506764986295800,4.6272958984375,-0.1513519287109375,1.0694427490234375,-0.759735107421875
1681506764996311600,4.6373115234375,-0.202545166015625,1.034881591796875,-0.7405548095703125
1681506765006327600,4.64732763671875,-0.2496490478515625,1.000701904296875,-0.726287841796875
1681506765016344600,4.657344482421875,-0.2762451171875,0.9831695556640625,-0.7027587890625
1681506765026360800,4.66736083984375,-0.3076934814453125,0.972320556640625,-0.674346923828125
1681506765036376800,4.677376953125,-0.32843017578125,0.9633941650390625,-0.634307861328125
1681506765046392600,4.687392578125,-0.325439453125,0.9630279541015625,-0.592926025390625
1681506765056409900,4.697409912109375,-0.318267822265625,0.9592742919921875,-0.5542449951171875
1681506765066425900,4.70742578125,-0.2950592041015625,0.954498291015625,-0.5149993896484375
1681506765076441900,4.71744189453125,-0.2691802978515625,0.9543304443359375,-0.47930908203125
1681506765086457900,4.727457763671875,-0.2441864013671875,0.9460601806640625,-0.45166015625
1681506765096474600,4.737474609375,-0.22113037109375,0.9402923583984375,-0.4292449951171875
1681506765106491000,4.747490966796875,-0.2102813720703125,0.9326171875,-0.3994140625
1681506765116507000,4.7575068359375,-0.213653564453125,0.916778564453125,-0.381988525390625
1681506765126523600,4.767523681640625,-0.2176055908203125,0.894683837890625,-0.376922607421875
1681506765136539600,4.77753955078125,-0.2181549072265625,0.876190185546875,-0.374908447265625
1681506765146555600,4.7875556640625,-0.219329833984375,0.85076904296875,-0.3674468994140625
1681506765156571600,4.797571533203125,-0.207763671875,0.8258056640625,-0.3613739013671875
1681506765166588700,4.807588623046875,-0.1962432861328125,0.8009490966796875,-0.3502655029296875
1681506765176604700,4.817604736328125,-0.184112548828125,0.7755584716796875,-0.337005615234375
1681506765186620700,4.82762060546875,-0.16748046875,0.7571258544921875,-0.3217315673828125
1681506765196637700,4.8376376953125,-0.1500701904296875,0.7486724853515625,-0.304412841796875
1681506765206654000,4.847654052734375,-0.14105224609375,0.7427215576171875,-0.282928466796875
1681506765216669700,4.857669677734375,-0.13079833984375,0.7415008544921875,-0.2719268798828125
1681506765226685700,4.867685791015625,-0.11492919921875,0.745513916015625,-0.252593994140625
1681506765236702700,4.87770263671875,-0.08392333984375,0.7477874755859375,-0.2140960693359375
1681506765246718700,4.88771875,-0.036285400390625,0.7547760009765625,-0.1779937744140625
1681506765256735000,4.89773486328125,0.00933837890625,0.7706756591796875,-0.14117431640625
1681506765266750700,4.907750732421875,0.0498046875,0.7846221923828125,-0.1104278564453125
1681506765276767700,4.917767822265625,0.0794830322265625,0.8031158447265625,-0.097747802734375
1681506765286783700,4.92778369140625,0.10577392578125,0.8248138427734375,-0.0908660888671875
1681506765296799700,4.9377998046875,0.0943756103515625,0.8480987548828125,-0.09521484375
1681506765306816800,4.947816650390625,0.06475830078125,0.8857421875,-0.1005096435546875
1681506765316832800,4.957832763671875,0.0387420654296875,0.9202728271484375,-0.0998687744140625
1681506765326848800,4.967848876953125,-0.0083770751953125,0.9718780517578125,-0.102142333984375
1681506765336864800,4.97786474609375,-0.063507080078125,1.0364990234375,-0.1116943359375
1681506765346881500,4.987881591796875,-0.120452880859375,1.109832763671875,-0.1271820068359375
1681506765356897800,4.997897705078125,-0.1702117919921875,1.176544189453125,-0.1555938720703125
1681506765366913800,5.007913818359375,-0.21173095703125,1.232452392578125,-0.199462890625
1681506765376930800,5.017930908203125,-0.231353759765625,1.27264404296875,-0.2443695068359375
1681506765386946600,5.027946533203125,-0.2343292236328125,1.2928924560546875,-0.2894287109375
1681506765396962600,5.037962646484375,-0.2230987548828125,1.296722412109375,-0.33697509765625
1681506765406978800,5.047978759765625,-0.2160797119140625,1.2838592529296875,-0.3763427734375
1681506765416995800,5.057995849609375,-0.2246551513671875,1.2580108642578125,-0.426788330078125
1681506765427011800,5.06801171875,-0.2436676025390625,1.228240966796875,-0.510284423828125
1681506765437027600,5.078027587890625,-0.2623443603515625,1.196258544921875,-0.6049346923828125
1681506765447044900,5.088044921875,-0.2704620361328125,1.1557159423828125,-0.701263427734375
1681506765457060900,5.098060791015625,-0.252044677734375,1.1116790771484375,-0.8191070556640625
1681506765467076900,5.108076904296875,-0.187774658203125,1.065521240234375,-0.9404296875
1681506765477092900,5.1180927734375,-0.0881500244140625,1.01806640625,-1.0546417236328125
1681506765487109600,5.128109619140625,0.0374755859375,0.9481964111328125,-1.144805908203125
1681506765497125600,5.138125732421875,0.1907196044921875,0.8842010498046875,-1.220855712890625
1681506765507142000,5.148141845703125,0.32525634765625,0.8236846923828125,-1.2369384765625
1681506765517158700,5.15815869140625,0.4173126220703125,0.79608154296875,-1.2129974365234375
1681506765527174700,5.168174560546875,0.4501953125,0.8099517822265625,-1.1542510986328125
1681506765537190700,5.178190673828125,0.40850830078125,0.7943115234375,-1.061798095703125
1681506765547206700,5.18820654296875,0.298919677734375,0.7800750732421875,-0.978759765625
1681506765557223700,5.1982236328125,0.1666412353515625,0.805633544921875,-0.9037628173828125
1681506765567239700,5.20823974609375,0.0449676513671875,0.8107452392578125,-0.8300933837890625
1681506765577255700,5.218255615234375,-0.0697479248046875,0.79705810546875,-0.7686920166015625
1681506765587272700,5.228272705078125,-0.1497039794921875,0.7895355224609375,-0.7319793701171875
1681506765597289000,5.2382890625,-0.18328857421875,0.7736053466796875,-0.71466064453125
1681506765607304700,5.2483046875,-0.181640625,0.74127197265625,-0.704193115234375
1681506765617320700,5.25832080078125,-0.1451873779296875,0.709259033203125,-0.7088165283203125
1681506765627337700,5.268337646484375,-0.0994110107421875,0.684326171875,-0.717681884765625
1681506765637353700,5.278353759765625,-0.0726165771484375,0.66204833984375,-0.724884033203125
1681506765647369700,5.28836962890625,-0.070556640625,0.6429595947265625,-0.7454376220703125
1681506765657386800,5.29838671875,-0.0694732666015625,0.636688232421875,-0.7734832763671875
1681506765667402800,5.30840283203125,-0.0888519287109375,0.6360626220703125,-0.796630859375
1681506765677418800,5.318418701171875,-0.1003570556640625,0.620941162109375,-0.7988739013671875
1681506765687435500,5.328435546875,-0.09210205078125,0.6042022705078125,-0.804595947265625
1681506765697451800,5.33845166015625,-0.0794525146484375,0.595062255859375,-0.807037353515625
1681506765707467800,5.3484677734375,-0.06884765625,0.5856781005859375,-0.8143310546875
1681506765717483800,5.35848388671875,-0.04925537109375,0.583892822265625,-0.832672119140625
1681506765727500800,5.368500732421875,-0.0430450439453125,0.58428955078125,-0.8574371337890625
1681506765737516500,5.3785166015625,-0.047119140625,0.59075927734375,-0.87615966796875
1681506765747532800,5.38853271484375,-0.0608062744140625,0.604888916015625,-0.889068603515625
1681506765757549800,5.3985498046875,-0.09759521484375,0.611175537109375,-0.893768310546875
1681506765767565800,5.40856591796875,-0.1346588134765625,0.6238555908203125,-0.8865203857421875
1681506765777581600,5.41858154296875,-0.1725311279296875,0.6464080810546875,-0.8740692138671875
1681506765787598800,5.428598876953125,-0.198486328125,0.6719970703125,-0.87518310546875
1681506765797614800,5.43861474609375,-0.2098541259765625,0.705291748046875,-0.8864898681640625
1681506765807630800,5.448630859375,-0.226715087890625,0.743499755859375,-0.9046783447265625
1681506765817647600,5.458647705078125,-0.2404327392578125,0.78167724609375,-0.9447021484375
1681506765827663600,5.46866357421875,-0.2425079345703125,0.80291748046875,-1.006195068359375
1681506765837679600,5.4786796875,-0.2240447998046875,0.8078765869140625,-1.0869293212890625
1681506765847696000,5.48869580078125,-0.1873931884765625,0.7995452880859375,-1.166595458984375
1681506765857712600,5.498712646484375,-0.1451568603515625,0.8033905029296875,-1.2398223876953125
1681506765867728600,5.508728759765625,-0.112701416015625,0.8300323486328125,-1.3098602294921875
1681506765877744600,5.51874462890625,-0.0974884033203125,0.872894287109375,-1.3593902587890625
1681506765887762000,5.528761962890625,-0.0937652587890625,0.9304351806640625,-1.3841705322265625
1681506765897778000,5.53877783203125,-0.097259521484375,0.9954376220703125,-1.40704345703125
1681506765907793700,5.548793701171875,-0.0894622802734375,1.065216064453125,-1.4156951904296875
1681506765917810700,5.558810791015625,-0.0719146728515625,1.1385345458984375,-1.40362548828125
1681506765927826700,5.56882666015625,-0.0618743896484375,1.1823883056640625,-1.3830108642578125
1681506765937843000,5.578843017578125,-0.0762939453125,1.191802978515625,-1.3785552978515625
1681506765947858700,5.588858642578125,-0.0854644775390625,1.1572265625,-1.395721435546875
1681506765957875700,5.598875732421875,-0.0718994140625,1.0941162109375,-1.41375732421875
1681506765967891700,5.6088916015625,-0.054107666015625,1.03704833984375,-1.4249114990234375
1681506765977907700,5.61890771484375,-0.0464630126953125,1.0000152587890625,-1.421966552734375
1681506765987924700,5.6289248046875,-0.045318603515625,0.992828369140625,-1.3928985595703125
1681506765997940700,5.638940673828125,-0.0593414306640625,1.01824951171875,-1.345703125
1681506766007956700,5.648956787109375,-0.06146240234375,1.0676727294921875,-1.2832794189453125
1681506766017973800,5.658973876953125,-0.052001953125,1.1212615966796875,-1.204864501953125
1681506766027989500,5.668989501953125,-0.0394134521484375,1.1588897705078125,-1.1181640625
1681506766038009300,5.67900927734375,-0.0287628173828125,1.170379638671875,-1.0398712158203125
1681506766048026400,5.6890263671875,-0.02337646484375,1.1707000732421875,-0.972869873046875
1681506766058042400,5.69904248046875,-0.0299224853515625,1.1586456298828125,-0.919403076171875
1681506766068058400,5.709058349609375,-0.0582427978515625,1.144287109375,-0.8780059814453125
1681506766078075400,5.719075439453125,-0.101776123046875,1.1331634521484375,-0.84466552734375
1681506766088091400,5.72909130859375,-0.1352691650390625,1.116851806640625,-0.818389892578125
1681506766098107400,5.739107421875,-0.157073974609375,1.1068115234375,-0.796417236328125
1681506766108123400,5.749123291015625,-0.1714019775390625,1.097747802734375,-0.7648162841796875
1681506766118140400,5.759140380859375,-0.179229736328125,1.0866546630859375,-0.7229156494140625
1681506766128156400,5.769156494140625,-0.1830902099609375,1.0718994140625,-0.6793365478515625
1681506766138172400,5.77917236328125,-0.187652587890625,1.065948486328125,-0.6336822509765625
1681506766148189200,5.789189208984375,-0.1868896484375,1.0633087158203125,-0.586029052734375
1681506766158205400,5.799205322265625,-0.176361083984375,1.05877685546875,-0.5337982177734375
1681506766168221400,5.809221435546875,-0.1602325439453125,1.0505523681640625,-0.4843902587890625
1681506766178238500,5.819238525390625,-0.154510498046875,1.037506103515625,-0.4466705322265625
1681506766188254500,5.82925439453125,-0.155120849609375,1.019683837890625,-0.4149932861328125
1681506766198270200,5.839270263671875,-0.15277099609375,0.993927001953125,-0.39007568359375
1681506766208287500,5.84928759765625,-0.1409149169921875,0.964599609375,-0.3690643310546875
1681506766218303500,5.859303466796875,-0.1344451904296875,0.934539794921875,-0.35382080078125
1681506766228319500,5.869319580078125,-0.1271209716796875,0.9074859619140625,-0.3418426513671875
1681506766238336300,5.879336181640625,-0.1228179931640625,0.88134765625,-0.3268280029296875
1681506766248352300,5.889352294921875,-0.1236724853515625,0.857513427734375,-0.30816650390625
1681506766258368500,5.899368408203125,-0.126190185546875,0.8367156982421875,-0.2889556884765625
1681506766268385500,5.909385498046875,-0.1197967529296875,0.8235321044921875,-0.2657470703125
1681506766278401300,5.9194013671875,-0.1194610595703125,0.80908203125,-0.248992919921875
1681506766288417300,5.929417236328125,-0.13238525390625,0.7942657470703125,-0.235107421875
1681506766298434600,5.9394345703125,-0.15496826171875,0.775177001953125,-0.2212066650390625
1681506766308450600,5.949450439453125,-0.168304443359375,0.7560577392578125,-0.2119598388671875
1681506766318466300,5.95946630859375,-0.16937255859375,0.7503509521484375,-0.2120513916015625
1681506766328483300,5.9694833984375,-0.1620941162109375,0.752532958984375,-0.20745849609375
1681506766338499300,5.979499267578125,-0.1509552001953125,0.763153076171875,-0.196533203125
1681506766348515600,5.989515625,-0.1397857666015625,0.7830352783203125,-0.182891845703125
1681506766358532400,5.999532470703125,-0.140533447265625,0.806060791015625,-0.1634063720703125
1681506766368548400,6.00954833984375,-0.1590576171875,0.823822021484375,-0.1466064453125
1681506766378564400,6.019564453125,-0.1853179931640625,0.8394317626953125,-0.137939453125
1681506766388580400,6.029580322265625,-0.2054901123046875,0.8526458740234375,-0.132659912109375
1681506766398597400,6.039597412109375,-0.21917724609375,0.868499755859375,-0.132843017578125
1681506766408613400,6.04961328125,-0.2086944580078125,0.900360107421875,-0.149688720703125
1681506766418630400,6.05963037109375,-0.181304931640625,0.934844970703125,-0.167205810546875
1681506766428646400,6.069646484375,-0.15570068359375,0.9637298583984375,-0.179931640625
1681506766438662400,6.079662353515625,-0.1305999755859375,0.990875244140625,-0.202484130859375
1681506766448678400,6.089678466796875,-0.110595703125,1.0168914794921875,-0.225067138671875
1681506766458695400,6.0996953125,-0.1049957275390625,1.05108642578125,-0.25408935546875
1681506766468711400,6.10971142578125,-0.100860595703125,1.0938568115234375,-0.296539306640625
1681506766478728200,6.119728271484375,-0.0997467041015625,1.1425628662109375,-0.3405914306640625
1681506766488744400,6.129744384765625,-0.1014862060546875,1.1844482421875,-0.38165283203125
1681506766498760400,6.139760498046875,-0.116790771484375,1.2014923095703125,-0.40167236328125
1681506766508776400,6.1497763671875,-0.148406982421875,1.1907958984375,-0.4238433837890625
1681506766518793500,6.15979345703125,-0.1697235107421875,1.16851806640625,-0.4623260498046875
1681506766528809200,6.169809326171875,-0.192138671875,1.1389617919921875,-0.48785400390625
1681506766538825500,6.179825439453125,-0.2219696044921875,1.11474609375,-0.5166778564453125
1681506766548842500,6.189842529296875,-0.2335205078125,1.1001129150390625,-0.5488128662109375
1681506766558858500,6.1998583984375,-0.22222900390625,1.094390869140625,-0.591949462890625
1681506766568874200,6.209874267578125,-0.1638031005859375,1.084808349609375,-0.651336669921875
1681506766578891500,6.2198916015625,-0.0604705810546875,1.05767822265625,-0.7081756591796875
1681506766588907500,6.229907470703125,0.04412841796875,1.0429534912109375,-0.746551513671875
1681506766598923500,6.239923583984375,0.1241607666015625,1.0258026123046875,-0.77093505859375
1681506766608940300,6.249940185546875,0.1711883544921875,1.0032501220703125,-0.784271240234375
1681506766618956300,6.259956298828125,0.2002105712890625,0.9836578369140625,-0.776214599609375
1681506766628973600,6.2699736328125,0.19964599609375,0.962890625,-0.7603302001953125
1681506766638989600,6.279989501953125,0.1708984375,0.94384765625,-0.7473907470703125
1681506766649005300,6.29000537109375,0.1242523193359375,0.9278106689453125,-0.7385711669921875
1681506766659021300,6.300021240234375,0.083770751953125,0.91046142578125,-0.7320709228515625
1681506766669038300,6.310038330078125,0.05401611328125,0.8871612548828125,-0.7240142822265625
1681506766679054600,6.3200546875,0.0205230712890625,0.8689422607421875,-0.7270660400390625
1681506766689071400,6.3300712890625,-0.01837158203125,0.85498046875,-0.7396087646484375
1681506766699087400,6.34008740234375,-0.056243896484375,0.838653564453125,-0.7604217529296875
1681506766709103400,6.350103271484375,-0.08953857421875,0.8329925537109375,-0.7913360595703125
1681506766719120400,6.360120361328125,-0.1152191162109375,0.836090087890625,-0.824920654296875
1681506766729136400,6.370136474609375,-0.1202239990234375,0.828643798828125,-0.849029541015625
1681506766739152400,6.38015234375,-0.1045074462890625,0.810455322265625,-0.87335205078125
1681506766749169400,6.39016943359375,-0.0885009765625,0.7978973388671875,-0.892974853515625
1681506766759185400,6.400185302734375,-0.060394287109375,0.7893829345703125,-0.90478515625
1681506766769201400,6.410201416015625,-0.0422515869140625,0.7833404541015625,-0.9008941650390625
1681506766779218400,6.420218505859375,-0.0328826904296875,0.7845306396484375,-0.904754638671875
1681506766789234400,6.430234375,-0.0297698974609375,0.78948974609375,-0.9203033447265625
1681506766799250400,6.44025048828125,-0.03839111328125,0.7853240966796875,-0.9372100830078125
1681506766809267200,6.45026708984375,-0.0454864501953125,0.772003173828125,-0.95721435546875
1681506766819283500,6.460283447265625,-0.0491485595703125,0.76373291015625,-0.9925994873046875
1681506766829299500,6.470299560546875,-0.0567779541015625,0.75604248046875,-1.0163421630859375
1681506766839316500,6.48031640625,-0.0756988525390625,0.7438812255859375,-1.027435302734375
1681506766849332200,6.490332275390625,-0.09686279296875,0.73529052734375,-1.04534912109375
1681506766859348200,6.50034814453125,-0.107940673828125,0.726593017578125,-1.079254150390625
1681506766869365500,6.510365478515625,-0.10443115234375,0.7237548828125,-1.1157684326171875
1681506766879381500,6.520381591796875,-0.0870208740234375,0.7213897705078125,-1.147308349609375
1681506766889397500,6.5303974609375,-0.0668487548828125,0.7169342041015625,-1.1797332763671875
1681506766899414300,6.540414306640625,-0.0554046630859375,0.71478271484375,-1.1985931396484375
1681506766909430500,6.550430419921875,-0.0596771240234375,0.722259521484375,-1.2137908935546875
1681506766919446500,6.560446533203125,-0.0499420166015625,0.742095947265625,-1.2433624267578125
1681506766929463300,6.57046337890625,-0.0472412109375,0.7707366943359375,-1.28619384765625
1681506766939479300,6.580479248046875,-0.0459747314453125,0.7801055908203125,-1.3223876953125
1681506766949496600,6.59049658203125,-0.032379150390625,0.7796630859375,-1.3592376708984375
1681506766959512600,6.6005126953125,-0.0032196044921875,0.7978973388671875,-1.3892669677734375
1681506766969528300,6.6105283203125,0.00482177734375,0.8349456787109375,-1.382781982421875
1681506766979545300,6.62054541015625,-0.0075836181640625,0.8876190185546875,-1.3424224853515625
1681506766989561300,6.630561279296875,-0.0251617431640625,0.9425201416015625,-1.296661376953125
1681506766999577300,6.640577392578125,-0.03680419921875,0.9892120361328125,-1.2789459228515625
1681506767009594400,6.650594482421875,-0.0403594970703125,1.0303955078125,-1.2713623046875
1681506767019610400,6.6606103515625,-0.03961181640625,1.0501861572265625,-1.264434814453125
1681506767029626400,6.67062646484375,-0.0288543701171875,1.0530853271484375,-1.2656707763671875
1681506767039639600,6.6806396484375,-0.0075225830078125,1.052276611328125,-1.2628631591796875
1681506767049655600,6.690655517578125,-0.0021514892578125,1.058502197265625,-1.2757568359375
1681506767059671300,6.70067138671875,-0.0029144287109375,1.0723419189453125,-1.3061981201171875
1681506767069688600,6.7106884765625,-0.0042266845703125,1.0818023681640625,-1.30938720703125
1681506767079704600,6.72070458984375,-0.024749755859375,1.0970458984375,-1.2882537841796875
1681506767089720600,6.730720458984375,-0.03643798828125,1.1271514892578125,-1.25067138671875
1681506767099737300,6.7407373046875,-0.0426177978515625,1.165557861328125,-1.209381103515625
1681506767109753300,6.75075341796875,-0.0490570068359375,1.205963134765625,-1.1654052734375
1681506767119770600,6.7607705078125,-0.051361083984375,1.2377777099609375,-1.1070098876953125
1681506767129786400,6.770786376953125,-0.065399169921875,1.2529296875,-1.043426513671875
1681506767139802400,6.78080224609375,-0.082672119140625,1.2470703125,-0.9809417724609375
1681506767149819400,6.7908193359375,-0.1116943359375,1.2387237548828125,-0.9154052734375
1681506767159835600,6.800835693359375,-0.1508941650390625,1.24542236328125,-0.8683013916015625
1681506767169851600,6.8108515625,-0.204132080078125,1.259521484375,-0.843292236328125
1681506767179868400,6.820868408203125,-0.23211669921875,1.2550811767578125,-0.8219757080078125
1681506767189884400,6.830884521484375,-0.2300872802734375,1.2161102294921875,-0.7948150634765625
1681506767199900400,6.840900390625,-0.217041015625,1.16107177734375,-0.7702178955078125
1681506767209917400,6.85091748046875,-0.200469970703125,1.122833251953125,-0.7436370849609375
1681506767219933400,6.860933349609375,-0.197265625,1.0881500244140625,-0.7078399658203125
1681506767229950500,6.870950439453125,-0.216064453125,1.0589141845703125,-0.6629486083984375
1681506767239966500,6.880966552734375,-0.2450714111328125,1.0449676513671875,-0.608184814453125
1681506767249982700,6.890982666015625,-0.26953125,1.051483154296875,-0.5561981201171875
1681506767259999500,6.90099951171875,-0.2803497314453125,1.0673675537109375,-0.510772705078125
1681506767270015500,6.911015380859375,-0.2799072265625,1.0797882080078125,-0.4648590087890625
1681506767280031500,6.921031494140625,-0.2704315185546875,1.0876922607421875,-0.43017578125
1681506767290048500,6.931048583984375,-0.2452850341796875,1.08111572265625,-0.4093780517578125
1681506767300064500,6.941064453125,-0.2005462646484375,1.0618896484375,-0.4004364013671875
1681506767310080500,6.95108056640625,-0.1520843505859375,1.0218658447265625,-0.392303466796875
1681506767320097500,6.96109765625,-0.1162872314453125,0.98193359375,-0.384735107421875
1681506767330113500,6.971113525390625,-0.095062255859375,0.9464263916015625,-0.374603271484375
1681506767340130600,6.981130615234375,-0.108306884765625,0.9208831787109375,-0.362457275390625
1681506767350146600,6.991146484375,-0.151397705078125,0.9032440185546875,-0.347747802734375
1681506767360162600,7.00116259765625,-0.206787109375,0.8932037353515625,-0.3370208740234375
1681506767370179300,7.011179443359375,-0.239990234375,0.88916015625,-0.3202056884765625
1681506767380195300,7.0211953125,-0.24871826171875,0.88018798828125,-0.3054962158203125
1681506767390211600,7.031211669921875,-0.234619140625,0.869720458984375,-0.2883758544921875
1681506767400228600,7.041228515625,-0.2161407470703125,0.8431243896484375,-0.267669677734375
1681506767410244400,7.051244384765625,-0.18756103515625,0.815948486328125,-0.260284423828125
1681506767420260400,7.06126025390625,-0.15277099609375,0.8068695068359375,-0.25537109375
1681506767430277600,7.071277587890625,-0.1370697021484375,0.8076171875,-0.238067626953125
1681506767440293600,7.081293701171875,-0.1350555419921875,0.8180084228515625,-0.2079925537109375
1681506767450310400,7.091310302734375,-0.168060302734375,0.85174560546875,-0.170074462890625
1681506767460326400,7.101326416015625,-0.2082366943359375,0.8745574951171875,-0.1249542236328125
1681506767470342400,7.11134228515625,-0.234832763671875,0.8943328857421875,-0.0912933349609375
1681506767480359700,7.121359619140625,-0.254791259765625,0.9023895263671875,-0.0661773681640625
1681506767490375400,7.13137548828125,-0.2647247314453125,0.911163330078125,-0.0613861083984375
1681506767500391400,7.141391357421875,-0.25274658203125,0.9333648681640625,-0.0722808837890625
1681506767510408400,7.151408447265625,-0.2274627685546875,0.96319580078125,-0.08978271484375
1681506767520424400,7.161424560546875,-0.177886962890625,0.9967803955078125,-0.1132354736328125
1681506767530441500,7.17144140625,-0.1250152587890625,1.017547607421875,-0.1421661376953125
1681506767540457500,7.18145751953125,-0.098907470703125,1.0332489013671875,-0.1682586669921875
1681506767550473500,7.191473388671875,-0.0923614501953125,1.048004150390625,-0.20452880859375
1681506767560490500,7.201490478515625,-0.103179931640625,1.062530517578125,-0.2555389404296875
1681506767570506500,7.211506591796875,-0.123931884765625,1.0792694091796875,-0.315582275390625
1681506767580522500,7.2215224609375,-0.1324920654296875,1.0883636474609375,-0.3753814697265625
1681506767590539500,7.23153955078125,-0.127655029296875,1.09710693359375,-0.432647705078125
1681506767600555500,7.241555419921875,-0.1031341552734375,1.095123291015625,-0.4789581298828125
1681506767610572500,7.251572509765625,-0.060272216796875,1.0823211669921875,-0.5183868408203125
1681506767620588500,7.261588623046875,-0.0301666259765625,1.064361572265625,-0.5625457763671875
1681506767630604500,7.2716044921875,-0.0243988037109375,1.0435943603515625,-0.5903778076171875
1681506767640621300,7.281621337890625,-0.0479888916015625,1.0153961181640625,-0.619659423828125
1681506767650637300,7.29163720703125,-0.069366455078125,0.9935455322265625,-0.6628570556640625
1681506767660653600,7.301653564453125,-0.0683746337890625,0.967254638671875,-0.69183349609375
1681506767670670600,7.311670654296875,-0.061309814453125,0.93756103515625,-0.713775634765625
1681506767680686600,7.3216865234375,-0.039459228515625,0.9126434326171875,-0.728515625
1681506767690703400,7.331703369140625,-0.013427734375,0.902191162109375,-0.7271881103515625
1681506767700719600,7.3417197265625,0.00653076171875,0.9002227783203125,-0.71954345703125
1681506767710735600,7.351735595703125,0.0187225341796875,0.9043121337890625,-0.7083587646484375
1681506767720752400,7.36175244140625,0.0174407958984375,0.91375732421875,-0.6811065673828125
1681506767730768400,7.371768310546875,0.0159454345703125,0.9271240234375,-0.6539306640625
1681506767740784400,7.381784423828125,0.003021240234375,0.9339141845703125,-0.6317596435546875
1681506767750801700,7.3918017578125,-0.01348876953125,0.9230499267578125,-0.6165924072265625
1681506767760817400,7.4018173828125,-0.035064697265625,0.901397705078125,-0.61444091796875
1681506767770834400,7.41183447265625,-0.0608673095703125,0.88427734375,-0.6228485107421875
1681506767780850400,7.421850341796875,-0.089447021484375,0.8726654052734375,-0.635345458984375
1681506767790866400,7.431866455078125,-0.1176605224609375,0.870849609375,-0.6624298095703125
1681506767800883500,7.441883544921875,-0.1343231201171875,0.8708038330078125,-0.7061920166015625
1681506767810899500,7.4518994140625,-0.12933349609375,0.865936279296875,-0.7625885009765625
1681506767820916500,7.46191650390625,-0.0949859619140625,0.849853515625,-0.8231964111328125
1681506767830932500,7.471932373046875,-0.052703857421875,0.830474853515625,-0.8858489990234375
1681506767840948500,7.481948486328125,-0.0263519287109375,0.8148956298828125,-0.9461669921875
1681506767850965500,7.491965576171875,-0.022247314453125,0.8031005859375,-1.00518798828125
1681506767860981500,7.5019814453125,-0.05010986328125,0.791046142578125,-1.0507354736328125
1681506767870997500,7.51199755859375,-0.1128692626953125,0.7758331298828125,-1.09954833984375
1681506767881014500,7.5220146484375,-0.1928253173828125,0.7660369873046875,-1.142333984375
1681506767891030500,7.532030517578125,-0.256072998046875,0.754730224609375,-1.18304443359375
1681506767901047600,7.542047607421875,-0.2904052734375,0.737091064453125,-1.21099853515625
1681506767911063600,7.5520634765625,-0.297271728515625,0.708465576171875,-1.230987548828125
1681506767921079300,7.562079345703125,-0.28106689453125,0.6810760498046875,-1.2452545166015625
1681506767931096600,7.5720966796875,-0.2372283935546875,0.6632080078125,-1.247955322265625
1681506767941112600,7.582112548828125,-0.1813812255859375,0.6370849609375,-1.2428741455078125
1681506767951129300,7.59212939453125,-0.1396331787109375,0.6181793212890625,-1.2255859375
1681506767961145300,7.602145263671875,-0.115966796875,0.6098785400390625,-1.196197509765625
1681506767971161300,7.612161376953125,-0.1110382080078125,0.6118316650390625,-1.1749725341796875
1681506767981178600,7.6221787109375,-0.1161346435546875,0.6250152587890625,-1.1706085205078125
1681506767991194400,7.6321943359375,-0.1319580078125,0.6388092041015625,-1.1823577880859375
1681506768001211400,7.64221142578125,-0.1063995361328125,0.65667724609375,-1.2102508544921875
1681506768011227400,7.652227294921875,-0.062225341796875,0.6619720458984375,-1.2444305419921875
1681506768021243600,7.66224365234375,-0.0103607177734375,0.6555328369140625,-1.277008056640625
1681506768031260400,7.672260498046875,0.032562255859375,0.6501007080078125,-1.2990875244140625
1681506768041277200,7.682277099609375,0.0488739013671875,0.65142822265625,-1.31121826171875
1681506768051294200,7.692294189453125,0.05072021484375,0.669158935546875,-1.3076629638671875
1681506768061310200,7.702310302734375,0.0417022705078125,0.7321319580078125,-1.2968597412109375
1681506768071326200,7.712326171875,0.0124969482421875,0.7956695556640625,-1.2672119140625
1681506768081343200,7.72234326171875,-0.00909423828125,0.857574462890625,-1.2294769287109375
1681506768091359200,7.732359130859375,-0.036590576171875,0.908233642578125,-1.202239990234375
1681506768101376300,7.742376220703125,-0.064208984375,0.9482269287109375,-1.1936187744140625
1681506768111392300,7.752392333984375,-0.09185791015625,0.99053955078125,-1.1865692138671875
1681506768121408300,7.762408203125,-0.1246185302734375,1.0190277099609375,-1.1783447265625
1681506768131425000,7.772425048828125,-0.1596527099609375,1.0267486572265625,-1.1827545166015625
1681506768141441300,7.782441162109375,-0.18701171875,1.0274505615234375,-1.2025299072265625
1681506768151458300,7.792458251953125,-0.2038421630859375,1.015106201171875,-1.22137451171875
1681506768161474300,7.802474365234375,-0.211395263671875,1.0093536376953125,-1.239990234375
1681506768171490300,7.812490234375,-0.201629638671875,1.0118255615234375,-1.23297119140625
1681506768181507300,7.82250732421875,-0.1737518310546875,1.0336456298828125,-1.212799072265625
1681506768191523300,7.8325234375,-0.141632080078125,1.0651397705078125,-1.1851043701171875
1681506768201540400,7.842540283203125,-0.1215972900390625,1.0836639404296875,-1.1455535888671875
1681506768211556000,7.85255615234375,-0.10894775390625,1.1116180419921875,-1.101776123046875
1681506768221572000,7.862572021484375,-0.109619140625,1.13970947265625,-1.0500335693359375
1681506768231589400,7.87258935546875,-0.129241943359375,1.154541015625,-0.9868316650390625
1681506768241605400,7.88260546875,-0.1711273193359375,1.1664276123046875,-0.92181396484375
1681506768251622100,7.8926220703125,-0.2342529296875,1.1802978515625,-0.8706512451171875
1681506768261638100,7.90263818359375,-0.2979888916015625,1.1986083984375,-0.8505859375
1681506768271654100,7.912654052734375,-0.3367462158203125,1.18206787109375,-0.8456573486328125
1681506768281671200,7.922671142578125,-0.3306427001953125,1.1336517333984375,-0.842864990234375
1681506768291687200,7.932687255859375,-0.32049560546875,1.0806121826171875,-0.8393096923828125
1681506768301704200,7.9427041015625,-0.3114013671875,1.0383758544921875,-0.8221893310546875
1681506768311720200,7.95272021484375,-0.3008270263671875,1.0087432861328125,-0.7836456298828125
1681506768321736400,7.962736328125,-0.3077392578125,0.99200439453125,-0.7289581298828125
1681506768331753200,7.972753173828125,-0.3336639404296875,0.9790191650390625,-0.6759185791015625
1681506768341769200,7.982769287109375,-0.361297607421875,0.978515625,-0.618011474609375
1681506768351786200,7.9927861328125,-0.3827362060546875,0.993804931640625,-0.5597686767578125
1681506768361802200,8.00280224609375,-0.3927154541015625,0.997833251953125,-0.501434326171875
1681506768371818200,8.012818359375,-0.384857177734375,0.9937744140625,-0.45452880859375
1681506768381835300,8.022835205078126,-0.357696533203125,0.991546630859375,-0.4258575439453125
1681506768391851300,8.032851318359375,-0.328948974609375,0.98431396484375,-0.4072418212890625
1681506768401868300,8.042868408203125,-0.2939605712890625,0.9650421142578125,-0.3972320556640625
1681506768411884300,8.05288427734375,-0.258636474609375,0.9403228759765625,-0.3950042724609375
1681506768421900300,8.062900390625,-0.230438232421875,0.9222412109375,-0.39703369140625
1681506768431917300,8.072917236328125,-0.2120208740234375,0.909027099609375,-0.4030609130859375
1681506768441933000,8.08293310546875,-0.2137908935546875,0.88275146484375,-0.4099884033203125
1681506768451950300,8.092950439453125,-0.2128448486328125,0.8628082275390625,-0.417266845703125
1681506768461966300,8.10296630859375,-0.2179718017578125,0.85302734375,-0.41864013671875
1681506768471982300,8.112982421875,-0.221099853515625,0.8404083251953125,-0.414764404296875
1681506768481999000,8.1229990234375,-0.216400146484375,0.8265533447265625,-0.4036865234375
1681506768492015000,8.13301513671875,-0.21319580078125,0.81378173828125,-0.3869476318359375
1681506768502032400,8.143032470703124,-0.217041015625,0.806304931640625,-0.369293212890625
1681506768512048000,8.153048095703125,-0.2202606201171875,0.814117431640625,-0.361663818359375
1681506768522065200,8.163065185546875,-0.2088165283203125,0.8322296142578125,-0.3516693115234375
1681506768532081200,8.1730810546875,-0.18292236328125,0.8739166259765625,-0.33135986328125
1681506768542097400,8.183097412109374,-0.1482391357421875,0.91558837890625,-0.2991180419921875
1681506768552114200,8.1931142578125,-0.1112823486328125,0.9527435302734375,-0.2511444091796875
1681506768562130200,8.203130126953125,-0.0995941162109375,0.98858642578125,-0.1911163330078125
1681506768572147200,8.213147216796875,-0.110809326171875,1.00408935546875,-0.1433258056640625
1681506768582163500,8.22316357421875,-0.1414337158203125,1.007598876953125,-0.095062255859375
1681506768592180200,8.23318017578125,-0.1787261962890625,1.0129547119140625,-0.0635528564453125
1681506768602196200,8.2431962890625,-0.2100677490234375,1.0269622802734375,-0.050750732421875
1681506768612212200,8.253212158203125,-0.2224273681640625,1.053955078125,-0.0531158447265625
1681506768622229200,8.263229248046875,-0.208587646484375,1.102874755859375,-0.072998046875
1681506768632245200,8.273245361328126,-0.1650543212890625,1.150634765625,-0.0881805419921875
1681506768642262300,8.28326220703125,-0.12005615234375,1.1773681640625,-0.099578857421875
1681506768652278300,8.2932783203125,-0.0768280029296875,1.19696044921875,-0.1390228271484375
1681506768662294300,8.303294189453124,-0.0342254638671875,1.201995849609375,-0.185302734375
1681506768672311300,8.313311279296874,-0.0095062255859375,1.1757965087890625,-0.224700927734375
1681506768682327300,8.323327392578125,-0.0018310546875,1.1487274169921875,-0.270843505859375
1681506768692344000,8.333343994140625,-0.007781982421875,1.1299896240234375,-0.304229736328125
1681506768702360000,8.343360107421875,-0.0228118896484375,1.098236083984375,-0.3082122802734375
1681506768712377300,8.35337744140625,-0.0471954345703125,1.05364990234375,-0.3056793212890625
1681506768722393300,8.363393310546876,-0.0750579833984375,1.0175628662109375,-0.3274993896484375
1681506768732409300,8.373409423828125,-0.086151123046875,0.99871826171875,-0.3838348388671875
1681506768742426000,8.383426025390625,-0.0863800048828125,0.9859771728515625,-0.4536285400390625
1681506768752442000,8.393442138671874,-0.0741424560546875,0.9715728759765625,-0.52630615234375
1681506768762459400,8.40345947265625,-0.03485107421875,0.9626312255859375,-0.5975494384765625
1681506768772475100,8.41347509765625,0.0088348388671875,0.962371826171875,-0.6553802490234375
1681506768782492200,8.4234921875,0.0639801025390625,0.95953369140625,-0.6954345703125
1681506768792508200,8.433508056640624,0.1107025146484375,0.950225830078125,-0.7238006591796875
1681506768802524400,8.4435244140625,0.1359710693359375,0.9378662109375,-0.7531280517578125
1681506768812541200,8.453541259765625,0.13092041015625,0.9355621337890625,-0.7721405029296875
1681506768822557200,8.46355712890625,0.1082916259765625,0.9307861328125,-0.7809600830078125
1681506768832574200,8.47357421875,0.07568359375,0.918182373046875,-0.79095458984375
1681506768842590200,8.483590087890626,0.0434112548828125,0.9069061279296875,-0.8133392333984375
1681506768852606200,8.493606201171875,0.0170745849609375,0.8984832763671875,-0.837677001953125
1681506768862623200,8.503623291015625,0.0042724609375,0.8793792724609375,-0.864532470703125
1681506768872639200,8.51363916015625,0.001678466796875,0.8573150634765625,-0.8928375244140625
1681506768882656300,8.52365625,0.0104217529296875,0.8282623291015625,-0.9144134521484375
1681506768892672300,8.53367236328125,0.0263824462890625,0.796600341796875,-0.9407196044921875
1681506768902689300,8.543689208984375,0.0388336181640625,0.7704315185546875,-0.9625091552734375
1681506768912705300,8.553705322265625,0.0230255126953125,0.7548370361328125,-0.9757080078125
1681506768922721000,8.563720947265624,-0.002197265625,0.7462615966796875,-0.981170654296875
1681506768932738300,8.57373828125,-0.0146484375,0.7409515380859375,-0.984954833984375
1681506768942754300,8.58375439453125,-0.02044677734375,0.747161865234375,-0.9836578369140625
1681506768952771000,8.59377099609375,-0.0305328369140625,0.7488861083984375,-0.970184326171875
1681506768962787000,8.603787109375,-0.0467071533203125,0.7431793212890625,-0.9573974609375
1681506768972804400,8.613804443359374,-0.0600738525390625,0.7278900146484375,-0.9544219970703125
1681506768982820400,8.6238203125,-0.0701904296875,0.7057647705078125,-0.9607696533203125
1681506768992836400,8.63383642578125,-0.0727081298828125,0.68072509765625,-0.97576904296875
1681506769002853000,8.64385302734375,-0.063079833984375,0.6563262939453125,-0.9972381591796875
1681506769012869000,8.653869140625,-0.043701171875,0.644073486328125,-1.0167388916015625
1681506769022886400,8.663886474609376,-0.0233154296875,0.6299285888671875,-1.0395355224609375
1681506769032902100,8.673902099609375,0.00042724609375,0.624359130859375,-1.059417724609375
1681506769042919000,8.6839189453125,0.0177154541015625,0.61517333984375,-1.06494140625
1681506769052935000,8.693934814453126,0.0218353271484375,0.6044464111328125,-1.06585693359375
1681506769062951700,8.70395166015625,0.0191497802734375,0.613037109375,-1.0665435791015625
1681506769072967700,8.7139677734375,0.0151519775390625,0.6280364990234375,-1.06671142578125
1681506769082984000,8.72398388671875,0.010223388671875,0.647430419921875,-1.070037841796875
1681506769093001000,8.7340009765625,0.0064239501953125,0.6657867431640625,-1.0868682861328125
1681506769103017000,8.744016845703126,0.0075225830078125,0.674591064453125,-1.1157073974609375
1681506769113033700,8.75403369140625,0.0159759521484375,0.6895294189453125,-1.1437835693359375
1681506769123050000,8.764050048828125,0.015899658203125,0.7051849365234375,-1.1622467041015625
1681506769133067000,8.77406689453125,0.00714111328125,0.7157135009765625,-1.1773681640625
1681506769143082800,8.784082763671876,0.0006866455078125,0.732452392578125,-1.19134521484375
1681506769153098800,8.7940986328125,-0.0015411376953125,0.76324462890625,-1.2175750732421875
1681506769163115800,8.80411572265625,-0.00689697265625,0.812347412109375,-1.25067138671875
1681506769173132000,8.814132080078124,-0.0085296630859375,0.8547210693359375,-1.2592620849609375
1681506769183148800,8.824148681640626,-0.00701904296875,0.902862548828125,-1.253570556640625
1681506769193164800,8.834164794921875,-0.0012359619140625,0.961700439453125,-1.24334716796875
1681506769203181800,8.844181884765625,-0.004119873046875,1.0114898681640625,-1.242584228515625
1681506769213197800,8.85419775390625,-0.0160675048828125,1.0615386962890625,-1.2630157470703125
1681506769223213800,8.8642138671875,-0.0167999267578125,1.1062774658203125,-1.292022705078125
1681506769233230800,8.87423095703125,-0.0032958984375,1.1340179443359375,-1.3235931396484375
1681506769243246800,8.884246826171875,0.0157928466796875,1.144012451171875,-1.3426666259765625
1681506769253264000,8.894263916015625,0.0238189697265625,1.1385040283203125,-1.344696044921875
1681506769263279900,8.90427978515625,0.0251617431640625,1.1263427734375,-1.3221893310546875
1681506769273297000,8.914296875,0.0145111083984375,1.1104736328125,-1.2780609130859375
1681506769283313000,8.92431298828125,-0.00457763671875,1.092864990234375,-1.2168426513671875
1681506769293330000,8.934329833984375,-0.0368499755859375,1.0809326171875,-1.1530914306640625
1681506769303346000,8.944345947265624,-0.0742950439453125,1.1000518798828125,-1.103363037109375
1681506769313362000,8.95436181640625,-0.10675048828125,1.16180419921875,-1.07806396484375
1681506769323378700,8.964378662109375,-0.120819091796875,1.2086334228515625,-1.051544189453125
1681506769333394700,8.974394775390625,-0.108795166015625,1.2248382568359375,-1.02301025390625
1681506769343412000,8.984411865234375,-0.0945587158203125,1.2235565185546875,-0.98504638671875
1681506769353428000,8.994427978515626,-0.0902862548828125,1.2025146484375,-0.9351959228515625
1681506769363444700,9.00444482421875,-0.111907958984375,1.1737060546875,-0.8822021484375
1681506769373460700,9.014460693359375,-0.1614990234375,1.1364898681640625,-0.820037841796875
1681506769383478000,9.02447802734375,-0.2175445556640625,1.0991363525390625,-0.759735107421875
1681506769393494000,9.034493896484374,-0.2758331298828125,1.0676422119140625,-0.7080078125
1681506769403509800,9.044509765625,-0.3195648193359375,1.0367279052734375,-0.6521453857421875
1681506769413526800,9.05452685546875,-0.3459930419921875,1.0080108642578125,-0.6065521240234375
1681506769423543000,9.06454296875,-0.351959228515625,0.9957733154296875,-0.5726776123046875
1681506769433559800,9.074559814453124,-0.3407745361328125,0.9773712158203125,-0.5383453369140625
1681506769443575800,9.084575927734376,-0.3029022216796875,0.94647216796875,-0.5108795166015625
1681506769453592800,9.0945927734375,-0.2611083984375,0.916656494140625,-0.48956298828125
1681506769463608800,9.10460888671875,-0.22442626953125,0.892791748046875,-0.4676055908203125
1681506769473625900,9.1146259765625,-0.2079925537109375,0.8797760009765625,-0.4462738037109375
1681506769483641900,9.124641845703126,-0.2104644775390625,0.87451171875,-0.429656982421875
1681506769493657900,9.134657958984375,-0.2210540771484375,0.8664093017578125,-0.4147796630859375
1681506769503674600,9.144674560546875,-0.232330322265625,0.8577423095703125,-0.4033966064453125
1681506769513691000,9.15469091796875,-0.2370452880859375,0.8592681884765625,-0.3964996337890625
1681506769523708000,9.1647080078125,-0.2373504638671875,0.8619842529296875,-0.38580322265625
1681506769533724000,9.174723876953125,-0.2274627685546875,0.850128173828125,-0.37548828125
1681506769543740700,9.18474072265625,-0.2150115966796875,0.8328857421875,-0.3765869140625
1681506769553757000,9.1947568359375,-0.1948394775390625,0.814300537109375,-0.3798675537109375
1681506769563774000,9.20477392578125,-0.171295166015625,0.796173095703125,-0.379364013671875
1681506769573790000,9.2147900390625,-0.1625213623046875,0.7835845947265625,-0.378082275390625
1681506769583806700,9.224806640625,-0.1729583740234375,0.7736968994140625,-0.375152587890625
1681506769593823000,9.234822998046875,-0.1949615478515625,0.7567901611328125,-0.3574676513671875
1681506769603839000,9.2448388671875,-0.2198638916015625,0.7517852783203125,-0.336273193359375
1681506769613855700,9.254855712890626,-0.2302398681640625,0.764617919921875,-0.3120880126953125
1681506769623871700,9.264871826171875,-0.227447509765625,0.792816162109375,-0.2855224609375
1681506769633889000,9.274888916015625,-0.2149810791015625,0.8188629150390625,-0.2518310546875
1681506769643905000,9.284905029296874,-0.189727783203125,0.8382110595703125,-0.2173004150390625
1681506769653921800,9.294921875,-0.165618896484375,0.85693359375,-0.198211669921875
1681506769663937800,9.304937744140625,-0.1513671875,0.865142822265625,-0.1842498779296875
1681506769673955000,9.314955078125,-0.1315155029296875,0.877166748046875,-0.1714324951171875
1681506769683970800,9.324970703125,-0.1356201171875,0.887664794921875,-0.160064697265625
1681506769693987800,9.33498779296875,-0.14434814453125,0.9049835205078125,-0.161285400390625
1681506769704003800,9.34500390625,-0.14727783203125,0.9338226318359375,-0.1638641357421875
1681506769714019800,9.355019775390625,-0.1422119140625,0.9646453857421875,-0.163726806640625
1681506769724036900,9.365036865234375,-0.1241912841796875,0.995819091796875,-0.167633056640625
1681506769734052900,9.375052978515624,-0.10076904296875,1.02667236328125,-0.175567626953125
1681506769744070000,9.38506982421875,-0.085296630859375,1.0570526123046875,-0.190826416015625
1681506769754086000,9.3950859375,-0.0743560791015625,1.081939697265625,-0.2161712646484375
1681506769764103000,9.40510302734375,-0.07086181640625,1.087432861328125,-0.2413787841796875
1681506769774119000,9.415118896484374,-0.0767059326171875,1.08111572265625,-0.2718048095703125
1681506769784136000,9.425135986328126,-0.0854034423828125,1.079833984375,-0.3177032470703125
1681506769794151700,9.435151611328125,-0.0908966064453125,1.0673828125,-0.3688507080078125
1681506769804169000,9.4451689453125,-0.0919189453125,1.036651611328125,-0.418212890625
1681506769814185000,9.45518505859375,-0.0939178466796875,0.9972991943359375,-0.4733123779296875
1681506769824201000,9.465200927734376,-0.092620849609375,0.960479736328125,-0.5345458984375
1681506769834217700,9.4752177734375,-0.0793304443359375,0.9298858642578125,-0.593780517578125
1681506769844233700,9.485233642578125,-0.06036376953125,0.9151763916015625,-0.6549835205078125
1681506769854251000,9.4952509765625,-0.0440521240234375,0.90655517578125,-0.7173004150390625
1681506769864266800,9.505266845703124,-0.0281982421875,0.897491455078125,-0.77490234375
1681506769874283800,9.51528369140625,-0.0048980712890625,0.89801025390625,-0.8241424560546875
1681506769884299800,9.5252998046875,0.0259246826171875,0.897857666015625,-0.865631103515625
1681506769894316800,9.53531689453125,0.0698699951171875,0.8995819091796875,-0.884918212890625
1681506769904332800,9.545332763671874,0.100616455078125,0.8977508544921875,-0.882354736328125
1681506769914349800,9.555349853515626,0.1010284423828125,0.8962249755859375,-0.8631134033203125
1681506769924365800,9.56536572265625,0.09234619140625,0.89208984375,-0.826263427734375
1681506769934382800,9.5753828125,0.06610107421875,0.8781890869140625,-0.7865447998046875
1681506769944398800,9.58539892578125,0.033050537109375,0.863006591796875,-0.7604827880859375
1681506769954414800,9.595414794921876,0.001953125,0.8492584228515625,-0.7415771484375
1681506769964432000,9.605431884765625,-0.02142333984375,0.8308258056640625,-0.7263336181640625
1681506769974447900,9.61544775390625,-0.0406036376953125,0.814910888671875,-0.710662841796875
1681506769984465000,9.62546484375,-0.0620269775390625,0.7967376708984375,-0.707275390625
1681506769994481000,9.63548095703125,-0.0724029541015625,0.7785797119140625,-0.722991943359375
1681506770004497700,9.64549755859375,-0.0734100341796875,0.760833740234375,-0.7494049072265625
1681506770014514000,9.655513916015625,-0.0617828369140625,0.736968994140625,-0.7854766845703125
1681506770024531000,9.665531005859375,-0.02752685546875,0.717041015625,-0.8255767822265625
1681506770034547000,9.675546875,-0.000732421875,0.6989898681640625,-0.860260009765625
1681506770044564200,9.685564208984376,0.01580810546875,0.6901092529296875,-0.8763427734375
1681506770054580200,9.695580322265625,0.0098724365234375,0.6886444091796875,-0.878448486328125
1681506770064597200,9.70559716796875,0.00408935546875,0.6932373046875,-0.88055419921875
1681506770074613200,9.71561328125,-0.0121917724609375,0.703155517578125,-0.8876495361328125
1681506770084630300,9.72563037109375,-0.0381011962890625,0.713470458984375,-0.9027099609375
1681506770094646300,9.735646240234376,-0.0654449462890625,0.7215576171875,-0.93426513671875
1681506770104663300,9.745663330078125,-0.080169677734375,0.735870361328125,-0.9830780029296875
1681506770114679300,9.75567919921875,-0.06072998046875,0.7393951416015625,-1.032257080078125
1681506770124695300,9.7656953125,-0.028656005859375,0.7180328369140625,-1.0762481689453125
1681506770134712300,9.77571240234375,-0.0011444091796875,0.693115234375,-1.1065521240234375
1681506770144728000,9.78572802734375,0.01239013671875,0.6773223876953125,-1.118927001953125
1681506770154745300,9.795745361328125,0.0032501220703125,0.662261962890625,-1.1239166259765625
1681506770164761300,9.80576123046875,-0.029571533203125,0.6663055419921875,-1.1279449462890625
1681506770174778000,9.815778076171876,-0.0732879638671875,0.67572021484375,-1.1411895751953125
1681506770184794000,9.825794189453125,-0.1025238037109375,0.6840362548828125,-1.1654205322265625
1681506770194811400,9.835811279296875,-0.107208251953125,0.6938934326171875,-1.18585205078125
1681506770204827400,9.845827392578125,-0.0894012451171875,0.6943206787109375,-1.19915771484375
1681506770214844200,9.85584423828125,-0.047821044921875,0.673736572265625,-1.2002105712890625
1681506770224860200,9.865860107421875,-0.0095672607421875,0.6691741943359375,-1.1976470947265625
1681506770234877400,9.87587744140625,0.006134033203125,0.6648101806640625,-1.185333251953125
1681506770244893400,9.8858935546875,-0.0030670166015625,0.6796722412109375,-1.1746673583984375
1681506770254910200,9.89591015625,-0.019866943359375,0.7296295166015625,-1.1772918701171875
1681506770264926200,9.90592626953125,-0.0262451171875,0.7882080078125,-1.1826324462890625
1681506770274943200,9.915943115234375,-0.029296875,0.8287200927734375,-1.1727752685546875
1681506770284959200,9.925959228515625,-0.0369873046875,0.8610382080078125,-1.1661224365234375
1681506770294976300,9.935976318359375,-0.0507659912109375,0.8979644775390625,-1.1714630126953125
1681506770304992300,9.9459921875,-0.054779052734375,0.9472503662109375,-1.17926025390625
1681506770315008300,9.95600830078125,-0.0727386474609375,0.99322509765625,-1.188446044921875
1681506770325025300,9.966025390625,-0.0960693359375,1.02874755859375,-1.2088165283203125
1681506770335041300,9.976041259765625,-0.1223602294921875,1.038665771484375,-1.2244873046875
1681506770345058300,9.986058349609374,-0.1462554931640625,1.0274200439453125,-1.2296905517578125
1681506770355074000,9.996073974609375,-0.1691741943359375,1.0053863525390625,-1.223114013671875
1681506770365091300,10.00609130859375,-0.1915740966796875,0.9947662353515625,-1.2028961181640625
1681506770375107300,10.016107421875,-0.2191314697265625,1.0066070556640625,-1.184661865234375
1681506770385124000,10.0261240234375,-0.2427215576171875,1.030853271484375,-1.17889404296875
1681506770395140000,10.03614013671875,-0.2470855712890625,1.03887939453125,-1.173370361328125
1681506770405157400,10.046157470703125,-0.2236328125,1.0419464111328125,-1.1536407470703125
1681506770415173400,10.05617333984375,-0.1895904541015625,1.0547637939453125,-1.11676025390625
1681506770425190100,10.066190185546875,-0.1650390625,1.0711517333984375,-1.0496826171875
1681506770435206100,10.0762060546875,-0.1675872802734375,1.079071044921875,-0.9691925048828125
1681506770445223400,10.086223388671876,-0.19598388671875,1.071533203125,-0.88873291015625
1681506770455239200,10.0962392578125,-0.2369842529296875,1.0718536376953125,-0.814788818359375
1681506770465256200,10.106256103515625,-0.274810791015625,1.0747833251953125,-0.7508392333984375
1681506770475272200,10.116272216796874,-0.304962158203125,1.082061767578125,-0.7214202880859375
1681506770485289200,10.126289306640626,-0.3193511962890625,1.07354736328125,-0.71087646484375
1681506770495305200,10.13630517578125,-0.294586181640625,1.03369140625,-0.704071044921875
1681506770505322200,10.146322265625,-0.2550506591796875,0.9813995361328125,-0.7020721435546875
1681506770515338200,10.156338134765624,-0.2235107421875,0.938812255859375,-0.7020721435546875
1681506770525355300,10.166355224609376,-0.1959991455078125,0.9059906005859375,-0.69085693359375
1681506770535371300,10.176371337890625,-0.199615478515625,0.881378173828125,-0.661590576171875
1681506770545388300,10.18638818359375,-0.227874755859375,0.8680572509765625,-0.62274169921875
1681506770555404300,10.196404296875,-0.25933837890625,0.8670501708984375,-0.574920654296875
1681506770565421300,10.20642138671875,-0.287841796875,0.878265380859375,-0.5247039794921875
1681506770575437300,10.216437255859375,-0.303253173828125,0.893829345703125,-0.493682861328125
1681506770585454300,10.226454345703125,-0.3017578125,0.9098968505859375,-0.4718475341796875
1681506770595470000,10.236469970703125,-0.2824859619140625,0.923919677734375,-0.4439697265625
1681506770605487400,10.2464873046875,-0.2450103759765625,0.923492431640625,-0.421875
1681506770615503400,10.25650341796875,-0.2094268798828125,0.9129638671875,-0.4084625244140625
1681506770625520000,10.26652001953125,-0.17425537109375,0.89404296875,-0.397552490234375
1681506770635536100,10.2765361328125,-0.15533447265625,0.8722381591796875,-0.4008026123046875
1681506770645553400,10.286553466796875,-0.1691741943359375,0.85931396484375,-0.4014434814453125
1681506770655569400,10.2965693359375,-0.1962432861328125,0.8531951904296875,-0.3940277099609375
1681506770665586200,10.306586181640625,-0.2262115478515625,0.8618316650390625,-0.3887481689453125
1681506770675602200,10.316602294921875,-0.25787353515625,0.8683624267578125,-0.3787078857421875
1681506770685619500,10.326619384765625,-0.2704010009765625,0.8736724853515625,-0.3725738525390625
1681506770695635200,10.33663525390625,-0.2660369873046875,0.880340576171875,-0.364013671875
1681506770705652200,10.34665234375,-0.2463226318359375,0.8796234130859375,-0.341064453125
1681506770715668200,10.356668212890625,-0.2212066650390625,0.88397216796875,-0.3156280517578125
1681506770725685200,10.366685302734375,-0.198028564453125,0.8954925537109375,-0.28485107421875
1681506770735701200,10.376701171875,-0.191925048828125,0.9114837646484375,-0.250823974609375
1681506770745718300,10.38671826171875,-0.2017974853515625,0.9268798828125,-0.21240234375
1681506770755734300,10.396734375,-0.22088623046875,0.950592041015625,-0.176025390625
1681506770765751300,10.406751220703125,-0.248199462890625,0.9707489013671875,-0.1425933837890625
1681506770775767300,10.416767333984374,-0.2663726806640625,0.9746856689453125,-0.107147216796875
1681506770785784300,10.426784423828124,-0.2668609619140625,0.98150634765625,-0.096710205078125
1681506770795800300,10.43680029296875,-0.24053955078125,0.9963531494140625,-0.0933990478515625
1681506770805817300,10.4468173828125,-0.187255859375,1.020751953125,-0.0985870361328125
1681506770815833300,10.456833251953125,-0.1139678955078125,1.03338623046875,-0.0965576171875
1681506770825850400,10.466850341796874,-0.040557861328125,1.054046630859375,-0.0975799560546875
1681506770835866000,10.4768662109375,-0.000823974609375,1.0839080810546875,-0.1069488525390625
1681506770845883400,10.48688330078125,0.0076141357421875,1.100189208984375,-0.116607666015625
1681506770855899400,10.4968994140625,0.0027313232421875,1.109039306640625,-0.1329803466796875
1681506770865916200,10.506916259765624,-0.0252532958984375,1.114105224609375,-0.16339111328125
1681506770875932200,10.51693212890625,-0.06182861328125,1.126220703125,-0.2102203369140625
1681506770885949400,10.526949462890625,-0.082916259765625,1.1361083984375,-0.261322021484375
1681506770895965400,10.53696533203125,-0.0861663818359375,1.1348876953125,-0.30078125
1681506770905982200,10.546982177734375,-0.0841064453125,1.12091064453125,-0.3283233642578125
1681506770915998200,10.556998291015624,-0.10626220703125,1.1052093505859375,-0.3648681640625
1681506770926015500,10.567015380859376,-0.152099609375,1.08465576171875,-0.411376953125
1681506770936031200,10.57703125,-0.2037811279296875,1.0593719482421875,-0.46923828125
1681506770946048300,10.58704833984375,-0.2338104248046875,1.029632568359375,-0.5347137451171875
1681506770956064300,10.597064208984374,-0.2442474365234375,1.00616455078125,-0.6011810302734375
1681506770966081300,10.607081298828126,-0.24481201171875,0.9955291748046875,-0.66876220703125
1681506770976097300,10.61709716796875,-0.223663330078125,0.989837646484375,-0.7201995849609375
1681506770986114300,10.6271142578125,-0.184661865234375,0.987518310546875,-0.75274658203125
1681506770996130300,10.63713037109375,-0.139923095703125,0.9886016845703125,-0.767730712890625
1681506771006147300,10.647147216796874,-0.10333251953125,0.9911346435546875,-0.770355224609375
1681506771016163300,10.657163330078125,-0.0757598876953125,0.9832305908203125,-0.766082763671875
1681506771026180400,10.667180419921875,-0.0646514892578125,0.9640350341796875,-0.7663421630859375
1681506771036196400,10.6771962890625,-0.059356689453125,0.9319305419921875,-0.7669677734375
1681506771046215700,10.687215576171875,-0.0629425048828125,0.891754150390625,-0.764556884765625
1681506771056232000,10.69723193359375,-0.0670928955078125,0.85455322265625,-0.765869140625
1681506771066249000,10.7072490234375,-0.072052001953125,0.8215179443359375,-0.75897216796875
1681506771076265700,10.717265625,-0.0785369873046875,0.8023529052734375,-0.750579833984375
1681506771086281700,10.72728173828125,-0.0833587646484375,0.7930145263671875,-0.745208740234375
1681506771096299000,10.737299072265625,-0.0904083251953125,0.7960968017578125,-0.743438720703125
1681506771106315000,10.74731494140625,-0.09539794921875,0.795166015625,-0.7479705810546875
1681506771116331800,10.757331787109376,-0.092315673828125,0.7956390380859375,-0.7556304931640625
1681506771126347800,10.76734765625,-0.08740234375,0.789093017578125,-0.76556396484375
1681506771136365000,10.777364990234375,-0.0821685791015625,0.775421142578125,-0.7831573486328125
1681506771146380800,10.787380859375,-0.072906494140625,0.7645416259765625,-0.8024444580078125
1681506771156397800,10.797397705078126,-0.067779541015625,0.7491912841796875,-0.8121490478515625
1681506771166413800,10.807413818359375,-0.07257080078125,0.7455291748046875,-0.828887939453125
1681506771176430800,10.817430908203125,-0.088958740234375,0.7529449462890625,-0.866729736328125
1681506771186446800,10.82744677734375,-0.099334716796875,0.7602081298828125,-0.9127044677734375
1681506771196463900,10.8374638671875,-0.1187896728515625,0.7631378173828125,-0.9546051025390625
1681506771206480000,10.84747998046875,-0.1266326904296875,0.7596588134765625,-0.9899749755859375
1681506771216497000,10.857496826171875,-0.120758056640625,0.7576141357421875,-1.0259552001953125
1681506771226513000,10.867512939453125,-0.105621337890625,0.7495880126953125,-1.0528106689453125
1681506771236530000,10.877530029296874,-0.091766357421875,0.74005126953125,-1.0751495361328125
1681506771246545700,10.887545654296876,-0.078643798828125,0.7256317138671875,-1.1077117919921875
1681506771256563000,10.89756298828125,-0.0605316162109375,0.70947265625,-1.128173828125
1681506771266580000,10.907580078125,-0.05303955078125,0.6826171875,-1.1498870849609375
1681506771276595700,10.917595703125,-0.061279296875,0.6769561767578125,-1.16680908203125
1681506771286612700,10.92761279296875,-0.0760040283203125,0.6758575439453125,-1.1758270263671875
1681506771296629000,10.93762890625,-0.0859375,0.67364501953125,-1.180206298828125
1681506771306645800,10.947645751953125,-0.0761260986328125,0.6850433349609375,-1.187408447265625
1681506771316661800,10.957661865234375,-0.0612030029296875,0.700439453125,-1.19696044921875
1681506771326678800,10.9676787109375,-0.042572021484375,0.7146148681640625,-1.2022705078125
1681506771336695000,10.977695068359376,-0.0255584716796875,0.7343902587890625,-1.2029876708984375
1681506771346711800,10.9877119140625,-0.0264129638671875,0.7514190673828125,-1.204010009765625
1681506771356727800,10.997727783203125,-0.0240478515625,0.7713775634765625,-1.20294189453125
1681506771366744800,11.007744873046875,-0.024444580078125,0.8031463623046875,-1.195404052734375
1681506771376760800,11.0177607421875,-0.0317230224609375,0.8399810791015625,-1.1839752197265625
1681506771386777900,11.02777783203125,-0.048492431640625,0.8781585693359375,-1.1811676025390625
1681506771396793900,11.0377939453125,-0.06256103515625,0.919158935546875,-1.192047119140625
1681506771406811000,11.047810791015625,-0.0616607666015625,0.961273193359375,-1.195037841796875
1681506771416828000,11.057827880859374,-0.077056884765625,0.98248291015625,-1.1887664794921875
1681506771426844000,11.067843994140626,-0.093505859375,1.0173492431640625,-1.186920166015625
1681506771436860700,11.077860595703125,-0.120269775390625,1.009490966796875,-1.193756103515625
1681506771446876700,11.087876708984375,-0.1475830078125,1.001922607421875,-1.2154388427734375
1681506771456894000,11.09789404296875,-0.1678314208984375,0.9974517822265625,-1.240386962890625
1681506771466910000,11.107909912109376,-0.1707000732421875,0.9931640625,-1.2412109375
1681506771476926700,11.1179267578125,-0.1467742919921875,1.009735107421875,-1.2137298583984375
1681506771486942700,11.127942626953125,-0.1297760009765625,1.0454559326171875,-1.1728973388671875
1681506771496960000,11.1379599609375,-0.1392822265625,1.08917236328125,-1.123504638671875
1681506771506976000,11.14797607421875,-0.1708984375,1.1322784423828125,-1.0716400146484375
1681506771516992800,11.15799267578125,-0.2014007568359375,1.1661529541015625,-1.018157958984375
1681506771527010000,11.168010009765625,-0.2339324951171875,1.1858062744140625,-0.9554595947265625
1681506771537026000,11.178026123046875,-0.2565155029296875,1.1930084228515625,-0.8937530517578125
1681506771547042800,11.188042724609375,-0.2755584716796875,1.1858673095703125,-0.8412933349609375
1681506771557058800,11.198058837890626,-0.2785797119140625,1.175079345703125,-0.8076324462890625
1681506771567075800,11.208075927734376,-0.275787353515625,1.1521453857421875,-0.7843017578125
1681506771577091800,11.218091796875,-0.26947021484375,1.1354522705078125,-0.7864227294921875
1681506771587108900,11.22810888671875,-0.2473602294921875,1.103363037109375,-0.8021697998046875
1681506771597124900,11.238124755859374,-0.2230377197265625,1.047393798828125,-0.8132476806640625
1681506771607142000,11.248141845703126,-0.208953857421875,0.99725341796875,-0.8119354248046875
1681506771617159000,11.258158935546875,-0.2146759033203125,0.968597412109375,-0.7950439453125
1681506771627175000,11.2681748046875,-0.2348480224609375,0.9539794921875,-0.7561187744140625
1681506771637191700,11.278191650390625,-0.263031005859375,0.9510955810546875,-0.705230712890625
1681506771647208000,11.2882080078125,-0.299224853515625,0.962249755859375,-0.6490936279296875
1681506771657225000,11.298224853515626,-0.3331451416015625,0.975555419921875,-0.601470947265625
1681506771667241000,11.308240966796875,-0.3549652099609375,0.98663330078125,-0.556182861328125
1681506771677257700,11.3182578125,-0.3593902587890625,0.9872283935546875,-0.518768310546875
1681506771687273700,11.328273681640624,-0.34063720703125,0.9826812744140625,-0.486114501953125
1681506771697291000,11.338291015625,-0.2987060546875,0.978424072265625,-0.4581146240234375
1681506771707307800,11.348307861328125,-0.2634124755859375,0.96844482421875,-0.439788818359375
1681506771717323800,11.35832373046875,-0.2440032958984375,0.9543914794921875,-0.4216461181640625
1681506771727341000,11.368341064453125,-0.2466583251953125,0.94000244140625,-0.4031982421875
1681506771737356800,11.378356689453126,-0.2716064453125,0.92449951171875,-0.384124755859375
1681506771747373800,11.388373779296876,-0.29736328125,0.9157562255859375,-0.3671722412109375
1681506771757389800,11.398389892578125,-0.31585693359375,0.9032745361328125,-0.3480987548828125
1681506771767406800,11.40840673828125,-0.3257598876953125,0.8841705322265625,-0.3319244384765625
1681506771777424000,11.418423828125,-0.3129730224609375,0.8679351806640625,-0.317047119140625
1681506771787439900,11.42843994140625,-0.2901153564453125,0.8545684814453125,-0.3206939697265625
1681506771797456600,11.43845654296875,-0.261199951171875,0.8516845703125,-0.3221435546875
1681506771807473000,11.448472900390625,-0.2352142333984375,0.855865478515625,-0.3137969970703125
1681506771817490000,11.458489990234375,-0.2091522216796875,0.8676300048828125,-0.2913970947265625
1681506771827506000,11.468505859375,-0.183868408203125,0.9007568359375,-0.25213623046875
1681506771837522700,11.478522705078126,-0.17669677734375,0.9315185546875,-0.2066802978515625
1681506771847539000,11.4885390625,-0.1810302734375,0.961669921875,-0.16058349609375
1681506771857556000,11.498555908203125,-0.18634033203125,0.97479248046875,-0.1175384521484375
1681506771867572700,11.50857275390625,-0.1947784423828125,0.9703521728515625,-0.0906982421875
1681506771877588700,11.518588623046876,-0.2045745849609375,0.9669189453125,-0.073089599609375
1681506771887606000,11.52860595703125,-0.205535888671875,0.976806640625,-0.0804595947265625
1681506771897621800,11.538621826171875,-0.196197509765625,1.008392333984375,-0.0907440185546875
1681506771907638800,11.548638671875,-0.1818084716796875,1.0520172119140625,-0.095458984375
1681506771917654800,11.55865478515625,-0.166595458984375,1.087066650390625,-0.1009979248046875
1681506771927671800,11.568671875,-0.138275146484375,1.1150970458984375,-0.1137237548828125
1681506771937688800,11.578688720703125,-0.1053466796875,1.13623046875,-0.13201904296875
1681506771947704800,11.588704833984375,-0.0844573974609375,1.134063720703125,-0.1501007080078125
1681506771957721900,11.598721923828125,-0.075958251953125,1.12896728515625,-0.17340087890625
1681506771967737900,11.60873779296875,-0.0799560546875,1.133026123046875,-0.2062835693359375
1681506771977755000,11.6187548828125,-0.100433349609375,1.124420166015625,-0.2392120361328125
1681506771987771600,11.628771728515625,-0.133453369140625,1.1006317138671875,-0.2616119384765625
1681506771997788000,11.638787841796875,-0.160797119140625,1.069000244140625,-0.2956390380859375
1681506772007805000,11.648804931640624,-0.17462158203125,1.037689208984375,-0.3529052734375
1681506772017821000,11.658821044921876,-0.1826171875,1.0024566650390625,-0.417205810546875
1681506772027837700,11.668837646484375,-0.18023681640625,0.98486328125,-0.48736572265625
1681506772037854000,11.67885400390625,-0.16802978515625,0.98211669921875,-0.5571136474609375
1681506772047868000,11.688867919921876,-0.1527557373046875,0.9805450439453125,-0.616180419921875
1681506772057885000,11.698885009765625,-0.1209259033203125,0.9806060791015625,-0.6795806884765625
1681506772067901200,11.708901123046875,-0.07757568359375,0.972259521484375,-0.7303924560546875
1681506772077918000,11.71891796875,-0.0376129150390625,0.9695587158203125,-0.7599029541015625
1681506772087934000,11.728933837890626,-0.0003509521484375,0.946258544921875,-0.781524658203125
1681506772097951000,11.738950927734376,0.0331878662109375,0.9299163818359375,-0.7942047119140625
1681506772107967200,11.74896728515625,0.04315185546875,0.92547607421875,-0.802734375
1681506772117984000,11.75898388671875,0.01885986328125,0.9027862548828125,-0.795928955078125
1681506772128001000,11.7690009765625,-0.0104827880859375,0.879364013671875,-0.775115966796875
1681506772138017000,11.77901708984375,-0.040557861328125,0.856719970703125,-0.7499542236328125
1681506772148034000,11.789033935546875,-0.062713623046875,0.8348236083984375,-0.7310028076171875
1681506772158050000,11.799050048828125,-0.0762786865234375,0.81549072265625,-0.7249908447265625
1681506772168067000,11.809067138671875,-0.083343505859375,0.79571533203125,-0.7199249267578125
1681506772178084000,11.819083984375,-0.0883636474609375,0.778900146484375,-0.7283782958984375
1681506772188100000,11.82910009765625,-0.0812225341796875,0.767578125,-0.7554931640625
1681506772198117000,11.8391171875,-0.05999755859375,0.757415771484375,-0.784515380859375
1681506772208132900,11.8491328125,-0.0337982177734375,0.7481689453125,-0.81353759765625
1681506772218150100,11.859150146484374,-0.0123138427734375,0.73883056640625,-0.825531005859375
1681506772228167200,11.869167236328124,0.01617431640625,0.7319183349609375,-0.8261566162109375
1681506772238183000,11.879182861328125,0.0320587158203125,0.733001708984375,-0.8240509033203125
1681506772248200000,11.889199951171875,0.0192718505859375,0.7372894287109375,-0.8265228271484375
1681506772258216200,11.89921630859375,-0.011505126953125,0.7431488037109375,-0.84576416015625
1681506772268233000,11.90923291015625,-0.0533905029296875,0.748291015625,-0.8807830810546875
1681506772278250000,11.91925,-0.098175048828125,0.758575439453125,-0.9269256591796875
1681506772288266000,11.929265869140625,-0.1195068359375,0.756378173828125,-0.97894287109375
1681506772298283000,11.939282958984375,-0.123748779296875,0.746246337890625,-1.0409393310546875
1681506772308299000,11.949299072265624,-0.1050262451171875,0.7340240478515625,-1.0883026123046875
1681506772318316000,11.95931591796875,-0.0937347412109375,0.7130279541015625,-1.12652587890625
1681506772328333000,11.9693330078125,-0.0838470458984375,0.7006378173828125,-1.1397247314453125
1681506772338349000,11.97934912109375,-0.0716094970703125,0.6780242919921875,-1.1529693603515625
1681506772348366000,11.989365966796875,-0.065216064453125,0.664337158203125,-1.1621246337890625
1681506772358382000,11.999382080078124,-0.060089111328125,0.6645965576171875,-1.1787109375
1681506772368399000,12.009399169921876,-0.0608062744140625,0.66839599609375,-1.190948486328125
1681506772378416000,12.019416015625,-0.0594635009765625,0.6757659912109375,-1.1926422119140625
1681506772388432100,12.02943212890625,-0.0565185546875,0.6897735595703125,-1.1877288818359375
1681506772398449000,12.039448974609375,-0.0497589111328125,0.7004547119140625,-1.192138671875
1681506772408465000,12.04946484375,-0.036102294921875,0.71185302734375,-1.2046051025390625
1681506772418482200,12.059482177734376,-0.0149078369140625,0.716217041015625,-1.2162628173828125
1681506772428499000,12.0694990234375,-0.0061492919921875,0.720794677734375,-1.228851318359375
1681506772438515000,12.079514892578125,-0.0041961669921875,0.7323150634765625,-1.25018310546875
1681506772448532200,12.0895322265625,0.0092926025390625,0.753662109375,-1.26275634765625
1681506772458549000,12.099549072265624,0.009552001953125,0.7861328125,-1.257568359375
1681506772468565000,12.10956494140625,0.0068206787109375,0.8346710205078125,-1.23358154296875
1681506772478582000,12.11958203125,-0.0048675537109375,0.8955535888671875,-1.1963348388671875
1681506772488598000,12.129597900390625,-0.0304107666015625,0.9578704833984375,-1.1782989501953125
1681506772498615000,12.139614990234374,-0.0550079345703125,1.0096893310546875,-1.1850738525390625
1681506772508632000,12.149632080078124,-0.0720977783203125,1.0461883544921875,-1.200286865234375
1681506772518647800,12.159647705078125,-0.08624267578125,1.064239501953125,-1.21844482421875
1681506772528665000,12.1696650390625,-0.102630615234375,1.054412841796875,-1.2380828857421875
1681506772538681000,12.17968115234375,-0.12890625,1.0268096923828125,-1.254669189453125
1681506772548697900,12.18969775390625,-0.1697845458984375,1.019256591796875,-1.259857177734375
1681506772558715100,12.199715087890626,-0.198883056640625,0.98663330078125,-1.250518798828125
1681506772568731100,12.209731201171875,-0.2032928466796875,0.97735595703125,-1.212249755859375
1681506772578748000,12.219747802734375,-0.197418212890625,0.9702301025390625,-1.1561431884765625
1681506772588765000,12.229764892578125,-0.1820220947265625,0.9790496826171875,-1.102996826171875
1681506772598781200,12.23978125,-0.171142578125,1.0020751953125,-1.05389404296875
1681506772608798000,12.2497978515625,-0.1677398681640625,1.04107666015625,-1.0077056884765625
1681506772618814000,12.25981396484375,-0.1674346923828125,1.0821075439453125,-0.9662933349609375
1681506772628831000,12.2698310546875,-0.1648712158203125,1.109375,-0.9203948974609375
1681506772638848000,12.279847900390624,-0.1594696044921875,1.1168975830078125,-0.87176513671875
1681506772648864000,12.289864013671876,-0.1505889892578125,1.116485595703125,-0.8343963623046875
1681506772658881000,12.299881103515625,-0.1483001708984375,1.10284423828125,-0.801513671875
1681506772668897000,12.30989697265625,-0.16937255859375,1.08660888671875,-0.774261474609375
1681506772678914000,12.3199140625,-0.2221832275390625,1.0639801025390625,-0.7611236572265625
1681506772688931000,12.32993115234375,-0.2761688232421875,1.0369720458984375,-0.75738525390625
1681506772698947000,12.339947021484376,-0.315399169921875,1.0052947998046875,-0.7487640380859375
1681506772708964000,12.349964111328125,-0.3420867919921875,0.9781036376953125,-0.7324981689453125
1681506772718981000,12.359981201171875,-0.3509063720703125,0.9572601318359375,-0.7123870849609375
1681506772728997000,12.3699970703125,-0.354156494140625,0.94842529296875,-0.6815185546875
1681506772739014000,12.380013916015624,-0.350250244140625,0.9443817138671875,-0.64984130859375
1681506772749031200,12.39003125,-0.348236083984375,0.942962646484375,-0.6092987060546875
1681506772759047000,12.400046875,-0.3483428955078125,0.945587158203125,-0.566619873046875
1681506772769064000,12.41006396484375,-0.34686279296875,0.949188232421875,-0.5287017822265625
1681506772779080000,12.420079833984374,-0.3430938720703125,0.950439453125,-0.4938812255859375
1681506772789097000,12.430096923828126,-0.332489013671875,0.945465087890625,-0.46258544921875
1681506772799114000,12.440114013671876,-0.322723388671875,0.9380950927734375,-0.4404296875
1681506772809130000,12.4501298828125,-0.3115386962890625,0.925872802734375,-0.4187164306640625
1681506772819147000,12.46014697265625,-0.2933807373046875,0.913330078125,-0.404876708984375
1681506772829164000,12.4701640625,-0.2921295166015625,0.898529052734375,-0.3839569091796875
1681506772839180000,12.480179931640626,-0.2946014404296875,0.8869781494140625,-0.3646087646484375
1681506772849196800,12.49019677734375,-0.2938385009765625,0.872161865234375,-0.345245361328125
1681506772859214000,12.500214111328125,-0.2879486083984375,0.8624114990234375,-0.325042724609375
1681506772869230000,12.51022998046875,-0.2811126708984375,0.85504150390625,-0.301544189453125
1681506772879246800,12.520246826171874,-0.262542724609375,0.8427581787109375,-0.2822723388671875
1681506772889262800,12.530262939453126,-0.2490692138671875,0.8321685791015625,-0.2733306884765625
1681506772899280100,12.540280029296875,-0.2391815185546875,0.83441162109375,-0.2687835693359375
1681506772909297000,12.550296875,-0.229156494140625,0.834869384765625,-0.2585601806640625
1681506772919313000,12.56031298828125,-0.210205078125,0.8514862060546875,-0.239410400390625
1681506772929330200,12.570330078125,-0.199066162109375,0.879669189453125,-0.211822509765625
1681506772939347000,12.580346923828126,-0.1860198974609375,0.8928375244140625,-0.1782073974609375
1681506772949363000,12.590363037109375,-0.18206787109375,0.91357421875,-0.14959716796875
1681506772959380000,12.6003798828125,-0.1794891357421875,0.929779052734375,-0.1378173828125
1681506772969397000,12.61039697265625,-0.1733245849609375,0.9334564208984375,-0.1189422607421875
1681506772979413000,12.6204130859375,-0.1669921875,0.93865966796875,-0.1234130859375
1681506772989430000,12.630429931640625,-0.1643829345703125,0.9646453857421875,-0.1467132568359375
1681506772999447000,12.640447021484375,-0.15838623046875,0.995391845703125,-0.165069580078125
1681506773009463000,12.650463134765625,-0.149169921875,1.0245819091796875,-0.1777801513671875
1681506773019480000,12.66047998046875,-0.1306304931640625,1.044281005859375,-0.172332763671875
1681506773029496800,12.670496826171876,-0.1130523681640625,1.0582275390625,-0.1652374267578125
1681506773039513000,12.68051318359375,-0.112884521484375,1.0714874267578125,-0.169403076171875
1681506773049529900,12.69052978515625,-0.1193389892578125,1.0687408447265625,-0.1782073974609375
1681506773059546600,12.700546630859375,-0.127960205078125,1.0651702880859375,-0.1926422119140625
1681506773069562600,12.710562744140624,-0.139190673828125,1.053863525390625,-0.2102508544921875
1681506773079580000,12.720579833984376,-0.159698486328125,1.041717529296875,-0.2514801025390625
1681506773089596000,12.730595947265625,-0.1688995361328125,1.0342254638671875,-0.3053741455078125
1681506773099612700,12.74061279296875,-0.1783294677734375,1.022369384765625,-0.356475830078125
1681506773109629700,12.750629638671874,-0.179840087890625,1.014434814453125,-0.406829833984375
1681506773119646000,12.76064599609375,-0.1663970947265625,1.0037689208984375,-0.457183837890625
1681506773129662700,12.770662841796875,-0.142333984375,0.9968719482421875,-0.5025634765625
1681506773139679700,12.7806796875,-0.1269073486328125,0.996826171875,-0.5484771728515625
1681506773149695700,12.79069580078125,-0.1136627197265625,1.0141448974609375,-0.60565185546875
1681506773159712800,12.800712646484374,-0.1069488525390625,1.0289459228515625,-0.6689910888671875
1681506773169729800,12.810729736328126,-0.0911712646484375,1.043487548828125,-0.7277374267578125
1681506773179745800,12.820745849609375,-0.071624755859375,1.04913330078125,-0.7680511474609375
1681506773189762800,12.8307626953125,-0.0495147705078125,1.0385284423828125,-0.780364990234375
1681506773199779800,12.84077978515625,-0.033294677734375,1.036712646484375,-0.769195556640625
1681506773209795800,12.8507958984375,-0.024566650390625,1.022491455078125,-0.745635986328125
1681506773219812600,12.8608125,-0.0392913818359375,0.997039794921875,-0.720123291015625
1681506773229830000,12.870829833984375,-0.07403564453125,0.960174560546875,-0.7031402587890625
1681506773239845600,12.880845703125,-0.1142730712890625,0.923828125,-0.69921875
