time,seconds_elapsed,z,y,x
1681506760388861200,0.029861083984375,0.3718032681137323,0.14856442157030106,-0.24826496858727184
1681506760398878200,0.039878173828125,0.469205657723546,0.02204699663519859,-0.19103008298650384
1681506760408894000,0.04989404296875,0.44064533367156977,-0.13344839324206112,-0.09416830305941402
1681506760418910200,0.05991015625,0.8405909926861524,-0.06544979277104139,0.15612230787025763
1681506760428926200,0.06992626953125,0.12096563602685928,-0.05140373176187277,0.24048408718639983
1681506760438942200,0.079942138671875,-0.6520464429050684,-0.07155570843070745,0.29668106284048407
1681506760448959200,0.089959228515625,-1.0090320811152458,-0.04681465040594339,0.4931502316083759
1681506760458975000,0.09997509765625,-0.8227572298318148,0.09055354662835598,0.461482991049625
1681506760468991000,0.109990966796875,-0.30477555850148197,0.06805149970203637,0.36668903037253764
1681506760479007200,0.12000732421875,-0.21112404585778713,-0.23122838399261234,-0.08380942439669743
1681506760489023200,0.130023193359375,0.18780220698118208,-0.16110241610407827,-0.42637967509496955
1681506760499039200,0.140039306640625,0.702943101927638,0.01987286746650934,-0.41062838107049465
1681506760509056000,0.150055908203125,0.7327724230021238,0.8479352179691195,-1.0547260569281875
1681506760519072000,0.160072021484375,0.5308107577651738,0.501153286126256,-0.5620334328942
1681506760529088300,0.170088134765625,0.46128246350884433,-0.22565292194783687,-0.21816563493236898
1681506760539104300,0.180104248046875,0.06972235552370548,-0.4576666110992431,0.20127054116763174
1681506760549120300,0.190120361328125,0.20989771893322468,-0.34462504606992006,0.31509540206175296
1681506760559137000,0.200136962890625,0.46784839789569377,-0.14677607684880495,0.22038115555737167
1681506760569153000,0.210153076171875,0.5984767652809619,-0.05647708950340748,0.26635237740911544
1681506760579169000,0.2201689453125,0.7138543720424175,-0.057415539397299285,0.37954219180271026
1681506760589185300,0.230185302734375,0.722339291793108,-0.0457379610851407,0.40476464013624935
1681506760599201300,0.240201171875,0.7836988926410675,0.1548322497934103,0.1541700960902497
1681506760609217300,0.25021728515625,0.6532365294724702,0.4684156763896346,-0.14651581847742198
1681506760619234000,0.260234130859375,0.7640607107132673,0.4730906824633479,-0.10902714175619184
1681506760629250000,0.27025,1.0917360832870007,-0.31867782712578774,0.3078784929528832
1681506760639266300,0.280266357421875,1.1790373501211404,-0.705979400883615,0.3993258466158062
1681506760649282300,0.2902822265625,0.6790905171751975,-1.095452181200683,0.9180482533108443
1681506760659298300,0.30029833984375,0.30815760215520854,-0.8136296282634139,1.3150142389275132
1681506760669315000,0.310315185546875,-0.04627309087514877,-0.1317766606375575,1.2553541354738176
1681506760679331000,0.3203310546875,-0.39392683711647986,0.27431816865652797,1.0303010791152716
1681506760689347300,0.330347412109375,-0.5293570518255234,0.1877943159356713,0.8520686645120382
1681506760699363300,0.34036328125,-0.6581652180463076,-0.05251490787416696,0.7393860689882189
1681506760709379000,0.350379150390625,-0.7067857488304377,-0.13468348799496888,0.5902203205239027
1681506760719395000,0.36039501953125,-0.47027124112844465,-0.14648703077435493,0.4889773298379034
1681506760729412000,0.370412109375,-0.1442477274149656,-0.24083617029339074,0.5747265083918348
1681506760739428000,0.380427978515625,0.04658405652046203,-0.25382424668222664,0.6135676591679453
1681506760749444400,0.3904443359375,-0.04214519729018211,-0.47134939175397156,0.541834548343718
1681506760759460000,0.400460205078125,-0.07415303144752979,-0.624806846062839,0.3367510978244245
1681506760769476000,0.41047607421875,0.0704535924077034,-0.3700467798352241,0.11626228064149617
1681506760779492000,0.4204921875,0.08270575573742389,-0.09869067585468291,0.015914777490496634
1681506760789509000,0.430509033203125,0.03616261574923992,-0.041864334522187706,0.11041381947477348
1681506760799525400,0.440525390625,-0.23665011678040027,-0.052613399812579155,0.40435423270445314
1681506760809541000,0.450541015625,-0.7951637049853801,-0.11633651492148638,0.561790089125
1681506760819557000,0.46055712890625,-1.2648194445639849,-0.24111323366910217,0.47253823621235785
1681506760829573000,0.470572998046875,-1.1861655945658682,-0.2364870351731777,0.4192336027326062
1681506760839590100,0.480590087890625,-0.6111971306443214,-0.031135142976045607,0.5005643437897787
1681506760849606100,0.490606201171875,-0.1264192252576351,0.17966624679863452,0.5505069169579073
1681506760859622100,0.5006220703125,0.014914076015353201,0.18067717740684747,0.5110929347299039
1681506760869638100,0.51063818359375,0.050180619707703586,0.22751287060081957,0.39132173265200104
1681506760879654100,0.520654052734375,0.0374748673915863,0.37231910868138074,0.27914131449665874
1681506760889670100,0.530670166015625,-0.1159369942098856,0.43428573551177974,0.37197577513642605
1681506760899687200,0.540687255859375,-0.22261691525280475,0.4834115854695439,0.41693318030312654
1681506760909703200,0.550703125,-0.2526227619379759,0.4991410695210099,0.39682690593954173
1681506760919719200,0.56071923828125,-0.2580506322056055,0.46323388983756303,0.32411588999386876
1681506760929735200,0.570735107421875,-0.1179974338710308,0.4020511068612337,0.06595807108674198
1681506760939751200,0.580751220703125,0.10921908413171767,0.1405988495185971,-0.25278189802244305
1681506760949767200,0.59076708984375,0.15262158800661563,-0.11730448317080736,-0.4990844074303284
1681506760959784000,0.600783935546875,0.06509995642006397,-0.10272884532958268,-0.7209658114828169
1681506760969800200,0.61080029296875,-0.2521715110391378,0.1454986042588949,-0.7595221174355596
1681506760979816200,0.620816162109375,-0.567135286077857,0.39049218649268147,-0.6227276286359876
1681506760989832200,0.630832275390625,-0.6600111381739378,0.6026385611355304,-0.3390179102452472
1681506760999848200,0.64084814453125,-0.6930956616520881,0.7615241779729723,-0.06202800162881612
1681506761009865000,0.650864990234375,-0.7508715587943792,0.805471748510003,0.20924009527470916
1681506761019881200,0.660881103515625,-0.7694546787112951,0.8663055719181895,0.4272887527639046
1681506761029898000,0.67089794921875,-0.7564864760667085,0.9111480454683303,0.5220412489194423
1681506761039914200,0.680914306640625,-0.6412579223871231,0.9373998003169893,0.4592804760366678
1681506761049930000,0.690929931640625,-0.5130746100664139,0.8314110764086245,0.3187679165620357
1681506761059946000,0.700946044921875,-0.5222679703474045,0.6402765101343393,0.07554759107846766
1681506761069963000,0.710962890625,-0.3972346464902162,0.5601660315871239,-0.20863701481502503
1681506761079979000,0.72097900390625,0.020634207227826117,0.4877969609469175,-0.06249982039164751
1681506761089995000,0.7309951171875,0.47249359335303304,0.3442953757241368,0.21626524467114358
1681506761100011000,0.741010986328125,0.7310644500404596,0.24882687678635118,0.3688411303725093
1681506761110027000,0.751027099609375,0.8782254345536231,0.11320318533182143,0.41415987966489043
1681506761120043000,0.76104296875,1.0397457838088273,-0.07948182525485753,0.3159964790873229
1681506761130060000,0.77106005859375,0.8773732016384601,-0.25328765558749433,0.2592695612750016
1681506761140076000,0.781075927734375,0.5699357304513454,-0.29928689795732494,0.1341728167927824
1681506761150092000,0.791092041015625,0.3322901728928089,-0.23889409631490707,-0.021353114353213458
1681506761160108000,0.80110791015625,0.27574703241586684,-0.23224837469011544,-0.30260444327378644
1681506761170124000,0.8111240234375,0.4744213465452194,-0.2673696646928787,-0.48722124341819434
1681506761180141000,0.82114111328125,0.6863000101625919,-0.33610300917923447,-0.5831728496978059
1681506761190157000,0.831156982421875,0.6043079556524753,-0.35525837602615357,-0.5791107878906652
1681506761200173000,0.841173095703125,0.2616711607903242,-0.2910334488749504,-0.6151948219783604
1681506761210189000,0.85118896484375,-0.04014963955879211,-0.24615239688009022,-0.5840154745344073
1681506761220205000,0.861205078125,-0.09488426930904388,-0.2628600783139467,-0.3708932040641084
1681506761230221000,0.871220947265625,0.00034837504625320433,-0.188401049657166,-0.24500450548660008
1681506761240237800,0.88123779296875,-0.05237666844725609,-0.0915367124468088,-0.2294640046685934
1681506761250253800,0.89125390625,-0.3571779459118843,-0.11661357829719782,-0.26913643690338357
1681506761260270000,0.90127001953125,-0.5344266101747751,-0.22132892126888035,-0.3751556472815573
1681506761270286000,0.9112861328125,-0.5350064558893441,-0.3148068309113383,-0.6222077694803476
1681506761280302000,0.921302001953125,-0.5174556016296148,-0.37970600406229493,-0.8770652316678315
1681506761290318000,0.931318115234375,-0.39367490818202494,-0.4631973572194576,-0.9983948056362568
1681506761300334800,0.9413349609375,0.1432078629732132,-0.5092334244683384,-0.8787848950672894
1681506761310351000,0.95135107421875,1.4852631074309348,-0.5860793482616543,-0.4008130529662594
1681506761320367000,0.9613671875,1.0084002129524945,-0.6286933321073651,-0.21571619595363734
1681506761330383000,0.971383056640625,0.48421910246014593,-0.4342527100250125,-0.5964595071744173
1681506761340399000,0.981399169921875,-0.584686724859476,-0.3126113666936755,-1.2781208246856928
1681506761350415000,0.9914150390625,-1.145311606130004,-0.24400310989171264,-1.5827850317671894
1681506761360431900,1.001431884765625,-1.4334423193007706,-0.05875409452468156,-1.720635751621425
1681506761370448100,1.0114482421875,-1.2270604995340109,0.21493395953476427,-1.6315369338460266
1681506761380464000,1.021464111328125,-0.6836603093087673,0.268228911870718,-1.1539148184981196
1681506761390480100,1.031480224609375,-0.15543898351490495,0.2470122285798192,-0.5386546761985868
1681506761400496000,1.04149609375,0.01831131723821163,0.06707037971019744,-0.2953272736113518
1681506761410513000,1.051512939453125,-0.18594108928442,-0.03923047888725996,-0.42047604054175314
1681506761420529200,1.061529052734375,-0.589371667805314,-0.22429332403242586,-0.4983496268823743
1681506761430545200,1.071545166015625,-0.7737222730278969,0.24117606977224348,-1.3393217278406022
1681506761440561200,1.08156103515625,-0.9266168327569961,0.6463783341407775,-1.8484435086280107
1681506761450577000,1.091576904296875,-0.9486153140753507,0.6710010264828801,-2.122140768907219
1681506761460593000,1.101593017578125,-0.7350356917589902,0.4295777039512992,-2.0550711198493836
1681506761470610200,1.111610107421875,-0.6676186905682087,0.29862346561253067,-1.9178905543416738
1681506761480626200,1.121626220703125,-0.8112187677294015,0.40645577156096696,-1.789197246672213
1681506761490642200,1.13164208984375,-1.129928743559122,0.5865946043074131,-1.7876294128336012
1681506761500658000,1.141657958984375,-1.224467560431361,0.5276581389531493,-1.58369323265329
1681506761510674000,1.151673828125,-0.9400006304651498,0.6360071622520684,-1.8007669806957243
1681506761520690000,1.16168994140625,-0.9718395377963781,0.9079495416879654,-1.989707105665654
1681506761530707200,1.171707275390625,-1.2485568765491246,1.014184641572833,-2.089664294324815
1681506761540723200,1.18172314453125,-1.323159989851713,0.9457564175128936,-1.811301234191656
1681506761550739000,1.191739013671875,-1.3292425246357917,1.0181363018080591,-1.7590120978973804
1681506761560755000,1.2017548828125,-0.813657393053174,1.1461053868561983,-2.4858175753191114
1681506761570771000,1.21177099609375,1.0325935739666223,1.4521183781981468,-2.0153730234503744
1681506761580787000,1.221786865234375,2.0243267297565937,0.6904255656599998,-1.627831941848248
1681506761590804200,1.23180419921875,2.6600574131548402,1.0763999824672936,-1.7975757834389805
1681506761600820000,1.241820068359375,1.9417653509259223,1.0954191557139157,-1.1346188010714948
1681506761610836000,1.2518359375,1.0493868878573178,1.0517296515911816,-0.7904469786617905
1681506761620852000,1.26185205078125,0.8427864569038153,1.3440838276758789,-0.7274803810086101
1681506761630868000,1.271867919921875,0.21800153041183948,0.9519128943160176,-0.3516698500148952
1681506761640884000,1.281884033203125,-0.4584124610304832,0.9570672083392738,-0.7803232787281275
1681506761650901000,1.29190087890625,-0.6707283470213413,1.2313514747262,-1.6017667956128716
1681506761660917000,1.3019169921875,-0.925606194409728,1.1574588477805257,-1.8886510158538816
1681506761670933000,1.31193310546875,-1.2001882746994494,1.3136182545244692,-1.883372490929067
1681506761680949000,1.321948974609375,-1.1640759278327226,1.4270900276646017,-1.6959182206027208
1681506761690965000,1.331965087890625,-0.7382792037248611,1.5542390285015106,-1.4495559803642333
1681506761700981200,1.341981201171875,-0.1587047073125839,1.6121356294140219,-0.9500961272176355
1681506761710998000,1.351998046875,0.1232218905210495,1.346250650320947,-0.32145799589622764
1681506761721014000,1.362013916015625,0.23186931224465368,1.213691607134044,-0.02532028268482536
1681506761731030000,1.372030029296875,0.25007073936760427,1.1221873356521128,0.12485829608384519
1681506761741046000,1.3820458984375,0.037330490484833716,1.1779475090578198,0.010081833553314209
1681506761751062000,1.39206201171875,-0.24501462502181529,1.2844263545706867,-0.3003559154283255
1681506761761078000,1.402078125,-0.7003817270070314,1.2936916110441088,-0.5404451763445511
1681506761771095000,1.412094970703125,-1.0908914491564035,1.3890984429225324,-0.5824998092744499
1681506761781111000,1.422111083984375,-1.0037918423742056,1.6702102172419429,-0.38275194762945175
1681506761791127000,1.432126953125,-0.7218184827893972,1.6851120182976125,0.012076112643070519
1681506761801143000,1.44214306640625,-0.3298749284446239,1.5663798404112457,0.3607707827720791
1681506761811159000,1.452158935546875,-0.004588496834039688,1.6629554238080977,0.43872569072060286
1681506761821176000,1.462176025390625,0.05937164190113544,1.5038909432724117,0.4108283606220037
1681506761831192000,1.472192138671875,-0.0597960047930479,1.1089017376214265,0.42973201773017644
1681506761841208000,1.4822080078125,-0.01272211892902851,1.1695949835151433,0.21128142837658523
1681506761851224000,1.49222412109375,-0.1157189675450325,1.2567597644880413,-0.0786160752709955
1681506761861239800,1.50223974609375,-0.4917015671700239,1.240687458348274,-0.24369382474683224
1681506761871256000,1.512256103515625,-0.7375608263224362,1.3619777962848543,-0.42895109648555513
1681506761881273000,1.522273193359375,-0.770823628976941,1.4908134350344537,-0.7722881485715508
1681506761891289000,1.5322890625,-0.2457031918078661,1.4780083139970899,-1.2241095407739282
1681506761901305000,1.54230517578125,0.580842908912897,1.1777248062178491,-1.4889612312965095
1681506761911320800,1.55232080078125,1.3618021474570035,0.8603416950777173,-1.8035045889660715
1681506761921337000,1.562337158203125,1.567423504245281,0.48188861368596553,-1.9023703291267156
1681506761931353000,1.57235302734375,0.8673007204353809,0.3935787543311715,-2.035352420031279
1681506761941370000,1.5823701171875,0.23705226784050462,0.8200891796663403,-2.7137676682934164
1681506761951385900,1.5923857421875,-0.3355576502561569,1.0195642887845635,-3.0796421308800577
1681506761961401900,1.60240185546875,-0.40762627664506434,1.1107470732271671,-3.393195746859908
1681506761971418000,1.612418212890625,0.06213058522045612,1.440168997207284,-3.670566581085324
1681506761981434000,1.62243408203125,0.8284154017239809,1.8668091864019631,-4.580935166613758
1681506761991450000,1.6324501953125,0.9287094211220741,1.6279793874949215,-4.552642261326313
1681506762001467000,1.642466796875,0.9606775077909231,1.325000649282336,-5.173309815627336
1681506762011483000,1.65248291015625,1.1769447617560624,1.7034353182345627,-5.903666409659385
1681506762021499000,1.662498779296875,0.9042121087253093,2.154963864970207,-6.107974345761537
1681506762031513900,1.672513916015625,0.6509142240047454,2.611843709605932,-6.184169112169743
1681506762041529900,1.68252978515625,1.2029916416823863,2.640786895495653,-5.187191041463613
1681506762051545900,1.6925458984375,1.7895412378042934,3.0256735170662403,-3.375113854463398
1681506762061563000,1.70256298828125,2.0325959609299895,3.2515450502008196,-0.8357815465778112
1681506762071578600,1.71257861328125,1.6738105798214673,3.77756974273324,-0.342739670714736
1681506762081595000,1.722594970703125,2.7079671653211115,4.394964558973908,-0.9305705388188361
1681506762091611000,1.73261083984375,3.3780174669504164,4.335666566830874,-0.628193858152628
1681506762101627000,1.742626953125,3.82245985481739,4.679357254660129,-0.6606406682491303
1681506762111643000,1.752642822265625,4.418462923461199,5.232660414740443,-0.6352350088357925
1681506762121659600,1.76265966796875,4.958377609658241,5.36375698415935,0.0936719709098339
1681506762131676000,1.772676025390625,4.357536453333497,5.602614840117097,0.8242009988993406
1681506762141692000,1.78269189453125,3.066044105899334,6.303965704417228,1.0449760856777428
1681506762151708000,1.7927080078125,2.38681564155817,6.977211587217449,2.763937474346161
1681506762161724000,1.802723876953125,0.9834136557340621,7.3010256081879135,3.5868735678762196
1681506762171740000,1.812739990234375,0.904818842446804,8.241431896844507,4.606445747706294
1681506762181757000,1.8227568359375,0.474683212351799,8.275802368479967,5.3022804789334534
1681506762191773000,1.83277294921875,1.1894903550744056,8.566352417752146,5.514239222049713
1681506762201789000,1.842788818359375,0.9747525026336312,8.628601076394318,5.692845730662346
1681506762211805000,1.852804931640625,1.1994888942584394,8.8242189255625,5.962261221969127
1681506762221821000,1.862821044921875,1.5235226954594254,9.036501493805646,5.465653762578964
1681506762231836700,1.872836669921875,1.5994479972764848,9.366672190326451,5.439441462957859
1681506762241854000,1.88285400390625,0.41161680758595465,9.69760276530385,4.92958406137228
1681506762251870000,1.892869873046875,-1.6557845092654226,9.648772975683212,4.4514141759485
1681506762261886000,1.902885986328125,-3.2945991790294644,9.81824925237894,4.516496012189984
1681506762271902000,1.91290185546875,-4.200973434224725,9.86597312658429,4.514080767741799
1681506762281917700,1.922917724609375,-4.378810712030529,9.959565602517127,4.224288258838653
1681506762291933700,1.93293359375,-3.8014541839286684,9.712350837102532,3.3861236165165898
1681506762301951000,1.942950927734375,-3.2164632154256103,9.580561609244347,2.244866838735342
1681506762311967000,1.952967041015625,-3.315436215353012,9.75871803600192,0.9260124371230601
1681506762321983000,1.96298291015625,-4.449806448490917,9.762180743676424,-0.33066695560514925
1681506762331998700,1.972998779296875,-6.40058892634809,9.68363386118412,-1.3596066832393408
1681506762342014700,1.9830146484375,-7.96443340306282,9.40354616921544,-2.232339365595579
1681506762352030700,1.99303076171875,-8.64894652980864,9.044280311113596,-2.9718787985146045
1681506762362048000,2.003048095703125,-8.439887015265226,8.718871714428067,-3.2700954368919133
1681506762372064000,2.01306396484375,-7.57792824037969,8.747881535813212,-3.2609692966282364
1681506762382079700,2.023079833984375,-6.326605406248569,8.797312798458337,-3.321879400143027
1681506762392095700,2.033095703125,-5.168695015308261,8.602415664780139,-3.5708529919236898
1681506762402111700,2.04311181640625,-4.465725025373697,8.456671561327576,-3.916719270226359
1681506762412129000,2.05312890625,-4.55796257956624,8.428189563208818,-4.6595343638151885
1681506762422144800,2.063144775390625,-5.375763063773513,8.301300966873765,-5.583722508120537
1681506762432160800,2.073160888671875,-6.816290372899174,8.097519100472331,-6.455314788269996
1681506762442176800,2.0831767578125,-8.561806591016053,7.517215705263614,-6.870400733271241
1681506762452192800,2.09319287109375,-9.418020684769749,6.8432724878489966,-6.974181425741315
1681506762462208800,2.103208740234375,-9.482423306575416,6.175783561140299,-6.62552756254673
1681506762472225800,2.113225830078125,-8.966956248414515,5.227144281667471,-5.93760082796514
1681506762482241800,2.12324169921875,-7.961788441511988,4.350938370242715,-5.170023633563519
1681506762492257800,2.1332578125,-6.687765699794888,3.7467362130522726,-4.444807909551263
1681506762502273800,2.143273681640625,-5.272112719684839,3.3608851303637026,-3.819443137344718
1681506762512289800,2.153289794921875,-4.222116175496578,3.147169314447045,-3.3355829313248395
1681506762522306000,2.16330615234375,-3.807976571434736,3.1357845816016194,-3.2996032709270713
1681506762532322800,2.17332275390625,-4.449515648850799,3.118142541927099,-3.81028192576766
1681506762542338800,2.1833388671875,-5.998631927511096,2.839902523651719,-4.519753552681207
1681506762552354800,2.193354736328125,-7.604211267149448,2.306051667538285,-5.329806199240684
1681506762562370800,2.203370849609375,-8.969716945299506,1.5900924321711063,-6.245285551911592
1681506762572386800,2.21338671875,-9.889375044959783,0.663462739932537,-7.148669977641105
1681506762582403000,2.223403076171875,-10.07569490442872,-0.33981706126630307,-7.980292066451907
1681506762592419800,2.233419921875,-9.231603794667125,-1.4249293424993752,-8.363055119997263
1681506762602435800,2.243435791015625,-7.93683111038804,-2.3837948324322698,-8.259169798108935
1681506762612451800,2.253451904296875,-6.564424566808342,-2.8378368232935665,-7.940511260205507
1681506762622467800,2.2634677734375,-5.514616238668561,-2.9630758988559243,-7.5990452626883975
1681506762632483800,2.27348388671875,-4.755152792617678,-3.078763302218914,-7.433890356323123
1681506762642499800,2.283499755859375,-4.451631033569574,-3.2830788371056316,-7.4812559186100955
1681506762652516900,2.293516845703125,-4.7823944352865215,-3.700585287252068,-7.926257109403609
1681506762662532900,2.303532958984375,-5.128653512299061,-4.311772481024265,-8.63061300073862
1681506762672548900,2.313548828125,-5.514637865978479,-4.887684947797656,-9.58368763231039
1681506762682564900,2.32356494140625,-5.78478167155981,-5.454726125851273,-10.559543420010804
1681506762692580900,2.333580810546875,-5.416883009669184,-5.940778873479366,-11.124527081012726
1681506762702598000,2.343597900390625,-4.865360303264856,-6.15151655036807,-11.209551635086536
1681506762712614000,2.35361376953125,-4.309560065671802,-6.183636028206348,-11.000537128728627
1681506762722630000,2.3636298828125,-3.6406577650338408,-5.955424069425463,-10.666458318853378
1681506762732645600,2.373645751953125,-3.135771137598157,-5.656988235339522,-10.282135176384449
1681506762742662000,2.383661865234375,-2.7035376584410664,-5.43177312028706,-10.000265861696004
1681506762752678000,2.393677978515625,-2.387595393759012,-5.141161111694574,-9.816458277308941
1681506762762695000,2.40369482421875,-2.4666882196962834,-4.72769663041532,-9.636759881806373
1681506762772711000,2.4137109375,-2.7609277711361644,-4.429411018455029,-9.512345566630364
1681506762782726700,2.4237265625,-2.983298602673411,-4.0117952627152205,-9.474055875724554
1681506762792743000,2.433742919921875,-3.21234233610332,-3.6687984023690223,-9.385353509920835
1681506762802759000,2.443759033203125,-3.2480729901760816,-3.4213837304681536,-9.472809090533852
1681506762812776000,2.45377587890625,-2.903444729235768,-3.1324276723891495,-9.47245896192193
1681506762822792000,2.4637919921875,-2.342500114491582,-2.8279987353682516,-9.206467599844933
1681506762832807700,2.4738076171875,-1.783223725220561,-2.4089953246623277,-8.769567882442473
1681506762842823700,2.48382373046875,-1.2566793927282094,-1.8956857367962598,-8.191998880633712
1681506762852840000,2.49383984375,-0.698642116798088,-1.3214204527080058,-7.526899479410051
1681506762862856000,2.50385595703125,-0.1666739326260984,-0.7416554021596908,-6.818445505106449
1681506762872872700,2.513872802734375,0.16333426680937407,-0.19485621714591977,-6.178402803727984
1681506762882888700,2.523888671875,0.3507774312198162,0.37426059813797474,-5.592908269616961
1681506762892904700,2.53390478515625,0.5020410287462175,0.8872738334059714,-4.994854698184132
1681506762902921000,2.5439208984375,0.5166583137720823,1.2335562912940978,-4.410439191481471
1681506762912937000,2.55393701171875,0.6236163211040199,1.554702554360032,-3.876978211468458
1681506762922953700,2.56395361328125,0.8899725709706544,1.8888322176396846,-3.3834687180936336
1681506762932969700,2.5739697265625,1.0731376196704805,2.166732044175267,-2.9945886429727078
1681506762942985700,2.58398583984375,0.9844925370119512,2.39623404276669,-2.6121096670657393
1681506762953002000,2.594001953125,1.1286918952405451,2.651109552067518,-2.2682973986834285
1681506762963018000,2.60401806640625,1.3095171028159558,2.8869997903913256,-1.8024790453106163
1681506762973034000,2.614033935546875,1.2812263894855975,3.1352555892914533,-1.1595277630090712
1681506762983050800,2.62405078125,1.0708410331659017,3.3539030163913965,-0.4752934532046318
1681506762993066800,2.634066650390625,0.9456254846096038,3.7861663061648607,0.07639759550392627
1681506763003082800,2.644082763671875,0.9598926410235464,4.230958822643757,0.6405225938498973
1681506763013099000,2.65409912109375,1.0396898158378898,4.627568030712008,1.231526831293106
1681506763023115000,2.664114990234375,1.0904910516619681,5.008978500604629,1.8206945009589195
1681506763033135000,2.674135009765625,1.0880218850694596,5.334720274767279,2.3950924715161324
1681506763043152100,2.684152099609375,1.18262353804484,5.643972686421871,3.0345056428194046
1681506763053168000,2.694168212890625,1.28763742557168,6.011805297338962,3.7242122465550898
1681506763063184100,2.70418408203125,1.2520575781464576,6.221179869180918,4.483367065048218
1681506763073200000,2.7142001953125,1.0798119098026304,6.376970150351524,5.383682750856876
1681506763083216100,2.724216064453125,0.6591529869746416,6.565072801584005,6.2743812980145215
1681506763093233200,2.734233154296875,0.25037929386012253,6.7067141458928585,7.074813883313536
1681506763103249200,2.744249267578125,-0.1125900218695402,6.758581111252307,7.601866749849915
1681506763113265200,2.75426513671875,-0.2916694086909294,6.695896983802318,7.6978160180419675
1681506763123281000,2.764281005859375,-0.34553083580322563,6.557265342703461,7.6040715664178125
1681506763133297200,2.774297119140625,-0.48165538945198055,6.237565771314501,7.442405086690187
1681506763143314200,2.784314208984375,-0.5670037686526775,5.727516062027216,7.291390933880209
1681506763153330200,2.794330078125,-0.5404577070325612,5.174012410938739,7.093503970736265
1681506763163346200,2.80434619140625,-0.5444301177948713,4.681354273696243,6.942603799694776
1681506763173362000,2.81436181640625,-0.6128413907200098,4.258815674601495,6.838115835738182
1681506763183378200,2.824378173828125,-0.7582885570526122,3.8040605670347807,6.807447141230106
1681506763193394200,2.834394287109375,-0.8542278883725404,3.40359848293066,6.727189947688579
1681506763203411200,2.8444111328125,-1.0343407098948956,3.0867800199359654,6.466288602226972
1681506763213427000,2.854427001953125,-0.9610147769212722,2.8583582177966833,6.155343999701738
1681506763223443000,2.86444287109375,-0.5532897160768508,2.6081220587342977,5.9163820988476274
1681506763233459000,2.874458984375,0.03380871870000846,2.5032833816438913,5.6237400457322595
1681506763243475200,2.88447509765625,0.5622878460466861,2.3808880050748584,5.404672931915521
1681506763253492200,2.8944921875,0.9631681555628776,2.3728034828186035,5.253314495712519
1681506763263508000,2.904508056640625,1.1552245128571987,2.420651275664568,5.0933711865156885
1681506763273524000,2.91452392578125,1.1156792689323425,2.4610288787603376,4.9807723968178035
1681506763283540000,2.9245400390625,0.8633435072422027,2.514555301764607,4.814303485244512
1681506763293556200,2.93455615234375,0.5737748702228069,2.4823423004239795,4.6169905225962395
1681506763303573200,2.9445732421875,0.32564298996329305,2.286487719890475,4.37543392907381
1681506763313589000,2.954589111328125,0.07840659723877906,2.138485023856163,3.934233884128928
1681506763323605000,2.96460498046875,-0.13178864333629609,2.12838214751482,3.3357992044240232
1681506763333621000,2.97462109375,-0.39294367129802704,2.0386013388246296,2.7955969334572552
1681506763343637000,2.984636962890625,-0.6232604934036732,1.8758949946552514,2.267388467144966
1681506763353653200,2.9946533203125,-0.8150888871610165,1.6651643320292233,1.7576105605363845
1681506763363670000,3.004669921875,-0.9695710083425044,1.4139637118488548,1.3413731074124573
1681506763373686000,3.01468603515625,-1.1489023240983485,1.126614504444599,0.837781195962429
1681506763383702000,3.024701904296875,-1.292098496633768,0.7247106970995664,0.19893091923892497
1681506763393718000,3.034718017578125,-1.2829881384611128,0.3680500530600548,-0.4719505725175142
1681506763403734300,3.044734375,-1.2708078713238238,-0.03458031499385834,-0.994148984760046
1681506763413751000,3.0547509765625,-1.2514555206000804,-0.36910336150526996,-1.431162683930993
1681506763423767000,3.06476708984375,-1.2467349218189716,-0.6908867534309625,-1.7555197257369755
1681506763433783000,3.074782958984375,-1.1760323230862617,-1.018724038568139,-2.04326348541677
1681506763443799000,3.084799072265625,-1.1731120517253875,-1.285453651791811,-2.324323821809888
1681506763453815300,3.094815185546875,-1.1024971312761307,-1.4580302325904368,-2.6000954041451214
1681506763463832000,3.10483203125,-1.0016507386922835,-1.6108412056893109,-2.886256863069534
1681506763473848000,3.11484814453125,-0.9662567692279815,-1.7353075433135032,-3.1266333068966863
1681506763483864000,3.124864013671875,-0.9246540082514285,-1.758521830162406,-3.363217372703552
1681506763493880000,3.134880126953125,-0.8967185380995273,-1.771507568463683,-3.718269412502646
1681506763503896000,3.14489599609375,-0.7839490680098533,-1.8239444426655769,-4.141690639650822
1681506763513913000,3.1549130859375,-0.6512228515624999,-1.9803268445104358,-4.5448631517574185
1681506763523929000,3.16492919921875,-0.6312777956426143,-2.199007589358091,-4.819563597729802
1681506763533945000,3.174945068359375,-0.7725275102853775,-2.387565583142638,-5.039920751357078
1681506763543961000,3.184961181640625,-0.8944891716122627,-2.567331783184409,-5.301374470004439
1681506763553977000,3.19497705078125,-0.9766706112146377,-2.6155828961342573,-5.59686489828825
1681506763563994000,3.204994140625,-1.0038532171726227,-2.524589204522967,-5.980470832398534
1681506763574010000,3.215010009765625,-1.0713701716065407,-2.385208206361532,-6.379487101608515
1681506763584026000,3.225026123046875,-1.0615443586409092,-2.313002801850438,-6.654710402411222
1681506763594042000,3.2350419921875,-0.9603285482227801,-2.320223985275626,-6.918567675068974
1681506763604058000,3.24505810546875,-0.8405366321504115,-2.3206804968714714,-7.248920157897472
1681506763614075100,3.2550751953125,-0.7420353413879871,-2.31710205386281,-7.624905680131912
1681506763624091100,3.265091064453125,-0.7424129425287246,-2.1981179470419883,-8.014384305667877
1681506763634107100,3.275107177734375,-0.7690981203585863,-1.9520856694102287,-8.423253860372304
1681506763644123100,3.285123046875,-0.8575228382647037,-1.7062410233050584,-8.843226992893218
1681506763654140000,3.295139892578125,-0.8162368881523608,-1.4536089090168476,-9.096312111645936
1681506763664156200,3.30515625,-0.6722288147121668,-1.0493868878573178,-9.300250629913807
1681506763674172200,3.315172119140625,-0.40571313650012014,-0.3667804715156555,-9.544691838961839
1681506763684188200,3.325188232421875,-0.15263505027638746,0.4588403310537338,-9.81373674339056
1681506763694204200,3.3352041015625,0.0344990664511919,1.2391051575928926,-10.145347701847554
1681506763704221000,3.345220947265625,0.2707639833062887,1.835788609716296,-10.36947093001008
1681506763714237200,3.3552373046875,0.3567781329393387,2.075507466417551,-10.479620572990179
1681506763724253200,3.365253173828125,0.15186465042578057,1.8040134152710436,-10.405728822827339
1681506763734269200,3.375269287109375,-0.33074528153836724,1.1332435671955345,-10.435974323487281
1681506763744285200,3.38528515625,-0.7783896803170443,0.368801163688302,-10.456582227230072
1681506763754302000,3.395302001953125,-1.1824801840513943,-0.26562486685216424,-10.232999097293614
1681506763764318000,3.40531787109375,-1.7568980283528566,-0.8252356026440858,-9.797635503417252
1681506763774334200,3.415334228515625,-2.370584637725353,-1.0280483317524194,-9.215459884595871
1681506763784350200,3.42535009765625,-2.829919474297762,-0.7749819177001714,-8.51086317024231
1681506763794366200,3.4353662109375,-2.9752877301752565,-0.421204135620594,-7.604689406055211
1681506763804383000,3.445383056640625,-2.6994758158296346,0.1512502996534109,-6.631022068309783
1681506763814399000,3.45539892578125,-2.079092923688888,0.6548784514605999,-5.561120800212025
1681506763824415200,3.465415283203125,-1.4575135152399539,1.0373176798790693,-4.483288739114999
1681506763834431200,3.47543115234375,-0.7914514064639806,1.3028180435687302,-3.469907230618596
1681506763844447200,3.485447265625,-0.19344393919520078,1.5240069718450306,-2.568260588467121
1681506763854464000,3.495464111328125,0.30574184625037015,1.7515227650552987,-1.8198212252557278
1681506763864480000,3.50547998046875,0.5807704281985759,1.9486679699212313,-1.3361597566783427
1681506763874496300,3.515496337890625,0.6931786637604236,2.1007225716948508,-0.9879472075104713
1681506763884512300,3.52551220703125,0.5489537326991558,2.1753420516103503,-0.7931827603012322
1681506763894529000,3.535529052734375,0.3553969077140093,2.2343559661149976,-0.5918184764355421
1681506763904545000,3.545544921875,-0.0019967267751693726,2.3550427852004767,-0.33283319372832776
1681506763914561000,3.55556103515625,-0.40860074770040805,2.5196073244571684,0.07696750434637069
1681506763924577000,3.565576904296875,-0.689812913654372,2.695259659439325,0.5596458071053028
1681506763934593300,3.57559326171875,-0.7952794403195381,2.85614463340044,1.014322588738799
1681506763944610000,3.585610107421875,-0.7793552374135703,2.9849902090221643,1.3968530025720596
1681506763954626000,3.5956259765625,-0.658777796986699,3.1104876432597637,1.7778052073031663
1681506763964642000,3.60564208984375,-0.6195230604410171,3.247555688303709,2.1163748988568782
1681506763974658000,3.615657958984375,-0.6618762744586915,3.433615435531735,2.469187050774693
1681506763984674300,3.62567431640625,-0.7794874124258756,3.623189912882447,2.8627678509324785
1681506763994691000,3.635691162109375,-0.9953981080383062,3.8402719903618094,3.3024434627890584
1681506764004707000,3.64570703125,-1.3270347854584454,4.003692620280384,3.8053666811972855
1681506764014723000,3.65572314453125,-1.7151824546515941,4.126191749484837,4.312897101140022
1681506764024739000,3.665739013671875,-2.1077888568192717,4.152009496830404,4.691276240512728
1681506764034752500,3.67575244140625,-2.392494856238365,4.056159597359597,4.951383220726251
1681506764044768500,3.6857685546875,-2.5025047984868287,3.9756773628905413,5.124039296501874
1681506764054784500,3.695784423828125,-2.4043776017338034,3.880506970116496,5.30853427863121
1681506764064800800,3.70580078125,-2.2941782743930816,3.758736155186593,5.499804453983902
1681506764074816800,3.715816650390625,-2.1187258458971976,3.7242049400314685,5.632184633472561
1681506764084833500,3.72583349609375,-1.9126865559577941,3.676040336321294,5.747004606351256
1681506764094849500,3.735849609375,-1.7267244238853454,3.6256235697701573,5.8367217021554705
1681506764104865500,3.745865478515625,-1.5383014546573162,3.6085634216368194,5.983552431800961
1681506764114881800,3.7558818359375,-1.4781331094205379,3.725454063309729,6.215472012928128
1681506764124898600,3.765898681640625,-1.6261925040781497,3.969558880010247,6.530216592258214
1681506764134914600,3.77591455078125,-1.832745004236698,4.243768327595293,6.813430891814828
1681506764144930600,3.7859306640625,-1.9181144262254237,4.641950776329637,7.012519047442078
1681506764154946600,3.795946533203125,-1.9516648136496544,5.153294032558798,7.1110840510904785
1681506764164962600,3.805962646484375,-1.8856103329837322,5.586186852407455,7.150192657163739
1681506764174979600,3.8159794921875,-1.6750678864061832,5.7835167661905285,7.239005497604608
1681506764184995600,3.82599560546875,-1.4712404272973536,5.880373796877264,7.203997312587499
1681506764195011600,3.836011474609375,-1.2576269027113913,5.96268441581726,7.042095270538329
1681506764205027600,3.846027587890625,-1.1180863300740718,6.044486500713229,6.792662829074263
1681506764215044900,3.856044921875,-1.0263199005246162,6.22699352389574,6.518495759326219
1681506764225060600,3.866060546875,-0.9538158783931284,6.515755520707368,6.266218449825048
1681506764235076600,3.87607666015625,-0.9673007253229617,6.730229461514949,6.076632282036543
1681506764245092600,3.886092529296875,-0.9764566762030125,6.881862623006105,5.838877418884635
1681506764255109600,3.896109619140625,-0.9518798688292502,6.931942120426893,5.4620788267016405
1681506764265125600,3.906125732421875,-0.9180733877521008,6.748246764242649,5.139844768399
1681506764275141600,3.9161416015625,-0.796319816217944,6.502607285320758,4.857248308479786
1681506764285157600,3.92615771484375,-0.82601820438914,6.2070999059021466,4.499721402999758
1681506764295173600,3.936173583984375,-0.9427261829715221,5.893820138427615,4.104802047714591
1681506764305190700,3.946190673828125,-1.038420672684908,5.5101428926467895,3.679295246464014
1681506764315206700,3.95620654296875,-1.077533370411396,5.040978151455521,3.2648668885886667
1681506764325222700,3.96622265625,-1.0987667125761509,4.477720291332901,2.8897470432728527
1681506764335238700,3.97623876953125,-1.1325836419820785,4.042124934527278,2.4296897376447917
1681506764345255700,3.986255615234375,-1.1247837818861006,3.7442262760579585,1.9288906717836856
1681506764355271700,3.996271728515625,-1.0921125153839588,3.46083603541255,1.434068342244625
1681506764365287400,4.006287353515625,-0.86228552262187,3.1230384972751137,0.885266000714898
1681506764375303700,4.0163037109375,-0.5473591569840908,2.8034447243481875,0.3149310418128967
1681506764385320700,4.02632080078125,-0.21037176618576048,2.495170802336931,-0.2132078663945198
1681506764395336700,4.036336669921875,0.12047578841699287,2.187610581552982,-0.6555833848595619
1681506764405352700,4.046352783203125,0.3648421969294548,1.87772513269186,-0.9569371522188186
1681506764415368400,4.056368408203125,0.5862427221298218,1.5698691438317298,-1.0948077458173036
1681506764425385700,4.0663857421875,0.7510264570951461,1.2698404875963925,-1.182811023440957
1681506764435401700,4.076401611328125,0.7613081971347332,1.0500906522125004,-1.1002589969605208
1681506764445417700,4.086417724609375,0.6224339794516563,0.8411170623868703,-0.9370335973531008
1681506764455433700,4.096433837890625,0.37606735529899593,0.6124357325285673,-0.8421785541385411
1681506764465450800,4.10645068359375,0.2598199799656868,0.3285919028967619,-0.8117845849186182
1681506764475466800,4.116466796875,0.2396200725018978,0.019291560447216034,-1.0183598814308643
1681506764485482800,4.126482666015625,0.4918880296528339,-0.3015729630678892,-1.25695820966959
1681506764495498800,4.136498779296875,0.8882774574905633,-0.6839619226038456,-1.5484353106588125
1681506764505515500,4.146515625,1.214058979141712,-1.071561310264468,-1.7421218995034693
1681506764515531500,4.156531494140625,1.3831097239017485,-1.4148819957375525,-1.9713906738609075
1681506764525547800,4.1665478515625,1.4424679217994212,-1.7074164968252181,-2.231132327893376
1681506764535563800,4.176563720703125,1.4236124146819114,-1.9368635503590106,-2.385139232778549
1681506764545579800,4.186579833984375,1.0823235272973775,-2.093411371898651,-2.480260233452916
1681506764555596500,4.196596435546875,0.5631494313120842,-2.1154852565407753,-2.524449503791332
1681506764565612500,4.206612548828125,0.05683014072477817,-2.1187615017324686,-2.500432083866
1681506764575628800,4.21662890625,-0.41143677484393115,-2.20395264454484,-2.5449586233347654
1681506764585645600,4.2266455078125,-0.7152396889209747,-2.3250194028586146,-2.6416683545053004
1681506764595661600,4.23666162109375,-1.0004682509094476,-2.4301298826277256,-2.91682297398597
1681506764605677600,4.246677490234375,-1.065901384806633,-2.5574282288074492,-3.2854347525820136
1681506764615693600,4.256693603515625,-0.9037731327861547,-2.7683985454082487,-3.688839904400706
1681506764625709600,4.26670947265625,-0.7606815896689891,-2.992431757199764,-4.151244065415859
1681506764635726600,4.2767265625,-0.5764741923093796,-3.1980332402437925,-4.5727892695590855
1681506764645742600,4.28674267578125,-0.494071803432703,-3.3353438618719577,-4.908059627306461
1681506764655758600,4.296758544921875,-0.644689650401473,-3.331902196985483,-5.236987630289793
1681506764665774600,4.306774658203125,-0.9167021724641322,-3.259110517019033,-5.5054070962965485
1681506764675791600,4.31679150390625,-1.2696452572852372,-3.2353806818634268,-5.810002037534117
1681506764685807600,4.3268076171875,-1.443781342485547,-3.156778269791603,-6.1520484652876855
1681506764695823600,4.33682373046875,-1.4898182865172624,-3.033329584777355,-6.546634643095731
1681506764705839600,4.346839599609375,-1.4378700726151465,-2.963417844161391,-7.0329136006951325
1681506764715856600,4.356856689453125,-1.260952832263708,-2.94918999684453,-7.59531250590086
1681506764725872600,4.36687255859375,-1.191200081601739,-2.8755367316126823,-8.037889099895954
1681506764735888600,4.376888671875,-1.125253152963519,-2.548478029632568,-8.421551148107648
1681506764745905700,4.38690576171875,-0.942566681560874,-2.144044411548972,-8.825063559693097
1681506764755921700,4.396921630859375,-0.938063013466075,-1.970147395801544,-9.292643077519536
1681506764765937700,4.406937744140625,-0.8069546074789017,-1.761639669921994,-9.826519068074226
1681506764775953400,4.416953369140625,-0.5862842231839895,-1.43072078538239,-10.386160199004411
1681506764785970700,4.426970703125,-0.5721919118802994,-1.0456903714269399,-10.64146416285038
1681506764795986700,4.436986572265625,-0.7129010899055749,-0.39066754305958745,-10.619984152448177
1681506764806002700,4.447002685546875,-0.8965484422296285,0.5434650721549987,-10.651455980032681
1681506764816018700,4.457018798828125,-0.9821984347254037,1.4975620325118302,-10.740426056861876
1681506764826035700,4.46703564453125,-0.9647978756565601,2.272687158074975,-10.737941838830709
1681506764836051700,4.4770517578125,-0.9569815758824348,2.6356010172903535,-10.615125606501103
1681506764846067700,4.487067626953125,-0.8005722860306501,2.578886027377844,-10.37109356277585
1681506764856083700,4.497083740234375,-0.8544961839199066,2.163986544859409,-10.098536850833892
1681506764866100500,4.5071005859375,-1.0254559771716594,1.5302128407478333,-9.908940161651373
1681506764876116700,4.51711669921875,-1.0454420957542956,1.1052724412083625,-9.625925184059142
1681506764886132700,4.5271328125,-1.0488222397118807,0.970243208515644,-9.168487705540656
1681506764896148700,4.537148681640625,-1.1554939774483441,1.0618027173161506,-8.53512433579564
1681506764906165500,4.54716552734375,-1.317108434727788,1.365076054561138,-7.6534829553186885
1681506764916181500,4.557181396484375,-1.3550561803281307,2.025588712516427,-6.7419257445275775
1681506764926197800,4.56719775390625,-1.1791969245970249,2.7791730374008417,-5.810189669060707
1681506764936213800,4.5772138671875,-0.9437130751170217,3.4893308930128812,-4.795272037038207
1681506764946230500,4.58723046875,-0.7132428160153329,3.9100083744108676,-3.8201293660432096
1681506764956246500,4.59724658203125,-0.4174269551694393,3.8840199466735124,-2.901770074021816
1681506764966262500,4.607262451171875,-0.1592595647163689,3.6894641737788914,-2.161907400497794
1681506764976279800,4.61727978515625,-0.11886954053044319,3.458029161298275,-1.6053525451451538
1681506764986295800,4.6272958984375,-0.2619499046664685,3.2663848919361826,-1.1880530157476663
1681506764996311600,4.6373115234375,-0.6826987708002329,3.1784576021581885,-0.8542460085511208
1681506765006327600,4.64732763671875,-1.2561276040643452,3.010052169564366,-0.4578033892214298
1681506765016344600,4.657344482421875,-1.7202227869063615,2.9057810632288454,-0.09997779305577277
1681506765026360800,4.66736083984375,-2.0067396351397035,2.9759903254866598,0.3451309497654438
1681506765036376800,4.677376953125,-2.3543729231148958,3.083300361126661,0.8475275139510631
1681506765046392600,4.687392578125,-2.509667529723048,3.2370185121983286,1.4429893153250217
1681506765056409900,4.697409912109375,-2.492895843142271,3.4626761103212833,2.0231524252802133
1681506765066425900,4.70742578125,-2.4148627553910016,3.6411528550744054,2.5775322746813294
1681506765076441900,4.71744189453125,-2.2000737572848794,3.8393496148198842,3.122879507321119
1681506765086457900,4.727457763671875,-1.9930618229210375,4.0477924587696785,3.6121465408205986
1681506765096474600,4.737474609375,-1.8079829034239052,4.173610795524716,3.988656379190087
1681506765106491000,4.747490966796875,-1.6625404132664203,4.336682465875149,4.362871384620666
1681506765116507000,4.7575068359375,-1.685726643064618,4.436757581825554,4.750006077378988
1681506765126523600,4.767523681640625,-1.8132628896534442,4.448527806857228,4.986639243024587
1681506765136539600,4.77753955078125,-1.9427128609091042,4.415519563485682,5.113934666594862
1681506765146555600,4.7875556640625,-2.061575971698761,4.394080469615758,5.227814728274941
1681506765156571600,4.797571533203125,-2.1503402968227863,4.301124245759844,5.375242839291691
1681506765166588700,4.807588623046875,-2.1352911962509156,4.22105059209168,5.50665329696536
1681506765176604700,4.817604736328125,-2.1223405292630195,4.120205953073501,5.6905859690368175
1681506765186620700,4.82762060546875,-2.0961749913930894,4.026889663733542,5.875117191523313
1681506765196637700,4.8376376953125,-1.9983307032346724,4.012273986142874,6.079686408910155
1681506765206654000,4.847654052734375,-1.9159481881022453,4.062860556302964,6.303914851012825
1681506765216669700,4.857669677734375,-1.8896061246216296,4.136922402335703,6.536801815867424
1681506765226685700,4.867685791015625,-1.8123615568995475,4.234382951873541,6.6674214154243465
1681506765236702700,4.87770263671875,-1.664948643451929,4.3698602205947035,6.941212637597322
1681506765246718700,4.88771875,-1.3503238911092281,4.466599470120668,7.348412797784805
1681506765256735000,4.89773486328125,-0.9265208981018513,4.619485554282367,7.7100126517921685
1681506765266750700,4.907750732421875,-0.5754863503158092,4.824524727268517,8.07791891246736
1681506765276767700,4.917767822265625,-0.3080290073394775,4.990866505330801,8.345799449291825
1681506765286783700,4.92778369140625,-0.12658420656099914,5.203293450480699,8.424942544111609
1681506765296799700,4.9377998046875,-0.03140073510967195,5.417966128730773,8.470609485787152
1681506765306816800,4.947816650390625,-0.36114224643297493,5.661698897248506,8.392276538306474
1681506765316832800,4.957832763671875,-0.6755915691435337,6.0017918528467415,8.329494795700906
1681506765326848800,4.967848876953125,-1.0462041661679744,6.32305969646573,8.326588552865385
1681506765336864800,4.97786474609375,-1.5552642798960208,6.800757288202643,8.257211065256595
1681506765346881500,4.987881591796875,-2.1188873200692235,7.3773290956676005,8.124405938354133
1681506765356897800,4.997897705078125,-2.6332594226002692,7.982034526205062,7.917302234053611
1681506765366913800,5.007913818359375,-3.0767630683124065,8.465760292190312,7.549832026708126
1681506765376930800,5.017930908203125,-3.382443466699123,8.82472102986574,7.052178273135423
1681506765386946600,5.027946533203125,-3.4640450605869293,8.969544511342049,6.556520661816
1681506765396962600,5.037962646484375,-3.383803064614534,8.917608572399615,6.01363660441935
1681506765406978800,5.047978759765625,-3.1818916682600973,8.661185249134897,5.47672110003829
1681506765416995800,5.057995849609375,-3.0685294929742812,8.242534889650344,4.970059864145517
1681506765427011800,5.06801171875,-3.097858463311195,7.6678674545019865,4.265708648985624
1681506765437027600,5.078027587890625,-3.217305511468649,7.08838297446072,3.2222353690862655
1681506765447044900,5.088044921875,-3.296476663339138,6.429710975936055,2.128915231478214
1681506765457060900,5.098060791015625,-3.2542215759336948,5.7151581002354614,0.9321908334970473
1681506765467076900,5.108076904296875,-2.878772644793987,4.958955117285251,-0.4598369408756494
1681506765477092900,5.1180927734375,-2.061667157113552,4.2305607632368805,-1.8644231680482626
1681506765487109600,5.128109619140625,-0.9372937095940113,3.4406220994234085,-3.1358553087502714
1681506765497125600,5.138125732421875,0.4624889532217756,2.521549106174707,-4.210311755934358
1681506765507142000,5.148141845703125,2.0263503445386886,1.7072165903389454,-5.016953717267513
1681506765517158700,5.15815869140625,3.311918562620878,0.9838742589831352,-5.198323260852694
1681506765527174700,5.168174560546875,4.117745115917921,0.7238847676694393,-5.043251357084513
1681506765537190700,5.178190673828125,4.286288495677709,0.7166425414562225,-4.476996360972524
1681506765547206700,5.18820654296875,3.697369832336902,0.3876759600281715,-3.6859488591343164
1681506765557223700,5.1982236328125,2.5104946281969545,0.2561281397104263,-3.014899609595537
1681506765567239700,5.20823974609375,1.2260358326613903,0.4249333852767944,-2.3950375264585015
1681506765577255700,5.218255615234375,0.05236730696386657,0.2912392005801201,-1.801412877383828
1681506765587272700,5.228272705078125,-1.024749874728918,0.07818857057392596,-1.3787550358235836
1681506765597289000,5.2382890625,-1.6581752037942408,-0.10420447084009647,-1.2051765845060347
1681506765607304700,5.2483046875,-1.8834756590425967,-0.4059188882052898,-1.2061679336309432
1681506765617320700,5.25832080078125,-1.7284686372041702,-0.8528530928879976,-1.272795830270648
1681506765627337700,5.268337646484375,-1.3000351348519323,-1.2472177368998527,-1.5192051245212554
1681506765637353700,5.278353759765625,-0.8386766834974289,-1.592164562270045,-1.7294377744972704
1681506765647369700,5.28836962890625,-0.6481073498904705,-1.9013520919948814,-1.9990970114320517
1681506765657386800,5.29838671875,-0.6097159521758556,-2.167007938507199,-2.3717753088146445
1681506765667402800,5.30840283203125,-0.6370996336638927,-2.279250169852376,-2.8260855952233075
1681506765677418800,5.318418701171875,-0.8290461008429527,-2.4058213708013296,-3.141100223666429
1681506765687435500,5.328435546875,-0.888431186747551,-2.655371301165223,-3.3197432648971676
1681506765697451800,5.33845166015625,-0.7675771944016218,-2.8776141224086285,-3.515696045108139
1681506765707467800,5.3484677734375,-0.6553495761036873,-3.034763416972756,-3.6977570780888196
1681506765717483800,5.35848388671875,-0.5362164162009954,-3.182757345178723,-3.923765097084641
1681506765727500800,5.368500732421875,-0.3593658113449812,-3.244810188987851,-4.274455726803839
1681506765737516500,5.3785166015625,-0.3653910629838705,-3.292802358740568,-4.6290983090192075
1681506765747532800,5.38853271484375,-0.41527240748405453,-3.2488509888112542,-4.9289720669537775
1681506765757549800,5.3985498046875,-0.6494213550984859,-3.1750247051000593,-5.150637380570173
1681506765767565800,5.40856591796875,-1.0271662882208823,-3.156509389722347,-5.28579871520996
1681506765777581600,5.41858154296875,-1.422658474957943,-3.0426094542980193,-5.297639959651232
1681506765787598800,5.428598876953125,-1.7806173421144484,-2.8545845444768667,-5.303383471739292
1681506765797614800,5.43861474609375,-2.007322987985611,-2.6222365088045594,-5.464089582002162
1681506765807630800,5.448630859375,-2.1141607299387455,-2.32183901925683,-5.694687559136748
1681506765817647600,5.458647705078125,-2.278649865871668,-1.9713339752376078,-6.033682782626152
1681506765827663600,5.46866357421875,-2.3684201531678437,-1.6649883909404277,-6.592006985738873
1681506765837679600,5.4786796875,-2.311380169084668,-1.5264894363105297,-7.3678294459164135
1681506765847696000,5.48869580078125,-2.039144944182038,-1.5522802956491708,-8.263968138301372
1681506765857712600,5.498712646484375,-1.6056272704333066,-1.6451760214895008,-9.105131377917528
1681506765867728600,5.508728759765625,-1.1620412071347237,-1.5635083766281603,-9.86619758298993
1681506765877744600,5.51874462890625,-0.8489864805877209,-1.260344929498434,-10.540718308031558
1681506765887762000,5.528761962890625,-0.702581282877922,-0.8029793471723794,-10.95002625415325
1681506765897778000,5.53877783203125,-0.6546154166102409,-0.19818916096091269,-11.135165379405022
1681506765907793700,5.548793701171875,-0.6567799011677503,0.46046413286328314,-11.288549768477678
1681506765917810700,5.558810791015625,-0.5114964009642601,1.1899509583234786,-11.246550701659917
1681506765927826700,5.56882666015625,-0.31412030995190143,1.8850538681447504,-11.006991419434547
1681506765937843000,5.578843017578125,-0.23896069527771321,2.260804997101426,-10.745825870078802
1681506765947858700,5.588858642578125,-0.38370471830964087,2.275934177172184,-10.660235498815775
1681506765957875700,5.598875732421875,-0.3685790819028392,1.8809838422268628,-10.751789162397383
1681506765967891700,5.6088916015625,-0.1722685377627611,1.2836919028162956,-10.78544125663042
1681506765977907700,5.61890771484375,0.003192074039578438,0.8303975154519081,-10.714379761457442
1681506765987924700,5.6289248046875,0.10483400091528892,0.5924819087803364,-10.438264480251073
1681506765997940700,5.638940673828125,0.08785181338898837,0.6955348714977503,-9.88247885570526
1681506766007956700,5.648956787109375,-0.009160115598514675,1.118791263473034,-9.146709588974714
1681506766017973800,5.658973876953125,0.02171681483276188,1.75146431286633,-8.23446614948511
1681506766027989500,5.668989501953125,0.14701141997464,2.3875082999974486,-7.17046153821051
1681506766038009300,5.67900927734375,0.2646861977625638,2.832918071591854,-6.055892276346683
1681506766048026400,5.6890263671875,0.3441063194254413,3.0551684916198254,-5.043925895345211
1681506766058042400,5.69904248046875,0.34002577211353924,3.2017537220716474,-4.157193913730978
1681506766068058400,5.709058349609375,0.19095329142324624,3.2254595918297766,-3.3860610726743934
1681506766078075400,5.719075439453125,-0.20290040739178655,3.290658916971087,-2.748729383820295
1681506766088091400,5.72909130859375,-0.6813643073260783,3.355312298667431,-2.170219886291027
1681506766098107400,5.739107421875,-1.0335580350846052,3.41154330445528,-1.6800579497784376
1681506766108123400,5.749123291015625,-1.2795634247094392,3.5376246760606764,-1.1978250526994465
1681506766118140400,5.759140380859375,-1.446317582964897,3.6701907335102555,-0.6155336985439062
1681506766128156400,5.769156494140625,-1.5423235497802494,3.7773447018057107,0.04141454492807388
1681506766138172400,5.77917236328125,-1.6024299356967209,3.8830069702386854,0.6948696855872869
1681506766148189200,5.789189208984375,-1.6573475207984447,4.087521827089787,1.3572159887105226
1681506766158205400,5.799205322265625,-1.6350848355859517,4.293602618083358,2.0354121873944995
1681506766168221400,5.809221435546875,-1.5126684162288904,4.4787487575978036,2.7353713050752875
1681506766178238500,5.819238525390625,-1.3842045334011315,4.615597606933116,3.3590105686634777
1681506766188254500,5.82925439453125,-1.366681736192107,4.703215100109577,3.863227334013581
1681506766198270200,5.839270263671875,-1.4005997878849505,4.723737663656473,4.30249436506927
1681506766208287500,5.84928759765625,-1.3922522307783365,4.668332002776861,4.6583489534229034
1681506766218303500,5.859303466796875,-1.3219295712739227,4.581454806573689,4.97441864387691
1681506766228319500,5.869319580078125,-1.3279741121351718,4.483832052211463,5.217492656224966
1681506766238336300,5.879336181640625,-1.3243605978131294,4.4170673774495715,5.4313025801658625
1681506766248352300,5.889352294921875,-1.3652993419229984,4.348834675961733,5.684478299811482
1681506766258368500,5.899368408203125,-1.4708032049238682,4.284204090619087,5.9421267809569835
1681506766268385500,5.909385498046875,-1.543745691537857,4.272741616362333,6.216977156794071
1681506766278401300,5.9194013671875,-1.559766267490387,4.2921123795256015,6.496427719902992
1681506766288417300,5.929417236328125,-1.6585153955340384,4.298180301262438,6.699018330693245
1681506766298434600,5.9394345703125,-1.8852771555066108,4.269010905401409,6.883621449372172
1681506766308450600,5.949450439453125,-2.1690788995623587,4.191307195734978,7.055495434859394
1681506766318466300,5.95946630859375,-2.3104548709332944,4.142130784633755,7.1529007470786565
1681506766328483300,5.9694833984375,-2.350922490400076,4.2083515617772935,7.187204583218693
1681506766338499300,5.979499267578125,-2.304742923027277,4.341334967856109,7.277166009172797
1681506766348515600,5.989515625,-2.2157284225344656,4.548853974959254,7.417275906130671
1681506766358532400,5.999532470703125,-2.1496201658546923,4.830121816623211,7.580975937512517
1681506766368548400,6.00954833984375,-2.2162474779725074,5.099497560441494,7.79326259740889
1681506766378564400,6.019564453125,-2.446281391483545,5.291128385800123,7.941042006081342
1681506766388580400,6.029580322265625,-2.7125626764178277,5.453495707273483,8.021492091846465
1681506766398597400,6.039597412109375,-2.9035177944719788,5.570335787802934,8.059242853569984
1681506766408613400,6.04961328125,-3.007249387103319,5.731324806660413,8.019884072127939
1681506766418630400,6.05963037109375,-2.8413644128978253,6.0217351552009575,7.805369214788079
1681506766428646400,6.069646484375,-2.560854696124792,6.280429346007108,7.6459098897159095
1681506766438662400,6.079662353515625,-2.304690316057205,6.475131249374151,7.471182852885127
1681506766448678400,6.089678466796875,-2.039324392402172,6.629008390399814,7.205944355002045
1681506766458695400,6.0996953125,-1.8557997166097162,6.778482328030466,6.945398983371257
1681506766468711400,6.10971142578125,-1.7980594753026962,7.008167281973361,6.576404342937469
1681506766478728200,6.119728271484375,-1.7347639379560946,7.291602530804276,6.099076753556728
1681506766488744400,6.129744384765625,-1.7110883172057567,7.616197473019361,5.596937963524461
1681506766498760400,6.139760498046875,-1.7121300813436506,7.802113427862524,5.169804437854886
1681506766508776400,6.1497763671875,-1.8995429967463016,7.707033343720435,4.918682728129625
1681506766518793500,6.15979345703125,-2.1737457223296164,7.3534829406559465,4.5579672557413575
1681506766528809200,6.169809326171875,-2.3387539137005806,6.907875016140937,4.084457178822159
1681506766538825500,6.179825439453125,-2.572152335208654,6.392934612202644,3.739624335220456
1681506766548842500,6.189842529296875,-2.8232933341562747,5.963266599619388,3.3095401430517435
1681506766558858500,6.1998583984375,-2.8651123682320114,5.600197257581353,2.8498206910759207
1681506766568874200,6.209874267578125,-2.6484920630455013,5.338083029198646,2.231915587225556
1681506766578891500,6.2198916015625,-1.9184230537831781,4.949150347107649,1.476055134102702
1681506766588907500,6.229907470703125,-0.8226128529250621,4.473096430924534,0.79889412368536
1681506766598923500,6.239923583984375,0.19444003756046294,4.121508267843723,0.29835633910894394
1681506766608940300,6.249940185546875,0.9374632209420204,3.718532447353005,-0.09511749354302883
1681506766618956300,6.259956298828125,1.4046294817924498,3.2926895460158585,-0.349226110124588
1681506766628973600,6.2699736328125,1.6758207506000995,2.902942040410638,-0.41130408837497234
1681506766638989600,6.279989501953125,1.6497791313707828,2.509710199820995,-0.43866555803120133
1681506766649005300,6.29000537109375,1.3572820396840573,2.147859001401067,-0.5127396790236234
1681506766659021300,6.300021240234375,0.9326666343152522,1.8127976102292536,-0.6222539467096329
1681506766669038300,6.310038330078125,0.6174877552211284,1.4518489136070012,-0.7500894685059786
1681506766679054600,6.3200546875,0.3604220423996448,1.0519289735555648,-0.8908002539664507
1681506766689071400,6.3300712890625,0.0436661232471466,0.7263882749229669,-1.1623925047904253
1681506766699087400,6.34008740234375,-0.3118073568344116,0.41908465924859045,-1.5204904881566763
1681506766709103400,6.350103271484375,-0.6645242316842078,0.11207096643149853,-1.966993900206685
1681506766719120400,6.360120361328125,-0.9450994149088859,-0.05526128397285938,-2.525477677795291
1681506766729136400,6.370136474609375,-1.153493159019947,-0.1832259851068258,-3.0483605651706456
1681506766739152400,6.38015234375,-1.113840947589278,-0.4214636633396148,-3.515306753529608
1681506766749169400,6.39016943359375,-0.9353215327382087,-0.7259989833444357,-3.963412047818303
1681506766759185400,6.400185302734375,-0.7474643806993961,-0.9421060783118009,-4.368668672722578
1681506766769201400,6.410201416015625,-0.45987785740792747,-1.1305717176377772,-4.656694464214146
1681506766779218400,6.420218505859375,-0.3242202636837959,-1.277982292997837,-4.826675183300674
1681506766789234400,6.430234375,-0.2449450669169426,-1.3376777600258587,-5.117797771763802
1681506766799250400,6.44025048828125,-0.25984219179749485,-1.388752113702893,-5.496876583838462
1681506766809267200,6.45026708984375,-0.36125440157055855,-1.5417226612776518,-5.869861170691252
1681506766819283500,6.460283447265625,-0.43787119278311726,-1.7429922525972128,-6.3111056392997495
1681506766829299500,6.470299560546875,-0.48871875196695325,-1.8755454505652187,-6.859560774827003
1681506766839316500,6.48031640625,-0.6061375091671943,-2.0258692830234764,-7.242254270267487
1681506766849332200,6.490332275390625,-0.8188087844669818,-2.1947715592235326,-7.536688467496633
1681506766859348200,6.50034814453125,-1.0176152005434036,-2.3241250843673944,-7.928691058552265
1681506766869365500,6.510365478515625,-1.0773509995818138,-2.4348422981023785,-8.460560385459662
1681506766879381500,6.520381591796875,-0.9939198521792888,-2.4950474682182073,-8.94773950676918
1681506766889397500,6.5303974609375,-0.779126762419939,-2.5460394043087957,-9.405469246232508
1681506766899414300,6.540414306640625,-0.5644891554832459,-2.6242402498424053,-9.823671277427673
1681506766909430500,6.550430419921875,-0.4772708907574415,-2.6347353403717277,-10.078375521814822
1681506766919446500,6.560446533203125,-0.4631874203473329,-2.5550369497567416,-10.34117773246169
1681506766929463300,6.57046337890625,-0.3310761209279299,-2.3352403526216743,-10.746572889053821
1681506766939479300,6.580479248046875,-0.28073185335742307,-2.084576908057928,-11.221461853110789
1681506766949496600,6.59049658203125,-0.218213127335906,-2.0481378134548662,-11.587582983934878
1681506766959512600,6.6005126953125,-0.0019727613776922225,-2.0256471647053957,-11.965514964061974
1681506766969528300,6.6105283203125,0.29555417770240455,-1.7857856846630573,-12.154928113371133
1681506766979545300,6.62054541015625,0.3163783180117607,-1.3770938246130942,-11.944548163878917
1681506766989561300,6.630561279296875,0.19498715004920958,-0.8193792778313159,-11.419997051030396
1681506766999577300,6.640577392578125,0.03896828428711742,-0.29197102198600766,-10.943144093424081
1681506767009594400,6.650594482421875,-0.027560791620612143,0.17924129938483238,-10.721388178914784
1681506767019610400,6.6606103515625,-0.019278079911135136,0.564542931497097,-10.533391910666227
1681506767029626400,6.67062646484375,0.026887458936311302,0.7295709966123104,-10.357733730465172
1681506767039639600,6.6806396484375,0.2056487927844748,0.7745715833336114,-10.241354253184795
1681506767049655600,6.690655517578125,0.41211719485614445,0.8047112855315208,-10.05408162303567
1681506767059671300,6.70067138671875,0.4566320073544979,0.9462637825131416,-10.091208115381002
1681506767069688600,6.7106884765625,0.47183016100823877,1.1275105765014886,-10.142572391915321
1681506767079704600,6.72070458984375,0.4347182086449116,1.2899386882513761,-9.886909531629085
1681506767089720600,6.730720458984375,0.2311106393644586,1.5481576627612113,-9.400520683914422
1681506767099737300,6.7407373046875,0.1695019956588745,1.9582178885549306,-8.7565365514338
1681506767109753300,6.75075341796875,0.10249357526898384,2.4554186376631257,-8.098502850812674
1681506767119770600,6.7607705078125,0.06296060630381108,2.9490158093214034,-7.357939335542917
1681506767129786400,6.770786376953125,0.012630970046855509,3.36014395660758,-6.4827288648962975
1681506767139802400,6.78080224609375,-0.15764029295146464,3.5913866613864895,-5.575746122413873
1681506767149819400,6.7908193359375,-0.3645540276378393,3.6628625825792547,-4.6702731999725104
1681506767159835600,6.800835693359375,-0.7144646128952503,3.7651457299679514,-3.7556817360520363
1681506767169851600,6.8108515625,-1.1695762788146733,4.05148312998116,-3.0867332581847906
1681506767179868400,6.820868408203125,-1.7088140886634586,4.345924341472983,-2.5928274589687583
1681506767189884400,6.830884521484375,-1.9127023380488155,4.412630564045906,-2.1033494130671024
1681506767199900400,6.840900390625,-1.8830279152750968,4.161921526774764,-1.5819143864125012
1681506767209917400,6.85091748046875,-1.7471026105254888,3.8494203424572944,-1.0949310799360275
1681506767219933400,6.860933349609375,-1.613946185967326,3.7227895202755925,-0.5774082582890987
1681506767229950500,6.870950439453125,-1.6319991445302962,3.601149345988035,0.03663023326098919
1681506767239966500,6.880966552734375,-1.855272477865219,3.5810622512489556,0.7304857733696699
1681506767249982700,6.890982666015625,-2.1319939082711934,3.7273084590047594,1.4860317537158727
1681506767259999500,6.90099951171875,-2.333960249683261,4.075098983368277,2.1948452089816333
1681506767270015500,6.911015380859375,-2.41169523127079,4.461117239317297,2.8192893592119215
1681506767280031500,6.921031494140625,-2.3924621230125425,4.821790626129507,3.4458524012923237
1681506767290048500,6.931048583984375,-2.3113965356975794,5.085062792375684,3.9055642544835805
1681506767300064500,6.941064453125,-2.052154063358903,5.222997098860144,4.227405514076352
1681506767310080500,6.95108056640625,-1.6554548389196395,5.19312803029716,4.4452030463486905
1681506767320097500,6.96109765625,-1.2824036165714263,4.993267721253633,4.650341588056087
1681506767330113500,6.971113525390625,-1.0519944400072097,4.813719840137661,4.845519876763224
1681506767340130600,6.981130615234375,-1.0136088875114917,4.683051140742004,5.051620541501045
1681506767350146600,6.991146484375,-1.3288169927001,4.650855382797122,5.281835072275996
1681506767360162600,7.00116259765625,-1.91243287345767,4.677591121770441,5.49676903181076
1681506767370179300,7.011179443359375,-2.5176842474400996,4.782073825030029,5.695415288889408
1681506767380195300,7.0211953125,-2.8790228201627728,4.908212772041559,5.925545063990354
1681506767390211600,7.031211669921875,-2.9791689555227756,4.973734753265977,6.133517367818952
1681506767400228600,7.041228515625,-2.8971032512545585,4.99603367883563,6.36776509963274
1681506767410244400,7.051244384765625,-2.7513246610105035,4.8451183102250095,6.604136983993649
1681506767420260400,7.06126025390625,-2.474541855806112,4.744673484179377,6.684038788226246
1681506767430277600,7.071277587890625,-2.1867583486378193,4.839564475490152,6.81025576891005
1681506767440293600,7.081293701171875,-2.0610474177800118,4.954812610653042,7.04655283446908
1681506767450310400,7.091310302734375,-2.1103426329553128,5.256791231912374,7.399793440932035
1681506767460326400,7.101326416015625,-2.479475220555067,5.660061066913604,7.828225774240494
1681506767470342400,7.11134228515625,-2.841567826515436,5.950166295027732,8.275992922616004
1681506767480359700,7.121359619140625,-3.0777438960433003,6.178481714183092,8.596085877236723
1681506767490375400,7.13137548828125,-3.287684285074472,6.2599114586353295,8.81358822595477
1681506767500391400,7.141391357421875,-3.3392753561019894,6.392566363412142,8.806106930288673
1681506767510408400,7.151408447265625,-3.229664642304182,6.610647388800978,8.675907601970433
1681506767520424400,7.161424560546875,-2.9444226363122463,6.892941650903224,8.47706669910252
1681506767530441500,7.17144140625,-2.436378421628475,7.144013676267862,8.212568790453671
1681506767540457500,7.18145751953125,-1.9750456892371175,7.241302668631076,7.907782710558176
1681506767550473500,7.191473388671875,-1.7816157055020332,7.302621352946757,7.6152242440730324
1681506767560490500,7.201490478515625,-1.7550199595212936,7.323381232380867,7.18674397996962
1681506767570506500,7.211506591796875,-1.889823566764593,7.346940971666574,6.608381781956553
1681506767580522500,7.2215224609375,-2.0639339330017568,7.34049427974522,5.969263794207572
1681506767590539500,7.23153955078125,-2.084763955062628,7.267728318741917,5.324798600211739
1681506767600555500,7.241555419921875,-1.9701275220572947,7.156446456861495,4.7228147035926575
1681506767610572500,7.251572509765625,-1.6286171008765697,6.931074689942598,4.224188890117406
1681506767620588500,7.261588623046875,-1.1802091703794897,6.595943740665912,3.747380356174707
1681506767630604500,7.2716044921875,-0.8988964666604995,6.230242881080508,3.2521026840835807
1681506767640621300,7.281621337890625,-0.8946282878220081,5.817581532877683,2.921528082937002
1681506767650637300,7.29163720703125,-1.125135664063692,5.354360210260748,2.492526425307989
1681506767660653600,7.301653564453125,-1.2317384282171726,4.958494514036178,1.987078072336316
1681506767670670600,7.311670654296875,-1.1462696375072001,4.499968071237206,1.6355051068246365
1681506767680686600,7.3216865234375,-0.9863666603207588,4.027818176755309,1.3187088556617497
1681506767690703400,7.331703369140625,-0.6695569651544093,3.644997840064764,1.1082844825059175
1681506767700719600,7.3417197265625,-0.34164606679175047,3.3946588051497932,1.04320966052711
1681506767710735600,7.351735595703125,-0.07640868315352127,3.2246330778777597,0.9991092375159263
1681506767720752400,7.36175244140625,0.09390811775326728,3.1052672782629727,1.033129580539465
1681506767730768400,7.371768310546875,0.14372925649881363,3.0435750844597815,1.18646077812016
1681506767740784400,7.381784423828125,0.1902507691770792,2.9919103636741635,1.3033803536266089
1681506767750801700,7.3918017578125,0.09721535173826851,2.841739675951004,1.3590847051918507
1681506767760817400,7.4018173828125,-0.0031616789013147353,2.499777419349551,1.3093752101272345
1681506767770834400,7.41183447265625,-0.19601530578685925,2.0983920829206704,1.1241554208546876
1681506767780850400,7.421850341796875,-0.3865665374815464,1.7415999214559792,0.8346446515023708
1681506767790866400,7.431866455078125,-0.6402221495985985,1.4458593178033827,0.47905894321799275
1681506767800883500,7.441883544921875,-0.8244839074939488,1.2392360904961823,-0.05267828174233436
1681506767810899500,7.4518994140625,-0.9102660019367933,1.0291320353358984,-0.7619044094622135
1681506767820916500,7.46191650390625,-0.7175215893130749,0.7595727516442536,-1.5697469787567853
1681506767830932500,7.471932373046875,-0.2804442137887701,0.39844460680186744,-2.4284248322755095
1681506767840948500,7.481948486328125,0.15623806147072464,0.03559095334112644,-3.2890672638654705
1681506767850965500,7.491965576171875,0.4101408167492598,-0.28050913225114343,-4.153001138216257
1681506767860981500,7.5019814453125,0.4103734564613551,-0.5482201577275991,-4.9486616868078706
1681506767870997500,7.51199755859375,0.07396583831235766,-0.8223287752866745,-5.659519799643754
1681506767881014500,7.5220146484375,-0.6046072308599949,-1.100023434638977,-6.374588223651051
1681506767891030500,7.532030517578125,-1.3499112186551094,-1.306076753103733,-7.025984678214788
1681506767901047600,7.542047607421875,-1.8788140969723461,-1.5320523311346768,-7.628666493970155
1681506767911063600,7.5520634765625,-2.1184517051309344,-1.8186779004395006,-8.078166165226698
1681506767921079300,7.562079345703125,-2.0753473074197766,-2.1914877152472734,-8.456302143493295
1681506767931096600,7.5720966796875,-1.809853957992792,-2.4901941829681395,-8.738097223901748
1681506767941112600,7.582112548828125,-1.2532751372426747,-2.7278835796684024,-8.892566485601662
1681506767951129300,7.59212939453125,-0.681461922481656,-3.0305308939695355,-8.966717178961634
1681506767961145300,7.602145263671875,-0.2507495154120028,-3.2241245438337325,-8.880534102502464
1681506767971161300,7.612161376953125,-0.026868717703223226,-3.3141613731116055,-8.718843072855472
1681506767981178600,7.6221787109375,0.06188157889544964,-3.294165463787317,-8.6612361025393
1681506767991194400,7.6321943359375,0.012653218411281704,-3.1809920890718697,-8.776845764490961
1681506768001211400,7.64221142578125,-0.0053331777215003965,-3.0606565676420927,-9.032711453872919
1681506768011227400,7.652227294921875,0.3896346928805113,-2.91183437191844,-9.439311894601582
1681506768021243600,7.66224365234375,0.9007137452155352,-2.9216216064393516,-9.856148482662439
1681506768031260400,7.672260498046875,1.4720647492922843,-2.99428527611196,-10.232358461302518
1681506768041277200,7.682277099609375,1.8615753774017094,-3.043340691182017,-10.466990223997831
1681506768051294200,7.692294189453125,2.0006645530097185,-3.0146196236103773,-10.576137996459007
1681506768061310200,7.702310302734375,2.014380651412159,-2.7338030328452585,-10.51676693907976
1681506768071326200,7.712326171875,1.8719759215153753,-2.059599118667841,-10.36268346182704
1681506768081343200,7.72234326171875,1.5829906373418867,-1.4497767835080624,-9.986412692910433
1681506768091359200,7.732359130859375,1.3639210393071173,-0.8345330078214407,-9.581405074331164
1681506768101376300,7.742376220703125,1.0603425816357135,-0.3696510585159063,-9.290085794252157
1681506768111392300,7.752392333984375,0.7873143066592514,0.04887421328425407,-9.156113377135991
1681506768121408300,7.762408203125,0.4844928048349917,0.46991409825384617,-8.981821224591135
1681506768131425000,7.772425048828125,0.1435441091902554,0.7196884850233792,-8.823066832917927
1681506768141441300,7.782441162109375,-0.2034285229191184,0.8018173176556825,-8.801195777371525
1681506768151458300,7.792458251953125,-0.44322059098705646,0.8159849592179059,-8.874609973150491
1681506768161474300,7.802474365234375,-0.5889173481665552,0.7380354580968618,-8.922980913087725
1681506768171490300,7.812490234375,-0.6189211490251123,0.769391550347209,-8.893253883343935
1681506768181507300,7.82250732421875,-0.46519773725643754,0.8908557835459708,-8.585421275359392
1681506768191523300,7.8325234375,-0.1544907428793609,1.2404852137744427,-8.177918332833052
1681506768201540400,7.842540283203125,0.13441373114287852,1.6078502071797847,-7.664682394725084
1681506768211556000,7.85255615234375,0.2930607169188559,1.8874790494650602,-7.034788162395357
1681506768221572000,7.862572021484375,0.3684925361305475,2.2990216227710247,-6.365392525282502
1681506768231589400,7.87258935546875,0.27063553462103007,2.6522224817454814,-5.579851804167032
1681506768241605400,7.88260546875,-0.014504326170682907,2.9097102193713185,-4.7110959164872765
1681506768251622100,7.8926220703125,-0.5622821469582617,3.1493764691025015,-3.8438615392863746
1681506768261638100,7.90263818359375,-1.2508512710966169,3.4479134254753587,-3.1894629802972077
1681506768271654100,7.912654052734375,-1.925900257796049,3.7187650870651003,-2.8209172526746986
1681506768281671200,7.922671142578125,-2.2380384540200233,3.6010622522264715,-2.5604250725358724
1681506768291687200,7.932687255859375,-2.198185167059302,3.2555396727949377,-2.314344864109158
1681506768301704200,7.9427041015625,-2.1667811440140006,2.9175860673129557,-2.03140178270936
1681506768311720200,7.95272021484375,-2.118044293373823,2.721830855500698,-1.5943956823229788
1681506768321736400,7.962736328125,-2.082030730706453,2.6560247966378925,-0.9359937329113482
1681506768331753200,7.972753173828125,-2.2410312060952187,2.7118536513656375,-0.1824345424681902
1681506768341769200,7.982769287109375,-2.5359429577082393,2.8046523465722797,0.5548223324716091
1681506768351786200,7.9927861328125,-2.8198540073573586,3.0749726777642965,1.328995856398344
1681506768361802200,8.00280224609375,-3.02103065969646,3.426868299359083,2.095196501749754
1681506768371818200,8.012818359375,-3.1206893038004635,3.6523891193598508,2.841312390449643
1681506768381835300,8.022835205078126,-3.0308482893556357,3.828248959612846,3.4221792647600173
1681506768391851300,8.032851318359375,-2.8169074325114485,4.012791872537136,3.833704886931181
1681506768401868300,8.042868408203125,-2.609109900727868,4.1189755344957115,4.138702563750743
1681506768411884300,8.05288427734375,-2.3623352802962065,4.102064147183299,4.353560535439849
1681506768421900300,8.062900390625,-2.144904243248701,4.049718458396196,4.487888926386833
1681506768431917300,8.072917236328125,-2.0110498995542523,4.082895920854806,4.566518226465583
1681506768441933000,8.08293310546875,-2.0026830532252786,4.101464719985425,4.606357484900951
1681506768451950300,8.092950439453125,-2.151586497491598,3.997748032662272,4.6237715610384935
1681506768461966300,8.10296630859375,-2.2513071009159087,4.0032194498106835,4.6477755369603635
1681506768471982300,8.112982421875,-2.4189935715854167,4.063081797838211,4.719395835059881
1681506768481999000,8.1229990234375,-2.5140029285788534,4.087544915704429,4.847983052006364
1681506768492015000,8.13301513671875,-2.5435914266347885,4.103848984773457,5.033298118346929
1681506768502032400,8.143032470703124,-2.5824866822183132,4.134880375114083,5.27166439139545
1681506768512048000,8.153048095703125,-2.6743933970212934,4.226577538819611,5.481096246382593
1681506768522065200,8.163065185546875,-2.7089515001833435,4.483573985797166,5.5907315100997685
1681506768532081200,8.1730810546875,-2.5595629027485844,4.83603425553739,5.777777930277586
1681506768542097400,8.183097412109374,-2.2735458207309245,5.4140819807738065,6.038818391948938
1681506768552114200,8.1931142578125,-1.890140377628803,5.912957385095954,6.438302863192558
1681506768562130200,8.203130126953125,-1.5479869823694228,6.393467696166038,6.990262207448482
1681506768572147200,8.213147216796875,-1.474120951169729,6.791381557092071,7.589128264307975
1681506768582163500,8.22316357421875,-1.6018670411169529,6.95841160967946,8.067700885313748
1681506768592180200,8.23318017578125,-1.9304957688927649,7.022776822084188,8.534784144055843
1681506768602196200,8.2431962890625,-2.268046638792753,7.104957677164673,8.791761009550093
1681506768612212200,8.253212158203125,-2.5505659418225286,7.25410954323411,8.885756805586814
1681506768622229200,8.263229248046875,-2.612514740735292,7.534857744938135,8.79417450043261
1681506768632245200,8.273245361328126,-2.3883447508215903,7.977733614140749,8.573315827023983
1681506768642262300,8.28326220703125,-1.9312661687433719,8.308790445846318,8.426046705961227
1681506768652278300,8.2932783203125,-1.478841549950838,8.426702539521456,8.220939728435873
1681506768662294300,8.303294189453124,-1.0372644883871078,8.462917177718877,7.741967294457554
1681506768672311300,8.313311279296874,-0.6117173551261424,8.281601410147546,7.247590955120325
1681506768682327300,8.323327392578125,-0.3953144555499777,7.80506818601489,6.786632901260257
1681506768692344000,8.333343994140625,-0.3086076474776491,7.395323017519712,6.262060161101818
1681506768702360000,8.343360107421875,-0.36583234047796576,6.988423301583528,5.9211903759121896
1681506768712377300,8.35337744140625,-0.4943547120273113,6.429456708914041,5.827484502732753
1681506768722393300,8.363393310546876,-0.7336030286073685,5.758959832561016,5.713396351259947
1681506768732409300,8.373409423828125,-0.9646563482940197,5.221667311561108,5.27804152521193
1681506768742426000,8.383426025390625,-1.0221522594511507,4.8273693030446765,4.5436131516963245
1681506768752442000,8.393442138671874,-1.0124842673957348,4.459672301205992,3.7016385956972835
1681506768762459400,8.40345947265625,-0.8029027748048305,4.083756921598315,2.8353602040469643
1681506768772475100,8.41347509765625,-0.3788227914869785,3.7861639680773016,2.000377114370465
1681506768782492200,8.4234921875,0.10289688623971305,3.555896245810389,1.3016145129978656
1681506768792508200,8.433508056640624,0.6736801825642585,3.284733618575334,0.781368403866887
1681506768802524400,8.4435244140625,1.1241513292014598,2.955700401651859,0.31412030995190143
1681506768812541200,8.453541259765625,1.3240566464304924,2.634233236068487,-0.1367062259942293
1681506768822557200,8.46355712890625,1.2509464020341634,2.4160265384733677,-0.5020294844388962
1681506768832574200,8.47357421875,1.0165087006062268,2.1392799736261368,-0.7583341497600078
1681506768842590200,8.483590087890626,0.7156091067552566,1.8124363757014275,-1.1052356163293122
1681506768852606200,8.493606201171875,0.4204518559485674,1.5287971287310123,-1.540479967740178
1681506768862623200,8.503623291015625,0.2220037517905235,1.2398439932614564,-2.0004747295260428
1681506768872639200,8.51363916015625,0.15000819063782692,0.8629869488894939,-2.4872084451556202
1681506768882656300,8.52365625,0.18099137618886305,0.4692132565081119,-2.9691274539798496
1681506768892672300,8.53367236328125,0.3242120803773403,0.014350596913695335,-3.401386652100086
1681506768902689300,8.543689208984375,0.520230327039957,-0.4327472738981247,-3.8708939231187105
1681506768912705300,8.553705322265625,0.6128788001209498,-0.800510911232233,-4.269880381712317
1681506768922721000,8.563720947265624,0.4331768609544262,-1.0429285054981707,-4.573934640201926
1681506768932738300,8.57373828125,0.23549100987315177,-1.2399217346727847,-4.810879648275673
1681506768942754300,8.58375439453125,0.16859777682814747,-1.3560153807491064,-5.02175147293806
1681506768952771000,8.59377099609375,0.13366320503652096,-1.383371589708328,-5.159144512152672
1681506768962787000,8.603787109375,0.04423661661148071,-1.4736533336579798,-5.183181221300363
1681506768972804400,8.613804443359374,-0.08488660690784454,-1.6276684218496082,-5.247203903877735
1681506768982820400,8.6238203125,-0.17861001574397087,-1.8739473677188156,-5.412095190870762
1681506768992836400,8.63383642578125,-0.2288894196510315,-2.1706179456979036,-5.654874604186415
1681506769002853000,8.64385302734375,-0.1885165657956153,-2.4735247877180573,-5.980615793827176
1681506769012869000,8.653869140625,-0.013127740587852894,-2.764384633591771,-6.335158130538463
1681506769022886400,8.663886474609376,0.21142514769621193,-2.901052281141281,-6.672345427823067
1681506769032902100,8.673902099609375,0.47460729757137593,-3.092616471004486,-7.02950642260015
1681506769042919000,8.6839189453125,0.7382651751995086,-3.1595021417975424,-7.310819272449613
1681506769052935000,8.693934814453126,0.9159148214787244,-3.3183523950606584,-7.44704385240674
1681506769062951700,8.70395166015625,0.9688608142465353,-3.4011627802163362,-7.553902637147903
1681506769072967700,8.7139677734375,0.966418097269535,-3.3154595962285995,-7.64381963943839
1681506769082984000,8.72398388671875,0.9557038840968162,-3.1822096481680866,-7.724926727807522
1681506769093001000,8.7340009765625,0.9425895509798079,-2.996108399885893,-7.853817311614751
1681506769103017000,8.744016845703126,0.9377666608680039,-2.8604578204244375,-8.113208837035298
1681506769113033700,8.75403369140625,1.002688922633603,-2.7787387376368042,-8.461434830206633
1681506769123050000,8.764050048828125,1.1051824248373507,-2.625527367043495,-8.74743671465516
1681506769133067000,8.77406689453125,1.098068062787503,-2.493509006604552,-8.94579772505164
1681506769143082800,8.784082763671876,1.0274538729906082,-2.3873896420538423,-9.09330299295783
1681506769153098800,8.7940986328125,1.0049274222753941,-2.194369992685318,-9.246088831615447
1681506769163115800,8.80411572265625,0.986904274328798,-1.8315327058374882,-9.514024313497544
1681506769173132000,8.814132080078124,0.961925462025404,-1.3258622345477342,-9.755775552809238
1681506769183148800,8.824148681640626,0.9603106472399086,-0.9123270261198282,-9.717788644242287
1681506769193164800,8.834164794921875,1.0099456888288258,-0.3677390874147415,-9.576296937537192
1681506769203181800,8.844181884765625,1.0542910265117884,0.21732290049791333,-9.388297162157297
1681506769213197800,8.85419775390625,1.009712464594841,0.7288269002467394,-9.339470879667997
1681506769223213800,8.8642138671875,0.9002076223243027,1.2513614125758408,-9.460145423793792
1681506769233230800,8.87423095703125,0.9454448673456907,1.6990730313718319,-9.641381111866234
1681506769243246800,8.884246826171875,1.1070770064122974,1.9699819761067627,-9.794175718352198
1681506769253264000,8.894263916015625,1.2785459182299672,2.089073634955287,-9.783656077903508
1681506769263279900,8.90427978515625,1.325774556264281,2.070719647619128,-9.57848538749218
1681506769273297000,8.914296875,1.3122317686021328,2.0213205336779354,-9.104844377669691
1681506769283313000,8.92431298828125,1.1610703162759541,1.9404495921522378,-8.424759588760137
1681506769293330000,8.934329833984375,0.9197615600347518,1.877353961291909,-7.583677013164758
1681506769303346000,8.944345947265624,0.5516033704251051,1.9066957911103963,-6.736926913326978
1681506769313362000,8.95436181640625,0.1448679051399231,2.34699742591083,-6.0782572528898715
1681506769323378700,8.964378662109375,-0.16409619109258056,3.104952805486321,-5.597856831935048
1681506769333394700,8.974394775390625,-0.28328919142372905,3.624346097180247,-5.08594483590722
1681506769343412000,8.984411865234375,-0.1600607980966568,3.890102481457591,-4.54151296454668
1681506769353428000,8.994427978515626,-0.09061492142677306,3.9837282751381395,-3.9020617993205784
1681506769363444700,9.00444482421875,-0.13091478311121463,3.9203199250668286,-3.1587112836807965
1681506769373460700,9.014460693359375,-0.4737001195985824,3.7900843563914295,-2.3936574702769517
1681506769383478000,9.02447802734375,-1.0260334847986698,3.6017268536150455,-1.5496119532227515
1681506769393494000,9.034493896484374,-1.6252321346133947,3.4270600225389,-0.7643155622571707
1681506769403509800,9.044509765625,-2.1984978862702844,3.330549613332748,-0.043920974791049956
1681506769413526800,9.05452685546875,-2.6227146477103234,3.2099855438441036,0.7042565226137638
1681506769423543000,9.06454296875,-2.8659365440964697,3.1787896105915308,1.3070131571710109
1681506769433559800,9.074559814453124,-2.9271318942934275,3.2677409827202557,1.8278566476732492
1681506769443575800,9.084575927734376,-2.8036475534439087,3.261270909923315,2.3288836770713326
1681506769453592800,9.0945927734375,-2.4474480971753594,3.1493133407384155,2.7530425708442925
1681506769463608800,9.10460888671875,-2.109786752638221,3.0778052708417176,3.1125790625810623
1681506769473625900,9.1146259765625,-1.858361091530323,3.0590012016505,3.4858009653210638
1681506769483641900,9.124641845703126,-1.8286667950123547,3.164372378182411,3.8173172312319275
1681506769493657900,9.134657958984375,-1.9621587351351975,3.3021745827198026,4.103850446078181
1681506769503674600,9.144674560546875,-2.165370692694187,3.4057927781045434,4.362821115738154
1681506769513691000,9.15469091796875,-2.3551158504366874,3.5208445139124986,4.564961644673347
1681506769523708000,9.1647080078125,-2.491720954144001,3.7319419640243052,4.734613277935981
1681506769533724000,9.174723876953125,-2.569823600000143,3.9013489748761057,4.937258833783865
1681506769543740700,9.18474072265625,-2.5627169828653336,3.9115716782048344,5.090292509722709
1681506769553757000,9.1947568359375,-2.5219290454030037,3.8971787034541365,5.131874812433123
1681506769563774000,9.20477392578125,-2.3894705399811267,3.8568490311533212,5.1743800752073525
1681506769573790000,9.2147900390625,-2.261104856830835,3.83207494764179,5.244291815823316
1681506769583806700,9.224806640625,-2.292441075336933,3.8607071678861975,5.308697944760322
1681506769593823000,9.234822998046875,-2.4894670377373695,3.887365457709133,5.414253830209374
1681506769603839000,9.2448388671875,-2.7690497027933594,3.8567137143358585,5.663178906673193
1681506769613855700,9.254855712890626,-3.0367198117375374,3.984583430662751,5.917836973831057
1681506769623871700,9.264871826171875,-3.1339678875684736,4.27760571526736,6.2006818555533885
1681506769633889000,9.274888916015625,-3.131244015562534,4.676942594733834,6.511287435382604
1681506769643905000,9.284905029296874,-3.004204028058052,5.012898304396868,6.8848536215156315
1681506769653921800,9.294921875,-2.7844506855428217,5.280266215524077,7.222377018886804
1681506769663937800,9.304937744140625,-2.6104084161058068,5.527963796019554,7.3912898164808745
1681506769673955000,9.314955078125,-2.482196754473448,5.631209066438674,7.553360200834274
1681506769683970800,9.324970703125,-2.333273436462879,5.809333929014206,7.673235119014978
1681506769693987800,9.33498779296875,-2.424960371035337,5.913197623592615,7.781029723301529
1681506769704003800,9.34500390625,-2.4855168388068676,6.128143858087062,7.733995584926009
1681506769714019800,9.355019775390625,-2.4902386066317557,6.395923272624612,7.727952213108539
1681506769724036900,9.365036865234375,-2.393954991918802,6.665974139225483,7.70894648386538
1681506769734052900,9.375052978515624,-2.181274218138307,6.913519159507751,7.645192681357264
1681506769744070000,9.38506982421875,-1.939183956130594,7.14485538778901,7.531687882730364
1681506769754086000,9.3950859375,-1.79408005027771,7.336115041747689,7.3266685834884635
1681506769764103000,9.40510302734375,-1.6676257537066936,7.434934896939993,7.028923654276132
1681506769774119000,9.415118896484374,-1.6467384485006331,7.291261754542589,6.738000680038333
1681506769784136000,9.425135986328126,-1.6836755557537078,7.081696628564596,6.3420741935372344
1681506769794151700,9.435151611328125,-1.7363748802840708,6.879651376697421,5.802005778083205
1681506769804169000,9.4451689453125,-1.7397171764492987,6.507426083779334,5.220433970373868
1681506769814185000,9.45518505859375,-1.7115619260668753,5.965161619585752,4.638165997093916
1681506769824201000,9.465200927734376,-1.6974702723503112,5.349726705241203,3.9773341901868577
1681506769834217700,9.4752177734375,-1.6239023473143577,4.773912145884335,3.255397049453854
1681506769844233700,9.485233642578125,-1.4285714983940123,4.272784578721225,2.563654555976391
1681506769854251000,9.4952509765625,-1.2160358321726321,3.9341082119226454,1.8132038529425858
1681506769864266800,9.505266845703124,-1.0252806206047533,3.613887247008085,1.0807359658449887
1681506769874283800,9.51528369140625,-0.8225555697798729,3.332195042452216,0.39730245102941986
1681506769884299800,9.5252998046875,-0.5387164163231849,3.1411265271514655,-0.21167641904354095
1681506769894316800,9.53531689453125,-0.15021047174427657,2.9460283179432154,-0.71605042078197
1681506769904332800,9.545332763671874,0.3264706364264712,2.7864152636140584,-0.9689531687051057
1681506769914349800,9.555349853515626,0.6060065762639045,2.5885820764839647,-1.0446838247328996
1681506769924365800,9.56536572265625,0.633469752728939,2.4220605579406023,-0.9347621452897786
1681506769934382800,9.5753828125,0.57138183760643,2.1940555199086664,-0.6829542068660259
1681506769944398800,9.58539892578125,0.3403776177585125,1.8976748647868633,-0.45972412815093994
1681506769954414800,9.595414794921876,0.08096093963040038,1.6002344714790582,-0.3684744159519672
1681506769964432000,9.605431884765625,-0.1516179821883328,1.3087369122236967,-0.34760815353393554
1681506769974447900,9.61544775390625,-0.28601942010521886,0.9749667299062013,-0.3488806576877832
1681506769984465000,9.62546484375,-0.4196387860000133,0.6701981856673955,-0.3764291743487119
1681506769994481000,9.63548095703125,-0.5474141020417214,0.32956045566797254,-0.5700134718626737
1681506770004497700,9.64549755859375,-0.5423784459620714,0.009438274952769278,-0.9339292015969752
1681506770014514000,9.655513916015625,-0.4786661445081234,-0.32988544983863827,-1.4072323577672243
1681506770024531000,9.665531005859375,-0.22268643682505934,-0.7000923886716366,-1.962885295844078
1681506770034547000,9.675546875,0.17568740629553795,-1.0244546911746264,-2.5410908419907092
1681506770044564200,9.685564208984376,0.481876302193664,-1.3069313241064549,-3.031892245450616
1681506770054580200,9.695580322265625,0.6315647958904504,-1.4851216531336306,-3.3169284997373816
1681506770064597200,9.70559716796875,0.6036936231464147,-1.6002344714790582,-3.51257089882493
1681506770074613200,9.71561328125,0.5765630396366119,-1.6439140387296676,-3.7233512458115814
1681506770084630300,9.72563037109375,0.4108873608002439,-1.6398709008187056,-3.987196535770595
1681506770094646300,9.735646240234376,0.1894177524190396,-1.6434534354805945,-4.352741912533342
1681506770104663300,9.745663330078125,-0.050180619707703586,-1.6444138049453496,-4.888052904327213
1681506770114679300,9.75567919921875,-0.0622398177485913,-1.5858470496863126,-5.566697723561525
1681506770124695300,9.7656953125,0.2274070721387863,-1.6924457221865652,-6.207562262716889
1681506770134712300,9.77571240234375,0.5824567738503217,-2.013098648777604,-6.792919434183836
1681506770144728000,9.78572802734375,0.8725829716872423,-2.287496604672074,-7.197984920430183
1681506770154745300,9.795745361328125,0.9832972628127783,-2.5084593229770658,-7.446337165442109
1681506770164761300,9.80576123046875,0.8694937735002487,-2.670712662681937,-7.634595299497247
1681506770174778000,9.815778076171876,0.521436049567908,-2.6434645902723073,-7.818548429834842
1681506770184794000,9.825794189453125,0.14954744125828145,-2.5867338182687756,-8.09748461368084
1681506770194811400,9.835811279296875,-0.03610299451649189,-2.5503859090805054,-8.453741353094577
1681506770204827400,9.845827392578125,0.01939158675558865,-2.4567326428711413,-8.725726402628421
1681506770214844200,9.85584423828125,0.3196599700309336,-2.5592215419650075,-8.908736114636064
1681506770224860200,9.865860107421875,0.7917945938784628,-2.7452099775224923,-8.970930997264384
1681506770234877400,9.87587744140625,1.1634656869798898,-2.783280472719669,-8.979730974313616
1681506770244893400,9.8858935546875,1.286157562277466,-2.8256729227691886,-8.879168659368156
1681506770254910200,9.89591015625,1.1645312703847885,-2.5854326725423333,-8.831688530790805
1681506770264926200,9.90592626953125,1.0533528688788414,-2.0464351011902093,-8.88953281699419
1681506770274943200,9.915943115234375,1.0043920002244413,-1.4974743542283773,-8.91402019251883
1681506770284959200,9.925959228515625,0.993375808430463,-1.1378180355042218,-8.778259138420223
1681506770294976300,9.935976318359375,0.8881535388499497,-0.808670252290368,-8.726937531983852
1681506770304992300,9.9459921875,0.7808246523790061,-0.40443011095225806,-8.755576766490936
1681506770315008300,9.95600830078125,0.7081430086582898,0.09929331792294979,-8.780862014394998
1681506770325025300,9.966025390625,0.49962885303795335,0.5423626638710498,-8.841958580392598
1681506770335041300,9.976041259765625,0.2446001990020275,0.8639145851284264,-8.98531841905713
1681506770345058300,9.986058349609374,-0.0257229086689651,0.91734047036767,-9.024994595885277
1681506770355074000,9.996073974609375,-0.26972879503965375,0.801693399015069,-8.958329874366521
1681506770365091300,10.00609130859375,-0.5134101256310939,0.6270581321209668,-8.732347282072901
1681506770375107300,10.016107421875,-0.754912504748255,0.630398090198636,-8.382539572668074
1681506770385124000,10.0261240234375,-1.0435400615252555,0.8450953183680773,-8.072498056462406
1681506770395140000,10.03614013671875,-1.252493046954274,1.1410691462546587,-7.878117055612802
1681506770405157400,10.046157470703125,-1.2239672096937895,1.2445990788340568,-7.602207526111602
1681506770415173400,10.05617333984375,-0.9544336449652909,1.3951169725596904,-7.186397358489036
1681506770425190100,10.066190185546875,-0.62845104778409,1.6309499277383088,-6.540405393317341
1681506770435206100,10.0762060546875,-0.453736432043463,1.8953098892211913,-5.613613788515329
1681506770445223400,10.086223388671876,-0.5729333048321307,2.044153127732873,-4.586870401881635
1681506770455239200,10.0962392578125,-0.9205291834063828,2.095928907677531,-3.594824819141626
1681506770465256200,10.106256103515625,-1.354281688824296,2.2491484615772963,-2.6523323718607426
1681506770475272200,10.116272216796874,-1.734191544895619,2.4241911402285097,-1.8771955558598041
1681506770485289200,10.126289306640626,-2.0611163913629946,2.6226322301238776,-1.4467816933453082
1681506770495305200,10.13630517578125,-2.1382360175311566,2.605190681457519,-1.155069030034542
1681506770505322200,10.146322265625,-1.8683359575778244,2.3087276087492703,-0.889606075745821
1681506770515338200,10.156338134765624,-1.5333704279959202,1.969013423335552,-0.6857412072360515
1681506770525355300,10.166355224609376,-1.2635410951912402,1.7352771481752394,-0.4708616082370281
1681506770535371300,10.176371337890625,-1.0781681611835956,1.6119845305055378,-0.1196703355193138
1681506770545388300,10.18638818359375,-1.2226725667733698,1.5656190851718186,0.39021921477019783
1681506770555404300,10.196404296875,-1.5374392848700285,1.657941979560256,0.9843594121515751
1681506770565421300,10.20642138671875,-1.8599924921244382,1.867829761621356,1.6524316917061805
1681506770575437300,10.216437255859375,-2.132621100258827,2.189873265787959,2.285741869959235
1681506770585454300,10.226454345703125,-2.2647207092404362,2.5349562847584486,2.72936183552742
1681506770595470000,10.236469970703125,-2.2369652718305586,2.8954560685694215,3.0960230645775795
1681506770605487400,10.2464873046875,-2.05016376632452,3.1914421714156864,3.5422090812414884
1681506770615503400,10.25650341796875,-1.7232751602143048,3.3414410097032783,3.849090672111511
1681506770625520000,10.26652001953125,-1.4586363817900418,3.3984739795237777,4.125333963611721
1681506770635536100,10.2765361328125,-1.1965344283670187,3.3666035080105066,4.312690180391073
1681506770645553400,10.286553466796875,-1.1815490406811238,3.3433243392318484,4.38308239800036
1681506770655569400,10.2965693359375,-1.4513129070341586,3.4042782818883657,4.51189699396193
1681506770665586200,10.306586181640625,-1.7999521571815014,3.5417929016560312,4.680532728180289
1681506770675602200,10.316602294921875,-2.187627532687783,3.8050428560703993,4.830054012084007
1681506770685619500,10.326619384765625,-2.530406366369128,4.0074452508121725,5.011894680312276
1681506770695635200,10.33663525390625,-2.6593057180047035,4.228319706311821,5.141660877910256
1681506770705652200,10.34665234375,-2.6431261520981786,4.413113671387732,5.324262593638896
1681506770715668200,10.356668212890625,-2.4453052399277686,4.546339946311712,5.63890078998506
1681506770725685200,10.366685302734375,-2.257065810573101,4.742714166805148,5.943790914776921
1681506770735701200,10.376701171875,-2.0665280411481857,4.992666832751035,6.320459743100404
1681506770745718300,10.38671826171875,-2.0719091496646405,5.257786088168621,6.689539723730087
1681506770755734300,10.396734375,-2.202314814209938,5.5125850251019,7.13469230569303
1681506770765751300,10.406751220703125,-2.4310195249438284,5.8436465329825875,7.4862337070226666
1681506770775767300,10.416767333984374,-2.6832594250440596,6.048812547218799,7.8613184810251
1681506770785784300,10.426784423828124,-2.836379610222578,6.120881758129596,8.173976317209005
1681506770795800300,10.43680029296875,-2.7976047661483285,6.207232007849216,8.245780739703774
1681506770805817300,10.4468173828125,-2.465166124695539,6.396247097751498,8.252281207638978
1681506770815833300,10.456833251953125,-1.909441290426254,6.59054042031765,8.205657403630017
1681506770825850400,10.466850341796874,-1.1515081226825714,6.675707013210654,8.221089950561524
1681506770835866000,10.4768662109375,-0.4858884969770908,6.860748523306846,8.165565047216415
1681506770845883400,10.48688330078125,-0.18739769956720992,7.060456272137165,8.033679957768321
1681506770855899400,10.4968994140625,-0.12723757416950537,7.08838472802639,7.896944505679607
1681506770865916200,10.506916259765624,-0.2181108177389018,7.043383556783199,7.656252420032024
1681506770875932200,10.51693212890625,-0.5304606291532517,6.962151965251564,7.255779522272944
1681506770885949400,10.526949462890625,-0.859998872989416,6.941827554625272,6.703648913103342
1681506770895965400,10.53696533203125,-1.0177157383084297,6.848995541670918,6.132751059621572
1681506770905982200,10.546982177734375,-1.008186862462759,6.625252837258577,5.703709654504061
1681506770915998200,10.556998291015624,-1.0204711744964121,6.2822892946600914,5.3230041180104015
1681506770926015500,10.567015380859376,-1.303126086604595,5.922530100083351,4.825331075215339
1681506770936031200,10.57703125,-1.76890235440135,5.495119511038065,4.218804274469614
1681506770946048300,10.58704833984375,-2.2475603156030175,5.021623462644219,3.490560142546892
1681506770956064300,10.597064208984374,-2.4425544799149037,4.504357830628752,2.6978420771479605
1681506770966081300,10.607081298828126,-2.4881004255592822,4.096200808107852,1.8889689957618712
1681506770976097300,10.61709716796875,-2.410648937088251,3.8032758463978764,1.096550790092349
1681506770986114300,10.6271142578125,-2.089882028728723,3.563341301119327,0.48744157163798807
1681506770996130300,10.63713037109375,-1.6208528966158628,3.353303296932578,0.06291209098696708
1681506771006147300,10.647147216796874,-1.1350701981008051,3.1948546102076767,-0.2178869641214609
1681506771016163300,10.657163330078125,-0.7335188574552536,3.0295839685082435,-0.36820728944838044
1681506771026180400,10.667180419921875,-0.4524222807049751,2.751941331604123,-0.5043085352867841
1681506771036196400,10.6771962890625,-0.3094084424665198,2.3705817151159048,-0.6733686323970556
1681506771046215700,10.687215576171875,-0.2338952285816893,1.8677245476812123,-0.842438081857562
1681506771056232000,10.69723193359375,-0.22771511517465112,1.3251532094955443,-0.9896960970044135
1681506771066249000,10.7072490234375,-0.2162748162170872,0.8218342697679996,-1.1696306393504141
1681506771076265700,10.717265625,-0.22028050819449124,0.39079087717831135,-1.2503157029151917
1681506771086281700,10.72728173828125,-0.2184784637412056,0.09129939655959605,-1.3526730845838784
1681506771096299000,10.737299072265625,-0.21354097080640494,-0.09449088607728481,-1.4817793569684028
1681506771106315000,10.74731494140625,-0.22668277645222842,-0.1891916155129671,-1.664236111268401
1681506771116331800,10.757331787109376,-0.19939320298843086,-0.3274333805114031,-1.9074188446879385
1681506771126347800,10.76734765625,-0.10809680210351943,-0.44371524263620377,-2.1754057644963263
1681506771136365000,10.777364990234375,-0.011962678863853216,-0.6590653817564248,-2.4834914704591036
1681506771146380800,10.787380859375,0.08662154094167053,-0.8868167372882365,-2.8721859598800537
1681506771156397800,10.797397705078126,0.20853344484269618,-1.1248591852098704,-3.234701759688556
1681506771166413800,10.807413818359375,0.2686439224123955,-1.355546009671688,-3.5260300998568535
1681506771176430800,10.817430908203125,0.19447861600518226,-1.457574890038371,-3.9370094863221046
1681506771186446800,10.82744677734375,0.06363280647695065,-1.4679840558499098,-4.543335211537778
1681506771196463900,10.8374638671875,-0.03345803296566009,-1.4879653521269558,-5.1912429472029205
1681506771206480000,10.84747998046875,-0.18974340417683122,-1.5496043544381857,-5.773038626796007
1681506771216497000,10.857496826171875,-0.20153496425747872,-1.6672516596972942,-6.306437062966824
1681506771226513000,10.867512939453125,-0.07450666719079017,-1.7487930478304623,-6.834447960880398
1681506771236530000,10.877530029296874,0.11396817835494875,-1.9034552017539739,-7.238920157408714
1681506771246545700,10.887545654296876,0.2858785503298044,-2.051048147943616,-7.674247510927915
1681506771256563000,10.89756298828125,0.4653793774336576,-2.2461522023707627,-8.129716319721936
1681506771266580000,10.907580078125,0.6799304751306772,-2.465371876400709,-8.469108433574437
1681506771276595700,10.917595703125,0.7472993993960321,-2.743699572959542,-8.823930756270885
1681506771286612700,10.92761279296875,0.6799978412784635,-2.775913743343949,-9.077050946336984
1681506771296629000,10.93762890625,0.5798994905829429,-2.8265163878560067,-9.262799143397807
1681506771306645800,10.947645751953125,0.5754622387878596,-2.828084075564146,-9.38148105240166
1681506771316661800,10.957661865234375,0.746298844051361,-2.7060674691796303,-9.53262380002737
1681506771326678800,10.9676787109375,0.9465051900535821,-2.5583617102652787,-9.669771924570203
1681506771336695000,10.977695068359376,1.1748755542665719,-2.415118775978684,-9.737983291009067
1681506771346711800,10.9877119140625,1.3391161222659052,-2.209221524858475,-9.770061267793178
1681506771356727800,10.997727783203125,1.3497574893981217,-2.0514982297986744,-9.774023157161473
1681506771366744800,11.007744873046875,1.3996090232819318,-1.815152648922801,-9.74198668143153
1681506771376760800,11.0177607421875,1.3893845663875342,-1.4793933386147022,-9.614618192625045
1681506771386777900,11.02777783203125,1.3017664886891842,-1.0972516318380832,-9.467024661913513
1681506771396793900,11.0377939453125,1.1269937130205332,-0.7096668572247028,-9.413051664185524
1681506771406811000,11.047810791015625,1.0318582454293965,-0.27896599446237086,-9.450364619013667
1681506771416828000,11.057827880859374,1.007640334495902,0.12833996418714522,-9.365311423367261
1681506771426844000,11.067843994140626,0.8504021926045418,0.33507308160960675,-9.195532364332676
1681506771436860700,11.077860595703125,0.6351875164322555,0.6865063463896512,-9.112718472045659
1681506771446876700,11.087876708984375,0.36617622201219197,0.5487520726472139,-9.083697544744611
1681506771456894000,11.09789404296875,0.09503507595658302,0.5682780263721943,-9.188934865763782
1681506771466910000,11.107909912109376,-0.07694470799267292,0.5450678311765194,-9.234715789207815
1681506771476926700,11.1179267578125,-0.03901230609193444,0.6099509299755096,-8.978967004203795
1681506771486942700,11.127942626953125,0.19542714890167115,0.9001946897774934,-8.445055357813835
1681506771496960000,11.1379599609375,0.2690899126142263,1.3587936132907867,-7.793159137034416
1681506771506976000,11.14797607421875,0.07743643703237175,1.8994909742981194,-7.05602559621334
1681506771516992800,11.15799267578125,-0.2961345714062452,2.3969851533949376,-6.294028247770667
1681506771527010000,11.168010009765625,-0.6420628090292215,2.8181244070857763,-5.511344669651985
1681506771537026000,11.178026123046875,-1.007682273941487,3.0958640746235844,-4.619762617658078
1681506771547042800,11.188042724609375,-1.2734702224008738,3.2584681274622675,-3.7974233209773898
1681506771557058800,11.198058837890626,-1.4868670354962348,3.3044407740861175,-3.083586192330718
1681506771567075800,11.208075927734376,-1.5544307516813278,3.305793942260742,-2.5521371366620063
1681506771577091800,11.218091796875,-1.5847949102848766,3.2183664186984298,-2.152537514606118
1681506771587108900,11.22810888671875,-1.5659113461166618,3.195413413134217,-2.016841926959157
1681506771597124900,11.238124755859374,-1.3843272829979658,2.953686723741889,-1.9596803623229264
1681506771607142000,11.248141845703126,-1.2375409770160912,2.5499668068856,-1.8316613006532192
1681506771617159000,11.258158935546875,-1.2082838298063725,2.2753192601442334,-1.5726146431475876
1681506771627175000,11.2681748046875,-1.3774462913125753,2.2181477586358787,-1.1506102970600127
1681506771637191700,11.278191650390625,-1.6486925051778554,2.2872627959161997,-0.5095651406407355
1681506771647208000,11.2882080078125,-2.0123814404189586,2.49058464359045,0.19323007724881172
1681506771657225000,11.298224853515626,-2.4213217222720385,2.812688353511691,0.9476298101693391
1681506771667241000,11.308240966796875,-2.793276966077089,3.151671886563301,1.5799182441592217
1681506771677257700,11.3182578125,-3.0144845990538593,3.4356840584993362,2.1742677003771065
1681506771687273700,11.328273681640624,-3.0826848595768213,3.6272862422853707,2.7226532777994867
1681506771697291000,11.338291015625,-2.8992028538823127,3.7915672884255645,3.1686621843308207
1681506771707307800,11.348307861328125,-2.5678122601777313,3.938508492708206,3.5863755552262067
1681506771717323800,11.35832373046875,-2.339450663793087,4.022020304131508,3.882639890491962
1681506771727341000,11.368341064453125,-2.2979922797232866,4.076227110615372,4.194612082499265
1681506771737356800,11.378356689453126,-2.486315295708179,4.116060523831844,4.491738587552309
1681506771747373800,11.388373779296876,-2.8569313998639583,4.156340804032981,4.78241547807455
1681506771757389800,11.398389892578125,-3.1973651317238807,4.257941522115469,5.045857740190625
1681506771767406800,11.40840673828125,-3.4695313830435275,4.271934683893621,5.3147255344867705
1681506771777424000,11.418423828125,-3.622107962864637,4.245327247475087,5.555383133342862
1681506771787439900,11.42843994140625,-3.5530186445474623,4.240959992176294,5.722865021350979
1681506771797456600,11.43845654296875,-3.398425464206934,4.269658847916126,5.739896235650778
1681506771807473000,11.448472900390625,-3.1852854023516177,4.413547094368934,5.794584688171744
1681506771817490000,11.458489990234375,-2.998856821811199,4.5971226235657925,5.971622924554348
1681506771827506000,11.468505859375,-2.762741542559862,4.896159346154332,6.279913213178515
1681506771837522700,11.478522705078126,-2.5870529672205445,5.367936315670609,6.749919665890932
1681506771847539000,11.4885390625,-2.5789818889677525,5.763351930040121,7.224504678565263
1681506771857556000,11.498555908203125,-2.6310171966314315,6.137278766179085,7.717361260989308
1681506771867572700,11.50857275390625,-2.7022563864588736,6.266806478846073,8.125565045261382
1681506771877588700,11.518588623046876,-2.799864527773857,6.26880846631825,8.383671791568398
1681506771887606000,11.52860595703125,-2.8856629888296124,6.2759004704058166,8.510980074620246
1681506771897621800,11.538621826171875,-2.87315305134654,6.441491430100799,8.410155309346317
1681506771907638800,11.548638671875,-2.7581226505875587,6.791192756521702,8.323349132552742
1681506771917654800,11.55865478515625,-2.621981657260656,7.185238836103677,8.274054063507913
1681506771927671800,11.568671875,-2.4372949519515035,7.460739200282096,8.190020858559011
1681506771937688800,11.578688720703125,-2.1118869397878646,7.659125929641723,8.023789847394823
1681506771947704800,11.588704833984375,-1.7786521795213222,7.736253592985868,7.81441293746531
1681506771957721900,11.598721923828125,-1.5587176352202892,7.564494173789024,7.5961214841961855
1681506771967737900,11.60873779296875,-1.4516390702486037,7.425580208617449,7.299899234506487
1681506771977755000,11.6187548828125,-1.4677099150836468,7.306976041024923,6.905183292838931
1681506771987771600,11.628771728515625,-1.6521138579286634,7.019004317808151,6.550575489675999
1681506771997788000,11.638787841796875,-1.9246423666894434,6.581417787185311,6.244121184307336
1681506772007805000,11.648804931640624,-2.1068296563982964,6.076704762750864,5.76413694293797
1681506772017821000,11.658821044921876,-2.189615491634607,5.559191877976059,5.065639129981398
1681506772027837700,11.668837646484375,-2.2158967648386954,5.0233518938720225,4.320494716662168
1681506772037854000,11.67885400390625,-2.1376631860792634,4.698040912342071,3.495707442307472
1681506772047868000,11.688867919921876,-1.9886311469972133,4.466214270195365,2.7194804929822682
1681506772057885000,11.698885009765625,-1.778648672389984,4.243787324556708,2.006039962437749
1681506772067901200,11.708901123046875,-1.3886767103791235,4.032641651389002,1.2443038952797651
1681506772077918000,11.71891796875,-0.9049521134376526,3.731517016610503,0.6780979990065097
1681506772087934000,11.728933837890626,-0.4773965629637241,3.502755607253313,0.25647008501589297
1681506772097951000,11.738950927734376,-0.03640402328968048,3.0450276213556524,-0.07677285855710506
1681506772107967200,11.74896728515625,0.3225859404802322,2.764402753770351,-0.33966625461876393
1681506772117984000,11.75898388671875,0.40446752035319805,2.516514034616947,-0.551433859077096
1681506772128001000,11.7690009765625,0.20422902564704418,2.100366597864032,-0.5867910036623477
1681506772138017000,11.77901708984375,-0.009329553881287575,1.7289695724636316,-0.5231389079630374
1681506772148034000,11.789033935546875,-0.20779753178358076,1.341631466087699,-0.4308551765412092
1681506772158050000,11.799050048828125,-0.32175354477670043,0.9855161809712648,-0.45425475682914257
1681506772168067000,11.809067138671875,-0.33799097835030406,0.6367956822812557,-0.5685422302663325
1681506772178084000,11.819083984375,-0.3070756156047806,0.30089199506640435,-0.7212099955022334
1681506772188100000,11.82910009765625,-0.24713169024102388,-0.001685176607966423,-1.0356202283114195
1681506772198117000,11.8391171875,-0.03319719007238745,-0.2461070964336395,-1.5138742848873137
1681506772208132900,11.8491328125,0.28397600464411077,-0.4795663082182407,-1.995401664045453
1681506772218150100,11.859150146484374,0.6167519882924855,-0.7043459544628858,-2.4437024809062478
1681506772228167200,11.869167236328124,0.9056998630650341,-0.912107245889306,-2.718763284623623
1681506772238183000,11.879182861328125,1.2380500955820082,-1.0819096857994794,-2.9040111309468744
1681506772248200000,11.889199951171875,1.3628747451245784,-1.1719698959529399,-3.0741479173779487
1681506772258216200,11.89921630859375,1.206775690265745,-1.2357500019460916,-3.326857188555598
1681506772268233000,11.90923291015625,0.8833791640549897,-1.2830056741178035,-3.7573677894428372
1681506772278250000,11.91925,0.4752566283255815,-1.3257628658264875,-4.319472095616161
1681506772288266000,11.929265869140625,0.09009118981361389,-1.318257020241022,-4.986417709228396
1681506772298283000,11.939282958984375,-0.039563364103436464,-1.4774778603821992,-5.707469883820414
1681506772308299000,11.949299072265624,0.01417524034678936,-1.6326947255790232,-6.4938371188879005
1681506772318316000,11.95931591796875,0.24260113413929937,-1.8726415458172558,-7.100590714126825
1681506772328333000,11.9693330078125,0.3775090785399079,-2.102517638418078,-7.5997876054883
1681506772338349000,11.97934912109375,0.5242864705629646,-2.304126836955547,-7.853539079195261
1681506772348366000,11.989365966796875,0.6818408387966454,-2.568472769913077,-8.1440347679317
1681506772358382000,11.999382080078124,0.7769635930366814,-2.7077117292553186,-8.365435293132066
1681506772368399000,12.009399169921876,0.8539438107341527,-2.7138275817871094,-8.673525090748072
1681506772378416000,12.019416015625,0.890995484277606,-2.710776962044835,-8.86765650075078
1681506772388432100,12.02943212890625,0.9533990412205458,-2.6359967386096717,-8.958490033364296
1681506772398449000,12.039448974609375,1.0253722444109619,-2.5148311960965395,-9.004050007534026
1681506772408465000,12.04946484375,1.1479893009066582,-2.4281249725461005,-9.139044168913363
1681506772418482200,12.059482177734376,1.3431857097923754,-2.3291735999286174,-9.327014133676887
1681506772428499000,12.0694990234375,1.576359821025282,-2.312032495513558,-9.47031142849922
1681506772438515000,12.079514892578125,1.6479754429496825,-2.2458102570652962,-9.64571826428771
1681506772448532200,12.0895322265625,1.7201714951105416,-2.1139847888499497,-9.859044204103945
1681506772458549000,12.099549072265624,1.8617117171324788,-1.870101213684678,-9.92341643077135
1681506772468565000,12.10956494140625,1.8387609035253523,-1.5056120679765939,-9.803090846213697
1681506772478582000,12.11958203125,1.814531302154064,-0.9818699334233999,-9.470416642439364
1681506772488598000,12.129597900390625,1.6501923883467913,-0.35541970406770707,-9.065723496636748
1681506772498615000,12.139614990234374,1.3773447306342421,0.25725568243563174,-8.904421758568287
1681506772508632000,12.149632080078124,1.1487632078886032,0.7418944716125726,-8.929099103707074
1681506772518647800,12.159647705078125,0.9746258075140416,1.0890934598237276,-9.008826135894656
1681506772528665000,12.1696650390625,0.8201121221505105,1.2189824070185422,-9.100400842264294
1681506772538681000,12.17968115234375,0.6232048176936805,1.1083423501729965,-9.198355605059861
1681506772548697900,12.18969775390625,0.32966450056433677,0.8797241486787796,-9.190179312866926
1681506772558715100,12.199715087890626,-0.12720759915634988,0.8434311845481395,-9.096004068610071
1681506772568731100,12.209731201171875,-0.31450726344287394,0.5814110641896725,-8.758214129257201
1681506772578748000,12.219747802734375,-0.36378947300612924,0.6093021106779575,-8.143338602361082
1681506772588765000,12.229764892578125,-0.2616528944812715,0.6243079566299915,-7.3850167275607586
1681506772598781200,12.23978125,-0.13231982760354877,0.8567191206663847,-6.67845601965785
1681506772608798000,12.2497978515625,-0.05276537550389766,1.2098445763170718,-5.970000291788578
1681506772618814000,12.25981396484375,-0.06040449208021163,1.7401017918527126,-5.310106642514467
1681506772628831000,12.2698310546875,-0.07391571556031704,2.2265841630697247,-4.670069494093954
1681506772638848000,12.279847900390624,-0.09684811672791838,2.579756380471587,-3.9692724642843005
1681506772648864000,12.289864013671876,-0.07391907656118274,2.7431448616862295,-3.290752440473437
1681506772658881000,12.299881103515625,-0.08238193061053753,2.8497113854825495,-2.715474764472246
1681506772668897000,12.30989697265625,-0.16689312833473086,2.824939347797632,-2.193199195340276
1681506772678914000,12.3199140625,-0.5646915461875498,2.7902269308567047,-1.741208876311779
1681506772688931000,12.32993115234375,-1.2066267833143471,2.695263751092553,-1.4575900876075027
1681506772698947000,12.339947021484376,-1.797294482279569,2.5607062275648116,-1.214732348358631
1681506772708964000,12.349964111328125,-2.2353432235866784,2.4072423435151578,-0.9195926332086324
1681506772718981000,12.359981201171875,-2.532788293069601,2.3131582846730945,-0.5543979695796967
1681506772728997000,12.3699970703125,-2.6640292393952607,2.313474511015415,-0.1424754570454359
1681506772739014000,12.380013916015624,-2.7414889111727474,2.4216613294899463,0.3572212005317211
1681506772749031200,12.39003125,-2.7481413547992704,2.5733172873348,0.8611404442399739
1681506772759047000,12.400046875,-2.789952205568552,2.7558365854769944,1.4555062670707701
1681506772769064000,12.41006396484375,-2.8361399562478065,2.9840204872071743,2.034579243701696
1681506772779080000,12.420079833984374,-2.8724364275097845,3.205672356820106,2.5539590913921595
1681506772789097000,12.430096923828126,-2.878584428745508,3.4033640896528956,3.0597984895080326
1681506772799114000,12.440114013671876,-2.842948467218876,3.5371488752424716,3.460232808822393
1681506772809130000,12.4501298828125,-2.839365348035097,3.636766018292308,3.848119196730852
1681506772819147000,12.46014697265625,-2.778698405626416,3.706331721949577,4.130945373752713
1681506772829164000,12.4701640625,-2.7301322353780266,3.749717274689674,4.419627291065455
1681506772839180000,12.480179931640626,-2.822657958862185,3.798455878895521,4.7219513647615905
1681506772849196800,12.49019677734375,-2.938441808336973,3.846535142409801,5.016599497002363
1681506772859214000,12.500214111328125,-2.991760726070404,3.8739018727630374,5.296278608170152
1681506772869230000,12.51022998046875,-3.008402064269781,3.9459766366317868,5.579748928314447
1681506772879246800,12.520246826171874,-2.9881659164488314,4.027269895222783,5.895668981164693
1681506772889262800,12.530262939453126,-2.8606641566514965,4.03428883407414,6.118425597149133
1681506772899280100,12.540280029296875,-2.793092257159948,4.093415853564441,6.250168647778034
1681506772909297000,12.550296875,-2.7489772211015224,4.267214085112512,6.3533069506913415
1681506772919313000,12.56031298828125,-2.642278595358133,4.385215902897715,6.52787558209002
1681506772929330200,12.570330078125,-2.5051789861321447,4.7329742785573,6.790178611043095
1681506772939347000,12.580346923828126,-2.403854454642534,5.062043735837936,7.096171728640794
1681506772949363000,12.590363037109375,-2.3095757500112057,5.27455485213995,7.488780468896031
1681506772959380000,12.6003798828125,-2.303590245860815,5.564550774660706,7.717696192032098
1681506772969397000,12.61039697265625,-2.282888818615675,5.720430487680435,7.8811764431834215
1681506772979413000,12.6204130859375,-2.222050611293316,5.778152024286985,8.032199363821745
1681506772989430000,12.630429931640625,-2.187030735838413,5.86943505423367,7.936139036470651
1681506772999447000,12.640447021484375,-2.1612404610216616,6.161238318437338,7.6914271937876935
1681506773009463000,12.650463134765625,-2.101900967824459,6.429591148948669,7.526394452497363
1681506773019480000,12.66047998046875,-1.9875567957639693,6.67371788522005,7.421528302878141
1681506773029496800,12.670496826171876,-1.785327419501543,6.784122379744052,7.481364639681577
1681506773039513000,12.68051318359375,-1.6318085903942583,6.860810482627153,7.50101801917851
1681506773049529900,12.69052978515625,-1.6365514010071753,6.863671717277168,7.405693604886531
1681506773059546600,12.700546630859375,-1.6788883214771746,6.710220108187198,7.265940850803256
