time,seconds_elapsed,rotationRateX,rotationRateY,rotationRateZ,gravityX,gravityY,gravityZ,accelerationX,accelerationY,accelerationZ,quaternionW,quaternionX,quaternionY,quaternionZ
1681506760473138400,0.114138427734375,-0.5490180850028992,0.013354966416954994,0.6362410187721252,0.30142009258270264,0.3542066514492035,-0.8852590918540955,-0.01638585329055786,0.053828686475753784,-0.06017547845840454,0.9708912055315126,-0.18241314898250177,0.15522857023056608,2.5437253056438794e-17
1681506760483138300,0.12413818359375,-0.5394893288612366,0.013046838343143463,0.5992310643196106,0.30373916029930115,0.35716989636421204,-0.8832736015319824,-0.01960521936416626,0.02930474281311035,-0.0787624716758728,0.9703738070329689,-0.1845842888622577,0.1558584230912936,0.0034057161789491286
1681506760493138400,0.134138427734375,-0.5097652077674866,0.01727127656340599,0.5760459899902344,0.30597713589668274,0.3600175082683563,-0.8813430070877075,-0.021019190549850464,0.015806525945663452,-0.09749305248260498,0.969859607206763,-0.18667418972586045,0.15646486561608067,0.006640507113429096
1681506760503137300,0.14413720703125,-0.5078485012054443,0.006798662710934877,0.5587085485458374,0.3081399202346802,0.36274227499961853,-0.8794702291488647,-0.0225868821144104,0.020283877849578857,-0.10426390171051025,0.9693502846827396,-0.1886876435334561,0.15704095429030474,0.00976355967437263
1681506760513138200,0.15413818359375,-0.5303304195404053,-0.014283452183008194,0.549248218536377,0.3101290166378021,0.3655882775783539,-0.877590537071228,-0.0231265127658844,0.012478679418563843,-0.09732401371002197,0.9689143965755151,-0.18865870663037532,0.16003943359682749,8.484977186830092e-18
1681506760523138300,0.16413818359375,-0.5453325510025024,-0.03528594225645065,0.5393391251564026,0.3119032084941864,0.3686128258705139,-0.8756945729255676,-0.01675248146057129,-0.012167572975158691,-0.08861517906188965,0.9684202406347139,-0.1908289149730587,0.1604276732424932,0.0030928074387749243
1681506760533138200,0.17413818359375,-0.5463542938232422,-0.05949626863002777,0.5250356197357178,0.31345608830451965,0.37173593044281006,-0.8738179206848145,-0.007288515567779541,-0.032899320125579834,-0.07826954126358032,0.9679210595243313,-0.1930493546052307,0.16069536572054444,0.006151857796914224
1681506760543138300,0.18413818359375,-0.5346424579620361,-0.07527443766593933,0.5093370676040649,0.3147833049297333,0.3748352825641632,-0.8720148801803589,-0.006540566682815552,-0.04068312048912048,-0.06945240497589111,0.9674313829288984,-0.19524949084720594,0.16084215668214813,0.009157044654739821
1681506760553137400,0.194137451171875,-0.4997982978820801,-0.08763137459754944,0.48196738958358765,0.3159444332122803,0.3777850270271301,-0.8703203797340393,-0.013393223285675049,-0.04093208909034729,-0.0647687315940857,0.9669616408446584,-0.19735174330398467,0.16091022448396727,0.01205054272337918
1681506760563137300,0.20413720703125,-0.4239751398563385,-0.08874750137329102,0.44301837682724,0.31690698862075806,0.3803679645061493,-0.8688441514968872,-0.022992223501205444,-0.04005125164985657,-0.06102645397186279,0.9665425688456666,-0.1992220148751865,0.16089907812318124,0.01474575919772029
1681506760573137400,0.214137451171875,-0.31923192739486694,-0.07533428817987442,0.40926527976989746,0.317806601524353,0.3822415769100189,-0.8676925301551819,-0.0366024374961853,-0.039468199014663696,-0.05982828140258789,0.9662044406150357,-0.20066699914706176,0.1608927857405902,0.017182611202774825
1681506760583137300,0.22413720703125,-0.23662014305591583,-0.06155269593000412,0.36468395590782166,0.318702757358551,0.3833886384963989,-0.8668573498725891,-0.0475236177444458,-0.02523443102836609,-0.05599421262741089,0.965947473460671,-0.2016750331885114,0.1609300842377006,0.019344824895985466
1681506760593136400,0.234136474609375,-0.19953033328056335,-0.05324829742312431,0.3178907632827759,0.3195193409919739,0.3841738700866699,-0.8662088513374329,-0.05064427852630615,-0.011401742696762085,-0.05606287717819214,0.9657401189889915,-0.20243891038079687,0.16097842194653222,0.021222948452264894
1681506760603136300,0.24413623046875,-0.18882682919502258,-0.04351923614740372,0.28291943669319153,0.32025352120399475,0.38489916920661926,-0.8656155467033386,-0.053148478269577026,-0.020229429006576538,-0.05188018083572388,0.965548870734807,-0.20313076016161372,0.16102829212632797,0.022872337382380464
1681506760613136400,0.254136474609375,-0.17172741889953613,-0.03861868754029274,0.2539606988430023,0.3209342062473297,0.38559502363204956,-0.8650535941123962,-0.05878826975822449,-0.039785146713256836,-0.050458550453186035,0.9653667675853821,-0.2037798644969191,0.16108066345305924,0.024365443446742706
1681506760623136300,0.26413623046875,-0.1670660823583603,-0.03983362019062042,0.2248624861240387,0.32151541113853455,0.38627883791923523,-0.8645325303077698,-0.06078854203224182,-0.048388272523880005,-0.050872802734375,0.9651972067672338,-0.20439332303374597,0.1611121299973768,0.025699142255470483
1681506760633136400,0.274136474609375,-0.1804066300392151,-0.04949676990509033,0.1858920454978943,0.32193878293037415,0.387097030878067,-0.8640088438987732,-0.05553567409515381,-0.04430842399597168,-0.04527765512466431,0.9650294387289404,-0.20504887571899158,0.1610917273819908,0.02687716151179685
1681506760643135200,0.28413525390625,-0.19667454063892365,-0.07049232721328735,0.13626350462436676,0.32204413414001465,0.3882177770137787,-0.8634665608406067,-0.042747288942337036,-0.04449835419654846,-0.04456871747970581,0.9648610041513456,-0.20582628597530275,0.1609417494425384,0.02786644165906098
1681506760653135400,0.29413525390625,-0.20843051373958588,-0.08183027803897858,0.08054438978433609,0.3218078911304474,0.3896196186542511,-0.8629230856895447,-0.026275724172592163,-0.052141040563583374,-0.0473400354385376,0.9646976505870621,-0.206707148149215,0.16065685675003605,0.02863303117408072
1681506760663135200,0.30413525390625,-0.2061236947774887,-0.09678259491920471,0.013321937993168831,0.32123062014579773,0.3912777900695801,-0.8623877167701721,-0.015078306198120117,-0.056301653385162354,-0.046517372131347656,0.9645444808500981,-0.207667530393006,0.16025087613221287,0.029114847886068964
1681506760673135400,0.31413525390625,-0.18421822786331177,-0.11289777606725693,-0.0478704459965229,0.3202519416809082,0.3930227756500244,-0.8619580864906311,-0.012314379215240479,-0.05133277177810669,-0.044413983821868896,0.9644277237003568,-0.20861043087038575,0.15969544655023893,0.02929508414153069
1681506760683135200,0.32413525390625,-0.15887878835201263,-0.11999696493148804,-0.10899079591035843,0.3189256489276886,0.39474382996559143,-0.8616633415222168,-0.017778217792510986,-0.046126335859298706,-0.0457005500793457,0.9643550061226908,-0.20947808060195658,0.15901964695686838,0.029174540522624817
1681506760693134300,0.33413427734375,-0.14708039164543152,-0.1301211714744568,-0.18246401846408844,0.31728506088256836,0.3965146243572235,-0.8614559769630432,-0.016458094120025635,-0.039535313844680786,-0.04358863830566406,0.9643146931883542,-0.21030821314347561,0.15824814617777733,0.02872696320778307
1681506760703134200,0.34413427734375,-0.14425423741340637,-0.13336250185966492,-0.25693586468696594,0.3152746558189392,0.3984804153442383,-0.861286997795105,-0.007688045501708984,-0.04601770639419556,-0.042414844036102295,0.9642946134283191,-0.211173331930481,0.1573605253065976,0.027917457557085756
1681506760713134300,0.35413427734375,-0.13534724712371826,-0.13101546466350555,-0.32158592343330383,0.3129757046699524,0.40058931708335876,-0.8611471056938171,-0.003359675407409668,-0.06225624680519104,-0.04191380739212036,0.9642907999993863,-0.21205385487965936,0.15639564213511398,0.026771381989290563
1681506760723134200,0.36413427734375,-0.13749055564403534,-0.1242784708738327,-0.3767373263835907,0.3104821443557739,0.40283170342445374,-0.8610036969184875,-0.003826320171356201,-0.07089206576347351,-0.03972262144088745,0.9642926355612147,-0.21295546574315496,0.1553966218162213,0.025325736103453875
1681506760733133300,0.37413330078125,-0.16899095475673676,-0.12839198112487793,-0.43280139565467834,0.3077540993690491,0.4053889513015747,-0.8607829213142395,-0.0027920007705688477,-0.07700461149215698,-0.030147314071655273,0.9642784933699601,-0.2139856114759676,0.15433308111149582,0.023632336556975716
1681506760743133200,0.38413330078125,-0.21977689862251282,-0.13634951412677765,-0.49057361483573914,0.3047328591346741,0.4084744453430176,-0.8603990077972412,-0.004485726356506348,-0.09858375787734985,-0.02274918556213379,0.9642244009900418,-0.21526187705593977,0.1531757471364946,0.021697482807791244
1681506760753133300,0.39413330078125,-0.27807846665382385,-0.143031507730484,-0.5448154211044312,0.3014109134674072,0.4121900796890259,-0.859796941280365,-0.00709947943687439,-0.12221214175224304,-0.02090984582901001,0.9641143908490833,-0.21684505156106257,0.15192022825673607,0.019539209118601342
1681506760763133200,0.40413330078125,-0.3243314325809479,-0.14490103721618652,-0.6022701859474182,0.29780253767967224,0.41649511456489563,-0.858979344367981,-0.006191879510879517,-0.1375034749507904,-0.01966756582260132,0.9639477047115828,-0.21871656880337179,0.15057690667934917,0.017159227748423926
1681506760773133300,0.41413330078125,-0.3589397072792053,-0.13094408810138702,-0.6633880138397217,0.2939734160900116,0.4213293790817261,-0.8579400777816772,-0.008664608001708984,-0.15460580587387085,-0.010269761085510254,0.9637214998784808,-0.22084319044890705,0.1491919669125613,0.01452251953913191
1681506760783132400,0.42413232421875,-0.3627608120441437,-0.10025940835475922,-0.7223546504974365,0.29002949595451355,0.42647215723991394,-0.8567405343055725,-0.015417098999023438,-0.16829350590705872,0.0006003975868225098,0.9634501130582989,-0.2231023278756675,0.14783461528715044,0.011579741736649612
1681506760793132300,0.43413232421875,-0.33170604705810547,-0.0693112164735794,-0.767623782157898,0.2860983610153198,0.431618332862854,-0.8554842472076416,-0.0189780592918396,-0.17632362246513367,0.014023065567016602,0.9631575421656553,-0.22533488369347124,0.14656757600840126,0.008349870688051497
1681506760803132400,0.44413232421875,-0.2487020045518875,-0.018894914537668228,-0.8071905970573425,0.2822897136211395,0.43634429574012756,-0.854351282119751,-0.027910500764846802,-0.18358251452445984,0.026653528213500977,0.962887551914118,-0.22730855834848468,0.1454481495585433,0.004815704722251088
1681506760813132300,0.45413232421875,-0.16305819153785706,0.03141825646162033,-0.8373574614524841,0.27874064445495605,0.44040894508361816,-0.8534305095672607,-0.03974226117134094,-0.17771369218826294,0.03293490409851074,0.9626600156959344,-0.22889472190919388,0.14454048850638707,0.0009915913627423216
1681506760823131400,0.46413134765625,-0.10259829461574554,0.07147512584924698,-0.8617656230926514,0.2754243016242981,0.4438733458518982,-0.852712094783783,-0.04855665564537048,-0.16186046600341797,0.039357542991638184,0.9624690633463425,-0.23013248375269385,0.14381581865676224,-0.003068345167616983
1681506760833131300,0.47413134765625,-0.0783047303557396,0.10656007379293442,-0.8775341510772705,0.27231255173683167,0.446991503238678,-0.8520824313163757,-0.05093806982040405,-0.15242066979408264,0.03637802600860596,0.962282613567973,-0.2311681802554617,0.14324823730431907,-0.0073064317741810495
1681506760843131400,0.48413134765625,-0.09031105786561966,0.1215486153960228,-0.8878437280654907,0.26933735609054565,0.45009028911590576,-0.8513965606689453,-0.05243369936943054,-0.15291020274162292,0.031023025512695312,0.962061926958236,-0.23219416252980735,0.14278510178492085,-0.011625763989918356
1681506760853131300,0.49413134765625,-0.12164527922868729,0.12143329530954361,-0.8880925178527832,0.2663596570491791,0.4533616602420807,-0.8505972623825073,-0.05169907212257385,-0.16255971789360046,0.025371432304382324,0.9617919691872873,-0.23332308148290354,0.14234358531066507,-0.01596535336572396
1681506760863131400,0.50413134765625,-0.14166346192359924,0.12795032560825348,-0.9047401547431946,0.26334086060523987,0.45686042308807373,-0.8496647477149963,-0.046849191188812256,-0.167569100856781,0.019861221313476562,0.9614674707958409,-0.2345863769987443,0.14190439100377414,-0.020316744171657613
1681506760873130200,0.514130126953125,-0.13423776626586914,0.15377232432365417,-0.9222627282142639,0.260324090719223,0.46044760942459106,-0.8486573696136475,-0.04093325138092041,-0.16163483262062073,0.01566481590270996,0.9611007080309657,-0.23589309548162415,0.14151239515500513,-0.024780788974583134
1681506760883130400,0.52413037109375,-0.11942499876022339,0.17830616235733032,-0.9321720600128174,0.25743475556373596,0.46390673518180847,-0.8476543426513672,-0.03679272532463074,-0.13599541783332825,0.008314073085784912,0.9607110876544686,-0.23712492678742927,0.14122533478574384,-0.029348940218036117
1681506760893130200,0.534130126953125,-0.1164606362581253,0.21417096257209778,-0.9381681680679321,0.2547546327114105,0.46729689836502075,-0.8466012477874756,-0.0364777147769928,-0.09170189499855042,0.006864309310913086,0.9602839851061463,-0.23831842849762058,0.14108048643342352,-0.03398822754595847
1681506760903130400,0.54413037109375,-0.1148371770977974,0.2505936920642853,-0.9535961151123047,0.2522883117198944,0.47066643834114075,-0.8454724550247192,-0.024978190660476685,-0.0569397509098053,0.0015240907669067383,0.9598106133039916,-0.23949466628481092,0.14108891793158154,-0.038725249364548554
1681506760913130200,0.554130126953125,-0.11345234513282776,0.297332227230072,-0.9573147892951965,0.25008177757263184,0.47402939200401306,-0.8442482948303223,-0.014989674091339111,-0.036132752895355225,0.0026650428771972656,0.9592844458590398,-0.2406593141738791,0.1412761091215817,-0.04355983725078766
1681506760923129300,0.56412939453125,-0.11983354389667511,0.34608006477355957,-0.9542433619499207,0.24824820458889008,0.4773815870285034,-0.8428995013237,-0.014681950211524963,-0.014872521162033081,-0.005534946918487549,0.9586981939027046,-0.2418131183621185,0.14169210707760546,-0.04845008557265412
1681506760933129200,0.574129150390625,-0.14603185653686523,0.3946039080619812,-0.9469769597053528,0.2468181699514389,0.48084887862205505,-0.8413472175598145,-0.012687340378761292,0.014069885015487671,-0.015708506107330322,0.9580323233739269,-0.24302751019323454,0.14235177494456747,-0.0533623519645663
1681506760943129300,0.58412939453125,-0.17279262840747833,0.4383940100669861,-0.9355999231338501,0.2457735538482666,0.4845152795314789,-0.8395476341247559,-0.004577904939651489,0.031292736530303955,-0.02098703384399414,0.9572763572733879,-0.24434981628853214,0.14324572622029594,-0.05827288925056858
1681506760953129200,0.594129150390625,-0.16663582623004913,0.4758094251155853,-0.9130238890647888,0.24510207772254944,0.48822903633117676,-0.837590217590332,0.003829777240753174,0.04918545484542847,-0.027979910373687744,0.9564568556777303,-0.24570052516183985,0.1443473135331194,-0.06312944630559578
1681506760963128300,0.60412841796875,-0.12772145867347717,0.5020738244056702,-0.8980681300163269,0.24476993083953857,0.4917055368423462,-0.8356514573097229,0.010677412152290344,0.08272677659988403,-0.040752410888671875,0.955619624741944,-0.2469161817641417,0.1456251201643389,-0.067947172032409
1681506760973128200,0.614128173828125,-0.055133797228336334,0.5259803533554077,-0.8848020434379578,0.24468234181404114,0.4946570098400116,-0.833933413028717,0.02452842891216278,0.13165512681007385,-0.06842559576034546,0.9548150386232163,-0.2478288122585015,0.1470175864286887,-0.0727656740584843
1681506760983128300,0.62412841796875,0.0175209678709507,0.5376937389373779,-0.8880175352096558,0.24471406638622284,0.49696293473243713,-0.8325520157814026,0.05121485888957977,0.1946568489074707,-0.09719657897949219,0.954069352531844,-0.2483630595021057,0.14845804886355715,-0.07763732533748124
1681506760993128200,0.634128173828125,0.07344429194927216,0.5484393835067749,-0.8952658176422119,0.244798943400383,0.4987384080886841,-0.8314646482467651,0.08094564080238342,0.23996999859809875,-0.11511433124542236,0.9533673627998502,-0.24857733519344558,0.14992330127342351,-0.08260010173169775
1681506761003128300,0.64412841796875,0.08075413107872009,0.5561082363128662,-0.8744156956672668,0.24495111405849457,0.500260591506958,-0.830504834651947,0.10043153166770935,0.2583147883415222,-0.11813408136367798,0.9526714964792594,-0.2486375313404412,0.15141647170675396,-0.08757566124466791
1681506761013127400,0.65412744140625,0.0768812745809555,0.5641773343086243,-0.8498097658157349,0.24528665840625763,0.5017518997192383,-0.8295055031776428,0.10650469362735748,0.24275481700897217,-0.09540599584579468,0.9519489302334312,-0.2486830894510803,0.1529835317228177,-0.09244368967516166
1681506761023127300,0.664127197265625,0.100220687687397,0.572791576385498,-0.8163037300109863,0.24580121040344238,0.5030775666236877,-0.8285497426986694,0.10078689455986023,0.20576941967010498,-0.06505072116851807,0.9512256721030174,-0.24864110223306912,0.15460505521992335,-0.09718300753646598
1681506761033127400,0.67412744140625,0.1151137724518776,0.5801647901535034,-0.794380784034729,0.2465289980173111,0.5041472911834717,-0.8276829123497009,0.08505971729755402,0.17982786893844604,-0.04362452030181885,0.9505138805699891,-0.2484569316318753,0.15629365207451643,-0.10180752551313632
1681506761043127300,0.684127197265625,0.08322268724441528,0.5633724927902222,-0.7856855988502502,0.24727937579154968,0.5052571296691895,-0.8267818093299866,0.06978297233581543,0.17363685369491577,-0.014908313751220703,0.9497784677878971,-0.2482959071469039,0.1579817514672133,-0.10635689411846913
1681506761053126400,0.69412646484375,0.03925028443336487,0.5257010459899902,-0.7783664464950562,0.24783948063850403,0.5067133903503418,-0.8257221579551697,0.056374967098236084,0.16726720333099365,-0.0008007287979125977,0.9489926704610024,-0.24834547564554157,0.15957270559626252,-0.1107875462157711
1681506761063126300,0.704126220703125,0.06349942833185196,0.5008183717727661,-0.7850823998451233,0.24810349941253662,0.5082643628120422,-0.8246890306472778,0.04163035750389099,0.1453763246536255,-0.004015862941741943,0.9481988915872758,-0.24846021350136563,0.16100626146562563,-0.1151661739155426
1681506761073126400,0.71412646484375,0.1115148738026619,0.49380019307136536,-0.7948189973831177,0.24817489087581635,0.5095190405845642,-0.8238928914070129,0.030252188444137573,0.12311023473739624,-0.01582878828048706,0.9474400543593755,-0.24840145375650255,0.16232764029484878,-0.11959778836086815
1681506761083126300,0.724126220703125,0.13944238424301147,0.49801892042160034,-0.7925063371658325,0.24820488691329956,0.5104440450668335,-0.8233110904693604,0.013880044221878052,0.11792808771133423,-0.0014874935150146484,0.9467098467178402,-0.24814478771177567,0.1636111584094608,-0.12408019428578679
1681506761093126400,0.73412646484375,0.12444232404232025,0.4993877708911896,-0.7771177887916565,0.24829892814159393,0.5112868547439575,-0.8227596282958984,-0.007805183529853821,0.11290431022644043,0.024999558925628662,0.9459715518537107,-0.24783920589548034,0.16491187537836854,-0.12852073957164475
1681506761103125200,0.744125244140625,0.09214457124471664,0.5163604021072388,-0.7553136944770813,0.24854126572608948,0.5123094916343689,-0.8220499753952026,-0.02164311707019806,0.06737172603607178,0.05419719219207764,0.9451832300332877,-0.24763515172574235,0.16628844505346077,-0.13286650701225652
1681506761113125400,0.75412548828125,0.09296461194753647,0.5460280776023865,-0.7257092595100403,0.24910666048526764,0.5134087204933167,-0.8211926221847534,-0.03890161216259003,0.006763279438018799,0.08066833019256592,0.9443531805645319,-0.24746935417395322,0.16781716158092147,-0.137089045262227
1681506761123125200,0.764125244140625,0.12594279646873474,0.5857411026954651,-0.6820096969604492,0.2501332759857178,0.5142823457717896,-0.8203334808349609,-0.05639246106147766,-0.0258791446685791,0.09627336263656616,0.9435181909404396,-0.24715996995923312,0.16954414462005224,-0.14120955458949275
1681506761133125400,0.77412548828125,0.1569703221321106,0.6153654456138611,-0.6263092756271362,0.25171056389808655,0.5147623419761658,-0.819549560546875,-0.07498326897621155,-0.030906260013580322,0.1011505126953125,0.9427114330001215,-0.246618890068957,0.17147691338357143,-0.14515502693450444
1681506761143124500,0.78412451171875,0.1759786456823349,0.6268317103385925,-0.5782924890518188,0.25370487570762634,0.5149210691452026,-0.818834662437439,-0.09299930930137634,-0.028806626796722412,0.08838111162185669,0.9419365237192029,-0.24589636778320623,0.17354440095071738,-0.14890573272597776
1681506761153124600,0.79412451171875,0.17738638818264008,0.6281973719596863,-0.5352925658226013,0.2559869885444641,0.5148996114730835,-0.8181375861167908,-0.1073358952999115,-0.02655738592147827,0.062384963035583496,0.941183477847533,-0.24507968598002988,0.17569053616659136,-0.15245465848764275
1681506761163124500,0.80412451171875,0.19138556718826294,0.6238100528717041,-0.48703262209892273,0.25847896933555603,0.5147135853767395,-0.8174707889556885,-0.1147259771823883,-0.021091938018798828,0.028057336807250977,0.9404601355535747,-0.2441852906565792,0.17787114834959653,-0.15578842772821563
1681506761173124600,0.81412451171875,0.21254880726337433,0.6144765019416809,-0.4432260990142822,0.26114580035209656,0.5142832398414612,-0.8168939352035522,-0.11356282234191895,-0.004471898078918457,-0.006058394908905029,0.9397843204486193,-0.2431713911967914,0.1800575484201199,-0.15890999984555218
1681506761183124500,0.82412451171875,0.23450444638729095,0.5879597067832947,-0.4017167389392853,0.2638930678367615,0.5135663747787476,-0.8164618611335754,-0.10910791158676147,0.01524209976196289,-0.019231557846069336,0.9391720022566241,-0.24202173795021975,0.1821937181539331,-0.16182311790799955
1681506761193123600,0.83412353515625,0.24810056388378143,0.5680666565895081,-0.36965885758399963,0.26662757992744446,0.5126110315322876,-0.816173791885376,-0.11692363023757935,0.02335381507873535,-0.021182775497436523,0.9386212328694353,-0.24076654218117471,0.18424056375548462,-0.16455077792448042
1681506761203123500,0.84412353515625,0.2433241903781891,0.5376243591308594,-0.3403920531272888,0.2693277895450592,0.5115355849266052,-0.8159618973731995,-0.11997479200363159,0.03829944133758545,-0.017930924892425537,0.9381129864443694,-0.23947176501853376,0.18620505311853947,-0.16710734139527597
1681506761213123600,0.85412353515625,0.2382645308971405,0.5057643055915833,-0.31708216667175293,0.27189239859580994,0.5104689002037048,-0.8157793283462524,-0.10712802410125732,0.05285501480102539,-0.008256316184997559,0.9376342686405792,-0.2382153212211624,0.18805261198889964,-0.1695036590299273
1681506761223123500,0.86412353515625,0.2303653359413147,0.47522905468940735,-0.29840779304504395,0.27432480454444885,0.5093928575515747,-0.8156377077102661,-0.09608691930770874,0.05823403596878052,-0.0004023909568786621,0.9371871190192053,-0.23698573075268897,0.1897865060681582,-0.1717532096215035
1681506761233123600,0.87412353515625,0.22653119266033173,0.4436425566673279,-0.2991075813770294,0.27655652165412903,0.508341908454895,-0.8155397176742554,-0.09229141473770142,0.0660751461982727,0.006060898303985596,0.9367629663624323,-0.2357975216187769,0.19138882157266,-0.17391066948208234
1681506761243122700,0.884122802734375,0.2330772429704666,0.4046027362346649,-0.3097543716430664,0.278486967086792,0.5073298811912537,-0.8155129551887512,-0.08933904767036438,0.07613557577133179,0.0037758350372314453,0.9363541222437056,-0.23464986660344866,0.19282886233303587,-0.1760606613617044
1681506761253122600,0.89412255859375,0.2380009889602661,0.3624539077281952,-0.31970125436782837,0.28002217411994934,0.5062808394432068,-0.8156391978263855,-0.08756306767463684,0.09717369079589844,-0.011280417442321777,0.9359809020645801,-0.23350788200941638,0.19404760225461345,-0.17821141358380915
1681506761263122400,0.904122314453125,0.20841166377067566,0.3103627562522888,-0.3348762094974518,0.28111013770103455,0.505359411239624,-0.8158363103866577,-0.08543145656585693,0.1213952898979187,-0.021947503089904785,0.9356223459517334,-0.232468763226037,0.19503873040379216,-0.18035768154453793
1681506761273122600,0.91412255859375,0.14712610840797424,0.2486073076725006,-0.349497526884079,0.2816561162471771,0.5048606991767883,-0.8159568309783936,-0.08634364604949951,0.1366492509841919,-0.03089076280593872,0.9352466068914419,-0.23171132239863287,0.1957841932586898,-0.1824617044949857
1681506761283121700,0.92412158203125,0.07963921874761581,0.19485485553741455,-0.3690667152404785,0.28164079785346985,0.50496506690979,-0.8158974647521973,-0.08884602785110474,0.1316772699356079,-0.04086834192276001,0.9348293485707974,-0.23134105736247532,0.19629717534865143,-0.18450662533657872
1681506761293121500,0.93412158203125,0.03330938518047333,0.15769317746162415,-0.38951346278190613,0.28115758299827576,0.5055739283561707,-0.8156870603561401,-0.08358681201934814,0.11678624153137207,-0.04139912128448486,0.9343713497755455,-0.23128953105353814,0.19662558399961155,-0.18653037265662892
1681506761303121700,0.94412158203125,0.01267920807003975,0.13552021980285645,-0.41035720705986023,0.2803182303905487,0.5065310001373291,-0.8153821229934692,-0.0822134017944336,0.10276764631271362,-0.02842891216278076,0.9338767136859948,-0.23145157920040646,0.1968225158695401,-0.1885874101447511
1681506761313121500,0.95412158203125,0.004565354902297258,0.1251264363527298,-0.41893792152404785,0.27926769852638245,0.5076344013214111,-0.815056324005127,-0.08436721563339233,0.08852636814117432,-0.015891611576080322,0.9333630722144387,-0.23170337394118726,0.19694007339118721,-0.1906866440694985
1681506761323121700,0.96412158203125,0.0015879408456385136,0.12664417922496796,-0.42846113443374634,0.2781313955783844,0.5087843537330627,-0.814727783203125,-0.08626741170883179,0.0706985592842102,-0.005905210971832275,0.9328390867976168,-0.23198406674463332,0.19702664639614675,-0.19280832702850703
1681506761333120500,0.97412060546875,0.011090882122516632,0.13312849402427673,-0.43269506096839905,0.2769959568977356,0.5099385976791382,-0.8143929243087769,-0.09073194861412048,0.05275970697402954,0.0039833784103393555,0.9323002195624711,-0.2322597138153934,0.19712674782570502,-0.19496851381494604
1681506761343120600,0.98412060546875,0.040098562836647034,0.14226554334163666,-0.4246920049190521,0.2759109437465668,0.5109279155731201,-0.8141411542892456,-0.09735259413719177,0.04664337635040283,0.01033860445022583,0.9317712545884258,-0.2324343608175516,0.1972401898705325,-0.19716221515013777
1681506761353120500,0.99412060546875,0.06067168712615967,0.1579398512840271,-0.4166889786720276,0.2749774754047394,0.5116813778877258,-0.8139837384223938,-0.10128667950630188,0.048621296882629395,0.007205784320831299,0.9312644173666671,-0.23246917625958244,0.19739859488223452,-0.1993449470961062
1681506761363120600,1.00412060546875,0.07631935179233551,0.16933923959732056,-0.4067162275314331,0.27420398592948914,0.5122502446174622,-0.8138868808746338,-0.10144400596618652,0.05214172601699829,0.007627725601196289,0.9307716959961337,-0.2323917005345399,0.197612376682051,-0.20151326891262406
1681506761373119500,1.014119384765625,0.07938483357429504,0.17974853515625,-0.40281662344932556,0.27355146408081055,0.5127227306365967,-0.8138089776039124,-0.10439255833625793,0.050173938274383545,0.003414630889892578,0.9302802003316856,-0.2322517721091789,0.1978752973284956,-0.20367439432997533
1681506761383119600,1.02411962890625,0.07735949754714966,0.1899479180574417,-0.4108090400695801,0.2729766070842743,0.5131884217262268,-0.8137084245681763,-0.10130003094673157,0.04552727937698364,0.0030852556228637695,0.9297739114570193,-0.2320972692373458,0.1981833773386722,-0.20585090860814034
1681506761393119500,1.034119384765625,0.06653345376253128,0.2019605040550232,-0.41754430532455444,0.27243226766586304,0.5137228965759277,-0.8135536313056946,-0.09825322031974792,0.04970782995223999,0.004105329513549805,0.9292361417613587,-0.23196574411387305,0.19853233278241617,-0.2080793699022022
1681506761403119600,1.04411962890625,0.043857697397470474,0.21009406447410583,-0.43241405487060547,0.2719191610813141,0.5144308805465698,-0.8132778406143188,-0.09481042623519897,0.049060821533203125,0.005675911903381348,0.9286516260547286,-0.23191710524102835,0.19893600993251143,-0.21034529389074047
1681506761413119500,1.054119384765625,0.008655687794089317,0.2241060733795166,-0.45674529671669006,0.2714027464389801,0.5154169797897339,-0.8128259181976318,-0.0866188108921051,0.04129987955093384,0.01263970136642456,0.9279970466875617,-0.23200371735636133,0.19940242148351084,-0.21268404790667914
1681506761423118600,1.06411865234375,-0.01684221625328064,0.24749262630939484,-0.4728318452835083,0.27092093229293823,0.5167304873466492,-0.8121523261070251,-0.08291745185852051,0.03113621473312378,0.024829328060150146,0.9272560143673926,-0.23224525376489732,0.19996496373773867,-0.21510986585925643
1681506761433118500,1.074118408203125,-0.025042055174708366,0.2722540497779846,-0.503208577632904,0.27049750089645386,0.5182463526725769,-0.8113271594047546,-0.08408087491989136,0.02298283576965332,0.03384608030319214,0.9264403710839256,-0.2325645607399809,0.20062436363169056,-0.21765038327464908
1681506761443118600,1.08411865234375,-0.0007407105294987559,0.2978733777999878,-0.5351720452308655,0.27010759711265564,0.5197685360908508,-0.810482919216156,-0.08085286617279053,0.020590901374816895,0.03707587718963623,0.9255693746399223,-0.23284305094608057,0.20135207597108673,-0.22036952541727425
1681506761453118500,1.094118408203125,0.03186021000146866,0.3315052390098572,-0.5835591554641724,0.2697453796863556,0.5211581587791443,-0.8097108006477356,-0.07807978987693787,0.019826829433441162,0.029956161975860596,0.9246487170305088,-0.2329896362162145,0.2021396484910323,-0.22333815959390507
1681506761463117300,1.104117431640625,0.07022038102149963,0.3652549386024475,-0.6273468732833862,0.26941758394241333,0.5223573446273804,-0.8090469837188721,-0.07987293601036072,0.032497942447662354,0.023829638957977295,0.9236752923375127,-0.23296165489219417,0.20299109431850001,-0.2265997904781322
1681506761473117700,1.11411767578125,0.08190784603357315,0.39119741320610046,-0.665077805519104,0.26910528540611267,0.5234662294387817,-0.8084339499473572,-0.08094918727874756,0.051652729511260986,0.020027518272399902,0.9226427261389052,-0.23282598385714204,0.20389969782607997,-0.23010287131295368
1681506761483117600,1.12411767578125,0.07741189748048782,0.41359299421310425,-0.7033149003982544,0.2687491476535797,0.5246536731719971,-0.8077823519706726,-0.07879254221916199,0.05528700351715088,0.012051761150360107,0.9215338992435091,-0.23268864808637008,0.20485313184367107,-0.2338082460246003
1681506761493117700,1.13411767578125,0.05257279425859451,0.43343645334243774,-0.7507423162460327,0.2683471441268921,0.5260774493217468,-0.8069896101951599,-0.07588806748390198,0.03811615705490112,0.009992539882659912,0.9203177219262627,-0.23263409862392706,0.20587995910061538,-0.23771836540251126
1681506761503117600,1.14411767578125,0.03505558520555496,0.458595335483551,-0.8019501566886902,0.2678285837173462,0.5278100967407227,-0.8060299754142761,-0.07654440402984619,0.01700490713119507,0.016158759593963623,0.9189802936978022,-0.23270567507386333,0.20696152540727633,-0.24184747008613364
1681506761513116700,1.15411669921875,0.03662778437137604,0.4898020029067993,-0.8439847230911255,0.26729586720466614,0.5297378301620483,-0.8049414157867432,-0.07605749368667603,0.0016188621520996094,0.022577524185180664,0.9175202465979735,-0.2328219447842881,0.20814231496716668,-0.24622614563537792
1681506761523116500,1.164116455078125,0.04239938408136368,0.5265507102012634,-0.8879758715629578,0.26679298281669617,0.5317443013191223,-0.8037844896316528,-0.07775187492370605,-0.004141271114349365,0.029828131198883057,0.9159578858235795,-0.23291970167555834,0.20941866231239967,-0.25082541983992535
1681506761533116700,1.17411669921875,0.06269044429063797,0.5647070407867432,-0.9252844452857971,0.2663360834121704,0.5337474346160889,-0.802607536315918,-0.0806824266910553,-0.009440243244171143,0.04564946889877319,0.9142960718685441,-0.23294547762749063,0.21079052287403502,-0.25566885556942676
1681506761543116500,1.184116455078125,0.0988503098487854,0.610974907875061,-0.9567510485649109,0.2659911811351776,0.5356100797653198,-0.8014801740646362,-0.0901031494140625,-0.019817352294921875,0.05250251293182373,0.9125544317047858,-0.23281923645289948,0.2122618707578136,-0.2607383978309106
1681506761553115400,1.194115478515625,0.146578848361969,0.6644563674926758,-0.9834848046302795,0.26590442657470703,0.5372105240821838,-0.8004371523857117,-0.09744742512702942,-0.018716931343078613,0.06288832426071167,0.910739396468289,-0.23245469234595947,0.2138836806822562,-0.26603066620940224
1681506761563115500,1.204115478515625,0.18416324257850647,0.7140651941299438,-0.9932173490524292,0.2661033272743225,0.5385125279426575,-0.7994955778121948,-0.0976005494594574,-0.012526929378509521,0.06943881511688232,0.9088611176454731,-0.23183314988846326,0.2156515510565071,-0.2715127091576708
1681506761573115600,1.21411572265625,0.2100367248058319,0.7600516080856323,-0.9964612722396851,0.2666381001472473,0.5395780801773071,-0.7985985279083252,-0.10289603471755981,-0.012051284313201904,0.0693047046661377,0.9069271418067061,-0.23099851713198993,0.2175785360900393,-0.2770962828662521
1681506761583115500,1.224115478515625,0.21977217495441437,0.7949938774108887,-1.001307487487793,0.26745039224624634,0.5405232906341553,-0.7976871728897095,-0.11170396208763123,-0.012142062187194824,0.07339823246002197,0.9049274147343946,-0.23002432440447865,0.2196479707530708,-0.2827539269588137
1681506761593115600,1.23411572265625,0.2116854041814804,0.8258876800537109,-1.000840187072754,0.2684975564479828,0.5414776802062988,-0.7966874837875366,-0.11517724394798279,-0.0074048638343811035,0.06862962245941162,0.9028534765279431,-0.2289929689780834,0.22185234956175534,-0.2884428917652974
1681506761603114200,1.2441142578125,0.1926528513431549,0.8454840183258057,-1.0061644315719604,0.2697193920612335,0.5425602793693542,-0.7955374121665955,-0.10901385545730591,0.00024056434631347656,0.061162352561950684,0.9006917883202038,-0.22797760961682756,0.22418187372463982,-0.29414763001215033
1681506761613114600,1.254114501953125,0.181196391582489,0.8626036047935486,-1.0069500207901,0.2710314989089966,0.5438128113746643,-0.7942351698875427,-0.10052984952926636,0.009623348712921143,0.052795350551605225,0.8984423732809484,-0.22701136206085484,0.22660154028859647,-0.29986460844134305
1681506761623114500,1.264114501953125,0.17482717335224152,0.869610071182251,-1.0027252435684204,0.27244532108306885,0.5451359748840332,-0.7928431630134583,-0.09233060479164124,0.021758437156677246,0.04319411516189575,0.896136205777815,-0.2260488690889797,0.229085834231085,-0.3055509879433152
1681506761633114600,1.274114501953125,0.16724321246147156,0.8694972991943359,-1.0092664957046509,0.27384454011917114,0.5465310215950012,-0.7913994193077087,-0.08358272910118103,0.04366356134414673,0.041979193687438965,0.893774216163452,-0.225100708287527,0.23158146534971794,-0.3112352300953766
1681506761643114500,1.284114501953125,0.1407729983329773,0.8544831871986389,-1.02242112159729,0.27509745955467224,0.5480877757072449,-0.7898868322372437,-0.07015669345855713,0.059776484966278076,0.04359465837478638,0.8913506634643591,-0.2242347562527622,0.2340413732393691,-0.3169187398080541
1681506761653113300,1.29411328125,0.10614309459924698,0.8412286639213562,-1.0339289903640747,0.2761349678039551,0.5499502420425415,-0.7882285118103027,-0.05393648147583008,0.06842732429504395,0.036244869232177734,0.8888477722134908,-0.22354183907556274,0.23646308739519437,-0.32258930886882536
1681506761663113500,1.304113525390625,0.09768649190664291,0.8182514905929565,-1.0501824617385864,0.2769216299057007,0.5520546436309814,-0.7864795327186584,-0.035527586936950684,0.0756765604019165,0.029216289520263672,0.8862771907598752,-0.22299283266345563,0.23881883291283332,-0.328256625797591
1681506761673113600,1.314113525390625,0.11305923759937286,0.7972732782363892,-1.049362063407898,0.2774635851383209,0.5541528463363647,-0.7848111391067505,-0.019467979669570923,0.08671623468399048,0.02664768695831299,0.883681672506123,-0.2224549763350862,0.24105642936421734,-0.33393436919394937
1681506761683113500,1.324113525390625,0.14540226757526398,0.7846453785896301,-1.048921823501587,0.27784329652786255,0.5560399889945984,-0.7833406329154968,-0.011791050434112549,0.10217833518981934,0.019699275493621826,0.8811029633202111,-0.2218157820214407,0.2431613246424454,-0.3395994582960237
1681506761693112300,1.3341123046875,0.17912107706069946,0.764797568321228,-1.0568727254867554,0.2780362665653229,0.5576839447021484,-0.7821025848388672,-0.008566051721572876,0.11966884136199951,0.011182785034179688,0.8785358025235938,-0.22105446584669264,0.24511961355995332,-0.3452915105487761
1681506761703112400,1.344112548828125,0.20049721002578735,0.7477203607559204,-1.059805154800415,0.2780294418334961,0.5591484904289246,-0.7810586094856262,-0.0028524696826934814,0.1257116198539734,0.004615128040313721,0.8759715428656005,-0.22021121558894252,0.24693666837517325,-0.3510028822019258
1681506761713112600,1.354112548828125,0.21360643208026886,0.7247809767723083,-1.0518180131912231,0.2778507471084595,0.5604652166366577,-0.7801779508590698,-0.002490699291229248,0.13028478622436523,-0.005725979804992676,0.8734210840310341,-0.21931342252618874,0.2486214920223922,-0.3566853111239624
1681506761723112700,1.36411279296875,0.21537050604820251,0.7038658261299133,-1.042927861213684,0.2775424122810364,0.5617056488990784,-0.7793952226638794,-0.0027774274349212646,0.13403397798538208,-0.01718991994857788,0.8708802406852106,-0.21840193184189668,0.2502058986522152,-0.36230524252717033
1681506761733112600,1.374112548828125,0.2169053703546524,0.6823305487632751,-1.0322322845458984,0.2771153151988983,0.562908411026001,-0.7786791324615479,-0.006805866956710815,0.13412827253341675,-0.024833500385284424,0.8683505976943252,-0.21750275795682725,0.25170018574647957,-0.36784060576619526
1681506761743111400,1.384111328125,0.24853254854679108,0.6594859957695007,-1.025330662727356,0.2765226364135742,0.5639668107032776,-0.7781237959861755,-0.010149985551834106,0.13377171754837036,-0.02958500385284424,0.8658470123259724,-0.21656332621961927,0.25305814301479357,-0.373324113051134
1681506761753111300,1.394111328125,0.2843509316444397,0.6373727321624756,-1.0265017747879028,0.2757752239704132,0.5647357106208801,-0.7778313755989075,-0.014117538928985596,0.1381908655166626,-0.033203840255737305,0.8633799818454503,-0.21549699013061682,0.2542545133874584,-0.37880175958052226
1681506761763111700,1.404111572265625,0.3133777678012848,0.6067447662353516,-1.024012804031372,0.27481770515441895,0.5652162432670593,-0.7778211832046509,-0.01543360948562622,0.15266388654708862,-0.03084886074066162,0.8609565504901001,-0.21431975138211817,0.2552576416940547,-0.38427106684819945
1681506761773111600,1.414111572265625,0.309413880109787,0.571895182132721,-1.0237823724746704,0.27361026406288147,0.5655921697616577,-0.7779735326766968,-0.01082339882850647,0.16624975204467773,-0.025188088417053223,0.8585531636978365,-0.2131430042228257,0.2560923275837446,-0.389709008840042
1681506761783111700,1.424111572265625,0.3028843402862549,0.5443466305732727,-1.02125084400177,0.27217674255371094,0.5660214424133301,-0.7781642079353333,-0.0023555755615234375,0.16070884466171265,-0.013263404369354248,0.8561539718938783,-0.21205683805444572,0.2568068975930981,-0.3950727339149885
1681506761793110300,1.4341103515625,0.3205447196960449,0.5157803893089294,-1.0020803213119507,0.27057576179504395,0.5663517713546753,-0.7784820795059204,0.0038383007049560547,0.14338022470474243,-0.0015472173690795898,0.8537900676045206,-0.21097733034143812,0.25738591996817606,-0.4003541890619702
1681506761803110400,1.4441103515625,0.32958242297172546,0.4872554838657379,-0.9838643074035645,0.26885294914245605,0.5665046572685242,-0.778967559337616,0.0020210444927215576,0.1312185525894165,0.006643950939178467,0.8514827503550942,-0.20986275526679452,0.25782520954477667,-0.4055376355676405
1681506761813110500,1.454110595703125,0.31304681301116943,0.4656868278980255,-0.9629843235015869,0.26704856753349304,0.5666014552116394,-0.7795177102088928,-0.006184309720993042,0.13298338651657104,0.017539501190185547,0.8492172729325926,-0.20877498450037796,0.2581746782651232,-0.4105956970329906
1681506761823110700,1.464110595703125,0.2800142765045166,0.43800219893455505,-0.9458582997322083,0.26516005396842957,0.5668103098869324,-0.7800103425979614,-0.009056538343429565,0.13091295957565308,0.017955899238586426,0.8469737045860192,-0.20780740794262137,0.2584780448338483,-0.41550048400738837
1681506761833109500,1.474109619140625,0.2475290149450302,0.4182429313659668,-0.9249749779701233,0.263189435005188,0.567237138748169,-0.7803674340248108,-0.012762188911437988,0.11472386121749878,0.013201236724853516,0.8447384211140762,-0.20701606309524329,0.25876754478850983,-0.42023874802901046
1681506761843109400,1.484109375,0.23078279197216034,0.4136393964290619,-0.9102255702018738,0.26122209429740906,0.5677832961082458,-0.7806311845779419,-0.024832963943481445,0.0946769118309021,0.013663411140441895,0.8425093904841714,-0.2063222959374778,0.25906662997058055,-0.42484508987676384
1681506761853109500,1.494109619140625,0.2177283614873886,0.4127294719219208,-0.8998560905456543,0.259312242269516,0.5683994293212891,-0.7808195352554321,-0.03871592879295349,0.08771318197250366,0.01565229892730713,0.8402720741526285,-0.2056756479444657,0.25939883266850533,-0.4293627779799141
1681506761863109600,1.504109619140625,0.20849572122097015,0.41590580344200134,-0.8873251080513,0.2574734389781952,0.5690506100654602,-0.7809537649154663,-0.04626131057739258,0.09681236743927002,0.02187478542327881,0.8380238680111318,-0.20504909163650215,0.2597652423346967,-0.433811952641096
1681506761873109500,1.514109619140625,0.2125038206577301,0.42615318298339844,-0.8812862038612366,0.25574183464050293,0.5696980357170105,-0.7810506820678711,-0.04866480827331543,0.10411471128463745,0.027541160583496094,0.8357571297632875,-0.20440657194415549,0.2601780124448322,-0.4382183278260828
1681506761883108400,1.5241083984375,0.253977507352829,0.44474950432777405,-0.8789277076721191,0.2541227638721466,0.5701467394828796,-0.7812517285346985,-0.051013052463531494,0.10256737470626831,0.032441914081573486,0.8334883461513819,-0.203636538585124,0.26058838338063267,-0.4426317428447663
1681506761893108500,1.5341083984375,0.31798866391181946,0.45877018570899963,-0.8782820701599121,0.2526305019855499,0.5701467990875244,-0.7817355394363403,-0.05170276761054993,0.11358422040939331,0.03341394662857056,0.8312370661807864,-0.20259575753368947,0.2609352323192606,-0.4471158762601187
1681506761903108600,1.544108642578125,0.3758793771266937,0.4729054570198059,-0.8742313981056213,0.25127166509628296,0.5696439743041992,-0.7825395464897156,-0.04729217290878296,0.13949286937713623,0.036506831645965576,0.8290099673127026,-0.20125611958255685,0.2612014292654155,-0.45167695396248064
1681506761913108500,1.5541083984375,0.39256516098976135,0.4784376323223114,-0.8695282340049744,0.2500176727771759,0.5687980055809021,-0.7835559844970703,-0.0422845184803009,0.16064834594726562,0.03819459676742554,0.826797881168928,-0.19971631843561707,0.2614104127106232,-0.4562708805732376
1681506761923107300,1.564107421875,0.36303016543388367,0.47190383076667786,-0.861783504486084,0.2488073855638504,0.5679725408554077,-0.7845393419265747,-0.0377630740404129,0.16264867782592773,0.03984940052032471,0.824569398618786,-0.19818978669356374,0.26163166418440836,-0.4608197835830545
1681506761933107500,1.574107421875,0.28807497024536133,0.4573720395565033,-0.8513753414154053,0.2475835531949997,0.5675445199012756,-0.7852360606193542,-0.0364629328250885,0.1459716558456421,0.04016458988189697,0.8222996479042003,-0.19689705343565525,0.26194185373523066,-0.46523255388484747
1681506761943107300,1.584107421875,0.20023059844970703,0.44426795840263367,-0.837506115436554,0.24631986021995544,0.5677050352096558,-0.7855173945426941,-0.035367101430892944,0.12289243936538696,0.037455201148986816,0.8199766299664237,-0.19594676987184612,0.2623855449099648,-0.4694646637716185
1681506761953107700,1.594107666015625,0.08210475742816925,0.42420104146003723,-0.8264566659927368,0.2450057715177536,0.5686295032501221,-0.7852595448493958,-0.0331985205411911,0.10593092441558838,0.03594619035720825,0.8175837482483916,-0.195431620864594,0.2630146391227056,-0.4734832885119572
1681506761963107600,1.604107666015625,-0.041224971413612366,0.40537354350090027,-0.8127254247665405,0.24358245730400085,0.5704697370529175,-0.7843671441078186,-0.030676573514938354,0.09862804412841797,0.039722979068756104,0.815108309601937,-0.19544252435045079,0.2638534374404751,-0.4772651431956441
1681506761973106400,1.6141064453125,-0.16949307918548584,0.38271331787109375,-0.8020749688148499,0.24203583598136902,0.5732470154762268,-0.7828196287155151,-0.033951714634895325,0.08655816316604614,0.04084569215774536,0.812553314975907,-0.19599476935316523,0.2649079981220023,-0.48079830359814857
1681506761983106300,1.624106201171875,-0.26418256759643555,0.3888537585735321,-0.7968951463699341,0.24045652151107788,0.5769131779670715,-0.7806098461151123,-0.03589719533920288,0.07475906610488892,0.042618513107299805,0.8098963851368606,-0.1970280175549823,0.2662236374348318,-0.4841204805184906
1681506761993106400,1.6341064453125,-0.2706647515296936,0.3909570574760437,-0.7923192381858826,0.23887351155281067,0.5809563398361206,-0.7780932784080505,-0.03594687581062317,0.06973934173583984,0.04915040731430054,0.8071703451235653,-0.19825320638486574,0.26767336589868157,-0.487362844806082
1681506762003106600,1.6441064453125,-0.21094734966754913,0.42197754979133606,-0.7876285910606384,0.23741918802261353,0.5847247242927551,-0.7757119536399841,-0.05019386112689972,0.06902271509170532,0.03855985403060913,0.804454946370959,-0.19930156019423403,0.2691150543932661,-0.4906200452312919
1681506762013106700,1.654106689453125,-0.15132535994052887,0.46725282073020935,-0.7879939675331116,0.23623760044574738,0.5879800915718079,-0.7736091613769531,-0.062272146344184875,0.09774976968765259,0.0529823899269104,0.8017371046812523,-0.1999918779043824,0.2705525023082903,-0.49398596857490196
1681506762023105300,1.664105224609375,-0.15473607182502747,0.5010626912117004,-0.7715486288070679,0.23537740111351013,0.5909713506698608,-0.771589457988739,-0.06725606322288513,0.1372084617614746,0.06823551654815674,0.7989981293307116,-0.20044755274714676,0.2720773114085539,-0.49738975529828033
1681506762033105400,1.67410546875,-0.2287614792585373,0.5323651432991028,-0.7531219124794006,0.23484687507152557,0.5942121148109436,-0.7692586183547974,-0.07931403815746307,0.14483195543289185,0.07687580585479736,0.7962029761495908,-0.20094752754456774,0.2738444486909846,-0.5006895362462083
1681506762043105300,1.684105224609375,-0.35855597257614136,0.5803079009056091,-0.7412066459655762,0.23466968536376953,0.5981999039649963,-0.7662160396575928,-0.08841417729854584,0.11249333620071411,0.092876136302948,0.7932717667802308,-0.20173375331981078,0.2760352910244403,-0.5038133525657243
1681506762053105700,1.694105712890625,-0.5379958152770996,0.6327094435691833,-0.7382985949516296,0.2348380982875824,0.6033384203910828,-0.7621245384216309,-0.1003623753786087,0.07480782270431519,0.10819381475448608,0.7901120754723148,-0.202995423829684,0.27880208124230094,-0.5067397208470441
1681506762063104500,1.7041044921875,-0.7748235464096069,0.6740002036094666,-0.7295575737953186,0.2353534698486328,0.6100270748138428,-0.756621241569519,-0.11195561289787292,0.05455416440963745,0.12385445833206177,0.7866637144658217,-0.20493959650100654,0.28229267672511216,-0.5093826481786614
1681506762073104400,1.7141044921875,-1.0200601816177368,0.7048628330230713,-0.7359476089477539,0.2360486090183258,0.6185282468795776,-0.7494690418243408,-0.11861695349216461,0.03389167785644531,0.13412779569625854,0.7828877562615968,-0.2077520465764833,0.28653895873641966,-0.5116846859836778
1681506762083104300,1.724104248046875,-1.2152440547943115,0.7357091307640076,-0.747145414352417,0.2367795705795288,0.6286430954933167,-0.7407720685005188,-0.12947975099086761,0.006976962089538574,0.1442449688911438,0.778769526217782,-0.21136062162424266,0.2914457761252844,-0.5137158752217663
1681506762093104400,1.7341044921875,-1.3276227712631226,0.7984704375267029,-0.7514258027076721,0.23763777315616608,0.6398316025733948,-0.7308513522148132,-0.14216351509094238,-0.011093318462371826,0.13093674182891846,0.7743514828619541,-0.21546469553482603,0.29689945553973573,-0.5155631131307756
1681506762103104500,1.7441044921875,-1.3037980794906616,0.9290124773979187,-0.7348859906196594,0.23905125260353088,0.6512366533279419,-0.7202396988868713,-0.1549600511789322,0.00176316499710083,0.09578901529312134,0.7696915767126883,-0.21948579353526587,0.302830188107223,-0.5173921246292787
1681506762113103400,1.754103271484375,-1.0683507919311523,1.02815580368042,-0.7644078731536865,0.2411866933107376,0.6616151928901672,-0.7099959850311279,-0.16686111688613892,0.03781712055206299,0.08415675163269043,0.7649271254916865,-0.22268470352276498,0.30889080363458166,-0.5195040522764163
1681506762123103500,1.764103515625,-0.6688699722290039,1.1363965272903442,-0.7898818254470825,0.24363210797309875,0.6696630120277405,-0.7015659213066101,-0.17951467633247375,0.07859742641448975,0.07320898771286011,0.7602432021472629,-0.22441332568111358,0.31441324021522526,-0.5223151205072134
1681506762133103400,1.774103271484375,-0.25193163752555847,1.2548975944519043,-0.8204580545425415,0.24659214913845062,0.6748425364494324,-0.6955427527427673,-0.20194494724273682,0.1466141939163208,0.07112258672714233,0.7557268026015511,-0.22429143286767056,0.31925220214485106,-0.5259735968231972
1681506762143101700,1.784101806640625,0.09811211377382278,1.3396915197372437,-0.8951778411865234,0.24980618059635162,0.6774575710296631,-0.6918439865112305,-0.20756983757019043,0.23553675413131714,0.07813549041748047,0.7512939025212318,-0.22250040420176379,0.3233752733097223,-0.5305463705284215
1681506762153101600,1.7941015625,0.3436409533023834,1.3867441415786743,-0.9791945219039917,0.2528601586818695,0.6782405376434326,-0.6899648904800415,-0.206763356924057,0.2843601107597351,0.0665823221206665,0.7468311657099708,-0.21953985778634433,0.3268329783354542,-0.5359344391122942
1681506762163100700,1.8041005859375,0.5107929706573486,1.4202922582626343,-1.0440644025802612,0.2556556761264801,0.6778501868247986,-0.6893179416656494,-0.201410710811615,0.25702518224716187,0.043428659439086914,0.7422618897316469,-0.21582125379831826,0.329791178229586,-0.541946544542381
1681506762173100800,1.814100830078125,0.6074360609054565,1.45234215259552,-1.0757569074630737,0.25835373997688293,0.6766861081123352,-0.6894556879997253,-0.20391038060188293,0.20214372873306274,0.023348450660705566,0.7375962597793123,-0.2115798931346645,0.332424573804418,-0.5483425001316607
1681506762183100700,1.8241005859375,0.5800603628158569,1.4947282075881958,-1.1358665227890015,0.2610490322113037,0.6754072308540344,-0.6896944046020508,-0.2131974995136261,0.15244299173355103,0.012509346008300781,0.7327245712409609,-0.2071500168286671,0.335024883905549,-0.5549429634893956
1681506762193100800,1.834100830078125,0.46505314111709595,1.5021475553512573,-1.172101616859436,0.26355016231536865,0.6748124957084656,-0.689325213432312,-0.21626314520835876,0.11035889387130737,0.008447527885437012,0.7275024174309491,-0.2029900082232768,0.33783492948288246,-0.5616072022115896
1681506762203099600,1.844099609375,0.25907042622566223,1.506345272064209,-1.1127331256866455,0.26617079973220825,0.6753617525100708,-0.687778651714325,-0.23240312933921814,0.06545233726501465,0.013858973979949951,0.7220670528579737,-0.19937366686269326,0.3411169914971373,-0.5678981474565766
1681506762213099800,1.854099853515625,0.04861797019839287,1.5100964307785034,-1.0799683332443237,0.26910918951034546,0.6772347688674927,-0.6847869753837585,-0.25620028376579285,0.001125037670135498,0.021395862102508545,0.7165161855024679,-0.19640061791939584,0.34501206033568527,-0.5735833520851611
1681506762223099600,1.864099609375,-0.12366192042827606,1.5060900449752808,-1.0703351497650146,0.27206796407699585,0.6804426908493042,-0.6804239153862,-0.23532482981681824,-0.02904510498046875,0.01854342222213745,0.7107573445057865,-0.1940882275012582,0.3494535672353044,-0.5788228596672392
1681506762233099800,1.874099853515625,-0.19774501025676727,1.4739030599594116,-1.017405390739441,0.2750217914581299,0.6844179630279541,-0.6752296090126038,-0.21235394477844238,-0.03921544551849365,0.00903087854385376,0.7049385878281857,-0.19218224896445807,0.3541908913409122,-0.5836747890390347
1681506762243099600,1.884099609375,-0.17456085979938507,1.4399129152297974,-0.9572784304618835,0.2780464291572571,0.6884492635726929,-0.6698713898658752,-0.22544941306114197,-0.03548002243041992,-0.018986642360687256,0.6992634226764575,-0.1903521582560354,0.35892945765407075,-0.5881888846751611
1681506762253098800,1.8940986328125,-0.06313618272542953,1.3948196172714233,-0.9259669780731201,0.280996710062027,0.6919007301330566,-0.6650670170783997,-0.23283997178077698,-0.014349579811096191,-0.04754894971847534,0.6938029636867176,-0.18829575735465248,0.3633334368850584,-0.5925967627930222
1681506762263098600,1.9040986328125,0.0798710435628891,1.342330813407898,-0.8830040693283081,0.28378379344940186,0.6944149732589722,-0.6612522602081299,-0.21797260642051697,0.03344446420669556,-0.06148028373718262,0.6886183705174368,-0.1858614978898936,0.3671911886458901,-0.5970182534328093
1681506762273098800,1.9140986328125,0.24680650234222412,1.2942959070205688,-0.8535540103912354,0.28645554184913635,0.6958054900169373,-0.6586333513259888,-0.20332562923431396,0.08121776580810547,-0.0705994963645935,0.6837433384626938,-0.1829501368304857,0.37042216752626334,-0.6015077469292363
1681506762283098600,1.9240986328125,0.37864601612091064,1.2337607145309448,-0.8399548530578613,0.2888808846473694,0.696178138256073,-0.6571786403656006,-0.1938033401966095,0.12413424253463745,-0.06897187232971191,0.6791204846328915,-0.1796376305488652,0.3730160895750398,-0.6061226165972795
1681506762293098800,1.9340986328125,0.444338858127594,1.1797988414764404,-0.8275290727615356,0.2909836173057556,0.695864737033844,-0.6565825939178467,-0.18850558996200562,0.15098267793655396,-0.05980229377746582,0.6746981478528546,-0.17612559218099963,0.37508461206453314,-0.6107975476144009
1681506762303097600,1.94409765625,0.38810330629348755,1.1398112773895264,-0.8097162842750549,0.2928803563117981,0.6954565644264221,-0.6561715602874756,-0.1687501072883606,0.15659409761428833,-0.03802698850631714,0.6703820893478181,-0.1726835149100928,0.37695440245234785,-0.6153644832501713
1681506762313097700,1.95409765625,0.16467106342315674,1.1107239723205566,-0.7892310619354248,0.29468145966529846,0.6959378719329834,-0.6548536419868469,-0.14456546306610107,0.13009655475616455,-0.0076525211334228516,0.6660288845410129,-0.1697716346532014,0.37914480447558213,-0.6195420092669865
1681506762323097600,1.96409765625,-0.16210626065731049,1.0765577554702759,-0.7533122301101685,0.29641836881637573,0.6981993317604065,-0.6516546607017517,-0.13357660174369812,0.048001110553741455,0.02398437261581421,0.6615456375289007,-0.16783704159222518,0.3821038991620667,-0.6230446886806505
1681506762333097700,1.97409765625,-0.5414440631866455,1.0678304433822632,-0.69431072473526,0.2982737421989441,0.7026357650756836,-0.6460152268409729,-0.1331583857536316,-0.08155733346939087,0.0592384934425354,0.6569285527442289,-0.16704771897642345,0.386118421665417,-0.6256615763720822
1681506762343097600,1.98409765625,-0.9051815271377563,1.062093734741211,-0.6235859394073486,0.3004404604434967,0.7092780470848083,-0.6376991868019104,-0.12662756443023682,-0.19939041137695312,0.09357070922851562,0.6521814562334278,-0.1673755306462679,0.39132574560738875,-0.6273029566421264
1681506762353096700,1.9940966796875,-1.211714267730713,1.0636866092681885,-0.5258351564407349,0.3030545711517334,0.7177426815032959,-0.626899778842926,-0.11224338412284851,-0.26367175579071045,0.11029815673828125,0.6473806624696332,-0.1686293986206809,0.39763580100531914,-0.6279714609711434
1681506762363096800,2.004096923828125,-1.388404130935669,1.047589898109436,-0.4378666877746582,0.3061331808567047,0.7273404002189636,-0.6142135858535767,-0.09484472870826721,-0.2906186580657959,0.11049044132232666,0.642642217754808,-0.17050591083833544,0.40474799007301765,-0.6277879399390224
1681506762373096700,2.0140966796875,-1.4674022197723389,1.018094778060913,-0.3781375586986542,0.30941006541252136,0.7373039126396179,-0.600540041923523,-0.06525415182113647,-0.2960503101348877,0.10397320985794067,0.6380251473081661,-0.17269317670830736,0.41219783409068306,-0.6270517019726972
1681506762383096600,2.0240966796875,-1.4598814249038696,0.9864966869354248,-0.3169245421886444,0.31277161836624146,0.7471008896827698,-0.5865271687507629,-0.031155407428741455,-0.2546693682670593,0.06377631425857544,0.6335779105925893,-0.1749481496051096,0.41967793006736165,-0.6259732593528213
1681506762393095700,2.034095703125,-1.395709753036499,0.9494446516036987,-0.2684926390647888,0.3161695599555969,0.756308913230896,-0.5727421641349792,0.02031722664833069,-0.13137006759643555,-0.006389915943145752,0.6293573836560478,-0.17706009090052116,0.42694103702818215,-0.6247241395226157
1681506762403095800,2.044095703125,-1.3502140045166016,0.9192590713500977,-0.22333209216594696,0.3195786476135254,0.7648487687110901,-0.5593529343605042,0.09591817855834961,-0.007448434829711914,-0.05536264181137085,0.625361715130719,-0.17897755562215814,0.4339246155093739,-0.6233771351382396
1681506762413095700,2.054095703125,-1.321749210357666,0.8984400629997253,-0.19014796614646912,0.32299086451530457,0.7729018926620483,-0.5461680293083191,0.16760975122451782,0.04728841781616211,-0.07799279689788818,0.6215271631979207,-0.18077219612836595,0.4407237340126463,-0.6219227820472638
1681506762423095800,2.064095703125,-1.2811634540557861,0.8762553930282593,-0.1418914794921875,0.3264756500720978,0.7804808616638184,-0.5331634283065796,0.2025618553161621,0.027319371700286865,-0.060281455516815186,0.6178539229708326,-0.18242866528225998,0.4473679437684655,-0.6203532532867956
1681506762433095700,2.074095703125,-1.1748088598251343,0.8647805452346802,-0.09302694350481033,0.3301406800746918,0.7873510718345642,-0.5206584930419922,0.20124661922454834,-0.03864818811416626,-0.014055252075195312,0.614403866961663,-0.18378943787998775,0.4537534537300801,-0.6187381693518972
1681506762443094800,2.0840947265625,-1.0245277881622314,0.8573790788650513,-0.060775790363550186,0.3339671790599823,0.7932782173156738,-0.5090929865837097,0.1879444420337677,-0.1091504693031311,0.03471249341964722,0.6111882090715905,-0.18468148492478276,0.45972409279065324,-0.6172483842040407
1681506762453094700,2.0940947265625,-0.8130936026573181,0.8418843746185303,-0.052186429500579834,0.3377979099750519,0.7981130480766296,-0.49890682101249695,0.1847851276397705,-0.1427939534187317,0.06813591718673706,0.6081920127910339,-0.18499826313884707,0.4651045381933998,-0.6160810051474812
1681506762463094800,2.1040947265625,-0.6084309816360474,0.8213155269622803,-0.036546219140291214,0.3415367007255554,0.801767110824585,-0.4904305338859558,0.18797379732131958,-0.13271504640579224,0.09065020084381104,0.6054529172980843,-0.18469257277543125,0.4697588633004986,-0.6153388707866463
1681506762473094700,2.1140947265625,-0.5180240273475647,0.7951183319091797,-0.032557934522628784,0.3452204465866089,0.8045796155929565,-0.48319196701049805,0.1896916627883911,-0.0863332748413086,0.08916419744491577,0.6029340465245454,-0.18395619170967525,0.4738819815166309,-0.6148711596204122
1681506762483094800,2.1240947265625,-0.5301967859268188,0.759010910987854,-0.05491410568356514,0.34859421849250793,0.8072317838668823,-0.47629693150520325,0.18927806615829468,-0.033672332763671875,0.06563714146614075,0.6004678867990846,-0.18323708732701927,0.4777820610711112,-0.6144807815642982
1681506762493093600,2.13409375,-0.5834259986877441,0.7201582789421082,-0.06088804453611374,0.3516078591346741,0.8100681304931641,-0.4692137539386749,0.19084209203720093,-0.0015354752540588379,0.05272507667541504,0.5980094277726048,-0.1827796732668264,0.4816479147338978,-0.6139964048822427
1681506762503093800,2.14409375,-0.6195487976074219,0.69753497838974,-0.06525163352489471,0.3543654978275299,0.8131003379821777,-0.4618365466594696,0.1952713429927826,0.0025429129600524902,0.04188412427902222,0.5955509025015828,-0.18256568560297057,0.48554247374797094,-0.6133819824041898
1681506762513093600,2.15409375,-0.6857770085334778,0.6773493885993958,-0.04347483068704605,0.3570534288883209,0.816282331943512,-0.454088032245636,0.20253217220306396,-0.020658671855926514,0.03012251853942871,0.5931074576548535,-0.18253055927001458,0.48952893371865813,-0.6125908268801539
1681506762523093800,2.16409375,-0.7885129451751709,0.6585450768470764,-0.03528587520122528,0.35973531007766724,0.8197249174118042,-0.445692241191864,0.19620341062545776,-0.048881471157073975,0.02131474018096924,0.5906764788237314,-0.1827564594251262,0.49371444109320367,-0.611512436412613
1681506762533093600,2.17409375,-0.9234093427658081,0.6498706340789795,-0.032793693244457245,0.362328439950943,0.8236134052276611,-0.4363241195678711,0.1847449243068695,-0.08196020126342773,0.031447410583496094,0.5881698565399588,-0.18336339982945454,0.498212605674018,-0.6100967461069355
1681506762543092700,2.1840927734375,-1.05464506149292,0.6432151198387146,-0.023109372705221176,0.3648672103881836,0.8279908299446106,-0.4257967472076416,0.17521759867668152,-0.12128019332885742,0.0448153018951416,0.585554013211723,-0.18437828731993847,0.5030966839569808,-0.6082965249740672
1681506762553092600,2.194092529296875,-1.1765187978744507,0.6452493667602539,0.013115942478179932,0.3675025403499603,0.8327142596244812,-0.4141603708267212,0.16263356804847717,-0.15398812294006348,0.06271988153457642,0.5828633834597621,-0.18570554584020477,0.5083633128368379,-0.6060943981908156
1681506762563092700,2.2040927734375,-1.27499258518219,0.6457172632217407,0.06937549263238907,0.37045955657958984,0.8375679850578308,-0.401546448469162,0.15538883209228516,-0.17106419801712036,0.0839347243309021,0.5801883781160337,-0.18721644794824996,0.5139812952146752,-0.6034522994369951
1681506762573092600,2.214092529296875,-1.3474000692367554,0.6462188959121704,0.13425149023532867,0.37383928894996643,0.8423913717269897,-0.38809922337532043,0.15269577503204346,-0.18466132879257202,0.09871625900268555,0.5775850626337992,-0.1888268980920669,0.5198988309965663,-0.6003708117947094
1681506762583092700,2.2240927734375,-1.3513673543930054,0.6448867917060852,0.21692319214344025,0.37775948643684387,0.8469021320343018,-0.37423866987228394,0.1518884003162384,-0.19570279121398926,0.11282500624656677,0.5751327694349544,-0.19034541335694324,0.5259746020566212,-0.596943621407578
1681506762593091800,2.234091796875,-1.2899445295333862,0.6333721280097961,0.3175152540206909,0.3823603093624115,0.8507499098777771,-0.3605898916721344,0.1491032838821411,-0.21352773904800415,0.1200808584690094,0.5729693090419472,-0.1915349369316429,0.5319956960096837,-0.5932967478480043
1681506762603091700,2.244091796875,-1.1938132047653198,0.6089802384376526,0.4286862313747406,0.38773491978645325,0.8537256717681885,-0.34758299589157104,0.13916635513305664,-0.23551595211029053,0.11642754077911377,0.5712152974448206,-0.19226525800466765,0.5378127700064503,-0.5894950881012151
1681506762613091600,2.254091552734375,-1.0741084814071655,0.5782157778739929,0.5346351861953735,0.3938858211040497,0.8557129502296448,-0.3355731666088104,0.13370206952095032,-0.23989880084991455,0.09039485454559326,0.5699369970627806,-0.19245107472201292,0.543301027869048,-0.5856264916127136
1681506762623091700,2.264091796875,-1.0102776288986206,0.5524393320083618,0.6369245648384094,0.4007655680179596,0.8568158149719238,-0.3244283199310303,0.14432424306869507,-0.24693727493286133,0.06327405571937561,0.5691007193051074,-0.19215961233859394,0.5485075419047108,-0.5816688194468633
1681506762633090800,2.2740908203125,-0.9700844883918762,0.5215864181518555,0.7384047508239746,0.4083717465400696,0.8571943640708923,-0.3137679100036621,0.15693587064743042,-0.2695327401161194,0.050187528133392334,0.5686642506782092,-0.19152666717024186,0.5535644362244299,-0.5774988422608864
1681506762643090700,2.284090576171875,-0.9327179193496704,0.4956669509410858,0.8501485586166382,0.41673544049263,0.856854259967804,-0.30353277921676636,0.1545993685722351,-0.2990388870239258,0.05934634804725647,0.5686245465874419,-0.19056017137411438,0.5584983764514657,-0.5730902129246086
1681506762653090800,2.2940908203125,-0.9054957032203674,0.4947510361671448,0.9592620730400085,0.4259577691555023,0.8557863831520081,-0.29358065128326416,0.14523977041244507,-0.35014069080352783,0.06804043054580688,0.568947297756299,-0.18922591349697987,0.5633855114532431,-0.568409374428581
1681506762663090700,2.304090576171875,-0.8906201124191284,0.5097116231918335,1.08214271068573,0.4361160695552826,0.8539816737174988,-0.2837567627429962,0.13296043872833252,-0.38129502534866333,0.06982854008674622,0.5695687407201885,-0.18747641129071277,0.5683082003069279,-0.563444489734346
1681506762673090800,2.3140908203125,-0.9232382774353027,0.5263165831565857,1.2232064008712769,0.4473735988140106,0.851416826248169,-0.2737627923488617,0.11427187919616699,-0.386069655418396,0.08527091145515442,0.5704741224278338,-0.18531406949925286,0.5733910550548252,-0.5580685613259189
1681506762683089700,2.324089599609375,-0.9930373430252075,0.5478144288063049,1.371863603591919,0.4598418176174164,0.8480980396270752,-0.2632013261318207,0.09632572531700134,-0.3897547125816345,0.0993066132068634,0.5716524043430933,-0.18282032558695613,0.5787711737839734,-0.5520995943786249
1681506762693089800,2.33408984375,-1.0477327108383179,0.5632415413856506,1.522868275642395,0.47350364923477173,0.8439817428588867,-0.2519703805446625,0.09415382146835327,-0.39291679859161377,0.11480909585952759,0.5730824016859891,-0.1800190676160255,0.584472361386243,-0.5454922054679793
1681506762703089700,2.344089599609375,-1.1028409004211426,0.589357852935791,1.679011583328247,0.48839330673217773,0.8389259576797485,-0.24015668034553528,0.09328702092170715,-0.3912789225578308,0.13175815343856812,0.5747699520162468,-0.1768402163204357,0.5904652379481903,-0.5382544300404395
1681506762713089800,2.35408984375,-1.1171954870224,0.6168867349624634,1.8399231433868408,0.5045106410980225,0.8327935934066772,-0.2278677225112915,0.09166550636291504,-0.3942255973815918,0.13785606622695923,0.5767087552944876,-0.17321006561194063,0.5967113326231362,-0.5304156761695747
1681506762723089700,2.364089599609375,-1.0891088247299194,0.645831286907196,2.010892152786255,0.5218665599822998,0.8253679871559143,-0.21545948088169098,0.0854637622833252,-0.39912909269332886,0.13834148645401,0.578933228987193,-0.16897124080825784,0.6030911839123042,-0.5220784861999864
1681506762733088800,2.3740888671875,-0.9915145635604858,0.6835798025131226,2.179147720336914,0.5404629707336426,0.8164184093475342,-0.20337319374084473,0.07603788375854492,-0.40884101390838623,0.13472384214401245,0.5814790912860404,-0.16392447905430263,0.6094605547193793,-0.5133893555161052
1681506762743088600,2.384088623046875,-0.8983270525932312,0.7106580138206482,2.345317840576172,0.5602039694786072,0.8058188557624817,-0.19190402328968048,0.07009077072143555,-0.3973565697669983,0.1255892813205719,0.5843434410187028,-0.1579542949504332,0.6157096971744654,-0.5044745608003892
1681506762753088800,2.3940888671875,-0.8297224044799805,0.7088397145271301,2.4842772483825684,0.5808489918708801,0.7936459183692932,-0.1809433251619339,0.06253784894943237,-0.374578595161438,0.10690760612487793,0.5875153865701823,-0.15123440990144313,0.6218170868612447,-0.4952749110255814
1681506762763088600,2.404088623046875,-0.7315707802772522,0.7150739431381226,2.598465919494629,0.6021055579185486,0.7799847722053528,-0.1705651581287384,0.05971384048461914,-0.36061233282089233,0.08162160217761993,0.5909510716367291,-0.14385722578533366,0.6277121288240799,-0.48585935385353807
1681506762773088800,2.4140888671875,-0.5683804154396057,0.7106447219848633,2.708005428314209,0.623778223991394,0.7648113369941711,-0.16113387048244476,0.06207376718521118,-0.34160900115966797,0.059540823101997375,0.5946215177234032,-0.13571422423264914,0.6332572248763032,-0.47643685607708947
1681506762783087600,2.424087646484375,-0.3404993414878845,0.6997942328453064,2.831712007522583,0.6458488702774048,0.7479301691055298,-0.1532295197248459,0.06691956520080566,-0.2915247082710266,0.03851385414600372,0.5986177090502743,-0.1265895417175448,0.6382478603346049,-0.4671952141674742
1681506762793087700,2.434087646484375,-0.17206405103206635,0.6809945702552795,2.9232165813446045,0.6681517362594604,0.7293925285339355,-0.14683225750923157,0.07594305276870728,-0.20062977075576782,0.0022856593132019043,0.6029119673513111,-0.1165271926556265,0.6426548692871557,-0.4581629030433671
1681506762803087600,2.444087646484375,-0.07847975939512253,0.6530926823616028,2.9981625080108643,0.6904149651527405,0.7094573378562927,-0.14141172170639038,0.09313905239105225,-0.12493902444839478,-0.0409613698720932,0.6074053387081604,-0.10583930939004477,0.6466004773938193,-0.44918199720588864
1681506762813087700,2.454087646484375,-0.0017728018574416637,0.6043557524681091,3.058838367462158,0.7124640941619873,0.6882596611976624,-0.13672314584255219,0.10082930326461792,-0.09553217887878418,-0.07305477559566498,0.612080973864897,-0.09473790378918615,0.650125494791259,-0.4401343510697442
1681506762823087600,2.464087646484375,0.07885467261075974,0.539891242980957,3.0976710319519043,0.7340990900993347,0.6659226417541504,-0.13283617794513702,0.10263180732727051,-0.09118521213531494,-0.10073016583919525,0.6169424158914024,-0.08333592763836413,0.6531745828335439,-0.43104531606568813
1681506762833086700,2.474086669921875,0.1644841879606247,0.47662803530693054,3.1008028984069824,0.7550572752952576,0.6426748633384705,-0.1298355609178543,0.11782169342041016,-0.06540453433990479,-0.13327179849147797,0.6219360676107667,-0.07172941800669422,0.6556958959431157,-0.4220345606953941
1681506762843086600,2.484086669921875,0.2538183033466339,0.4155401587486267,3.0845882892608643,0.7751367092132568,0.618742823600769,-0.1277504861354828,0.1410619616508484,-0.007109701633453369,-0.15792463719844818,0.627000164004045,-0.05999060395125481,0.657667002844324,-0.4132141427665475
1681506762853086700,2.494086669921875,0.30122247338294983,0.3821510374546051,3.040724039077759,0.794226348400116,0.5943411588668823,-0.1263451874256134,0.16288113594055176,0.0511055588722229,-0.16929394006729126,0.6320378518548827,-0.048211253153125404,0.6591684744627284,-0.404599489614364
1681506762863086600,2.504086669921875,0.28218671679496765,0.3542032837867737,2.9822726249694824,0.8122061491012573,0.5697935223579407,-0.12512631714344025,0.17117708921432495,0.10957354307174683,-0.18189586699008942,0.636912135019586,-0.036602387690227146,0.6603764869816826,-0.39611381457187717
1681506762873086700,2.514086669921875,0.1903439313173294,0.330022394657135,2.9362552165985107,0.8291294574737549,0.5452089905738831,-0.12365873903036118,0.16906994581222534,0.14804351329803467,-0.1830735206604004,0.6416197107943636,-0.025392136942072867,0.6614573840552539,-0.387496466553032
1681506762883085800,2.5240859375,0.07244392484426498,0.3102995455265045,2.8592700958251953,0.844980001449585,0.5207669734954834,-0.12169850617647171,0.16506022214889526,0.16558855772018433,-0.18321794271469116,0.6461317638067973,-0.014751497315291549,0.6625202949398074,-0.37863303237006696
1681506762893085700,2.534085693359375,-0.02966553531587124,0.3045676350593567,2.7667720317840576,0.8596591949462891,0.496766060590744,-0.11920253932476044,0.1682184338569641,0.17584121227264404,-0.16868506371974945,0.6503804511919612,-0.004784054732143367,0.6636082000447348,-0.36960299613472775
1681506762903085800,2.5440859375,-0.13960614800453186,0.30227598547935486,2.65671706199646,0.8731744289398193,0.47336113452911377,-0.11617044359445572,0.1749822497367859,0.18354493379592896,-0.16283661127090454,0.6543289964605865,0.004496991467060981,0.6647514981636365,-0.3604701616356959
1681506762913085700,2.554085693359375,-0.22056277096271515,0.30067455768585205,2.549253463745117,0.8855380415916443,0.45069003105163574,-0.11269821971654892,0.1845455765724182,0.2003566324710846,-0.16107505559921265,0.6579674000492832,0.01309492760806177,0.6659425011416396,-0.3513232037959948
1681506762923085600,2.56408544921875,-0.26972922682762146,0.2902860939502716,2.4443509578704834,0.8968464136123657,0.42870908975601196,-0.1089731752872467,0.19289058446884155,0.23326292634010315,-0.15106721222400665,0.6613337744938105,0.021111230005152217,0.6671339647325361,-0.3422342917370192
1681506762933084700,2.574084716796875,-0.2731974124908447,0.28076690435409546,2.3198235034942627,0.9071127772331238,0.4075082242488861,-0.1052781194448471,0.19864583015441895,0.2667623460292816,-0.14362329244613647,0.6644499215061082,0.02863419770393435,0.6682372508368415,-0.333384732208234
1681506762943084800,2.584084716796875,-0.21797063946723938,0.27894076704978943,2.1873905658721924,0.9163546562194824,0.38722294569015503,-0.10174800455570221,0.20350313186645508,0.3020470142364502,-0.14971691370010376,0.6672635514740718,0.03580431299659545,0.669211513742097,-0.3250129275967962
1681506762953084700,2.594084716796875,-0.12416256219148636,0.28077420592308044,2.0634348392486572,0.9246577620506287,0.36783623695373535,-0.09851160645484924,0.19887733459472656,0.343940407037735,-0.16247481107711792,0.6697714554665456,0.0427874856853635,0.6700100220499151,-0.31727280454683604
1681506762963084800,2.604084716796875,-0.019785292446613312,0.28488585352897644,1.9547137022018433,0.9321326613426208,0.34926003217697144,-0.09563536196947098,0.18690109252929688,0.3897993266582489,-0.1788398027420044,0.6719916657975801,0.049723718839642404,0.6706041099899742,-0.3102336209687837
1681506762973084700,2.614084716796875,0.08642743527889252,0.28524938225746155,1.846067190170288,0.9388689398765564,0.3314555287361145,-0.09307165443897247,0.16949892044067383,0.43169745802879333,-0.1902536153793335,0.6739400774719729,0.05664631214597043,0.6710107063429539,-0.303875908479332
1681506762983083800,2.624083740234375,0.14561191201210022,0.2807720899581909,1.7610169649124146,0.9449478387832642,0.31436821818351746,-0.0908089354634285,0.15548557043075562,0.46184635162353516,-0.19030380249023438,0.6756653176613492,0.06353876724256413,0.671236440002478,-0.29812899565652223
1681506762993083600,2.634083740234375,0.14113451540470123,0.2693537175655365,1.6677757501602173,0.9504438042640686,0.2979881763458252,-0.08865569531917572,0.14022397994995117,0.47836369276046753,-0.18348491191864014,0.677228714522587,0.07019170064811055,0.6713756606993094,-0.29272721727089246
1681506763003083800,2.644083740234375,0.12159222364425659,0.2605501115322113,1.5714422464370728,0.955374538898468,0.2824440598487854,-0.08651433885097504,0.1336756944656372,0.4901541471481323,-0.17146611213684082,0.6786429151372505,0.0764515847096669,0.6714893793992235,-0.2875776790617546
1681506763013083600,2.654083740234375,0.12302503734827042,0.2535509169101715,1.4790666103363037,0.9597865343093872,0.2677467465400696,-0.0843886137008667,0.13213235139846802,0.5035086870193481,-0.15242785215377808,0.6799077480525799,0.08234073223010199,0.6715844667090379,-0.2827008150550084
1681506763023082800,2.664082763671875,0.1598818600177765,0.2567445933818817,1.3919919729232788,0.9637402296066284,0.2538314461708069,-0.0823073610663414,0.12869757413864136,0.5185378789901733,-0.14283615350723267,0.6810077703420241,0.08798671362875073,0.6716432527778661,-0.27817649156267815
1681506763033082600,2.67408251953125,0.19948533177375793,0.24914179742336273,1.314727783203125,0.967292070388794,0.24061597883701324,-0.08031076937913895,0.1197439432144165,0.5476834774017334,-0.13428890705108643,0.6819440256371687,0.09349834647948536,0.6716417761011689,-0.2740577367037155
1681506763043082800,2.684082763671875,0.21916688978672028,0.22818218171596527,1.2471355199813843,0.9704836010932922,0.2280418425798416,-0.07847576588392258,0.10614597797393799,0.5795905590057373,-0.1394960880279541,0.682776686150835,0.09884806036952379,0.6715587680795942,-0.270284716506734
1681506763053082600,2.69408251953125,0.20982028543949127,0.1890445053577423,1.1729390621185303,0.9733346104621887,0.21610571444034576,-0.07692816853523254,0.09070640802383423,0.6035963892936707,-0.15279299020767212,0.6835917340154875,0.10393328966954485,0.6713671039502169,-0.26677029010759523
1681506763063082800,2.704082763671875,0.20059722661972046,0.14385679364204407,1.0823748111724854,0.9758347272872925,0.2049652487039566,-0.07573473453521729,0.08806902170181274,0.6160338521003723,-0.172541081905365,0.6844169822986533,0.10863867915516366,0.6710665157077039,-0.26351602705193394
1681506763073081900,2.714081787109375,0.19117441773414612,0.09068363904953003,0.9863523840904236,0.9779870510101318,0.19472721219062805,-0.07498322427272797,0.09758967161178589,0.6283470392227173,-0.19062656164169312,0.6852711262167419,0.11292263017294221,0.6706391473357142,-0.2605666870509707
1681506763083081700,2.724081787109375,0.17767459154129028,0.042157385498285294,0.8898665904998779,0.9798174500465393,0.18541373312473297,-0.07469500601291656,0.09789544343948364,0.6474109292030334,-0.2049681544303894,0.6861608868597788,0.1167828910387986,0.6700852571523908,-0.25793541309437373
1681506763093081600,2.73408154296875,0.15972737967967987,-0.006214008200913668,0.7740407586097717,0.9813397526741028,0.17712105810642242,-0.07483553141355515,0.08665335178375244,0.6670714020729065,-0.21344882249832153,0.6870731988511196,0.12017419856612992,0.6694328926367339,-0.2556327981050109
1681506763103081700,2.744081787109375,0.1373179405927658,-0.04431239143013954,0.6294026374816895,0.9825395345687866,0.17010723054409027,-0.0753633975982666,0.07893818616867065,0.680097222328186,-0.21586591005325317,0.687970526438679,0.12300001462529433,0.6687221369945798,-0.2537286998529229
1681506763113081600,2.75408154296875,0.12595722079277039,-0.07279430329799652,0.46100983023643494,0.9834057092666626,0.16464729607105255,-0.07618604600429535,0.07619500160217285,0.6934154033660889,-0.207078218460083,0.6887840222753392,0.1251963917691748,0.6680066183159463,-0.2523282257398294
1681506763123080700,2.764080810546875,0.12592525780200958,-0.08687390387058258,0.2727677524089813,0.983940601348877,0.1609458327293396,-0.07718279957771301,0.0768197774887085,0.7121467590332031,-0.19196707010269165,0.6894363380456645,0.1267488744961935,0.6673404854531098,-0.25153305872463483
1681506763133080800,2.774080810546875,0.11548163741827011,-0.08723755180835724,0.057452380657196045,0.9841333627700806,0.159243643283844,-0.07824822515249252,0.07024884223937988,0.7215851545333862,-0.17692458629608154,0.6898573118862175,0.12760772659982947,0.6667774407216199,-0.2514376406388391
1681506763143081200,2.784081298828125,0.11883801966905594,-0.07050145417451859,-0.16835065186023712,0.9839809536933899,0.1597016453742981,-0.07922585308551788,0.04493439197540283,0.7177244424819946,-0.16740202903747559,0.6899851467548214,0.12771079185442563,0.6663910471386066,-0.25205826729091463
1681506763153081000,2.7940810546875,0.17428547143936157,-0.03337205946445465,-0.40424349904060364,0.9834721684455872,0.16242694854736328,-0.07999788969755173,-0.00021123886108398438,0.6988400816917419,-0.15430086851119995,0.6897114841898597,0.1271757879990123,0.6662037037905718,-0.2535682040035863
1681506763163081200,2.804081298828125,0.2686447203159332,0.02217375859618187,-0.6325565576553345,0.9826025366783142,0.16738885641098022,-0.0804552435874939,-0.053388118743896484,0.6716461181640625,-0.13847792148590088,0.688938673872844,0.12617935607521882,0.6662215446467088,-0.2561074027637983
1681506763173081000,2.8140810546875,0.3733796179294586,0.07779373973608017,-0.8677588105201721,0.9813526272773743,0.1745319664478302,-0.08053368330001831,-0.11038088798522949,0.6387004256248474,-0.13127362728118896,0.6876060321155251,0.12483383242048432,0.6664455498014892,-0.2597398640846631
1681506763183080200,2.824080078125,0.43293508887290955,0.13465037941932678,-1.0828405618667603,0.979682981967926,0.18380425870418549,-0.08023194223642349,-0.1633988618850708,0.605242908000946,-0.12498360872268677,0.6857236447143921,0.12309746889582573,0.6668815789860391,-0.26438423325320315
1681506763193080000,2.834080078125,0.518461287021637,0.17014718055725098,-1.2851579189300537,0.9775462746620178,0.19508211314678192,-0.079662024974823,-0.20090454816818237,0.5704970359802246,-0.11175953596830368,0.6833422251003571,0.12094812412499355,0.6674882307851587,-0.26995234547505936
1681506763203080200,2.844080078125,0.6231464147567749,0.20120948553085327,-1.4664313793182373,0.9749046564102173,0.2081245332956314,-0.0790252536535263,-0.21762627363204956,0.53146892786026,-0.09245306253433228,0.680501749109049,0.11852615829118845,0.6681608512767742,-0.2764596590443676
1681506763213080000,2.854080078125,0.7306264638900757,0.2127833217382431,-1.6288410425186157,0.9717238545417786,0.22269387543201447,-0.07848560810089111,-0.20806735754013062,0.5051960945129395,-0.08542436361312866,0.6772480167001285,0.11591891491968229,0.6688198565507784,-0.28386237110581786
1681506763223080200,2.864080078125,0.8490875959396362,0.21710190176963806,-1.7670705318450928,0.9679619073867798,0.23859462141990662,-0.07824299484491348,-0.1776788830757141,0.4968026280403137,-0.08824574202299118,0.6736303196543928,0.11319533396277295,0.6693768125927968,-0.29213608339683167
1681506763233079300,2.874079345703125,0.9551883935928345,0.2117028683423996,-1.8837209939956665,0.9636045694351196,0.2555703818798065,-0.07842246443033218,-0.13535743951797485,0.4860372245311737,-0.08203906565904617,0.6696975469018788,0.11041575973261424,0.669773937464176,-0.30119171238017994
1681506763243079200,2.8840791015625,1.0187362432479858,0.19102288782596588,-1.9662585258483887,0.9586588144302368,0.2733376622200012,-0.0791178047657013,-0.09816998243331909,0.4674001932144165,-0.07412630319595337,0.6655355977684684,0.10756293968756211,0.6699785908309132,-0.3108394746540936
1681506763253079300,2.894079345703125,1.039814829826355,0.15607815980911255,-2.029925584793091,0.9531397819519043,0.29165422916412354,-0.08038702607154846,-0.07093781232833862,0.4322836697101593,-0.0653497502207756,0.6612532482042415,0.10454303209280179,0.6699830160904949,-0.3208387787285973
1681506763263079200,2.9040791015625,1.0725573301315308,0.12229888886213303,-2.0911357402801514,0.9470324516296387,0.3104203939437866,-0.08227111399173737,-0.04537546634674072,0.3866620361804962,-0.04423957318067551,0.6568871120928389,0.10132593540051178,0.6697742138695334,-0.3311114404469339
1681506763273079000,2.9140791015625,1.1295170783996582,0.10109813511371613,-2.133091688156128,0.9403422474861145,0.32950249314308167,-0.08476180583238602,-0.021488547325134277,0.34623292088508606,-0.017365336418151855,0.652407644965727,0.09801797038170071,0.6693366673763428,-0.34167995166738335
1681506763283078100,2.924078125,1.206194519996643,0.07173891365528107,-2.1436147689819336,0.9331462383270264,0.3485793471336365,-0.08792342245578766,-0.0029552578926086426,0.32221218943595886,0.00802832841873169,0.6478403225581322,0.09478734885938517,0.6686207047187132,-0.3525118839581831
1681506763293078300,2.934078369140625,1.270377516746521,0.032265737652778625,-2.1474342346191406,0.9254855513572693,0.36746588349342346,-0.09189685434103012,0.014745652675628662,0.3087120056152344,0.03365398198366165,0.6432404540271435,0.09169234577656932,0.6675657906121808,-0.36357940047023085
1681506763303078100,2.944078125,1.2808948755264282,-0.027868172153830528,-2.1518774032592773,0.9173616170883179,0.38612404465675354,-0.09672584384679794,0.032940447330474854,0.2875056564807892,0.04849272966384888,0.6386872111128048,0.08860345179644849,0.666173029276802,-0.3747553551728089
1681506763313078300,2.954078369140625,1.2371894121170044,-0.10009543597698212,-2.1470947265625,0.9087651371955872,0.4045662581920624,-0.10233303904533386,0.049212098121643066,0.26144927740097046,0.0489729642868042,0.6342628151961719,0.0853119214430371,0.6644963178321436,-0.38584610208997694
1681506763323078100,2.964078125,1.1862138509750366,-0.17094217240810394,-2.1401147842407227,0.8997067809104919,0.4227612018585205,-0.10863088816404343,0.07903766632080078,0.22663754224777222,0.05623215436935425,0.6300134523549646,0.08172216889197666,0.6625753102306874,-0.3967347742308113
1681506763333077200,2.9740771484375,1.1374152898788452,-0.22514782845973969,-2.1259782314300537,0.8902143239974976,0.4406578540802002,-0.11549486964941025,0.11126571893692017,0.18531861901283264,0.08023172616958618,0.6259166410039244,0.07786620020085788,0.6604463804825838,-0.40740124300526437
1681506763343077000,2.9840771484375,1.0741958618164062,-0.2679536044597626,-2.107576608657837,0.8803097009658813,0.4582405984401703,-0.12276050448417664,0.1182405948638916,0.14735013246536255,0.10635722428560257,0.6219383008397397,0.07375830359891376,0.6581637023041792,-0.41781916288712995
1681506763353077200,2.9940771484375,1.0063222646713257,-0.30210211873054504,-2.0843265056610107,0.8699667453765869,0.47557616233825684,-0.13032551109790802,0.10659557580947876,0.11370286345481873,0.12658704817295074,0.6180605479867382,0.06935196438128147,0.6557648604203207,-0.42797625890247337
1681506763363077000,3.0040771484375,0.9325540661811829,-0.3239826560020447,-2.0657408237457275,0.8592891693115234,0.4925408959388733,-0.13793185353279114,0.08738112449645996,0.07964828610420227,0.15402981638908386,0.614251181674745,0.06471872234463763,0.6533341880718295,-0.4377912543594731
1681506763373077200,3.0140771484375,0.8368269801139832,-0.3443821966648102,-2.0530123710632324,0.848292350769043,0.5091715455055237,-0.14540989696979523,0.0669143795967102,0.04443246126174927,0.18018461763858795,0.6104882885230782,0.05983272178221462,0.6509340164487052,-0.4472234213241788
1681506763383076000,3.024076171875,0.7400581240653992,-0.3603382706642151,-2.044914484024048,0.8369668126106262,0.5255334973335266,-0.15264593064785004,0.04413652420043945,0.010034620761871338,0.19358523190021515,0.6067666557432495,0.054642520159272984,0.6486071457849077,-0.4562422836664822
1681506763393076200,3.034076171875,0.6370730400085449,-0.3703267574310303,-2.0469565391540527,0.8252706527709961,0.5417382717132568,-0.1595233827829361,0.038468241691589355,-0.017187058925628662,0.19950135052204132,0.6030363481304881,0.04912342253731151,0.6463939979162983,-0.4648749075623845
1681506763403076000,3.044076171875,0.5555289387702942,-0.36660367250442505,-2.0477285385131836,0.8132147192955017,0.5577890276908875,-0.16599087417125702,0.056032657623291016,-0.044788658618927,0.21143150329589844,0.5992701312198081,0.04331592363136184,0.6443045063964876,-0.47314967255078383
1681506763413076200,3.054076171875,0.4961630702018738,-0.35556459426879883,-2.0376508235931396,0.8008444905281067,0.5736269950866699,-0.1720462292432785,0.07209545373916626,-0.07123148441314697,0.22877837717533112,0.5954340464209967,0.037327258009082986,0.6423266804707807,-0.48112498172346285
1681506763423076000,3.064076171875,0.4570654630661011,-0.3376780152320862,-2.014413356781006,0.7882484197616577,0.589134156703949,-0.17772161960601807,0.06807464361190796,-0.10181432962417603,0.23962648212909698,0.5915271409642276,0.0312737773902736,0.6404382428467232,-0.48883147150246725
1681506763433075200,3.0740751953125,0.43629395961761475,-0.31239569187164307,-1.9750239849090576,0.7755558490753174,0.6041485667228699,-0.18307799100875854,0.05807751417160034,-0.13161450624465942,0.25461113452911377,0.587566420755751,0.025293227060420705,0.6386088437561559,-0.4962908715323979
1681506763443075000,3.084074951171875,0.41186559200286865,-0.29332399368286133,-1.925293207168579,0.7628797292709351,0.6185619831085205,-0.18813632428646088,0.05203104019165039,-0.15658706426620483,0.2718155086040497,0.5835948466425609,0.01944197424576614,0.6368310995335547,-0.5034729594942111
1681506763453075200,3.0940751953125,0.42744582891464233,-0.26370540261268616,-1.8774970769882202,0.7502880096435547,0.6323316693305969,-0.1929360181093216,0.04937928915023804,-0.18184661865234375,0.2955818176269531,0.5796037070410338,0.013797343540067755,0.635091825824911,-0.510418848956682
1681506763463075000,3.104074951171875,0.5377251505851746,-0.22788427770137787,-1.794967770576477,0.7379584908485413,0.6451713442802429,-0.19791652262210846,0.047716498374938965,-0.20449769496917725,0.3216194808483124,0.5756244681942032,0.008665377284978777,0.6332192750118364,-0.5173147741794456
1681506763473075200,3.1140751953125,0.6376844048500061,-0.19703656435012817,-1.7028148174285889,0.726094126701355,0.6568436026573181,-0.20333190262317657,0.04452049732208252,-0.2112107276916504,0.3368309736251831,0.571719499039644,0.00423832306060105,0.6311228749855832,-0.5242163319772722
1681506763483074300,3.12407421875,0.7310348749160767,-0.15644492208957672,-1.619938850402832,0.7146791815757751,0.6674283742904663,-0.20921984314918518,0.052578508853912354,-0.20676565170288086,0.3306034803390503,0.5678893726483413,0.00047173666607371376,0.6288003278881693,-0.531141703018442
1681506763493074200,3.13407421875,0.7874670028686523,-0.1294776201248169,-1.5367697477340698,0.7037301659584045,0.6770415306091309,-0.21535663306713104,0.07657372951507568,-0.2077881097793579,0.33168959617614746,0.56411895363372,-0.002733769451690664,0.6263499115472972,-0.5380037176381158
1681506763503074000,3.144073974609375,0.815804660320282,-0.08786679804325104,-1.4383600950241089,0.6933292150497437,0.685699462890625,-0.22160924971103668,0.09786945581436157,-0.22688305377960205,0.3363552689552307,0.5604424488247417,-0.0054287850578299485,0.6238316294619284,-0.5447097973461025
1681506763513074200,3.15407421875,0.8385096192359924,-0.06635398417711258,-1.3475987911224365,0.6835342645645142,0.6934484839439392,-0.22783765196800232,0.11967313289642334,-0.24325329065322876,0.34771066904067993,0.5568931018143605,-0.007682468456504541,0.6213068099833368,-0.5511704245064217
1681506763523074000,3.164073974609375,0.8821854591369629,-0.029012199491262436,-1.2371505498886108,0.6743729710578918,0.7002642154693604,-0.23420290648937225,0.13731831312179565,-0.2508777379989624,0.35798215866088867,0.5534896350508821,-0.009447181686437644,0.6187158449015481,-0.5574500877283896
1681506763533073200,3.1740732421875,0.9003283381462097,-0.0011609257198870182,-1.1089352369308472,0.6660583019256592,0.7060367465019226,-0.24057933688163757,0.14898991584777832,-0.2609531879425049,0.3580109477043152,0.5502868717814735,-0.010667064626891968,0.6161140671608774,-0.5634483075839944
1681506763543073300,3.1840732421875,0.8183967471122742,0.011274971067905426,-0.9537797570228577,0.6587414145469666,0.7107867002487183,-0.24666167795658112,0.15642887353897095,-0.2830219268798828,0.34787315130233765,0.5473818264902935,-0.011455315795546055,0.6136268718967671,-0.5689498409943028
1681506763553073200,3.1940732421875,0.6890754103660583,0.010075549595057964,-0.8102530241012573,0.6524744033813477,0.714687168598175,-0.25199055671691895,0.15384572744369507,-0.3308676481246948,0.34940260648727417,0.5448772843316939,-0.012067193367003104,0.6114401829047991,-0.5736758003799679
1681506763563073300,3.2040732421875,0.5622847080230713,0.014768571592867374,-0.6874376535415649,0.6471360921859741,0.7179688811302185,-0.2563895583152771,0.15559828281402588,-0.3828248977661133,0.3459128141403198,0.5427245267085012,-0.012623911102611516,0.609627638433953,-0.5776200251557349
1681506763573073200,3.2140732421875,0.4562285840511322,0.017368948087096214,-0.5528399348258972,0.6426962614059448,0.720672070980072,-0.2599484622478485,0.1797524094581604,-0.3961787223815918,0.3417965769767761,0.5409077046497173,-0.01309849202364896,0.6081563871612701,-0.5808554543666272
1681506763583073000,3.224072998046875,0.34941986203193665,0.014064764603972435,-0.4265608489513397,0.6391972899436951,0.7227568626403809,-0.2627726197242737,0.2224818468093872,-0.38358449935913086,0.3175515830516815,0.5394666844006781,-0.013456094601580645,0.6069865122825082,-0.5834055570203576
1681506763593072000,3.234072021484375,0.23080764710903168,0.018525026738643646,-0.3029845654964447,0.6365893483161926,0.7243283987045288,-0.2647685706615448,0.2656170725822449,-0.3769316077232361,0.2952556014060974,0.5383674266658853,-0.013738560752646846,0.6061575388613043,-0.5852732697047445
1681506763603072300,3.244072265625,0.12162203341722488,0.028209345415234566,-0.16267992556095123,0.634941041469574,0.7253697514533997,-0.26587337255477905,0.290077269077301,-0.3916296362876892,0.2803386449813843,0.5376141289002642,-0.013916402024147536,0.6056976484026295,-0.5864365166587777
1681506763613072100,3.254072021484375,0.08068152517080307,0.03541692718863487,-0.003667631186544895,0.6344046592712402,0.7256636619567871,-0.26635080575942993,0.2875465750694275,-0.40925753116607666,0.26635077595710754,0.5372700712170296,-0.013827473965876304,0.6055026016550956,-0.5869549296099678
1681506763623072300,3.264072265625,0.07450298964977264,0.05809614062309265,0.18845732510089874,0.6351924538612366,0.7248718738555908,-0.26662975549697876,0.2818607687950134,-0.4187958836555481,0.254056453704834,0.5374143935930181,-0.013212675655353277,0.6054011496141082,-0.5869418047038406
1681506763633072000,3.274072021484375,0.05578324943780899,0.11787152290344238,0.350642591714859,0.6373894214630127,0.7229606509208679,-0.2665759325027466,0.2954108715057373,-0.4126579761505127,0.2458086609840393,0.5379534271322416,-0.011952039666368604,0.6054495662961826,-0.5864248533065249
1681506763643071200,3.2840712890625,-0.03148534148931503,0.18017350137233734,0.5079802870750427,0.6408590078353882,0.7201894521713257,-0.26575660705566406,0.33065271377563477,-0.393621027469635,0.23530003428459167,0.5387516267872057,-0.010177150431699006,0.6058202084054471,-0.585341602343348
1681506763653071000,3.294071044921875,-0.21426807343959808,0.1891971081495285,0.720468282699585,0.6457417011260986,0.7165698409080505,-0.2637144923210144,0.36469531059265137,-0.3793964982032776,0.22347700595855713,0.5399636746672546,-0.00809413615809605,0.6066937000567169,-0.583349372999459
1681506763663071200,3.3040712890625,-0.45307213068008423,0.16663986444473267,0.9563998579978943,0.6522049307823181,0.7119963765144348,-0.26017266511917114,0.3955703377723694,-0.3880370855331421,0.21613574028015137,0.5418471017426415,-0.0059236623075507484,0.6081764372046635,-0.58007586625889
1681506763673071000,3.314071044921875,-0.6938306093215942,0.1449359506368637,1.2052959203720093,0.6602360606193542,0.706412672996521,-0.25508710741996765,0.44128066301345825,-0.41915076971054077,0.21176734566688538,0.5444753428489242,-0.0037619596075998303,0.6102805049809622,-0.575404322928394
1681506763683071200,3.3240712890625,-0.8799770474433899,0.09627308696508408,1.4524822235107422,0.6698939800262451,0.6995709538459778,-0.24868115782737732,0.4930087924003601,-0.4301772117614746,0.20769603550434113,0.5479000101775002,-0.0015205470777113347,0.6129087268401507,-0.5693382203972123
1681506763693070000,3.334070068359375,-0.9072233438491821,0.07742775976657867,1.6693198680877686,0.680962085723877,0.6912367939949036,-0.24183055758476257,0.5462106466293335,-0.3860001564025879,0.21074841916561127,0.5520553220698395,0.0010348281467123903,0.6156976919534123,-0.5622721576953543
1681506763703070200,3.3440703125,-0.8366690278053284,0.09012597799301147,1.8516871929168701,0.6932471394538879,0.6812165379524231,-0.2352709025144577,0.5981499552726746,-0.29355186223983765,0.21198594570159912,0.5567312312914933,0.004278970739007665,0.6183415202731471,-0.5546942825126185
1681506763713070000,3.354070068359375,-0.7482955455780029,0.09196289628744125,1.9803731441497803,0.7064262628555298,0.6696186065673828,-0.22928749024868011,0.6412757635116577,-0.1806049942970276,0.16719943284988403,0.5617586612248094,0.008266496541379401,0.6207156492808247,-0.5468737016665549
1681506763723070200,3.3640703125,-0.7047166228294373,0.09653075039386749,2.073513984680176,0.720106303691864,0.6567710638046265,-0.223827064037323,0.6538560390472412,-0.09839105606079102,0.12017406523227692,0.5670230682108739,0.012788537468716069,0.6228345833178578,-0.5388861528772393
1681506763733070000,3.374070068359375,-0.7161725163459778,0.10597904026508331,2.1066150665283203,0.7339285612106323,0.6431236863136292,-0.21849645674228668,0.6180458664894104,-0.08265316486358643,0.07002836465835571,0.5723602359066559,0.017565918927511723,0.6248545494214757,-0.5307089225565311
1681506763743069200,3.384069091796875,-0.7270281314849854,0.13022233545780182,2.0946786403656006,0.7475586533546448,0.6291056275367737,-0.21303068101406097,0.5362548232078552,-0.10891836881637573,0.015261471271514893,0.577602204371081,0.022377093225197372,0.626884302606383,-0.5223896545968633
1681506763753069000,3.394069091796875,-0.7053558826446533,0.16791890561580658,2.0409469604492188,0.7607625126838684,0.6149886250495911,-0.2074355185031891,0.4191080927848816,-0.12467801570892334,-0.0210801362991333,0.5825889762021813,0.027189132466971782,0.6289220857504638,-0.5141088285880028
1681506763763069200,3.404069091796875,-0.661518394947052,0.18908092379570007,1.9521160125732422,0.7732899188995361,0.6010503172874451,-0.2018939107656479,0.3156229853630066,-0.11206728219985962,-0.048701211810112,0.587223180193694,0.031945422920738646,0.6308981977736028,-0.5060788543940643
1681506763773069000,3.414069091796875,-0.5845561027526855,0.20546141266822815,1.8148870468139648,0.7848842144012451,0.587611198425293,-0.1966458410024643,0.2442447543144226,-0.08550560474395752,-0.08930391073226929,0.5914448924851233,0.036548619697374066,0.6327252762680945,-0.4985135161236666
1681506763783069200,3.424069091796875,-0.49777671694755554,0.22790254652500153,1.6685616970062256,0.7954366207122803,0.5748969912528992,-0.19176505506038666,0.18245327472686768,-0.07100611925125122,-0.12213878333568573,0.5951686173179075,0.04100206271316167,0.634378677636028,-0.4915859437444443
1681506763793069000,3.434069091796875,-0.41078758239746094,0.2354971468448639,1.5124469995498657,0.8049266338348389,0.5630338191986084,-0.18731197714805603,0.12796509265899658,-0.060577332973480225,-0.13699834048748016,0.5984095024115993,0.0452653822620653,0.6358420059982663,-0.485347232964763
1681506763803068200,3.444068115234375,-0.30443450808525085,0.2350582629442215,1.374506950378418,0.813405454158783,0.5520263314247131,-0.18340733647346497,0.09499591588973999,-0.058740317821502686,-0.13841579854488373,0.601225489177449,0.04934859553584536,0.6370722449730876,-0.4798243890366703
1681506763813068000,3.454068115234375,-0.19448809325695038,0.2483959048986435,1.2598297595977783,0.8210465908050537,0.5417176485061646,-0.18006695806980133,0.07992374897003174,-0.07627898454666138,-0.12289635837078094,0.6036616476278482,0.053373019585559664,0.6380578676271732,-0.4750009335306662
1681506763823068200,3.464068115234375,-0.10564131289720535,0.2583633363246918,1.1692293882369995,0.8280012607574463,0.5319911241531372,-0.17719782888889313,0.05824434757232666,-0.09642910957336426,-0.09572093188762665,0.6057615917222746,0.05739248903648398,0.6388326779749555,-0.47079891301601434
1681506763833068000,3.474068115234375,-0.09747782349586487,0.25412717461586,1.1171880960464478,0.8344706892967224,0.522675633430481,-0.17455221712589264,0.02437007427215576,-0.10273861885070801,-0.06992416083812714,0.6076473549215805,0.06134434099703683,0.639500401790847,-0.46694815554417507
1681506763843068200,3.484068115234375,-0.15428704023361206,0.2208230048418045,1.0821223258972168,0.8405693769454956,0.5136940479278564,-0.17193399369716644,-0.017708778381347656,-0.09746497869491577,-0.045717403292655945,0.6094724174947027,0.0650458638693669,0.6401578232524824,-0.4631524824684573
1681506763853067300,3.4940673828125,-0.25425952672958374,0.16431212425231934,1.0696150064468384,0.8463784456253052,0.5049666166305542,-0.1692691594362259,-0.05450838804244995,-0.09825897216796875,-0.03365755081176758,0.6114008929722631,0.06831784927253677,0.640857312233586,-0.45915511687392446
1681506763863067100,3.504067138671875,-0.3810632824897766,0.10033313930034637,1.073366641998291,0.8519698977470398,0.496395468711853,-0.16654948890209198,-0.08423924446105957,-0.11600920557975769,-0.0390779972076416,0.6135277187892131,0.07109682251197487,0.6416155384087263,-0.45481693495812514
1681506763873067300,3.5140673828125,-0.5273576974868774,0.02143033593893051,1.0711263418197632,0.8573477864265442,0.48798251152038574,-0.16379132866859436,-0.10484540462493896,-0.10719954967498779,-0.05898706614971161,0.6159229238702004,0.07327750321844227,0.6424443531484956,-0.45003827607049746
1681506763883067100,3.524067138671875,-0.6591817736625671,-0.05432674288749695,1.0737378597259521,0.8625125885009766,0.4797171652317047,-0.1610696017742157,-0.11977583169937134,-0.07795330882072449,-0.08232343196868896,0.618595138982594,0.0748635679657382,0.6433200187406204,-0.4448312143650314
1681506763893067000,3.53406689453125,-0.7705971598625183,-0.13324426114559174,1.077925443649292,0.8674734830856323,0.47156357765197754,-0.1584845334291458,-0.1318778395652771,-0.05162656307220459,-0.09595583379268646,0.6215515282037974,0.07588556138403674,0.6442042485809671,-0.4392218400558324
1681506763903066000,3.544066162109375,-0.8677751421928406,-0.19416779279708862,1.087778091430664,0.8722816109657288,0.4634326100349426,-0.1560606211423874,-0.14510881900787354,-0.02574959397315979,-0.10152304172515869,0.6247533533737119,0.0764604517633481,0.645076345320948,-0.43325914867430065
1681506763913066200,3.554066162109375,-0.9450404644012451,-0.23843985795974731,1.0976219177246094,0.8769664168357849,0.4552755355834961,-0.15379853546619415,-0.1619396209716797,0.005524575710296631,-0.09423315525054932,0.628150474834525,0.07668604474461292,0.6459256770138021,-0.42699670742930335
1681506763923066000,3.564066162109375,-0.9910998344421387,-0.27590253949165344,1.1120802164077759,0.881568431854248,0.44701749086380005,-0.15169896185398102,-0.18228858709335327,0.03241366147994995,-0.07867832481861115,0.6317034460438321,0.07666596390803203,0.6467401698116559,-0.42047626731211296
1681506763933066200,3.574066162109375,-1.0221525430679321,-0.29376456141471863,1.1305032968521118,0.8861112594604492,0.43861234188079834,-0.1497524380683899,-0.21455681324005127,0.0450911819934845,-0.06055949628353119,0.6353485712317305,0.0765185450825115,0.6475096088490543,-0.4137731890872286
1681506763943066000,3.584066162109375,-1.0258314609527588,-0.3055533170700073,1.1423732042312622,0.890605628490448,0.4300280809402466,-0.14797726273536682,-0.24962979555130005,0.045695096254348755,-0.05198924243450165,0.6390524824274957,0.0763193743960636,0.6482181131563164,-0.40694037344315775
1681506763953066000,3.59406591796875,-1.0015448331832886,-0.31725338101387024,1.1356797218322754,0.8950014114379883,0.4213380217552185,-0.14644606411457062,-0.27090179920196533,0.05850499868392944,-0.05091117322444916,0.6427505352791532,0.07614068837191186,0.648829382170389,-0.4001182549209488
1681506763963065000,3.604065185546875,-0.9742178320884705,-0.32074880599975586,1.1190381050109863,0.8992478847503662,0.4126475751399994,-0.14517198503017426,-0.26805293560028076,0.08248475193977356,-0.05210892856121063,0.6464015491043579,0.07598297267057262,0.6493385835772717,-0.39338383573533
1681506763973065200,3.614065185546875,-0.9141774773597717,-0.3205568790435791,1.0987422466278076,0.9033071398735046,0.4040272831916809,-0.14421533048152924,-0.2533285617828369,0.11094152927398682,-0.054408371448516846,0.6499702439339424,0.07588684035650606,0.6497180330439601,-0.3868413884125776
1681506763983065000,3.624065185546875,-0.8485982418060303,-0.30830898880958557,1.0970388650894165,0.907239556312561,0.3953632712364197,-0.14354157447814941,-0.2467324137687683,0.13700056076049805,-0.05251866579055786,0.653432797455481,0.07597491211626653,0.6499669415617301,-0.38052109882243035
1681506763993065200,3.634065185546875,-0.7778285145759583,-0.2954583466053009,1.0878400802612305,0.9110788702964783,0.3865940570831299,-0.14310917258262634,-0.25360822677612305,0.15146130323410034,-0.05716252326965332,0.6567893335067025,0.0762880445919387,0.6500965687716749,-0.3744092955335507
1681506764003065300,3.6440654296875,-0.6972673535346985,-0.2592960596084595,1.0738717317581177,0.9148102402687073,0.37778234481811523,-0.14283837378025055,-0.256622314453125,0.16468286514282227,-0.057448580861091614,0.6599853631314591,0.07685622854894757,0.6501337832154923,-0.36856283999166956
1681506764013064200,3.654064208984375,-0.6196315288543701,-0.2226499766111374,1.050239086151123,0.918434739112854,0.36898520588874817,-0.14257442951202393,-0.2542960047721863,0.17907989025115967,-0.04991525411605835,0.662960559824146,0.07769385232670128,0.6501357150218733,-0.36300199773904746
1681506764023064000,3.66406396484375,-0.5496116876602173,-0.1904212087392807,1.0156145095825195,0.9219096302986145,0.3603073060512543,-0.1423422396183014,-0.2572062015533447,0.19467005133628845,-0.051475003361701965,0.66572192900236,0.07874103717409826,0.6500990167441573,-0.3577505655845444
1681506764033064200,3.674064208984375,-0.51007479429245,-0.16632245481014252,0.9776631593704224,0.9252098798751831,0.3518453538417816,-0.14209654927253723,-0.2580804228782654,0.20497828722000122,-0.06063181161880493,0.6682785810181773,0.07990787925630835,0.650051116269955,-0.35277749882085463
1681506764043064000,3.68406396484375,-0.49804452061653137,-0.14289994537830353,0.9233328104019165,0.9283005595207214,0.34374046325683594,-0.1417759507894516,-0.2531297206878662,0.2142123281955719,-0.08211630582809448,0.6706503063815957,0.08104484742449089,0.6500336578894295,-0.3480173407068753
1681506764053064400,3.694064453125,-0.5007953643798828,-0.12425143271684647,0.8594627380371094,0.9311389327049255,0.33616432547569275,-0.1413276195526123,-0.24449360370635986,0.2261524796485901,-0.10043267905712128,0.6728288056156726,0.0820345643984316,0.6500819345436558,-0.3434603594518546
1681506764063064300,3.704064208984375,-0.5121287107467651,-0.10683808475732803,0.8031365871429443,0.9337381720542908,0.3291316628456116,-0.14073088765144348,-0.24225574731826782,0.23121672868728638,-0.10994057357311249,0.6748343946541784,0.08283017730478758,0.6502105179576807,-0.33906324777861396
1681506764073063200,3.714063232421875,-0.5166144967079163,-0.07559461146593094,0.7432007789611816,0.9361287355422974,0.32262489199638367,-0.1399148851633072,-0.25251978635787964,0.23181837797164917,-0.11953037977218628,0.6766529237669111,0.08344562592646564,0.6504455298858366,-0.3348107868200622
1681506764083063000,3.72406298828125,-0.4943200945854187,-0.04045819863677025,0.6640114188194275,0.9382956027984619,0.3167325258255005,-0.13885879516601562,-0.2682974934577942,0.22934895753860474,-0.11910635232925415,0.678234749359511,0.0839145518423362,0.6507910172173409,-0.3307974696889254
1681506764093063200,3.734063232421875,-0.4423366189002991,0.012613208964467049,0.5939221382141113,0.9402464628219604,0.31148669123649597,-0.13752321898937225,-0.2757719159126282,0.22783514857292175,-0.11449100077152252,0.6795132834822125,0.08433832131474815,0.6512491344907169,-0.3271441737190746
1681506764103063300,3.744063232421875,-0.37459486722946167,0.06335441768169403,0.5238026976585388,0.9420251846313477,0.30679163336753845,-0.13589365780353546,-0.2746211886405945,0.24241787195205688,-0.11175654828548431,0.6804710109658443,0.08482426186336542,0.6518113346392748,-0.3238916870328234
1681506764113063400,3.7540634765625,-0.25815385580062866,0.11111520975828171,0.4599449634552002,0.9436361193656921,0.30259931087493896,-0.13410596549510956,-0.2789480686187744,0.26287609338760376,-0.11207938194274902,0.6811151727288238,0.08547737706556144,0.6524114022176024,-0.3211464212386095
1681506764123062000,3.76406201171875,-0.1304616928100586,0.15047727525234222,0.4276948869228363,0.94514399766922,0.2986762225627899,-0.13227014243602753,-0.2941734790802002,0.2812187671661377,-0.10831524431705475,0.681475374597171,0.0864716038525538,0.6529836045506054,-0.31894579600789624
1681506764133062100,3.774062255859375,0.004764392971992493,0.17946012318134308,0.3805444836616516,0.9465571641921997,0.29494693875312805,-0.1305217146873474,-0.29694467782974243,0.30608147382736206,-0.12547506392002106,0.6816024280142091,0.08784050801081054,0.6534701147675394,-0.31729955475718913
1681506764143062800,3.784062744140625,0.1418740451335907,0.1956699788570404,0.3304664194583893,0.9478433728218079,0.29147928953170776,-0.12896770238876343,-0.26072490215301514,0.32402968406677246,-0.14143335819244385,0.6815220930530457,0.08955256991210742,0.6538321557772425,-0.3162458375867594
1681506764153063000,3.79406298828125,0.292429119348526,0.19973988831043243,0.2695063352584839,0.9489701390266418,0.28835293650627136,-0.12770231068134308,-0.19686460494995117,0.3371352553367615,-0.1543869823217392,0.6812489934914228,0.09158127745467759,0.6540349510507054,-0.3158334512541612
1681506764163062800,3.804062744140625,0.42602819204330444,0.18855513632297516,0.20807038247585297,0.9499049186706543,0.28561902046203613,-0.1268945187330246,-0.12342798709869385,0.3639322817325592,-0.1675391048192978,0.6808250905270956,0.09390056916764804,0.6540148476833324,-0.31610806317438184
1681506764173062000,3.814061767578125,0.521441638469696,0.18326976895332336,0.14664997160434723,0.9506458044052124,0.28333625197410583,-0.12646302580833435,-0.04843950271606445,0.397571861743927,-0.17822454869747162,0.6802645415879358,0.09639461469785772,0.6538169179198146,-0.3169724739244459
1681506764183061800,3.824061767578125,0.5143349766731262,0.16501007974147797,0.10602318495512009,0.9512208700180054,0.2814786732196808,-0.12628711760044098,0.0075193047523498535,0.42283645272254944,-0.1802162528038025,0.6796361052365871,0.09886996359731166,0.6535144776211474,-0.31817953839775287
1681506764193062000,3.834061767578125,0.40903058648109436,0.14763899147510529,0.0474771112203598,0.9516441226005554,0.28012025356292725,-0.1261187195777893,0.03875797986984253,0.4377293884754181,-0.17093943059444427,0.6790239795628957,0.10096722325818014,0.6532581906298279,-0.31935197142179006
1681506764203061800,3.844061767578125,0.22518806159496307,0.11492739617824554,-0.0011719162575900555,0.9518686532974243,0.279513955116272,-0.12576885521411896,0.07034802436828613,0.42982128262519836,-0.15729700028896332,0.67846375610068,0.10234118479693906,0.6531782720972183,-0.3202674933097427
1681506764213062000,3.854061767578125,0.0231680516153574,0.0670112743973732,-0.03945884853601456,0.951924204826355,0.27955734729766846,-0.12525112926959991,0.11536699533462524,0.41541939973831177,-0.13805460929870605,0.6780728806003253,0.10283319440619673,0.6532991411368054,-0.3206908680014246
1681506764223061800,3.864061767578125,-0.13675850629806519,0.06314835697412491,-0.10584666579961777,0.9518061280250549,0.28030169010162354,-0.12448278814554214,0.1767338514328003,0.4026663601398468,-0.11671298742294312,0.6777858016643461,0.10249925289227281,0.6536455536564071,-0.32069886971205086
1681506764233060900,3.874060791015625,-0.23164726793766022,0.06909818947315216,-0.18036597967147827,0.9514787793159485,0.2819133698940277,-0.12334111332893372,0.24278080463409424,0.4090655744075775,-0.09752994775772095,0.6774353274469372,0.101498907146678,0.6542380416477319,-0.32054941923089486
1681506764243060700,3.884060791015625,-0.28200364112854004,0.0834137499332428,-0.2392151802778244,0.950976550579071,0.2842245101928711,-0.12190225720405579,0.27805793285369873,0.41478055715560913,-0.09626801311969757,0.6769886957676933,0.10005182666523724,0.6550103066508296,-0.32037086188544217
1681506764253060900,3.894060791015625,-0.3019992411136627,0.10582384467124939,-0.3101709485054016,0.9503074884414673,0.28717896342277527,-0.12018231302499771,0.29235297441482544,0.42853447794914246,-0.10725003480911255,0.6763902170618687,0.09831565240813327,0.6559290175096968,-0.32029262986797874
1681506764263060700,3.904060791015625,-0.2820388376712799,0.12297859787940979,-0.38497647643089294,0.9494385719299316,0.2908337116241455,-0.11824692785739899,0.30530697107315063,0.4522387683391571,-0.12015648186206818,0.6756025938547214,0.0963600673806504,0.656956065317846,-0.3204445195001455
1681506764273060900,3.914060791015625,-0.18847261369228363,0.15195485949516296,-0.46235838532447815,0.9483605623245239,0.29512250423431396,-0.11625359207391739,0.3067358136177063,0.47498852014541626,-0.13023698329925537,0.6745916880948921,0.09438179438975242,0.658000974186429,-0.3210184086594435
1681506764283059700,3.924059814453125,-0.012447251006960869,0.18975231051445007,-0.5581477880477905,0.9470381140708923,0.30007773637771606,-0.11433283984661102,0.2967820167541504,0.5016037225723267,-0.13438546657562256,0.6732604099114736,0.09262388473386447,0.6589798132750557,-0.3223146756216654
1681506764293059800,3.934059814453125,0.2197360396385193,0.23657473921775818,-0.6657723188400269,0.9454259872436523,0.30574971437454224,-0.1126350611448288,0.2871178984642029,0.5222684144973755,-0.14049303531646729,0.6715258180922653,0.09129163090106679,0.6598092973715096,-0.32460825548662525
1681506764303059700,3.944059814453125,0.48423853516578674,0.2817845344543457,-0.8069677948951721,0.9434379935264587,0.31231293082237244,-0.11128940433263779,0.282071590423584,0.5350685715675354,-0.14104527235031128,0.6693121931923715,0.09046294799234585,0.6604330050135488,-0.32812475244740963
1681506764313059800,3.954059814453125,0.7253440022468567,0.3412778377532959,-0.9464190006256104,0.9410014748573303,0.31992897391319275,-0.1102793738245964,0.2737048864364624,0.5369740128517151,-0.13836264610290527,0.6665574434944196,0.09009834292940856,0.6608650398054556,-0.3329276030603849
1681506764323059700,3.964059814453125,0.9229486584663391,0.38533398509025574,-1.0781562328338623,0.9381022453308105,0.3285728693008423,-0.1095619723200798,0.2336047887802124,0.5147955417633057,-0.13164901733398438,0.6632807003474509,0.0900968064225132,0.6611365814153406,-0.33887990398910617
1681506764333059800,3.974059814453125,1.0928932428359985,0.41898462176322937,-1.2117271423339844,0.9347013831138611,0.33824610710144043,-0.10919097065925598,0.16678470373153687,0.47791588306427,-0.11732583492994308,0.659537530793438,0.09031045820182554,0.6612477123397023,-0.34584043173740125
1681506764343059000,3.984058837890625,1.2551289796829224,0.43888455629348755,-1.350714087486267,0.9307184219360352,0.3490295112133026,-0.10927727818489075,0.11489003896713257,0.4297942519187927,-0.09798293560743332,0.6553441041278874,0.0906340191164952,0.6611708062050489,-0.3537833488997997
1681506764353058800,3.994058837890625,1.4043922424316406,0.45119383931159973,-1.48622727394104,0.9260756969451904,0.3609561026096344,-0.10997483134269714,0.0954086184501648,0.3880367577075958,-0.08217918872833252,0.6507208841432462,0.09099661373702897,0.6608571724866769,-0.362697809418992
1681506764363058700,4.00405859375,1.543771743774414,0.4516889154911041,-1.6069222688674927,0.9208055734634399,0.373797744512558,-0.11131968349218369,0.09982413053512573,0.36094337701797485,-0.07558529078960419,0.6457056350322976,0.0914199933741022,0.660289740726258,-0.37245659840270634
1681506764373058800,4.014058837890625,1.6608766317367554,0.4292795956134796,-1.7094833850860596,0.9149519801139832,0.3873015344142914,-0.11340264976024628,0.1110793948173523,0.34130552411079407,-0.06521677225828171,0.6403751935645234,0.09190465005471012,0.6594332493098982,-0.382910977353546
1681506764383058700,4.02405859375,1.749740719795227,0.3827754855155945,-1.7942200899124146,0.9084810614585876,0.40137243270874023,-0.1164570152759552,0.10813570022583008,0.3127082586288452,-0.055540136992931366,0.6348447077474296,0.09233816580840452,0.6582136096210996,-0.393955111313737
1681506764393057800,4.034057861328125,1.7949938774108887,0.32745492458343506,-1.8720368146896362,0.9013928771018982,0.41589072346687317,-0.12052261829376221,0.10847949981689453,0.26698580384254456,-0.04720205068588257,0.6291927090815705,0.09261849277798885,0.6566281323875245,-0.40543532461603426
1681506764403058000,4.044057861328125,1.7927160263061523,0.2554936408996582,-1.9428017139434814,0.8936585783958435,0.43083205819129944,-0.12553076446056366,0.12576580047607422,0.2203824818134308,-0.04114103317260742,0.6234790589391328,0.09258012760588086,0.6547240161010848,-0.41718006186303275
1681506764413057800,4.054057861328125,1.729021668434143,0.17678317427635193,-1.9964536428451538,0.8852870464324951,0.4461093842983246,-0.13135167956352234,0.1472446322441101,0.17426711320877075,-0.02647000551223755,0.617787988555777,0.09206605396031949,0.6525703031427307,-0.4289683297469696
1681506764423058000,4.064057861328125,1.6311044692993164,0.10426849871873856,-2.0444207191467285,0.8762930035591125,0.46166321635246277,-0.1377592831850052,0.15095925331115723,0.12273311614990234,0.002566322684288025,0.6121690943015548,0.09094985756230287,0.6502680080192238,-0.4406003272542936
1681506764433057800,4.074057861328125,1.490057349205017,0.0361907072365284,-2.076897144317627,0.8666974306106567,0.4774460196495056,-0.14450250566005707,0.14097779989242554,0.0668807327747345,0.03698901832103729,0.6066344476480715,0.08917095945831051,0.6479176550121512,-0.45193581115325704
1681506764443057700,4.0840576171875,1.3271613121032715,-0.017369458451867104,-2.093240261077881,0.8565694689750671,0.4933544993400574,-0.15129409730434418,0.12518095970153809,0.019050806760787964,0.0679047703742981,0.6012144059665117,0.08669598897849705,0.6456289609216228,-0.4628047116388081
1681506764453056800,4.094056884765625,1.130046010017395,-0.06260364502668381,-2.0970637798309326,0.8459933400154114,0.5093074440956116,-0.15780004858970642,0.1028285026550293,-0.0304105281829834,0.10193756222724915,0.5959119834137722,0.08352552229272057,0.6435242540308066,-0.47306310035506366
1681506764463057000,4.104056884765625,0.942050576210022,-0.10603368282318115,-2.095571279525757,0.8350117206573486,0.5252662897109985,-0.16386154294013977,0.07491558790206909,-0.07650542259216309,0.12969708442687988,0.5907546549548388,0.079653009541878,0.6416577156194987,-0.482638217433131
1681506764473056800,4.114056884765625,0.7889659404754639,-0.1426079422235489,-2.08675479888916,0.8236323595046997,0.541197657585144,-0.16951298713684082,0.05048257112503052,-0.1207571029663086,0.15185850858688354,0.585725706991196,0.07517123189255999,0.6399943703949735,-0.49161145707799636
1681506764483057000,4.124056884765625,0.6631457209587097,-0.1788354516029358,-2.0650768280029297,0.81194669008255,0.5569397211074829,-0.17481626570224762,0.03468728065490723,-0.15442818403244019,0.16587452590465546,0.5808301326501298,0.07024257978708703,0.6384808873326295,-0.5000445307774296
1681506764493056800,4.134056884765625,0.5582262277603149,-0.2109595686197281,-2.046900987625122,0.7999832034111023,0.5724352598190308,-0.1798466295003891,0.02696692943572998,-0.16227906942367554,0.16377906501293182,0.5760667017199507,0.06495395302264832,0.6370695942814456,-0.5080064353271151
1681506764503056600,4.144056640625,0.4682118594646454,-0.24284958839416504,-2.0220625400543213,0.7877423167228699,0.5876847505569458,-0.18463119864463806,0.03560662269592285,-0.16846483945846558,0.16357403993606567,0.5714180759743783,0.05935251977577011,0.6357371120440878,-0.5155550598977986
1681506764513055700,4.1540556640625,0.4044150412082672,-0.2731233239173889,-1.9768564701080322,0.7753404974937439,0.6025296449661255,-0.1892225742340088,0.04382765293121338,-0.18742960691452026,0.16724982857704163,0.5669133304038536,0.05355796014835682,0.6344448426255213,-0.5227050814752174
1681506764523055900,4.164055908203125,0.38408032059669495,-0.29302340745925903,-1.9114048480987549,0.7629309892654419,0.6167516708374023,-0.19378724694252014,0.04142075777053833,-0.2116461992263794,0.17352354526519775,0.5625909130973911,0.04775030784435463,0.6331084297340657,-0.5295139155798189
