,seconds_elapsed,rotationRateX,rotationRateY,rotationRateZ,gravityX,gravityY,gravityZ,accelerationX,accelerationY,accelerationZ,quaternionX,quaternionY,quaternionZ
0,1.0,0.06987156653267448,0.16464200141490437,-0.4108256048202747,0.2745227104256628,0.5120158370817081,-0.8139267920487328,-0.1013791779390885,0.050691096062655476,0.007453860246459862,-0.23242362522417045,0.19752428563670668,-0.20061978903910868
1,1.01,0.07812188951112807,0.17546002230151153,-0.4044232165314254,0.2738202957534452,0.5125280717036006,-0.8138410728764526,-0.10317778787745645,0.05098464472246401,0.005150378590144624,-0.23230942104877397,0.197766976975243,-0.20278403493144112
2,1.02,0.07819384046167929,0.1857462533745798,-0.4075165413988891,0.2732134210526723,0.5129965789624658,-0.8137498476761329,-0.10257400636654224,0.047441483674601444,0.003220942697296548,-0.23216091713313233,0.19805646290563297,-0.20495428738478746
3,1.03,0.0709932266275392,0.1970119368649749,-0.4147697226773418,0.27265650749122133,0.5135027204451872,-0.8136173981632314,-0.09950834949060396,0.04798565827186933,0.0036851115698122525,-0.2320199256956586,0.19838858109896948,-0.20716135853926107
4,1.04,0.05319903947661957,0.20674342121560144,-0.4262884194163914,0.27213053679254373,0.5141392245440158,-0.8133914533709965,-0.09622869501239377,0.04932735848451842,0.005028906038143238,-0.2319371421624995,0.1987697139868385,-0.20941184008388525
5,1.05,0.02315710404052689,0.21833384685394244,-0.44672207731023533,0.27161548269377395,0.5150107576522328,-0.8130120869746225,-0.08999333482296325,0.04449698822221062,0.00977097850673736,-0.2319680376224319,0.1992102839288827,-0.21172060161866102
6,1.06,-0.006339746802902791,0.23785981267736514,-0.46620586988681856,0.27111938932455004,0.5161894596228129,-0.8124297755923032,-0.08444202462743843,0.035322581544082854,0.019808476866870615,-0.23214576602868608,0.19973325516951282,-0.21411068259729926
7,1.07,-0.02166494433788216,0.2620560358496261,-0.4906978938270995,0.27067189148771076,0.5176220422113089,-0.8116670050333247,-0.08360171811376166,0.02634081203212993,0.030132522999843057,-0.23243305388281435,0.20035278920821642,-0.2166040689534923
8,1.08,-0.010749345185993438,0.28732192486350705,-0.5220077255517169,0.27026818100544814,0.5191416169661645,-0.8108306239104178,-0.08218233829416424,0.02157603194391646,0.03574566861381258,-0.23272835331230934,0.20105236387505357,-0.21924963264253514
9,1.09,0.018433492346328597,0.31765392753376454,-0.5636308817630166,0.26989455925041367,0.5205858414586818,-0.8100287983559483,-0.07922188377656275,0.020141513131262494,0.03288842291829514,-0.23292926494440877,0.20181528605935764,-0.22211552500991652
10,1.1,0.05442430024572042,0.3513573733219263,-0.6093158189562784,0.26955256478091283,0.5218635398288038,-0.8093203324957371,-0.079134548239578,0.027280188736732592,0.0263524392972828,-0.23297317713630006,0.2026404830800919,-0.2252567050971748
11,1.11,0.07709544436140615,0.38051540405922396,-0.6495418102287641,0.26923387667862175,0.5230096377728288,-0.8086863712161341,-0.08050603271971302,0.04376560178941202,0.021593070077359406,-0.23288184742681042,0.20352557349418265,-0.2286604514169526
12,1.12,0.07926318332756632,0.404371220061148,-0.6875701044453308,0.2688957936334191,0.5241647223418113,-0.8080506588914431,-0.07968057873222271,0.05379052731150288,0.015335919344215642,-0.23274519850409073,0.2044605386273455,-0.2322824928535399
13,1.1300000000000001,0.06280073163507005,0.4252655602351299,-0.7312132440856665,0.26851267614547397,0.5254911844647723,-0.8073160355561413,-0.07708403601136513,0.045186554917017646,0.010840460436884275,-0.23265656032396517,0.20545714492787062,-0.23610830501608926
14,1.1400000000000001,0.04226860395283394,0.4482357235159731,-0.7808644282486069,0.2680421100812964,0.5270966487092665,-0.8064251219038852,-0.07627414591988774,0.02569783538347057,0.01361971023725358,-0.23267620221242225,0.20651617146860093,-0.24014723865073392
15,1.1500000000000001,0.035980494051665236,0.4769539018693253,-0.8266786663795856,0.2675151919882585,0.528944162788516,-0.8053895868102674,-0.07625795960635892,0.0079534526989668,0.01993485379410004,-0.23277407536693331,0.20765617194639138,-0.24442340056478132
16,1.1600000000000001,0.04002347298221334,0.5114229005942924,-0.8698666707918569,0.2669999979700339,0.5309183263153522,-0.8042607447135879,-0.07705437347011677,-0.0017700802404122084,0.026843378522840394,-0.23287945950793443,0.20889324683379973,-0.24893210305087113
17,1.1700000000000002,0.054337429050561624,0.5489996106377643,-0.9099260026180283,0.26652417056236477,0.5329228250202916,-0.8030920407667351,-0.07947603612683467,-0.007258869057675402,0.03913645905293115,-0.23293486670242816,0.21022578293139946,-0.25367500743898924
18,1.1800000000000002,0.08396490021534976,0.5919284832314886,-0.9437976464337772,0.2661331620744675,0.5348433115370628,-0.8019442590012523,-0.08622505654478797,-0.015545557678239322,0.04968141926642026,-0.23287120433406794,0.21165618222370902,-0.25865149258247006
19,1.1900000000000002,0.12693435247084953,0.6424440380470737,-0.9724815102169118,0.2659401337147073,0.536551800333542,-0.8008664476401709,-0.09442460903919182,-0.019169851452103398,0.05861364847276715,-0.23260473434250903,0.21321616310494573,-0.2638524318101389
20,1.2000000000000002,0.16869546588641324,0.6936487881088408,-0.9892119413052571,0.26602147011872146,0.5379766910511535,-0.7998830808050116,-0.09753753146942472,-0.015074411388195423,0.0667429746783456,-0.23208894435150063,0.2149239878021432,-0.26925658616013765
21,1.2100000000000002,0.1993881770802336,0.7411253375730726,-0.9951261960186272,0.26641800783769026,0.539139539136519,-0.7989677197561666,-0.10071661306083546,-0.012247041851127126,0.06935989946066548,-0.2313420204402252,0.21678546185612693,-0.2747982948879493
22,1.2200000000000002,0.21576547354191292,0.7806131104484185,-0.999312989320422,0.2671160870163133,0.5401342818040792,-0.7980622482467447,-0.10807899000146488,-0.012104701836065665,0.07171350876018787,-0.23042526111698763,0.21879627857028508,-0.28042547884073693
23,1.2300000000000002,0.2150136134949765,0.8131729581242495,-1.0010325102679085,0.2680665832267999,0.5410848895174193,-0.7970989180514567,-0.11374777236277231,-0.009354515694241197,0.07059220216670108,-0.22941743590462743,0.22094511053055974,-0.2861015287930141
24,1.2400000000000002,0.20048448147528958,0.8374203983482376,-1.0039735791936673,0.26921662374178973,0.5421148049078656,-0.7960106506037713,-0.11155000388834754,-0.002905422753873555,0.06423503001255386,-0.22839541583736478,0.2232233070109384,-0.29180020976172394
25,1.2500000000000002,0.1859100391093192,0.8555599195626984,-1.0066267978440464,0.27049164547022925,0.5432974694180351,-0.7947709646466764,-0.10402051020418251,0.005762894502075888,0.05623787111702946,-0.22740891510059522,0.22560599231363587,-0.2975124139766771
26,1.2600000000000002,0.17744778943706463,0.8667272592181691,-1.0044635289814323,0.27186360367340967,0.544591558999673,-0.7934159045136766,-0.09570418564035187,0.016765452646359546,0.04714454533823276,-0.2264448870102446,0.22806367100323446,-0.3032113259866079
27,1.2700000000000002,0.170363634651221,0.8695436992507893,-1.0065750962356106,0.2732688311734819,0.5459570293533034,-0.7919934479374205,-0.08718204426259013,0.03465069371886827,0.04247907336539348,-0.22549082923447236,0.2305546374385285,-0.30889644755170753
28,1.2800000000000002,0.15166417310610938,0.8606607465117119,-1.017008648204501,0.27458194560822446,0.5474472489237087,-0.7905091864828137,-0.07568083844598701,0.05314681939489702,0.0429299751136568,-0.22459105238659743,0.2330292436577214,-0.31458025862671257
29,1.2900000000000003,0.12038908698371419,0.846681287732262,-1.029194902389889,0.2757081593804679,0.5491840637293423,-0.7889107089181796,-0.06060912538951505,0.06486855635435193,0.039268413304321834,-0.2238268901951197,0.2354668466407726,-0.3202565595699395
30,1.3000000000000003,0.10116505197030534,0.8277029784328576,-1.0434967182462611,0.2765980423528501,0.5511890138279096,-0.7871989621445785,-0.043099947574766165,0.07269464152384492,0.03210744304595962,-0.2232186623316178,0.23784981467043936,-0.3259254175035365
31,1.3100000000000003,0.10673561962630652,0.805902719154255,-1.0496995363442694,0.2772406504773244,0.5532897453260376,-0.7854974370551645,-0.026074139895353815,0.08217503663763652,0.027704288144013715,-0.22267622490141178,0.2401359883825433,-0.33159881503171207
32,1.3200000000000003,0.13209788007370715,0.7898398971723507,-1.0491029173048445,0.27768710128366364,0.5552637080705609,-0.7839455293709762,-0.014948974767321306,0.0958179608875073,0.02255752219207334,-0.22207871622531308,0.24229547062528564,-0.3372691095098702
33,1.3300000000000003,0.16525318237207415,0.7729605891040616,-1.0536026731601,0.27795690171827164,0.5570078174908685,-0.7826117700861569,-0.009892431365426202,0.11247533419647175,0.014685452969690219,-0.22136758047610186,0.24431420717424943,-0.3429504794623311
34,1.3400000000000003,0.19170638558798359,0.7547432742941051,-1.0585992083687217,0.2780322484692624,0.5585462035519552,-0.7814879389655057,-0.005202150829269805,0.1232265583638415,0.007316043107369256,-0.22055799790850988,0.24618941395359226,-0.348654110065081
35,1.3500000000000003,0.20821520050049047,0.7342149104442788,-1.055102764177718,0.2779242361866636,0.5599237065544003,-0.7805401260193321,-0.0026394791311758277,0.12840404922462784,-0.0014731487099201319,-0.21968264430700135,0.24792860007079548,-0.3543483844835401
36,1.3600000000000003,0.21464499665966685,0.7124675845762832,-1.046584107404295,0.27766922091614704,0.5611954972452433,-0.7797171347064608,-0.002659504964555852,0.13249205067877123,-0.012475153813502497,-0.21877679993758722,0.2495542809161737,-0.3599939375195183
37,1.3700000000000003,0.2162741345031388,0.6911872529611557,-1.0366310000655359,0.2772909652476938,0.5624137571519315,-0.7789736352438001,-0.005149111085118725,0.13408949249333652,-0.02168996386202184,-0.2178725566358475,0.2510856378790296,-0.3655641050273743
38,1.3800000000000003,0.23552799035473723,0.6688792877342211,-1.028168492331171,0.2767663358579609,0.5635316147427029,-0.7783521409073151,-0.00877494081634708,0.13391832689883254,-0.027631266375278598,-0.21694960458501003,0.25249977406354446,-0.37106938804372686
39,1.3900000000000003,0.2696248190623024,0.6464642204227848,-1.0260202921926975,0.27608250975026744,0.5644195906352252,-0.7779515992151573,-0.012486347550293535,0.13637400878360512,-0.03171601786743863,-0.21593539588595856,0.2537626462713531,-0.3765497193570142
40,1.4000000000000004,0.3014434657159504,0.619337368324623,-1.0250361373608985,0.2752113863238278,0.5650186736204613,-0.7778253737788965,-0.01489251077601501,0.14671334463714056,-0.03181710394794136,-0.21480376978409715,0.25484520831080265,-0.38202237654046906
41,1.4100000000000004,0.31104366117942833,0.5862238404792138,-1.0238771160744364,0.2741067121933155,0.5654376048667473,-0.7779108930903021,-0.01271892025615649,0.1606638252662383,-0.027515555865829582,-0.2136268323212056,0.2557491404482889,-0.3874731596924684
42,1.4200000000000004,0.3055690077708275,0.5556734166282685,-1.0222917002276517,0.27276614528163906,0.5658449438604294,-0.7780858104248182,-0.005837182290997231,0.162987028773932,-0.018166324390039776,-0.21250342312382278,0.2565130969698676,-0.39286739958913
43,1.4300000000000004,0.3132847966648351,0.5275235522420618,-1.009961042103204,0.2712339015106565,0.5662159779703148,-0.7783514071640231,0.001292088989110863,0.15050376628929918,-0.00636357005706892,-0.21142110013404447,0.25714789235965907,-0.3981830602900357
44,1.4400000000000004,0.3258676091936653,0.4989802228315955,-0.9913517295266495,0.26956108571030185,0.5664418157830369,-0.7787680100591388,0.00276800068386352,0.1362174273876003,0.0032770927937238853,-0.21032088480675293,0.2576446460850196,-0.403407056823269
45,1.4500000000000004,0.31984376779513113,0.4745526139024771,-0.9715670311737034,0.2677902577546816,0.5665616664621403,-0.7792915709491167,-0.0028115026875636666,0.13225795235159704,0.013060890326774193,-0.20922211216801673,0.2580310293101544,-0.4085165832200443
46,1.4600000000000004,0.29359261676727216,0.4493822306205392,-0.9528981157040102,0.26593634554301376,0.5667244581738486,-0.7798078413397889,-0.007875881280051586,0.13176402838435008,0.017784734835731775,-0.20820513954669714,0.258353343102461,-0.4134843243812182
47,1.4700000000000004,0.2608805240726499,0.4263640308625489,-0.933558066045647,0.2639993634407833,0.5670617112107826,-0.7802206687159878,-0.011239158927765655,0.12137761384624149,0.015155412769722617,-0.20734130745054924,0.25864855971338485,-0.4182913117980318
48,1.4800000000000004,0.23766461098823302,0.415531207753996,-0.9162868029359531,0.26203056810764197,0.5675588540885478,-0.780522796938832,-0.019872508723887683,0.10291515622346943,0.013473481704586883,-0.20660739783936766,0.258943721652882,-0.4229521250587414
49,1.4900000000000004,0.2230931042512405,0.4131034071097508,-0.9041174477159656,0.2600970995529202,0.5681462282184069,-0.780742132190219,-0.03301069827340711,0.09057493985698906,0.01483496175008243,-0.2059413891535761,0.2592623133449007,-0.4275062255558932
50,1.5000000000000004,0.21228998473670746,0.4146004521608121,-0.8924748646022629,0.2582291170983807,0.568782999580435,-0.7808986016374547,-0.043160446036927494,0.0930729487634385,0.01931758046266655,-0.2053065824160907,0.2596146619169477,-0.43198351130633855
51,1.5100000000000005,0.2108566444414466,0.4219419002729415,-0.8837679634860248,0.25645345807351977,0.5694319684320363,-0.7810108528094133,-0.047677062259754245,0.10111372608080309,0.02521249620185724,-0.20467062306674502,0.26000837965030316,-0.43640747544598335
52,1.5200000000000005,0.23693638417604887,0.43710846182788116,-0.8798967901741448,0.25478802386213306,0.5699623715919739,-0.7811691205516983,-0.050048182405346815,0.10320315983484336,0.030428243470765556,-0.20395293759295646,0.2604197660663206,-0.44081831474235156
53,1.5300000000000005,0.2916903303528706,0.45300993116106913,-0.8785473237745464,0.2532435826258733,0.5701467745995614,-0.7815367706411053,-0.05141940514731685,0.10905806124210418,0.03301459692884235,-0.2030233518582387,0.2607927329555098,-0.44527361558840145
54,1.5400000000000005,0.3520947328872222,0.46709792104926007,-0.8758956338420939,0.25182994897630223,0.5698505619919652,-0.7822092167931445,-0.04910428438643303,0.12884819142791404,0.035236106762351,-0.20180651549768602,0.26109206112482225,-0.44980301590791555
55,1.5500000000000005,0.3857098087876161,0.4761647387948681,-0.8714605283843703,0.2505328753638096,0.5691455717245004,-0.783138381069551,-0.04434191267260257,0.15195662105842334,0.03750117867948573,-0.20034894554322946,0.2613245518884363,-0.45438346640282795
56,1.5600000000000005,0.37516261892621733,0.4745878008167795,-0.86496490231365,0.24930455013258235,0.5683116271563579,-0.7841353960970509,-0.039620403400132245,0.16182697689012815,0.03916963642376321,-0.19881685891810472,0.2615407779944737,-0.4589511747287438
57,1.5700000000000005,0.31886223108158035,0.46334085926646285,-0.855650413082912,0.24808623277931469,0.5677203261642717,-0.7849498888594099,-0.036996955671929684,0.1528216123348093,0.04003512831404803,-0.19742803352186247,0.2618144458005862,-0.4634200429581542
58,1.5800000000000005,0.23631198788061258,0.4496503573609509,-0.8432027916540384,0.2468389122368534,0.5676391048007645,-0.7854018388316035,-0.03581720561487592,0.13237204722827173,0.03856806140393,-0.19633709142159028,0.2622033022262801,-0.467726357698986
59,1.5900000000000005,0.13062572310740372,0.43244365950059144,-0.8309952999834158,0.24554554209011614,0.5682497719256709,-0.785365458305848,-0.03408927939642482,0.11289797817478181,0.03656602645915082,-0.19564322170556506,0.26275623453958113,-0.4718326119841334
60,1.6000000000000005,0.009434762174344843,0.41310725085349886,-0.8183657600602594,0.24416710724653956,0.5697138304676629,-0.7847337125276681,-0.03171250512423269,0.1016278234455963,0.03817160040489414,-0.19543804556262018,0.26350888710608866,-0.475711683599623
61,1.6100000000000005,-0.11681405164983336,0.39201975164214237,-0.8064490542527064,0.24267102510715738,0.5721064020448984,-0.7834551850309477,-0.032606631650212846,0.091515198882981,0.04038459988191094,-0.1957679652768459,0.26447489567631105,-0.4793472534706887
62,1.6200000000000006,-0.2253002094923912,0.3863323085338754,-0.7990221375977723,0.241105035636809,0.575407741141624,-0.7815172494588505,-0.03509832232067833,0.07960413101056474,0.0418905393884455,-0.1966037346988003,0.2656833962765399,-0.4827562945368205
63,1.6300000000000006,-0.26800294313250145,0.39009337037025427,-0.7941982639825119,0.23952355006500636,0.5792960780593721,-0.7791266679452389,-0.035926475294783905,0.07180061377234757,0.046468186163407275,-0.19775010157495784,0.26707805736710394,-0.4860314181485961
64,1.6400000000000006,-0.23546997416269422,0.40923915426538016,-0.7895547796506432,0.23801639802695707,0.5831772578239909,-0.7766898316331207,-0.044343414519972396,0.06931699390406713,0.042908806819468154,-0.19887105943560188,0.268523032897199,-0.48928249368949445
65,1.6500000000000006,-0.17580966181787694,0.44866012688819684,-0.7878439224257296,0.23672282992331042,0.5866432459625469,-0.7744726917755381,-0.05731209078792587,0.08595274848801493,0.047059646919863515,-0.19970839277944882,0.2699622015007266,-0.4926037221316301
66,1.6600000000000006,-0.15333569285501628,0.4871809465189674,-0.7783007988192372,0.23573058399605068,0.5897431917175301,-0.7724187130669442,-0.06520975364835434,0.1210074091848955,0.06197284808753701,-0.2002604605832291,0.27145125131623254,-0.49599221967896107
67,1.6700000000000006,-0.19837132151332243,0.5195143331552662,-0.7606867585956091,0.23506467556277355,0.5928816617019755,-0.77021551392093,-0.0743637950847881,0.14170223033881363,0.07332864868137745,-0.20074226946509136,0.27311897371377825,-0.49933485456313537
68,1.6800000000000006,-0.30527111686347175,0.5606258415498314,-0.7460982499214817,0.2347424274945812,0.5965627869790985,-0.7674651170470185,-0.08467827457491271,0.12576938987363087,0.08630748090399734,-0.20141098209954875,0.2751358790798847,-0.502530924493441
69,1.6900000000000006,-0.464326564881573,0.6111959251137077,-0.7394924989089934,0.2347689561524386,0.6012287960871552,-0.763804309338216,-0.09545702780982818,0.09027965709884775,0.10190512283222938,-0.20247744343408475,0.2776661720803031,-0.505538296712799
70,1.7000000000000006,-0.6776059218021341,0.6570503743383854,-0.7331457571106617,0.2351419101688775,0.6072813866645222,-0.7588803412320191,-0.10719659668071169,0.06286827753990391,0.1174257746590997,-0.2041415149248798,0.28085978962324387,-0.5082977282836756
71,1.7100000000000006,-0.9194029962876982,0.6921952908916886,-0.7333248240116522,0.23576328968920285,0.615038947446738,-0.7524046566220927,-0.11588281144941037,0.042372579319633945,0.12991111240116945,-0.20659767864023065,0.28479607560228654,-0.510739816365076
72,1.7200000000000006,-1.1351337959508139,0.7230487359466832,-0.7425494450499985,0.23647955849902436,0.6244916093719383,-0.7443416092253106,-0.12502128059972856,0.01802369874710803,0.1400925286807093,-0.2098795367557675,0.28943184738864064,-0.5128822044221496
73,1.7300000000000006,-1.281498140973986,0.7727107370971662,-0.7496689635428926,0.2372855331786649,0.6352394006977022,-0.7349232030533,-0.13695760112276723,-0.0036765670002819346,0.13639895987462272,-0.21378022272935943,0.294661051733292,-0.5148049342844032
74,1.7400000000000007,-1.3135769056156261,0.875431599118756,-0.7416747435694548,0.23847109106864084,0.6465554591559347,-0.7245952437049702,-0.14970772293891144,-0.0035137685947111323,0.11021537219057542,-0.21783533700246838,0.30039592355828304,-0.5166414082886335
75,1.7500000000000007,-1.1649730007459975,0.9874696387474519,-0.7522927643818806,0.24031035704004983,0.6573560764349776,-0.7141997720845634,-0.16197719034869565,0.023021397660788496,0.08893036792718016,-0.22137194366047974,0.3064036649416675,-0.5186373652305016
76,1.7600000000000007,-0.8327935487420914,1.091980861597727,-0.7794288045211449,0.24262865274385728,0.6663606574938105,-0.705025126674684,-0.17432239520716036,0.0618635727259676,0.07770131006740409,-0.2237040001949799,0.31214715505989593,-0.5211616224279861
77,1.7700000000000007,-0.423016932365755,1.2062722023333468,-0.807911491335254,0.24537753423413017,0.6727171850747562,-0.6980142826642128,-0.19274097343505772,0.11870438626957454,0.07197871459566822,-0.22434145001934744,0.31726659621816317,-0.5244723880182282
78,1.7800000000000007,-0.045490100065602085,1.304905595560882,-0.864524739281818,0.2484876538950725,0.6763847772614732,-0.6933613711734378,-0.20526227829901955,0.19905709563222365,0.07525851149231196,-0.22323515715912792,0.3216838214700732,-0.5286704323777779
79,1.7900000000000007,0.24293330653173179,1.3674447434748167,-0.9447337138751524,0.25160751990073005,0.6779193911527632,-0.6907356322785222,-0.2070941480775285,0.2643344169840745,0.07132104199630898,-0.22075417404843659,0.32541474438364176,-0.5337244351520157
80,1.8000000000000007,0.4422441552580546,1.40653422115394,-1.017461352579323,0.25450923821751265,0.6780102691655979,-0.6895832544961633,-0.20360582371581853,0.2682351993215123,0.052923945072443204,-0.21734624824560003,0.3285780244689202,-0.5394809882672633
81,1.8100000000000007,0.567805339319139,1.439199356396468,-1.0627606670266463,0.25724733684963486,0.677163465357843,-0.6893992019477864,-0.2028853335213155,0.22464913081494897,0.0315828020400763,-0.21331916061024803,0.3313446893906965,-0.5457196914591891
82,1.8200000000000007,0.5912862771475746,1.4773470171378225,-1.1112174566737623,0.25994377748415404,0.6759316582675556,-0.6895965144178994,-0.20938914361524946,0.17282370363187943,0.016954122534625936,-0.2089665700266338,0.33395857836931553,-0.5522363206866785
83,1.8300000000000007,0.5122144971111808,1.499105081183729,-1.1572425832640412,0.262524516399547,0.6750563805315929,-0.6894766087614812,-0.21500600669283385,0.12761644597677274,0.010113169813361814,-0.20469591541657597,0.33668260567334507,-0.5588743778709565
84,1.8400000000000007,0.34352560260110565,1.5046241620887757,-1.1370748593888382,0.2650963095966066,0.6751365511863605,-0.6884127590118084,-0.2257855585047574,0.08386451889198865,0.011640221622019413,-0.20085640655569548,0.33977131000908073,-0.5653187907833059
85,1.8500000000000008,0.1348982879168389,1.5085585482002184,-1.0934010902444897,0.2679045221549525,0.6764668783450402,-0.6860134889117289,-0.24644403723164096,0.02749764434713555,0.018305923813841163,-0.19761949467789253,0.34341517815493466,-0.57125255837095
86,1.8600000000000008,-0.05303217059545608,1.5077325467552973,-1.0742844751143767,0.2708549524672596,0.6791275360379424,-0.6822126432232807,-0.2438831594320704,-0.01667622304026392,0.01971283969988789,-0.19503624038978964,0.3476326784475315,-0.5766748137843261
87,1.8700000000000008,-0.1673727701383712,1.4870989301620774,-1.039105286819036,0.2738107950661625,0.6827881994553837,-0.6773591465466431,-0.2217714412372537,-0.03504585667410454,0.012930786895441505,-0.1929636531676874,0.3522487052686616,-0.5816856176335381
88,1.8800000000000008,-0.1840656879075001,1.4538478870381808,-0.9819287372804228,0.2768064155767562,0.6867965474725136,-0.6720681040413152,-0.22008065153368642,-0.037011437369625484,-0.007500272795293486,-0.1911024422760512,0.3569867831373456,-0.586338236614373
89,1.8900000000000008,-0.10880952677067818,1.4133035094026136,-0.9388016460754264,0.2797873801511649,0.690485962562606,-0.6670363453906403,-0.22981055729241845,-0.02301101820090809,-0.03584116536642787,-0.1891386828926056,0.3615282312172733,-0.590789958958599
90,1.9000000000000008,0.02125763255390871,1.363844046788286,-0.9006129880784977,0.2826414703071352,0.6933844773215244,-0.6628157889761493,-0.2240661935706145,0.013855440501360223,-0.05577034146408656,-0.1868592114615333,0.365610037850948,-0.5952060467711704
91,1.9100000000000008,0.17838578744996472,1.3139836513670125,-0.8656245081801875,0.28536049028334687,0.6952355682558847,-0.6597067459137177,-0.20932888736424382,0.06163724365760938,-0.06686186595470715,-0.18414339682719785,0.36909790792070435,-0.5996676683936405
92,1.9200000000000008,0.3246098404051838,1.2585718671558377,-0.8455286483047519,0.2878868256899297,0.6960254034260288,-0.6577748729730956,-0.19770617682661318,0.10654435456381507,-0.06963897565728971,-0.18099530524261115,0.3719529361728217,-0.6042311509725946
93,1.9300000000000008,0.417413774348102,1.2019158318289513,-0.8326219438458783,0.29012178439879804,0.6959931886871346,-0.6568268914707005,-0.1906769432564029,0.13997849010629781,-0.0635605673305683,-0.1775650477503286,0.3742368006496501,-0.6088814650481065
94,1.9400000000000008,0.4111489528894311,1.15619840688544,-0.8170160655514744,0.2921030619598738,0.6956238358651117,-0.6563400041895204,-0.17684601560934887,0.154294506153426,-0.046950631529827494,-0.1740940976065204,0.37618815179630044,-0.6134929272459044
95,1.9500000000000008,0.25622591606805273,1.1226429500617066,-0.7976252018706858,0.2939434294239619,0.6957406486617401,-0.6553936796030029,-0.15447549892123602,0.14095433696638587,-0.020098933740516647,-0.17096482308659144,0.3782472530215304,-0.6178302027077528
96,1.9600000000000009,-0.028204146219674903,1.0905578966718144,-0.7680305326823118,0.29570664315251644,0.6972726632608103,-0.6529654932674018,-0.13807945937151,0.08164100155699372,0.011020661075601897,-0.16862977132697657,0.38089136387842537,-0.6216094110615361
97,1.9700000000000009,-0.3860044714471146,1.071406595874577,-0.7184875134611458,0.2975134739652277,0.7008178672054786,-0.6483260729815806,-0.13332975629018615,-0.028468736680234308,0.04479256658815113,-0.16737115625141397,0.3844734083427554,-0.6245892657516481
98,1.9800000000000009,-0.7561344178859467,1.064444440742954,-0.6525665252702249,0.2995526137878189,0.7065562682459137,-0.6411068141460411,-0.1293036705115804,-0.1511064665624976,0.07950254736934159,-0.1672412046924918,0.38919196325772965,-0.6266303754299092
99,1.9900000000000009,-1.0861253579946888,1.0630339958644703,-0.5658844322044665,0.30198354913580894,0.7142746532402285,-0.6313243824553812,-0.11813669757039999,-0.23733517606459958,0.10344478802029602,-0.16811567890658174,0.39505052095899507,-0.6276975694133521
100,2.000000000000001,-1.3160174071144295,1.0541844370600224,-0.47390581945320964,0.3048719287032145,0.723408383965269,-0.6194108956007565,-0.10197265128125205,-0.2795789869865224,0.11041166571614351,-0.16973713684540423,0.4018342515230548,-0.6278631252723889
101,2.0100000000000007,-1.4350384430522256,1.0301782789865739,-0.40260726708741357,0.3080675979976285,0.7332220810905431,-0.6061417916524291,-0.07737675931072305,-0.29382508193792617,0.10664317601854952,-0.1717971020654175,0.40914579711184057,-0.6273533224486594
102,2.020000000000001,-1.4629624536610202,0.9994414127431784,-0.3420015543233553,0.3113944977958456,0.7430873819976122,-0.5922677940397978,-0.0451245707808965,-0.271621814667011,0.08024369482881985,-0.1740243594388905,0.41661357434254126,-0.6264150627503192
103,2.030000000000001,-1.4219951316683666,0.9646215474120027,-0.288330846087096,0.31477772803590226,0.7525372118185674,-0.578388644197347,-0.0007664951330142965,-0.18187473279933397,0.022350895607391535,-0.17619501796439904,0.42396599350892494,-0.6252357918878741
104,2.040000000000001,-1.3688477124553136,0.9316221888875563,-0.2418285114719727,0.318182386516128,0.7613510974333628,-0.5648367653833691,0.064954273059272,-0.058203056687478716,-0.03530486717354912,-0.17819221899690968,0.43106434908846447,-0.6239288281448873
105,2.0500000000000007,-1.333407544996587,0.9069669107557257,-0.2037391990103032,0.32159332177252536,0.7696035721688538,-0.5515681749908242,0.13824701140402484,0.02486982797272963,-0.06872415720718164,-0.18003716465541336,0.43793901692253706,-0.6225184418972199
106,2.060000000000001,-1.2977861749473916,0.8853415752411797,-0.16165590381132877,0.32504838536260683,0.7773767409613364,-0.5384897268027985,0.1882465111208184,0.03549810015829072,-0.06753549514105354,-0.18175022469325308,0.4446466727024598,-0.6209960856716982
107,2.070000000000001,-1.2183685442199794,0.8694803022313848,-0.1130404067793216,0.32863959259120795,0.784537237707992,-0.5257801432860999,0.20178530088160168,-0.011629834026106716,-0.03298813266446216,-0.18323210582189506,0.4511381384196306,-0.619399659783827
108,2.080000000000001,-1.0860697877210144,0.860410072955084,-0.0739830454784311,0.33240017932902044,0.7908509762762866,-0.5138292077556567,0.19339185183559673,-0.08027889346318115,0.014741484838748898,-0.18431618037757844,0.4572790405803811,-0.6178584700644725
109,2.0900000000000007,-0.8996701202180538,0.8482290323241601,-0.05570353790862938,0.33622933041187963,0.7961333170824222,-0.5030777772859429,0.18607878049660914,-0.12901786661241466,0.05444993907585996,-0.184868551122092,0.46290139292252946,-0.6165590149506212
110,2.100000000000001,-0.6922347287006929,0.8297379076480844,-0.042950457620825715,0.3400057681457842,0.8002708720450759,-0.4939013416907974,0.18666812427691212,-0.13684208323247624,0.08143121731118529,-0.18481774462052905,0.4678530444358443,-0.6156427545146717
111,2.110000000000001,-0.5550432030635309,0.805845366953869,-0.034191028018903495,0.34371205338393385,0.803427971794736,-0.4861559622164341,0.18898824385250937,-0.10532534204539276,0.0897726752038577,-0.1842577196206824,0.47219367734863893,-0.6150626745540078
112,2.120000000000001,-0.5252123741374829,0.7737959125428423,-0.04575986489471915,0.34721275114861816,0.8061457934789362,-0.4791202600084936,0.18944742266903622,-0.055235548596823655,0.0752708275715097,-0.1835315409087063,0.47618508513635227,-0.6146406307038769
113,2.130000000000001,-0.5616331615069892,0.7360651285891178,-0.0584422244687362,0.35037402950561286,0.8089068876904127,-0.4721137129540944,0.1902017564102477,-0.014692786190699907,0.058011469448411415,-0.18296694543601555,0.4800651763263973,-0.6141947159527746
114,2.140000000000001,-0.6047610267996824,0.7067963920533635,-0.0634652892826129,0.3532365894876423,0.811859028041363,-0.4648565908893936,0.19345811838284177,0.0008733227849010252,0.04632213916629445,-0.1826532868028615,0.4839481386515851,-0.6136335116061427
115,2.1500000000000012,-0.6586648346856319,0.6856128644198154,-0.052389709348787616,0.35595305711030994,0.8149797031655912,-0.45726008033379817,0.1995597702451059,-0.01116052307188801,0.03493742588907334,-0.18254493911256836,0.4878969766681585,-0.612914706172806
116,2.160000000000001,-0.7464554211124877,0.6662430919706803,-0.03863822885323229,0.35863741496577883,0.8183156089857224,-0.4491292681545011,0.19879424739628962,-0.03732776269316944,0.024920424446462697,-0.18266398154912736,0.49200099901174943,-0.6119539025102624
117,2.170000000000001,-0.8681861300021516,0.6534217340871685,-0.0338139302330089,0.36126687740907093,0.822021555528045,-0.44015919435769246,0.18943574214354064,-0.06841859612614175,0.027299348637462393,-0.18311493360143263,0.49637116954874744,-0.6106762943258222
118,2.180000000000001,-1.0009280093213035,0.6459393370650983,-0.027073332797019876,0.36382804768650645,0.8261990742078462,-0.43010578300817975,0.17911729803366042,-0.10518583970583055,0.03934359250095352,-0.18396287629614536,0.501097546142361,-0.6090333866566386
119,2.1900000000000013,-1.1266403964739529,0.6444168249221779,-0.0017097358445128524,0.36642399751079796,0.8307811349943963,-0.4189227082195607,0.167783745187092,-0.1406019801125411,0.05539220096386527,-0.18516234814067062,0.506207876915233,-0.6069956470315498
120,2.200000000000001,-1.2346904790220248,0.6455257684759981,0.046350295523311394,0.36924934637784923,0.8355815137030139,-0.4067089150691491,0.1583538659920818,-0.16407551798997957,0.07525218179928628,-0.18659808504355366,0.5116820384440387,-0.6045336241973533
121,2.210000000000001,-1.3177663707771627,0.6460135962517863,0.10770014992384944,0.37245608980632,0.8404173384074484,-0.39360267400272886,0.15379794343217093,-0.1790965273279646,0.09266672493927919,-0.18816780056134597,0.5174770030146375,-0.6016319504296279
122,2.220000000000001,-1.3497436741029891,0.6454319784669261,0.1830883636288229,0.3761550775925774,0.8450560251084025,-0.3799113418999406,0.15221883242814366,-0.1911838811279905,0.10705075662384349,-0.1897239346357113,0.5234879873242969,-0.5983462585416777
123,2.2300000000000013,-1.315079956446339,0.6380841546615625,0.27635100563065795,0.3804775622134592,0.8491753235740213,-0.36617523991499096,0.15024300825550413,-0.2062334201277483,0.11711162115950405,-0.19104816051031365,0.5295317460474487,-0.5947891201709469
124,2.240000000000001,-1.2331481901928667,0.6189609041903139,0.3831973256019542,0.3855357383727102,0.8525080504477959,-0.3529051534424054,0.1432323445333156,-0.22651882196078335,0.11792240416980301,-0.19196642545623277,0.5354325414862897,-0.5910506500483872
125,2.250000000000001,-1.1230874960012434,0.5908035264661522,0.4912845542502926,0.39136908594983266,0.8548998249156591,-0.34048717156375896,0.13593786537957156,-0.2381054913934497,0.10104652545033863,-0.19237504497602326,0.541055423398254,-0.5872093869116902
126,2.260000000000001,-1.0363952795429627,0.562986272578852,0.5950708506698887,0.3979505840508422,0.8563645561383848,-0.32898845348049294,0.13997797152600444,-0.24405734461792383,0.0743710647847615,-0.19227886991399737,0.5463771941290784,-0.5832881789717683
127,2.2700000000000014,-0.9865283858020424,0.5342090234985551,0.6968869757391638,0.40525989168812043,0.8570394913122656,-0.3181293180694624,0.15177617654377737,-0.26028843855809286,0.055541514270482255,-0.19178561895364116,0.5514955495845925,-0.5792048716028193
128,2.280000000000001,-0.9480033722245448,0.5062697652948621,0.8044377868798881,0.4133141242452824,0.8569933855384293,-0.30771963964632737,0.1555551558783189,-0.2869688781994878,0.05559977152788948,-0.19095553349389535,0.5564800613435783,-0.574893640364959
129,2.290000000000001,-0.9166315508183873,0.4951257112959784,0.914626784651601,0.4221851723176553,0.8562232217039348,-0.2976517886005592,0.14906852036399418,-0.32923637147219287,0.06448392444620776,-0.18977172109418836,0.5613863211480806,-0.5703241746004376
130,2.300000000000001,-0.8967052347090937,0.5035917317003764,1.031876222642724,0.43196063794810785,0.8547199218821315,-0.2877753972919877,0.13798351552139987,-0.3685507963561684,0.06909708240080584,-0.18819207596675452,0.566294487771381,-0.5654754632212935
131,2.3100000000000014,-0.9098950979960599,0.5195239582409515,1.1655011887732274,0.44276845830818357,0.8524660336453534,-0.27785104624705903,0.12191684644601086,-0.38411648773576096,0.07895386903311982,-0.18619862307601337,0.5713118012730392,-0.5602677033491013
132,2.320000000000001,-0.9644888349627945,0.539021597345474,1.3110613376226186,0.4547421928298255,0.8494554561742593,-0.2675210702558983,0.10366587972134288,-0.3882474877606996,0.09356587239273072,-0.18384029150747544,0.5765706520202831,-0.5545409608865992
133,2.330000000000001,-1.0253637061361618,0.5569322474248308,1.461111231962089,0.46791630997904343,0.8456652028198417,-0.2565635496683663,0.09504207452058691,-0.3916235863936898,0.10846897746892738,-0.18116471038668586,0.5821407216627694,-0.548194458319011
134,2.340000000000001,-1.0803033071278096,0.5786770664230276,1.6151536632851562,0.4823038843161281,0.8409936218691995,-0.24498812867277767,0.09364151629407617,-0.3919487646301932,0.12482649828325601,-0.17814027096172114,0.5880143315469317,-0.5412144626629811
135,2.3500000000000014,-1.1113248287195219,0.6056281272206928,1.7741144362239134,0.4979190641029163,0.8353015733461918,-0.23289359154864855,0.09232866429091667,-0.39302048284220975,0.1353621760623857,-0.17469470428454845,0.5941568398618594,-0.533621525754416
136,2.360000000000001,-1.1005954254785022,0.6339938350742392,1.940970966320551,0.5147685107811365,0.8284048369400031,-0.22053407878538434,0.08800008922190228,-0.39712371048265754,0.13814296417018165,-0.17070479275743797,0.600482016477923,-0.5254881463279323
137,2.370000000000001,-1.0314224837222474,0.6681438052631311,2.1103452141636656,0.5328585883994039,0.8200780408912194,-0.2083154780154459,0.07989228260448042,-0.40486964743843623,0.13620315720380255,-0.16598818405845867,0.6068560128272273,-0.5169424858892675
138,2.3800000000000012,-0.9364288433148843,0.6995864836376113,2.2773754834960163,0.5521324221756497,0.8101527194771433,-0.1965934492411342,0.07252238042949585,-0.40205224070710355,0.1293241500944706,-0.16039533777832143,0.6131545960075595,-0.5081195733032349
139,2.3900000000000015,-0.8577732491029227,0.7095831748080762,2.427459979225547,0.5724077224920644,0.798623149283115,-0.1854248996411565,0.06562606295391138,-0.38389197908013617,0.11454610850952131,-0.15398201456930885,0.6193199172981446,-0.49903643380159834
140,2.4000000000000012,-0.771702259330028,0.712524939828758,2.551777336396576,0.593414337146552,0.7855704362793645,-0.17480850301764872,0.060868499283911415,-0.36632275044380924,0.0919603484386276,-0.14687355192592425,0.6253018095352405,-0.4897091142471064
141,2.410000000000001,-0.6351051592276062,0.7124557274748359,2.6632172714403555,0.6149167750182749,0.771015401663413,-0.16499010459538363,0.06110884805771163,-0.3493790213901826,0.06856913998777753,-0.13904370813207365,0.6309899640994029,-0.4802894962167326
142,2.4200000000000013,-0.4336604407717942,0.704230070707925,2.781138957695085,0.6368260688913331,0.7548314362025738,-0.15646093334307168,0.06493853245327601,-0.3119998960584584,0.047109985051389976,-0.13031984471718697,0.6362076159327413,-0.4709733318696508
143,2.4300000000000015,-0.24091444331968018,0.6886792077246325,2.885812746395837,0.6590351130871603,0.736970060665041,-0.1494472321497586,0.07225457004533518,-0.2377844079339266,0.01709446463755161,-0.12064032523237533,0.640853439822006,-0.46185499252458945
144,2.4400000000000013,-0.11673370946535784,0.6644979877572004,2.967527262645318,0.6813145442210983,0.7176061390651712,-0.14362744511818085,0.08610993565089525,-0.15587872575269,-0.0232835131912055,-0.11020813823563987,0.6449876522832273,-0.4528530740231946
145,2.450000000000001,-0.03312789438803315,0.6242776864819406,3.034036221104914,0.703451189694172,0.6969245220447168,-0.13863966990720594,0.09768580056988953,-0.10755265776969845,-0.05993612588791075,-0.09927576594678189,0.648684592294059,-0.4438327089617711
146,2.4600000000000013,0.04589701135537261,0.5662420555381601,3.081797611503867,0.725255468591061,0.6750532256541162,-0.13442503301121123,0.10189500738779338,-0.09296209846797801,-0.0894174446759316,-0.0879966524111461,0.6519282234318847,-0.434760592263756
147,2.4700000000000015,0.1294868137678109,0.5024841451139223,3.099522882961345,0.746491520290022,0.6521763909021956,-0.13106193381607842,0.11161348208842031,-0.07594127536972252,-0.11997180852745878,-0.07647307863577062,0.6546654178656397,-0.4257173186342382
148,2.4800000000000013,0.2173103991121145,0.44050475752082174,3.091214664810102,0.7669309073491631,0.6285230582972839,-0.12860258737528027,0.1315644311354876,-0.03093287557566444,-0.14784983575519034,-0.06478786978313798,0.6568614765157275,-0.41681875643136473
149,2.490000000000001,0.2818499537970689,0.3957960692256129,3.0586499102646436,0.7864250429716797,0.604313313798045,-0.12691948662250055,0.15396435961156618,0.027314903461962768,-0.1646476812606136,-0.05302508501371709,0.6585548725725804,-0.4081200140068045
150,2.5000000000000013,0.2899660021837891,0.36562460821659976,3.00615978856221,0.8048583980285936,0.5798253311353586,-0.12562442919552247,0.1677868069426051,0.08567960782966896,-0.17674587541878448,-0.04134654782165753,0.6598828121390369,-0.3995816298681696
151,2.5100000000000016,0.22787704621258356,0.33990432588616015,2.9550610124657326,0.8222134599433074,0.5552558772324081,-0.12425848976363311,0.16993106576846875,0.1323221062761208,-0.182592252477116,-0.029973396396986974,0.6610156570993334,-0.391018092248525
152,2.5200000000000014,0.12062065918351438,0.3183587686886047,2.8907280390647356,0.8385030938640827,0.5307545604238224,-0.12249950373592879,0.1666986901819414,0.15841923712910067,-0.18315892844361148,-0.019099514621094188,0.6620859643842519,-0.38225484144998145
153,2.530000000000001,0.01205427756480032,0.3069095750888421,2.8045648270605055,0.8536615801811025,0.5065723370491709,-0.12022233974135693,0.16692805389323162,0.17165218973949212,-0.17462289740661394,-0.008856545555379729,0.6631637045265103,-0.3732924821182322
154,2.5400000000000014,-0.09468619746727099,0.30321231631529383,2.7016837369888806,0.8676523236173018,0.4829240075685244,-0.11740930871352898,0.17221866431248825,0.18039731817585986,-0.16522619404925054,0.0007049065768037332,0.6642843651024825,-0.3642016896300256
155,2.5500000000000016,-0.18748556973210323,0.30132886795036673,2.5931608666781836,0.8804865252526661,0.4599529748904852,-0.11411689855628489,0.18063819908287404,0.1934877202093445,-0.16179479080187262,0.009581988783393416,0.6654558819654665,-0.3550604615280521
156,2.5600000000000014,-0.24964203054736364,0.29453035167509756,2.4872093902859613,0.8922263228534436,0.4376895109489329,-0.11049506042799533,0.18948119063259788,0.2198188988588663,-0.15515596563694742,0.01783613041012133,0.6666471864486411,-0.34594761126129586
157,2.570000000000001,-0.27178065310096333,0.2846555085275841,2.3706931677559986,0.9029189512756842,0.4161688117137789,-0.10678755566574143,0.19629480308785235,0.2530777795127038,-0.1466641455799965,0.025561053367965235,0.6677865566988156,-0.3369997914282955
158,2.5800000000000014,-0.24052921220790352,0.279686692421819,2.24148567034861,0.9125796103864573,0.3955089074959657,-0.10318995651396054,0.20151906167739136,0.28763422654665716,-0.14722784199111713,0.032875523959450155,0.6688135549367302,-0.3284325726884445
159,2.5900000000000016,-0.16248050508455156,0.2800252980669032,2.114067243109435,0.9212661784651588,0.3757551584349096,-0.0998335834232415,0.2007668417762025,0.3268281425123933,-0.15726357130625038,0.03993505740763574,0.6696838540201764,-0.3204344256100398
160,2.6000000000000014,-0.062420451140481364,0.28320636192511356,1.999123207668874,0.9290793766733271,0.35684788574435233,-0.09681022638560485,0.1917930482421052,0.37106725673221036,-0.1721551671085787,0.046890464032411,0.6703614418912163,-0.31310892810853835
161,2.610000000000001,0.043042543980677875,0.28510089106712255,1.8904462134319917,0.9361173608689578,0.3387281641626009,-0.09411885636018229,0.1766072149039223,0.41458325793210493,-0.18559139615972675,0.05381862883034206,0.6708446232476976,-0.3064728539788677
162,2.6200000000000014,0.1214401485997558,0.2826006784016392,1.7957526597529236,0.9424651319268216,0.3213469134568151,-0.09173306136204916,0.16120881746698495,0.44953312418044866,-0.19028330537615973,0.060723792723551565,0.6711442472365131,-0.30047611477916847
163,2.6300000000000017,0.1429629678717894,0.2740166842406305,1.7058530401787564,0.9481993947279999,0.3046773599351554,-0.08953502266031099,0.1464564170586501,0.47161843970389145,-0.1862695696967409,0.06747481546562689,0.6713188065831986,-0.29493316324394886
164,2.6400000000000015,0.12957278795765587,0.26414527554879763,1.61078234694431,0.9533609549573164,0.28879187324346045,-0.08738881320750772,0.13634984415548287,0.4853392318516871,-0.17637427776062212,0.07389521066919777,0.6714429396361995,-0.28968061669906453
165,2.6500000000000012,0.12243991345112604,0.25640920617879515,1.5167904205183618,0.957984789992043,0.27374874750966954,-0.08525670463313845,0.13276261261635205,0.49805503984098487,-0.16020258298230813,0.07993575736256561,0.6715456355217512,-0.28469239963120024
166,2.6600000000000015,0.1448326206999245,0.25544056340736293,1.427545961629635,0.962125871601556,0.2595132893213856,-0.08315717032034949,0.13010004948086376,0.5124012158070493,-0.1467525998512634,0.0856813677226668,0.6716192494711708,-0.28002384632784594
167,2.6700000000000017,0.18331674233790154,0.2522457295022294,1.3462718096808188,0.96584198904991,0.24601135091044282,-0.08112590173572441,0.12339936977060253,0.5357844394213652,-0.1377784223038908,0.09124815666699122,0.6716423789720332,-0.27573926747232663
168,2.6800000000000015,0.21113157095537693,0.2367392885608831,1.2747311699376054,0.969180606342888,0.23317543991947212,-0.07922493615443574,0.11169757028653873,0.5665639696728703,-0.1373701709977027,0.0966639519399668,0.6715926574657126,-0.27182511387872443
169,2.6900000000000013,0.21363614808004183,0.20502292826997154,1.2032306504967198,0.9721706519020025,0.22097878103739613,-0.07755999360090271,0.0970097965026924,0.5937957229181562,-0.1473643713876527,0.10185718418955442,0.6714453531157593,-0.2682050965786121
170,2.7000000000000015,0.2043626916387134,0.16230541801697024,1.1193491518519163,0.974814013592163,0.20951352654164535,-0.07622197353773787,0.08914577792024364,0.610956053938306,-0.16447859960609496,0.10671762673046756,0.6711892357872806,-0.264844633313495
171,2.7100000000000017,0.19502098335964313,0.11238990850045058,1.0255505225410628,0.977108432484833,0.19890656887746938,-0.07529000472195521,0.0937031654626311,0.6233205675092099,-0.1832437328568617,0.11117384178867096,0.6708136070439692,-0.26177066242640007
172,2.7200000000000015,0.18318493319456844,0.06196476911945153,0.9292500373514345,0.9790703201273575,0.18921529700419198,-0.07481265057067492,0.09777063388901296,0.6396294551654165,-0.19911422157311087,0.11520721473469142,0.6703113433334206,-0.25900944310610047
173,2.7300000000000013,0.16705279016094918,0.013529466001653934,0.8213167237831943,0.9807184031458526,0.18050583168380643,-0.07477817396713611,0.09124197182575679,0.65904669967689,-0.20998731687661085,0.11878998803262304,0.6696991645177063,-0.256572643252406
174,2.7400000000000015,0.14646477324074753,-0.028761822127407695,0.6884393979889899,0.9820498210975039,0.17297005574402646,-0.0751479391196604,0.08208727564203565,0.6747804896105293,-0.2148793304572743,0.12184660482833737,0.6690122452336651,-0.2545058932485101
175,2.7500000000000018,0.13059426060370924,-0.06116900476515538,0.529741756101935,0.9830521677104946,0.16687584619483986,-0.07585027032490903,0.07731467150580061,0.6879793978339331,-0.21066504011233422,0.1242999091135587,0.6682986674692311,-0.2528998492224019
176,2.7600000000000016,0.12593830224839392,-0.0811278647668717,0.34959140479769774,0.9837223060353967,0.16245644043392507,-0.07677601353430966,0.07656479961085025,0.704502287759045,-0.19813409514831748,0.12611528930240226,0.6676123415656744,-0.25185757508713624
177,2.7700000000000014,0.11974348103922089,-0.08708915397437521,0.14531850465206572,0.9840547004860127,0.15993827454803952,-0.07781344516024559,0.07293031642620822,0.7177335241431151,-0.1830631389530005,0.1272572453275572,0.6670072086094825,-0.2514765789519269
178,2.7800000000000016,0.11746824665781708,-0.07733162223625309,-0.07619818629233384,0.9840431533549064,0.15951473016151263,-0.0788268733932084,0.055265471147873335,0.7193000375057506,-0.1712882794571829,0.1276687298979517,0.6665487382066021,-0.2518049833755115
179,2.790000000000002,0.15165651067879538,-0.04852513844521975,-0.30797198768863454,0.9836798115570466,0.16131471026417912,-0.0796828096417214,0.0182133897934825,0.7065470807632458,-0.15964765430570485,0.1273941313288564,0.666280161502082,-0.25295197552903836
180,2.8000000000000016,0.23013483131251433,-0.0004955961685773683,-0.5393774506789183,0.9829574507246875,0.16536380297585768,-0.08026858835500053,-0.03168557483626149,0.6827445163548304,-0.14493558134337065,0.12658601979119374,0.6662142634379482,-0.25507110517158993
181,2.8100000000000014,0.3306356898914908,0.055094367077220284,-0.7717691413659605,0.9818627345931317,0.17161675300570647,-0.08050167084281579,-0.0871212593166141,0.6521460711846838,-0.13421381092644208,0.12538296138878272,0.6663541298408625,-0.2582574005616387
182,2.8200000000000016,0.40863361826038397,0.11145016058970278,-0.9950769563265979,0.9803642768309861,0.18002072153775917,-0.08035506697162205,-0.1417650016493585,0.6188951698070414,-0.12755023608252777,0.12380598797054208,0.6667036582971975,-0.2624891092776046
183,2.830000000000002,0.4835659300035485,0.15566420837422534,-1.2026108566439144,0.9784180679358538,0.19048066042596673,-0.07989455567003446,-0.18560193515150547,0.5846736232167978,-0.11715506096515792,0.12182507358324868,0.6672407121116508,-0.26768051218766625
184,2.8400000000000016,0.5804340647882943,0.18853582242737063,-1.392470391280977,0.975982457294594,0.2028031239809954,-0.0792850613273912,-0.21080367900431407,0.5473927008802942,-0.10033025452721327,0.11951433927298859,0.6678864168613475,-0.27380462426970353
185,2.8500000000000014,0.6867737641558197,0.20806110614503423,-1.5625766311073894,0.9730216465541157,0.21674947001738668,-0.07870578770234707,-0.21196746998466418,0.5159156157751532,-0.08829212768468904,0.11698269058434521,0.668550977250506,-0.28084200675105914
186,2.8600000000000017,0.8007545285858396,0.21533988737792306,-1.710671820282026,0.9694968112162309,0.232106992832271,-0.07834198294876833,-0.1900776180671481,0.5002272279351005,-0.08709459758974882,0.1143065762711677,0.6691495701764343,-0.288760344143722
187,2.870000000000002,0.9119030399783981,0.2139054820478879,-1.8361317523013765,0.9653822084183034,0.24864487509160582,-0.07834924721953151,-0.15262308398426722,0.4904291264584178,-0.08457116897142515,0.11154972720610347,0.6696119246342356,-0.29749733767786535
188,2.8800000000000017,0.9928137970935919,0.19945866786132874,-1.9325898063436475,0.9606762873817627,0.26609003117618063,-0.07883416145596854,-0.1133394942126634,0.47500261317682396,-0.07735407817174125,0.10872666236909022,0.6698951086059701,-0.3069039583555394
189,2.8900000000000015,1.0312163555914038,0.17033297439941505,-2.0039542245258457,0.9553911311299133,0.28418245071464165,-0.07986927946381443,-0.0820464847309642,0.4466085639078696,-0.06892992218098627,0.10577492672430075,0.6699812109182005,-0.31675981650158086
190,2.9000000000000017,1.0592010056338954,0.13607813295944726,-2.066166886600194,0.9495237545184879,0.3027652978443096,-0.08150255663021717,-0.0558028614652826,0.4052720181872173,-0.052850839031546956,0.10263825385395926,0.6698593884955698,-0.32692101509499916
191,2.910000000000002,1.1062826185836572,0.10974613788784636,-2.11597743090243,0.9430712497036425,0.321718711077123,-0.08374582733449688,-0.031232264195564026,0.36272436762227794,-0.028327610535046954,0.09936732290939276,0.6695151470347467,-0.33736894860412203
192,2.9200000000000017,1.1749214468343359,0.08371314051438532,-2.139322905955413,0.9360811474244322,0.3407988077973223,-0.08663394975148844,-0.010514103157789934,0.3320091007096681,-0.0023285369351874145,0.09610496537244143,0.6689127117563399,-0.348094055142248
193,2.9300000000000015,1.2442019604684436,0.048363962918801545,-2.1458765535696176,0.9286097860153524,0.35976344483494027,-0.09027638170503605,0.007526744176268324,0.31421774450649975,0.023203149660183123,0.09295457146682148,0.667996013022513,-0.35906576888570674
194,2.9400000000000017,1.2766056604318337,-0.003344213331369736,-2.1500653793093565,0.920674739919161,0.3785148275354338,-0.09475647348364667,0.02552020147695246,0.2961540818803747,0.04244115513200619,0.08986317212760682,0.6667410286260576,-0.3701975498711222
195,2.950000000000002,1.2550136782788188,-0.07063921073430779,-2.149045231047733,0.9122710134341556,0.3970450263591679,-0.10004627368825028,0.04257608028842756,0.27207577120063764,0.04877711166171042,0.0866542962520923,0.6651801259589717,-0.3813229965200151
196,2.9600000000000017,1.2070028295466586,-0.14204928231447478,-2.1429613614653356,0.9034009820234626,0.4153408952347165,-0.10606248386513766,0.06687412982824673,0.2408345495965545,0.05327169363694219,0.08318615059594615,0.6633587402698659,-0.3922941292091941
197,2.9700000000000015,1.1573131307399174,-0.20304521941437487,-2.1317424767650004,0.894084917572235,0.43336041067503533,-0.11269604918829143,0.09812458018584623,0.20216660265438008,0.07044578884504966,0.07943848941713035,0.6613144615157246,-0.40305194061896454
198,2.9800000000000018,1.0999713610508373,-0.25050105418632296,-2.1150792234111546,0.8843479627976177,0.4510718525707519,-0.1197981973127765,0.11539683441515196,0.16283044802548183,0.09570547090334437,0.0754331540201158,0.6590943840810186,-0.4135716223102968
199,2.990000000000002,1.0339953377260693,-0.288179262570345,-2.0938059177715287,0.8741837218985873,0.46850819561223367,-0.12724114560842426,0.11134342293371216,0.1274213544820602,0.11833904868763447,0.07114849428690699,0.6567429038641786,-0.42383506008762584
200,3.0000000000000018,0.9626304557022979,-0.3150616361672328,-2.0733184821438013,0.8636425755685178,0.4856241222296404,-0.13483063481544502,0.0952151415112861,0.09353284278767533,0.14284099243378026,0.06660776389766297,0.6543252092686016,-0.43378953502031714
201,3.0100000000000016,0.8758563340524997,-0.3360650011309221,-2.0582019501598534,0.8527759169228358,0.5023909828159984,-0.1423609876583225,0.07525897529557966,0.058790475784911964,0.16952091693383797,0.06182481673808456,0.6519126020470002,-0.4433777868439413
202,3.020000000000002,0.7795066253982061,-0.35383366544168493,-2.048215644342589,0.8415837474942292,0.5188634331739355,-0.14969611088301094,0.05342207634654665,0.024057141149255473,0.18812237772226734,0.056758342170616684,0.6495557108938721,-0.4525656813208666
203,3.030000000000002,0.6790515303262288,-0.36625527854776224,-2.0461241623852406,0.830038208549374,0.5351329271565226,-0.1567200150864679,0.040778731065801,-0.006091034412389878,0.1970898388884974,0.051373101587512154,0.647296115026022,-0.46135610168919333
204,3.040000000000002,0.5887677159742298,-0.3681212659110308,-2.047413858305663,0.8181289249914675,0.5512464636820399,-0.16335461352137037,0.048873099801133885,-0.03353777218144907,0.20656856797577572,0.045683160001813244,0.6451562190530975,-0.46977673611899057
205,3.0500000000000016,0.5203616185812178,-0.3600643122917953,-2.0417586734052735,0.8058868083870018,0.5671711673610871,-0.16957796243950826,0.06554798196302998,-0.06045293413335906,0.2217074932326825,0.03976834104691314,0.6431328763119816,-0.4778741086290538
206,3.060000000000002,0.47300231972475726,-0.344968892273024,-2.0238853476475884,0.7933827947010262,0.5828131710994087,-0.1754082329483946,0.06971359492745169,-0.08934823627351426,0.23520460809814012,0.033741280134697266,0.6412080024798104,-0.4856901738132534
207,3.070000000000002,0.44475957968700536,-0.32269973869096885,-1.9910774909957418,0.7807288247051711,0.5980293038056976,-0.18089495185809681,0.06215193756786781,-0.119469166168752,0.24850399960722297,0.02773065615764346,0.6393544324274064,-0.4932507234393336
208,3.080000000000002,0.4218202755610007,-0.3010958073128035,-1.945558751036006,0.7680453123089693,0.6126884429124029,-0.18607502785007102,0.05449500897016778,-0.1464106203604108,0.26480463901044093,0.021826389410427187,0.6375555393103906,-0.5005462222650169
209,3.0900000000000016,0.42109673307881745,-0.27577526228757593,-1.8969744580328778,0.7554192560491636,0.6267203902500372,-0.19098009688446968,0.05045990310944886,-0.17155310819573233,0.2858968189645635,0.016097584641102322,0.6358005965274004,-0.5075883324432298
210,3.100000000000002,0.4927857683248172,-0.2424815675740398,-1.82859888103615,0.7429828322193626,0.6399391116919366,-0.19588694180170543,0.04839409403964029,-0.19526726661877586,0.3110090011777271,0.010756679532681276,0.6339823489545844,-0.5145046497161264
211,3.110000000000002,0.5969500508989868,-0.20960730313235493,-1.7403680288722487,0.7309289687790564,0.6520870455217492,-0.20112508338102464,0.04582289837611564,-0.20847510253104726,0.3306321445577435,0.006042390078331874,0.6319771780845846,-0.5214038810419616
212,3.120000000000002,0.692998136844441,-0.17298446027796882,-1.6537076300132734,0.7193303341359761,0.6631154856047085,-0.20682073309209972,0.04929517804907009,-0.20857684977155339,0.3331409451295313,0.0020064762341917867,0.6297466767982588,-0.528319879795105
213,3.1300000000000017,0.7644753194879834,-0.14046468885498603,-1.5706546594854305,0.7081910344306361,0.673124920437114,-0.2128563706122814,0.0667975517222697,-0.2073715379927309,0.33124708882533027,-0.0014277761388676318,0.6273482647674256,-0.5352079827754921
214,3.140000000000002,0.8042596887659197,-0.10481935518758485,-1.478452916498519,0.697566639494011,0.6821721571463142,-0.21906188737463178,0.08919341917391568,-0.2191036321498765,0.3344544393044939,-0.004330815736810691,0.6248575962374485,-0.5419776907984055
215,3.150000000000002,0.8292593481394572,-0.07511856116004581,-1.3845760289708853,0.6875248442304751,0.6902914403332452,-0.2253001265935195,0.11079005476978437,-0.23658386087986039,0.34308434359389206,-0.00676429095700346,0.6223354515560209,-0.5485382879362366
216,3.160000000000002,0.8643915984365758,-0.04422551917808322,-1.2821479815023709,0.6781053498939215,0.6974874359590049,-0.2316096546473338,0.13012953599294352,-0.24777148167292418,0.3537974777045092,-0.008728224444613335,0.6197714232682022,-0.5548917064157372
217,3.1700000000000017,0.8929377628259919,-0.012506255006735443,-1.161164264481364,0.669445316106437,0.7036852825825136,-0.2379818721096934,0.1442354411577321,-0.25684891255959114,0.3579992203707573,-0.010170140365385152,0.6171739118718018,-0.5610049084075197
218,3.180000000000002,0.8517694684211012,0.006209529124364543,-1.0169783416611318,0.6617217599821729,0.708851929049707,-0.2441841931300598,0.15339880590909294,-0.27403279503342176,0.3520025213016178,-0.011134242004095341,0.6146399667645991,-0.566708933196023
219,3.190000000000002,0.74175112282389,0.010564103009437237,-0.8687149384582586,0.6550271088082796,0.7130984133749743,-0.24981997533905193,0.15489790540886986,-0.31137892709813125,0.34877962234895704,-0.011817960813238814,0.6123308742901012,-0.5717508026653586
220,3.200000000000002,0.6139296317996686,0.012856990074033896,-0.7374633284052605,0.6493105156230731,0.7166321601369424,-0.2545977384259467,0.15488442456699003,-0.3616614516475335,0.34733429108164204,-0.012397146485890643,0.6103659316944896,-0.5760134468803719
221,3.2100000000000017,0.49942781189163565,0.016309751763129033,-0.6076648454472637,0.6445047120098016,0.719570996286348,-0.2584988344839082,0.1699138486932542,-0.39073938620277,0.34347322006360553,-0.012905183720753775,0.6087556634365003,-0.5795375856909801
222,3.220000000000002,0.3929240957643356,0.015410590748383307,-0.4779955516941843,0.6406224551309477,0.7219077066729765,-0.26162231285205567,0.20507773041664926,-0.38871424917439995,0.32742680543631364,-0.013310439585402678,0.6074630137254725,-0.5823668753491215
223,3.230000000000002,0.27911151303094917,0.0167086210314422,-0.353310008209187,0.6376514114670152,0.7236884033433141,-0.26395573577330556,0.2480506004984207,-0.37964094407432086,0.3043354597386127,-0.0136235286954725,0.6064951315874556,-0.5845126588085907
224,3.240000000000002,0.16608423005252193,0.024265729890089762,-0.21981430690229625,0.6356122594135105,0.7249456953060606,-0.2654234788612867,0.28011667051922556,-0.3856443547649004,0.2864130775676026,-0.013843982102548169,0.6058849234410976,-0.5859628231651309
225,3.2500000000000018,0.09735299510517059,0.032481912749842606,-0.0684193599365029,0.634623080587337,0.7255439780463889,-0.26615638918626233,0.28857710426587524,-0.40207923924790256,0.2720468053390701,-0.013863686546356896,0.6055820270488337,-0.5867438255885586
226,3.260000000000002,0.07701899200544592,0.04886078796845618,0.11022084965174174,0.6348716508105021,0.7251943031304607,-0.2665161625275123,0.2841761236119656,-0.4149117079878568,0.25906290606605115,-0.013463031745768964,0.605442462571401,-0.5869471493837606
227,3.2700000000000022,0.06340615397637596,0.09353026454622176,0.2845987903072872,0.6364947896939265,0.7237389240068375,-0.26659784987672536,0.2898931058593095,-0.41515740629471615,0.2491672618969048,-0.012465385882347076,0.6054298504378776,-0.5866353621655259
228,3.280000000000002,0.004046826938548999,0.15480670710159486,0.44391887125295676,0.6394463354632489,0.7213177699276884,-0.266090202562062,0.31630369012418247,-0.4013720872689896,0.23957871335874026,-0.010899812073844084,0.6056692982359012,-0.5857826574270194
229,3.290000000000002,-0.1398545854328208,0.18552346760631225,0.6339613531593707,0.6437538862228402,0.718043436889766,-0.26454586670027824,0.350836078142555,-0.38518750934896967,0.22829033141417213,-0.008942161329909624,0.6063380889996862,-0.5841604383162229
230,3.300000000000002,-0.35585046962346023,0.17582334619617887,0.860347638821784,0.6495736274023454,0.7138583206131603,-0.26161461015024723,0.3830005286063646,-0.3845193385466733,0.21912450877830894,-0.006807303379098647,0.607572786788923,-0.5814085729409949
231,3.3100000000000023,-0.5958143581595805,0.15377192716817575,1.1039667414348764,0.6569664717614109,0.7086858792799059,-0.2571575113515619,0.422671329939049,-0.4064839398646502,0.21354578215645217,-0.004642019973371938,0.6094239086243676,-0.5773061756356372
232,3.320000000000002,-0.8041933018776682,0.11608466174573379,1.351847991164377,0.6659620578556625,0.7023563474778325,-0.2512891414070258,0.4719492898087352,-0.4256881380659769,0.2093535430913276,-0.002433068631101161,0.6118387278722591,-0.5718078457923427
233,3.330000000000002,-0.8961325611027342,0.08509887317705724,1.5810546898984854,0.6764567410752347,0.6946292681464651,-0.2446191391167997,0.5245544846991457,-0.40398271506179173,0.2095059264781002,-5.35401337433219e-06,0.614562425504794,-0.565148444627417
234,3.340000000000002,-0.8653861381562119,0.08495753253828663,1.7774598049246515,0.6882468607549636,0.685294995722989,-0.2379408219337118,0.5770095496746338,-0.33118028831050483,0.21148224602610338,0.002958535561675011,0.6172654257992184,-0.5577786392189126
235,3.3500000000000023,-0.7842650351214717,0.09121523973121613,1.9279958035652283,0.7010621385793353,0.6743391591716921,-0.23172283939984892,0.6237228362148073,-0.22657626399290776,0.18542829477889922,0.00664350665756134,0.6197493389537422,-0.5500568092444903
236,3.360000000000002,-0.7224541731837676,0.09467153641807824,2.035603677477667,0.7145382355093672,0.6620002875281822,-0.22604957388316904,0.6487355987813995,-0.13185388114498942,0.139314392102235,0.010947970433230585,0.6219721320040373,-0.5421372554727668
237,3.370000000000002,-0.7115097755365302,0.1021334278125583,2.0931423710159742,0.7283026705615616,0.6486783978581571,-0.22066610332095093,0.6326212073598256,-0.08905875055045578,0.0904385058792711,0.015621444543382492,0.6240323893366738,-0.5340371924526826
238,3.380000000000002,-0.7226104506196237,0.12035655264266241,2.099536156110643,0.7420119020663317,0.6348102614276259,-0.2152549725479581,0.5695396000018057,-0.09822977241338389,0.037548799430467,0.020419191037007827,0.626058296738309,-0.5257751717148367
239,3.3900000000000023,-0.7141745196422513,0.15257982517578905,2.0628108742472127,0.7553897411155078,0.6207329629512938,-0.20971224149070491,0.46677617276433997,-0.11826527071971567,-0.0062924025740440735,0.025231069526478307,0.6280928930829254,-0.5174783727064012
240,3.400000000000002,-0.6793562711056339,0.18046990433759236,1.9882621407042989,0.7681924023127096,0.6067219426651687,-0.20414884182427942,0.3577320255338911,-0.11719870542728753,-0.037461942631859424,0.0300100446738419,0.6300940996512971,-0.5093463246062298
241,3.410000000000002,-0.6158727659363494,0.19879604137823073,1.870726772700409,0.7801663891295926,0.5930796992572114,-0.19878132876474305,0.27328921175793247,-0.09631379512865727,-0.0727822998207638,0.03467553667305407,0.6319818212566766,-0.5015919217133311
242,3.420000000000002,-0.5330880456392864,0.21877104315608953,1.728102825063946,0.7911427497165302,0.580070518863792,-0.19375109166430662,0.2075967949975025,-0.07690609299897586,-0.10877797225949337,0.03918991586882345,0.6337058934417084,-0.49440483653849787
243,3.4300000000000024,-0.44618425977894416,0.23240683425865613,1.575971503028957,0.8010650603799173,0.5678610528077086,-0.1891239754284459,0.15013683412688375,-0.06482090184290171,-0.13095185027632755,0.04353059840167625,0.6352465642547749,-0.48788582165042915
244,3.440000000000002,-0.3477043898428305,0.2352368234099994,1.4306280324992948,0.809955835469023,0.5565047416399763,-0.1849959444322665,0.10840946683479889,-0.059487709741548184,-0.13783910395531188,0.04768733509095418,0.6365717207022253,-0.48207136502001247
245,3.450000000000002,-0.23921556176972036,0.24296999845610387,1.30648176228276,0.8179380883651918,0.5459113395088914,-0.18142586249705275,0.08605528015613943,-0.06914405281714044,-0.12920984547090167,0.051735837506937624,0.6376569049737303,-0.47696317081329576
246,3.460000000000002,-0.14178520696785057,0.25430847036150445,1.2060866633342613,0.82517202087911,0.535947986342942,-0.17836502370191673,0.0670637778821353,-0.08823180651379953,-0.1067762085352964,0.055757322545743775,0.6385174761969992,-0.47250834338309455
247,3.4700000000000024,-0.100798825055788,0.2558504940141564,1.1383590934041294,0.831838851216891,0.5264652824029303,-0.17562848247762236,0.03815051899872811,-0.10017183776945028,-0.08041858456853603,0.059736682080565776,0.6392287640480688,-0.4685146880576813
248,3.480000000000002,-0.13117639622725044,0.23437152488440183,1.096387485272127,0.8380883605321301,0.5173478604090613,-0.17299911715890567,-0.0005906162288830917,-0.09961035628075358,-0.05556499120720591,0.06354004171063635,0.6398903766261341,-0.4646966060148599
249,3.490000000000002,-0.21359391096128688,0.18729894630033056,1.0747025846884872,0.8440155019476534,0.5085166570488707,-0.17035312893563376,-0.03953948170278425,-0.09793600097229868,-0.03856311377613281,0.06698691007247849,0.6405727824480748,-0.46078111757722023
250,3.500000000000002,-0.32948917747725404,0.126354914986138,1.071840762541966,0.8496957211095261,0.4998815585377171,-0.16765564362823546,-0.07214699765138764,-0.1087897632494558,-0.036873372668252996,0.06996654796435953,0.6413071497798131,-0.45658137677885463
251,3.5100000000000025,-0.46785561126216907,0.05352234306767299,1.0720375354179237,0.8551604466301405,0.49140429972891975,-0.16491315063314702,-0.09646429507365765,-0.11078268649716931,-0.05088948336182329,0.0723905585498617,0.6421072506958077,-0.45198189212156625
252,3.5200000000000022,-0.6055657848686604,-0.0235145361400477,1.0726756932472983,0.8604119405906779,0.4830788782574881,-0.16217659287100586,-0.11370327170931209,-0.08984845094799579,-0.07283197665537235,0.07421847768948171,0.6429638647061177,-0.44694905027292253
253,3.530000000000002,-0.7252845911152862,-0.10114855521667007,1.0762223558543027,0.865455890322353,0.47487963668425437,-0.15953587912831213,-0.12695596044151528,-0.062333634306332056,-0.09041154439147936,0.07546991729209089,0.643844632851079,-0.4415031691225233
254,3.5400000000000023,-0.8282581049169003,-0.16939348267537171,1.083771551674367,0.8703264050218616,0.46673903544846523,-0.15704629536500966,-0.13972849421317834,-0.03627235980914303,-0.09925915891842772,0.07622667489327885,0.644721710674749,-0.43568385324151404
255,3.5500000000000025,-0.9136231318480174,-0.22043811857293963,1.0936192583758408,0.875061498823926,0.45859233428927637,-0.15471833617266326,-0.15509594405012145,-0.0071920086665992755,-0.0971973412670177,0.07659431498135696,0.6455803249790248,-0.4295431175595613
256,3.5600000000000023,-0.9723713479179523,-0.26066960587559956,1.1062012377806274,0.8796971779447641,0.45037534571747345,-0.15255268252076298,-0.17401436759246713,0.02148012330872582,-0.08500317103061777,0.07667412910171498,0.6464089838363569,-0.4231275839662083
257,3.570000000000002,-1.0095260083471718,-0.28650157374068275,1.123012173688043,0.8842640721122743,0.44203001171262996,-0.15054392619458629,-0.20143602939061284,0.039936296638191135,-0.067926905689088,0.07657848796676547,0.6471967424631201,-0.41649876935664737
258,3.5800000000000023,-1.0243355533020813,-0.30075981791378864,1.137546707468576,0.8887781451849162,0.4335185805975904,-0.14869907780302993,-0.23536855237763052,0.04544953492586512,-0.05547404658136443,0.07640036042591682,0.6479300238194647,-0.4097187070503826
259,3.5900000000000025,-1.0114198178965994,-0.31249611484719214,1.1384013033130893,0.8932140785146189,0.4248714147986855,-0.14706865211307454,-0.26225256585159173,0.05329647027595804,-0.05134951802349699,0.0762133424173285,0.6485808391356381,-0.40289214007119156
260,3.6000000000000023,-0.9853275787796235,-0.3193277468049918,1.125803726557758,0.897521488111834,0.4161806617085941,-0.14568995975572227,-0.2692111363432947,0.07273582327158895,-0.05162198312789262,0.07604709172575236,0.6491315685950709,-0.39612170261668544
261,3.610000000000002,-0.938584995586994,-0.3206349009124096,1.1069928896438752,0.9016569773477394,0.40753159181549375,-0.14460422830597938,-0.25931429294577946,0.09937332128102458,-0.053473605249383126,0.07592591992587909,0.6495637797951851,-0.38950101464234055
262,3.6200000000000023,-0.8752574178608329,-0.31328798344547687,1.0977313212904842,0.9056409560653274,0.39888535285426563,-0.1438154687948552,-0.24941387032595075,0.12640708094405154,-0.05328686620341564,0.0759391093117799,0.6498657556308369,-0.38309041381182196
263,3.6300000000000026,-0.8065977218051372,-0.3006823711009895,1.0915795569744635,0.9095181179247458,0.39015890534646813,-0.14328495197623836,-0.25081308121007345,0.14558274310402713,-0.05527470903907787,0.0761607504305028,0.65004387290564,-0.37689385697307876
264,3.6400000000000023,-0.7300181275308971,-0.2739972242057852,1.0795503269895257,0.913293315077,0.3813645970247737,-0.14294846244159076,-0.25539698821603585,0.15930786333857155,-0.057332288997791685,0.07662524299556489,0.6501186543143803,-0.3709396173575382
265,3.650000000000002,-0.6511882026048961,-0.23754552889183864,1.0598450598153752,0.916961487195909,0.3725609834923887,-0.14268171507503613,-0.2552415810695509,0.17322792402045825,-0.05297732932847455,0.07735338295719177,0.650134929799536,-0.3652623161612023
266,3.6600000000000024,-0.5780681996970634,-0.20351918647298048,1.029686159319101,0.920497412259157,0.3638340601393628,-0.14243660307861297,-0.2560234789375793,0.18833410999438796,-0.050841111275885156,0.07831545454342459,0.6501139311593251,-0.3598847812549417
267,3.6700000000000026,-0.5261430217256866,-0.17611645292195885,0.9930870046618064,0.9238686222227551,0.3552843841005888,-0.1421964005258253,-0.2577251297361071,0.20078890701062987,-0.05691038423529626,0.07943366182649605,0.6500705835484405,-0.3547986077394623
268,3.6800000000000024,-0.5029337009092442,-0.15241900326551172,0.9454130122849999,0.9270444875126256,0.34703434271377886,-0.1419062440668617,-0.2551417177742535,0.21045955478608291,-0.07338486974304297,0.08058277627706155,0.6500407530871205,-0.34995189945990274
269,3.690000000000002,-0.499677351417326,-0.1318306631935755,0.8854211620576347,0.9299853455565782,0.33924346081528567,-0.14150983278514237,-0.2480035415880073,0.22129969801220162,-0.09298843850449484,0.08163231821459883,0.6500623136818923,-0.34531243268884365
270,3.7000000000000024,-0.5075224894774621,-0.11391540606600095,0.8260292708982758,0.9326817610713846,0.3319899536926267,-0.140973417887991,-0.243165281127505,0.22915846179241273,-0.10607627219838123,0.08250681569800758,0.6501582576951432,-0.34085036948628245
271,3.7100000000000026,-0.5147916395990338,-0.08829080069311081,0.7675564693500971,0.9351572991683628,0.3252690024379216,-0.14024647832206397,-0.24834886142047977,0.23157389000798947,-0.1156334380647177,0.08319553042371675,0.6503500297510506,-0.3365388292981638
272,3.7200000000000024,-0.5033785051941345,-0.054734430534584017,0.6961867485754839,0.9374151856770218,0.3191266457458057,-0.1392878937703496,-0.2618868730433156,0.2303523046624774,-0.11927863838861277,0.083724023140661,0.6506506426923063,-0.3324281155468892
273,3.730000000000002,-0.4634581976172979,-0.008950410983945487,0.6224003466834763,0.9394538024042199,0.3136181437172644,-0.13806588138306045,-0.2727349584917709,0.22845022932329032,-0.11636627959711968,0.08416613813246868,0.6510629953393097,-0.32862855654239914
274,3.7400000000000024,-0.4021199153998012,0.04273708524320939,0.5522938560854366,0.9413024486188082,0.30869934450311004,-0.13655578638790714,-0.2750887558766405,0.23649257250872655,-0.11286761988521837,0.08462681292414095,0.6515828996521545,-0.32521324796835194
275,3.7500000000000027,-0.3054682327499288,0.09170819764133561,0.4858927705907609,0.9429815357930641,0.3043028097047229,-0.13483237234019196,-0.277189894004952,0.2545631460090478,-0.1119482024453854,0.08521199171302256,0.6521675721164408,-0.32226192632586
276,3.7600000000000025,-0.1823379981242118,0.1344860156515758,0.4407968250325484,0.9445314060001746,0.30027001909884243,-0.13301596516535769,-0.28798799343149556,0.2737668599940162,-0.10984446543870983,0.08606768859929478,0.6527511412401474,-0.3198398235165299
277,3.7700000000000022,-0.05016656187105946,0.16768683623301736,0.39969771624538736,0.9459831138082773,0.2964618322691293,-0.1312319534342108,-0.2958189734769774,0.2959818528186983,-0.11850447632758938,0.0872844376929662,0.653272486694505,-0.3179682837474603
278,3.7800000000000025,0.0861726213354416,0.18908465078958475,0.3508108622689451,0.9473208446785215,0.2928880379007722,-0.12959902699841921,-0.2754393518145564,0.3167381415006416,-0.1349502280965689,0.0888570369278912,0.6536850749598394,-0.3166739150105451
279,3.7900000000000027,0.2312602625070591,0.19808632923903996,0.2942737413582902,0.9485123464146247,0.2896231390660057,-0.1282164252975603,-0.22281033542656786,0.33181060708415494,-0.14912406850714496,0.09075703608060388,0.6539525575803076,-0.3160009992473033
280,3.8000000000000025,0.3717489818889427,0.19309932582523756,0.2330308475813282,0.9495251323463788,0.2867297677188561,-0.12722271194604148,-0.15326413440849274,0.35304506973392136,-0.16219560350135195,0.09295827728074843,0.6540230153665388,-0.31599649265351
281,3.8100000000000023,0.48268312913785055,0.18541677200364198,0.1715999514771062,0.9503448444490196,0.28426355003382053,-0.126638305322644,-0.07890105693701288,0.3839069117329679,-0.17388394586025394,0.09538149243283969,0.6538973202412239,-0.31662133607776144
282,3.8200000000000025,0.5172215375205251,0.17242674110420472,0.12252484143663342,0.9509872917318718,0.28223317853553404,-0.1263585674259956,-0.01520986223621102,0.4125745630713997,-0.17940726888737166,0.09786453440687727,0.6536373218410918,-0.3176892568635146
283,3.8300000000000027,0.45180278227268605,0.15469472378681023,0.07125716563257947,0.9514722072388396,0.28067201205485576,-0.1261871189406519,0.02606955609227026,0.4316802241170123,-0.17470746016224167,0.10011536512883819,0.6533622884490315,-0.3188757563773346
284,3.8400000000000025,0.2998606223012278,0.12821408589879008,0.0185881879941222,0.9517774541469408,0.27976021945360097,-0.12591096198702859,0.05751688251476391,0.4330333714198766,-0.16283823839912295,0.1017831135537672,0.6532107331476829,-0.31989562959758794
285,3.8500000000000023,0.1052238842820735,0.08647368938926521,-0.02390758651658657,0.9519016410864425,0.2795397224021144,-0.12546141751517992,0.09708133566747343,0.42126910983569915,-0.1458704212836845,0.10263335153829593,0.653250046942186,-0.32051890304181746
286,3.8600000000000025,-0.07180005551671981,0.0647173842487963,-0.07888147742525593,0.9518540880773798,0.27999935535481213,-0.1247948704522057,0.1518080607857133,0.4078463484162024,-0.12538145820289523,0.10263489217369733,0.6535048489423297,-0.3206956196031717
287,3.8700000000000028,-0.19311116157106367,0.06668185086693437,-0.15010228820673982,0.9516117217683012,0.2812588364926447,-0.1238047688916018,0.21595789779269406,0.4064667334339694,-0.10532054007023743,0.10190516632204832,0.6539974211584336,-0.32061011387522204
288,3.8800000000000026,-0.26155497034525477,0.07760050000324928,-0.21531774976794343,0.9511804951733209,0.2832860044167325,-0.12248654660652349,0.26373262832058586,0.41245982209584475,-0.09678045840373631,0.10063945580702893,0.6546967059722038,-0.3204433702918609
289,3.8900000000000023,-0.29387944583650566,0.0967235735341144,-0.28135729389288683,0.9505791805931947,0.285979221709568,-0.12088074641196682,0.28654805678088785,0.4229492981503459,-0.10279046530813755,0.09902067649061352,0.6555559482295326,-0.32032439825534365
290,3.9000000000000026,-0.29014434036798253,0.11601241110911802,-0.3545995148590205,0.9497914207662685,0.28934959475809685,-0.1190328473274343,0.30004662374849767,0.44261295139440954,-0.1149154434384433,0.09715418959163917,0.6565390026666513,-0.3203828402947786
291,3.910000000000003,-0.22646790186224383,0.14018820521160602,-0.43093520928380147,0.9487983194965633,0.29338091518439,-0.11706304407798533,0.3061555905209392,0.465750321371167,-0.12614350233234564,0.09518512970854107,0.6575766585318604,-0.32078536426523946
292,3.9200000000000026,-0.08391726165478886,0.17440574803277842,-0.5192552697870964,0.9475750559599838,0.2980658075928595,-0.11511270577072119,0.3008234682641604,0.49079738891775043,-0.1327010948498029,0.09333763313868283,0.6585823839556699,-0.3217883638892019
293,3.9300000000000024,0.12547393172491028,0.21756570193975872,-0.6220787562779407,0.946080480823002,0.3034469965496113,-0.11332432779599871,0.29104135117522445,0.5138789330027115,-0.13801347573171507,0.09183250123762872,0.6594725422191677,-0.3236771046181097
294,3.9400000000000026,0.3768554297429313,0.2634301964419253,-0.7496450514547539,0.9442450820890368,0.30964838672298517,-0.1118357160301453,0.28412029785540527,0.5298719452999682,-0.14082107436115626,0.09079937787733387,0.6601797912835815,-0.3266971199288342
295,3.950000000000003,0.6274596562486066,0.31712466049358995,-0.8898043985726356,0.9419906562281534,0.3168370017316213,-0.11068942747006044,0.2771016130136535,0.5362004390452062,-0.13945174258405957,0.09024636581982794,0.6606896416962121,-0.3309777348269105
296,3.9600000000000026,0.8427248345339245,0.36744800671950756,-1.0246733609005214,0.939279278724279,0.3250636081582365,-0.10985322401975263,0.2498846843838589,0.5237995895105939,-0.13437462604488065,0.0900974302158033,0.6610263405600971,-0.33646338025513045
297,3.9700000000000024,1.0238988948506125,0.4053230876510577,-1.1574998314434515,0.9360820700720061,0.33431895203830436,-0.10934159044973044,0.1939124184354864,0.49288834020552746,-0.12314078122380684,0.09022371954366676,0.661202595246411,-0.34301458662201223
298,3.9800000000000026,1.1892736929098406,0.43080670661174797,-1.2942960299817456,0.9323351991989836,0.34465227482890004,-0.1092422439380483,0.13595529928815145,0.4493279494916278,-0.10583467164700044,0.09050267816019135,0.6612020242070171,-0.3505591327208567
299,3.990000000000003,1.3438087037794004,0.446197700879569,-1.431224668354881,0.9279601037560483,0.3561152925030943,-0.10969170582393432,0.1033158112259062,0.40498544767978034,-0.08859367339300224,0.0908494424585531,0.6609844713286673,-0.3590795744060166
300,4.000000000000003,1.487201885371602,0.4514879792766439,-1.5579358777042305,0.9229445547071364,0.3685857165090895,-0.1107738493132962,0.09803200980707222,0.3719397480373837,-0.07826155142422288,0.09124815658397788,0.6605200438485315,-0.3684958057059812
301,4.0100000000000025,1.6133468164887712,0.43837495322108855,-1.6678565069060205,0.9173278007588566,0.38182069881173836,-0.11255722815905192,0.10651117703233978,0.3492760156657285,-0.06942508310477286,0.09170794056726836,0.6597808768042702,-0.3786678180054442
302,4.020000000000003,1.7136735160089298,0.40165007538025616,-1.7598280642029906,0.9111074085795432,0.3956614872938925,-0.11521734213127126,0.10933045544176376,0.32431501029201004,-0.05946758601881248,0.09216221507988548,0.65870862390823,-0.3894726365718224
303,4.030000000000003,1.7766294285320792,0.3499048853533353,-1.840457553940037,0.9042693747016359,0.4099989708802392,-0.11887273212634454,0.10833998049167343,0.28554070095421274,-0.05058577831508789,0.09250473164896426,0.6572715441876865,-0.400776472031681
304,4.040000000000003,1.7936403466970654,0.2846945319179013,-1.914086299136417,0.896797049557788,0.42476907175442147,-0.1234985281949789,0.11875125938095629,0.23929346363582749,-0.043600510030226455,0.09259569566070518,0.6554966800853839,-0.4124142103546775
305,4.0500000000000025,1.7548679555969835,0.20872279013926887,-1.9746824340982276,0.8886840980136161,0.43991005721764365,-0.12898963293446444,0.1385288201636345,0.19298009029806587,-0.032423305090920146,0.09227465791693244,0.6534442499952887,-0.4241848141097923
306,4.060000000000002,1.6708379108720472,0.13369394848539926,-2.024956344752001,0.8799426614350503,0.4553516869928024,-0.13515916649084972,0.14945191159349716,0.14364489752477966,-0.009216216645648104,0.09140279458211295,0.6512022474539843,-0.43588022396891457
307,4.070000000000003,1.5472923146123838,0.06381573097249128,-2.0637186613399625,0.8705911810495282,0.4710415769346626,-0.14176619948921326,0.14502813527505798,0.08954485543288951,0.02302076577762859,0.08989281164059652,0.6488713956696347,-0.4473360289783414
308,4.080000000000003,1.3932599018302947,0.004363737029968819,-2.086608688027874,0.8606791084287496,0.486899289680232,-0.14853826212457963,0.13159086922013877,0.03845883357665847,0.05536003541678349,0.0877002617726197,0.6465576480425134,-0.458394420223741
309,4.0900000000000025,1.210019274044523,-0.044251312621642246,-2.09551250871441,0.8502842679379276,0.5028350441883213,-0.15516046579534154,0.1118973011202884,-0.01034316478331633,0.0881298394394435,0.08481183830506313,0.6443781719057651,-0.4689010854297049
310,4.100000000000003,1.0183181573519855,-0.08841461695248123,-2.096176769700832,0.8394668370849071,0.5187919699456008,-0.161402464531422,0.08623953576460808,-0.05780525510200735,0.11843536615561698,0.081224043340235,0.642414948744027,-0.47875370277282514
311,4.110000000000003,0.8510706131316964,-0.12777018664602285,-2.0903315434872614,0.828248835194969,0.5347344852227299,-0.16722026135030482,0.06039476447912598,-0.10280470617000396,0.1428678741809628,0.07698943743940229,0.6406691703851082,-0.4879711171566433
312,4.120000000000003,0.7141895341351836,-0.16413836851316943,-2.0738713309867243,0.8166874315080315,0.5505533473391598,-0.17266478670026272,0.04109524798258899,-0.1407682144505188,0.16018838919153908,0.0722420771512614,0.6390948899704946,-0.49662332995556974
313,4.130000000000003,0.6007908571176557,-0.197927184526278,-2.0542747166182336,0.8048366520932148,0.5661488983256314,-0.17780586887456715,0.030098986960363488,-0.15909405568964036,0.16462916934979094,0.06709948795781981,0.6376421396093633,-0.5047763823998191
314,4.140000000000002,0.5047283453065865,-0.2299126375757425,-2.0321388516057803,0.7927081257809905,0.581498429159913,-0.18269022350118239,0.032101724060426565,-0.16595543359167148,0.1636572132722605,0.061624875419952804,0.6362776653988066,-0.5124927794254626
315,4.150000000000003,0.4302914145082509,-0.26084411465595214,-1.9951923240475566,0.7803707499850536,0.5965084664837272,-0.18736028467227014,0.040493153608317026,-0.17973738313827894,0.16575890658993725,0.055908268394536,0.6349689948762589,-0.5198049897073692
316,4.160000000000003,0.39232769525844213,-0.28495231329942716,-1.937950777066295,0.7679640490099952,0.6109834885225329,-0.19193590279304992,0.04239694852038004,-0.20182441147518554,0.17097904548881848,0.050105780799759136,0.6336504533019898,-0.5267523823902075
317,4.170000000000003,0.3766059915295988,-0.29686700495347956,-1.8661767921223122,0.7556257695596273,0.624751858094346,-0.19654373307445197,0.03651750748410923,-0.2263401481214655,0.1785747883867563,0.04438405810742716,0.632257830255809,-0.5333973461331872
318,4.180000000000003,0.35091857009660954,-0.3054519829516453,-1.782079223124201,0.7434960678901861,0.6377163806967103,-0.20112948192507427,0.02799109769593041,-0.24757244288434477,0.18797334632919022,0.03882427764808798,0.6308091285988153,-0.5397135468432709
319,4.190000000000003,0.3220209042836536,-0.31438166365417325,-1.7035970782601264,0.7316337147158077,0.6498965173294003,-0.20560785786356953,0.02023231794878204,-0.26512556126808656,0.1993202578240327,0.03342059721959218,0.6293422974268511,-0.5456702170714134
320,4.200000000000003,0.2874977034301293,-0.32522554462140385,-1.629632263629825,0.7200200392328631,0.6613830519068344,-0.20994507437001933,0.012277584137397142,-0.2835806632154335,0.21760858893744361,0.02813429137909547,0.627876401313,-0.5512784994670157
321,4.210000000000003,0.2578115726780209,-0.34233959277087234,-1.545652003582668,0.7086863044041141,0.6721864000900363,-0.21416788425064448,0.003496846436386751,-0.30075136390456053,0.23215799485708327,0.02295368386656831,0.6264042625226189,-0.5565344831781076
322,4.220000000000002,0.23666558615745117,-0.35862716807684053,-1.4566096422224502,0.6977043092732453,0.6822579196006945,-0.2183510092686693,-0.0014142953587894516,-0.3087996927262501,0.2369643997856922,0.017918279516862746,0.6248975291596656,-0.5614503950569107
323,4.230000000000003,0.2068569826933836,-0.36696101290388927,-1.3661810447206677,0.6871023726211819,0.6916263158536378,-0.2224701177652172,-0.0006225615693973593,-0.3155751850485772,0.2431907244973499,0.013040449625958878,0.6233688550876376,-0.56603814777935
324,4.240000000000003,0.16160906944893086,-0.37712781187255073,-1.2605868658194126,0.6769853686524429,0.7002774050979008,-0.22640293383167123,-7.831533163768153e-07,-0.32687152891413657,0.25515668035297506,0.008322936974096862,0.6218709887881311,-0.570230346548923
325,4.250000000000003,0.09882811219369311,-0.3827240793995566,-1.1410528319943238,0.6675720249681862,0.7081199644127602,-0.22995077971376476,-0.00028354932753174404,-0.3462711246181518,0.2711574856435031,0.0038120075159236203,0.6204876790026952,-0.5739042940278624
326,4.260000000000003,0.007502123461683247,-0.3770715989240098,-1.0184706994850856,0.6589708571462399,0.7151864957315823,-0.23288671400196906,0.002583799254838897,-0.3752078755501132,0.29531891265760807,-0.0004981798921844683,0.6193155839879698,-0.5769765177375477
327,4.270000000000003,-0.12185347250274342,-0.3691385046578922,-0.8957822291703981,0.6512046519084811,0.7216026243171674,-0.23494428347330584,0.005718139989767818,-0.4034176495275539,0.322632012932453,-0.0046923071721694815,0.6184670927486535,-0.5793552749853036
328,4.280000000000003,-0.26790276961696147,-0.36419784789031734,-0.7767800840141399,0.6442769196175486,0.7274839266319775,-0.23591535121813656,0.008575186156668673,-0.42714914405369814,0.3424184564617504,-0.008859247719525766,0.6180288286060169,-0.5809626525855378
329,4.290000000000003,-0.39124989751438294,-0.3543094207503561,-0.6560772972937801,0.6381884001428245,0.7328681419894579,-0.2358076299147795,0.013830782024890086,-0.4481364391627775,0.35096912772569444,-0.013000151661031661,0.6179992561067217,-0.5818184490982667
330,4.3000000000000025,-0.46249901427946855,-0.33750877092533704,-0.522116242515001,0.6330214261426578,0.7376445561763842,-0.23484756939433243,0.020976495801007564,-0.4610503807780355,0.3490994302905148,-0.016974739568997834,0.618291530910944,-0.5820263975395149
331,4.310000000000003,-0.479766350598618,-0.3183140495417402,-0.3793287515342908,0.6289035491510706,0.7416152647782949,-0.2334093647082222,0.03122331140469951,-0.45761577225438954,0.3389817892323323,-0.020581221982025458,0.6187639612625266,-0.5817249012651393
332,4.320000000000003,-0.45110161477349264,-0.29936468784580395,-0.2339228159107304,0.6258986255270421,0.7446337685105399,-0.23187816879362752,0.04620548547246052,-0.44194743485422255,0.32328029430936506,-0.02366748876391204,0.6192727478781882,-0.5810540821312155
333,4.330000000000003,-0.38639110041547164,-0.28566055654664213,-0.0815595912717522,0.6240347811253737,0.7466052424861123,-0.23056376057502312,0.0694311017287044,-0.422370131011115,0.3062951632891733,-0.02611886699383281,0.6197053727088583,-0.5801356193806771
334,4.340000000000003,-0.3203919719962676,-0.27966388885397364,0.08026374767365263,0.6233769354294054,0.7474272552062758,-0.22968119524011826,0.10208011267242277,-0.39667787612414873,0.28992531448602143,-0.02787184839326666,0.6199855116086672,-0.5790066018919727
335,4.350000000000003,-0.25735288760913916,-0.2684131816786199,0.2376346671372166,0.6239305797498677,0.7471021967357954,-0.22923439920123187,0.1413395434501702,-0.36739677330478165,0.2794778155512157,-0.028945426587595968,0.6201167663947406,-0.577647129852053
336,4.360000000000003,-0.17366913612929158,-0.23426706648022916,0.39186176107618875,0.6256991379195831,0.7456290551926935,-0.2292064376088092,0.18335450661835576,-0.34047021326841037,0.27699320099782204,-0.02927327816930523,0.6201127755925279,-0.5761047274792023
337,4.370000000000003,-0.09923861679907169,-0.1827276251806309,0.5537283280898286,0.6287254402218192,0.7429807450889085,-0.2295177146662527,0.2198171514952266,-0.30479056165677926,0.27125522677174013,-0.028769602490773642,0.6200107061846271,-0.5744044887412191
338,4.380000000000003,-0.06847129003035037,-0.13871784292126146,0.7301987962025442,0.6331221058169096,0.739108261905431,-0.22992303328995028,0.25156811994921396,-0.2644452425941538,0.2598269453050769,-0.027451134248874014,0.6199066622010794,-0.572410393761522
339,4.390000000000003,-0.06682257598440773,-0.10876480149599152,0.8898181160446705,0.6388118285220136,0.7341011416341626,-0.2302143807813991,0.2823428114759831,-0.252322022570299,0.2474361430213282,-0.025470740583417775,0.6198732700258736,-0.570005195978229
340,4.400000000000003,-0.06089390052511177,-0.07855317977517963,1.0501333296532351,0.6456775032856991,0.7280238274368437,-0.23034458019246812,0.31598250366515673,-0.27407156352420425,0.23252476885535925,-0.022909230289242948,0.6199201460457567,-0.5671751661503186
341,4.410000000000003,-0.04918607126637309,-0.03798350240993774,1.215083487145653,0.6537405411305398,0.7207936693739587,-0.2303206342912744,0.3469720994529866,-0.29589815513464146,0.21930460807488653,-0.019714509589309287,0.6200388082029914,-0.5639216019644789
342,4.4200000000000035,-0.0426591124348021,0.0005740121466639471,1.3741008370146872,0.6629743470652889,0.7123763646913782,-0.23009332025273158,0.3740681520369557,-0.2905505005102743,0.21226190271221063,-0.015875979517718707,0.620239663440817,-0.5602342301744805
343,4.430000000000003,-0.03542002652792035,0.02645069515630448,1.5346027031615983,0.6732906329313114,0.7027516051040783,-0.22971099069006126,0.4071991797681815,-0.2673691106386814,0.20080640476645362,-0.01144090848635458,0.6204904053830039,-0.5561022645522122
344,4.440000000000003,-0.014903788391247643,0.04721513163386374,1.693575946427934,0.6846194783225694,0.6918530084425546,-0.2292829736776182,0.44830588276965133,-0.24881521807983065,0.1871476066531573,-0.006407544709932688,0.6207340157340433,-0.5515445223305598
345,4.450000000000003,-0.0009488585763695726,0.06228153528285094,1.8648789682037004,0.6969459258941665,0.6795707611111632,-0.22884670668009313,0.49382288909296795,-0.2307030737593539,0.17026182390857472,-0.000753088610970037,0.6209409460192914,-0.546540539944647
346,4.460000000000003,0.018777192612635184,0.0707457643184637,2.0205107624155527,0.710179018101505,0.6658629560760995,-0.22842627474826932,0.5381143886576698,-0.20221170578956454,0.14594722255594095,0.005486518785160767,0.6210850840008684,-0.5410698279291797
347,4.470000000000003,0.07089679186249172,0.0900840732327289,2.1252298764884743,0.7240220898529561,0.6508753436384671,-0.2281405938847455,0.5822353902273031,-0.16017720308153224,0.12776473623816445,0.012263943443046224,0.6211018606557578,-0.5352831545852352
348,4.480000000000003,0.15964840457528165,0.13433295513569943,2.1755332577284228,0.7381058640523277,0.6348779235587267,-0.22807281553884964,0.6171760340459487,-0.10960971308109003,0.11286900825400514,0.01957104560029466,0.6209403454347877,-0.5294454410845995
349,4.490000000000003,0.22762581498949291,0.19486195359304953,2.185526575702782,0.752157405546018,0.6181615287138953,-0.22807665117100442,0.6195095387196092,-0.05410228873357025,0.0896170541533044,0.027349812496152443,0.6206435344521463,-0.523701657719756
350,4.5000000000000036,0.24298284778342208,0.25736088092528353,2.145674426667369,0.7659036983328453,0.6011494063713994,-0.22780786032672024,0.5849018465203529,0.005017223121852401,0.05930104727739263,0.03537050855964887,0.6203461116586014,-0.518056534363698
351,4.510000000000003,0.1964418016242877,0.2985402832826463,2.0589862865162654,0.7790257635468196,0.5843777502013777,-0.22696986937517025,0.5183025893813185,0.049102815048547944,0.03214255736674268,0.043282633510539924,0.6201830308259543,-0.5124837699241723
352,4.520000000000003,0.09919124751866633,0.30773570074769213,1.9417539496419156,0.7912634151882569,0.5683188111529229,-0.22543725971285147,0.4327919162773701,0.06212801262141494,0.003296309757703276,0.0507174400773208,0.6202392104040274,-0.5069270677943284
353,4.530000000000003,-0.011443765642507805,0.30453752689844726,1.8005888492393136,0.802462608870007,0.5532993078275424,-0.22323349924683097,0.3492922782359279,0.05160769402053304,-0.034191316046203464,0.05743037224952297,0.6205442052697907,-0.5013744170450005
354,4.540000000000003,-0.1134574946219775,0.3021208072990085,1.647459684633929,0.8125679782686576,0.5395105383390352,-0.22044148530015834,0.2768308040435556,0.0370052080232265,-0.07286380129702405,0.06335304405262697,0.62109418370766,-0.4958966157592402
355,4.550000000000003,-0.21249016626477762,0.3025031363865122,1.4858756999598635,0.8215910722944244,0.5270636944190951,-0.21711085652994927,0.21434101427942576,0.02703531483505657,-0.09929462036885175,0.06847693144648238,0.6218920648929757,-0.49055299421504683
356,4.560000000000003,-0.30240587844422506,0.295930535071223,1.3277663595871918,0.8295769451191951,0.5160088495250549,-0.2132904096942729,0.1621113976202551,0.01748662353076738,-0.10514413349761224,0.07279930113104377,0.6229373079236278,-0.48536732910590297
357,4.570000000000003,-0.3461394662117575,0.2855972086908853,1.1872610290156076,0.836618161156368,0.5062384257980713,-0.20918164935028355,0.12326046030647365,0.004504959302717493,-0.09917810905244323,0.07642115411977426,0.6241521214260695,-0.48040438116660333
358,4.580000000000004,-0.3423234172587332,0.2811436136289553,1.078811326980906,0.8428904257962153,0.49745093265664453,-0.2050571685285816,0.10198247707011845,-0.010393933069286576,-0.0898319966399829,0.07957494031283571,0.6254092142004095,-0.475744412885227
359,4.590000000000003,-0.3262433329951636,0.27857532279356656,0.9904902576264814,0.8485715193232646,0.4893708965751778,-0.20103920800169883,0.09005978343111452,-0.013781311779957197,-0.08165458443487111,0.08245632681830137,0.626641134049743,-0.47140664886548406
360,4.600000000000003,-0.35131262576693856,0.26250723915910784,0.9128280092793226,0.8537420773328627,0.4819308731781788,-0.19709114867380997,0.06765924261945784,0.0028595438276941398,-0.07556866483801096,0.08505302609229375,0.6278682815660793,-0.46730968430442243
361,4.610000000000003,-0.4288387852155753,0.22449807701345842,0.8478132008903624,0.8584374676769447,0.47514887944450807,-0.19313082982509902,0.024259323747770425,0.02604912114481039,-0.0744568173694061,0.08719710470180726,0.629150171690278,-0.4632686396107307
362,4.620000000000003,-0.5154912591041895,0.17010448406786516,0.804328736245132,0.8627220286301208,0.4689361634232085,-0.18919010942966286,-0.029429589550406657,0.031998537056449,-0.08247169148000008,0.08879310027836451,0.6304917395521565,-0.4591304325287418
363,4.6300000000000034,-0.5713282595306983,0.11644373962112435,0.7879910680576633,0.8667087377300762,0.4630612794919454,-0.18540512226931646,-0.07978996330139058,0.019881646962764357,-0.09111750341539339,0.08994300003511672,0.6318283251995394,-0.4548672726657564
364,4.640000000000003,-0.6011439536421127,0.06978682707736886,0.7813141639700789,0.8704947364170519,0.45731902888165094,-0.18189041234070524,-0.12865999053095878,0.012015713666512134,-0.10024149359406502,0.09080889351424763,0.6330940135324341,-0.450522976058471
365,4.650000000000003,-0.6297289848444149,0.03079877208891789,0.7771751568943722,0.8741277632361755,0.45162889569473746,-0.1786578516839644,-0.17641946021468854,0.012784699647455253,-0.10870907959906817,0.09147361188068309,0.6342737995913417,-0.4461213423128319
366,4.660000000000004,-0.6748885846322146,-0.0026384018609452234,0.7752650689422083,0.8776395082857975,0.44597427527039724,-0.17562135607251464,-0.2251264299891556,0.01540405038150894,-0.10906421713402077,0.09193637840445228,0.6354027785343381,-0.44162030759371
367,4.6700000000000035,-0.7226121767095707,-0.03412149867513588,0.7776241760515152,0.8810539309705101,0.4403514497471193,-0.17269031369113574,-0.26938519153403945,0.014721304862160209,-0.10142799233495593,0.09217213051289967,0.6365208831280071,-0.4369626317445551
368,4.680000000000003,-0.7360665513894077,-0.055536620530902796,0.7892608144526718,0.8844038907105372,0.4346901349043547,-0.1698879512479518,-0.2996985885939807,0.010117297976964892,-0.08654850111582152,0.09226192957508138,0.6376076256465381,-0.4321829998087688
369,4.690000000000003,-0.6954780217536489,-0.06692649543972128,0.8036454568552812,0.8877359197369141,0.4288488745671911,-0.16733455659086646,-0.322561730527637,0.009825797945037202,-0.06831298841204807,0.09239722444774869,0.6385884889454531,-0.42740324411268826
370,4.700000000000003,-0.6193416781972297,-0.07022286442048702,0.8211350290217536,0.8910797768707422,0.4227185907833389,-0.16514382124377827,-0.34257463161861845,0.022930357433598305,-0.054856652449460384,0.09275663550785361,0.639393552568164,-0.42275381034974696
371,4.7100000000000035,-0.5429351976358152,-0.06858729979347981,0.8402576362716276,0.8944489865857057,0.41625773786657183,-0.16332915364838807,-0.35683194924395406,0.043694191726699,-0.04950897547092478,0.09341842755659957,0.6400064065413085,-0.4182853901865597
372,4.720000000000003,-0.4958169199472539,-0.0696871437880975,0.8530588592893286,0.8978359174806995,0.40950112571909353,-0.16181715410018496,-0.3641727135245769,0.06192239357604552,-0.04598617378484335,0.09433969160766542,0.6404616778001778,-0.41395854706589974
373,4.730000000000003,-0.48712705568177844,-0.07889754515781983,0.861555771611168,0.9012031162157667,0.40256672674731575,-0.16049320735328318,-0.3611650401726337,0.07556858350290396,-0.03906066549679664,0.09536899704413541,0.6408259206174652,-0.40967340026457777
374,4.740000000000004,-0.5066667907027402,-0.10039576253330901,0.8684049309697025,0.9045134087034981,0.39554580413968965,-0.15932373439572942,-0.3505262766906479,0.08645907229511447,-0.030987844873740587,0.09636513427176653,0.6411330989006552,-0.40534330878165015
375,4.7500000000000036,-0.5489423383085701,-0.12598960400283363,0.8657268060545873,0.9077333641063899,0.38852240281412137,-0.15829069867177128,-0.33571073234197113,0.09697651415190561,-0.031099304941018965,0.09721461422908463,0.641407679165004,-0.40090729927724533
376,4.760000000000003,-0.5955605309747773,-0.1471039661642927,0.8517424256016906,0.9108265767281419,0.38161310178111074,-0.15732967471558332,-0.3130875090544485,0.10935077595641364,-0.042230507149366145,0.09784243955921279,0.6416867861921169,-0.39635255785970686
377,4.770000000000003,-0.6235279335339079,-0.15748655527978703,0.8300079547901286,0.9137707188360191,0.37489529471982125,-0.15640917530264928,-0.2856780911390673,0.12847298857570094,-0.05111746740319204,0.09825586450301074,0.6419822017126723,-0.3917304344915567
378,4.780000000000003,-0.6341787682856574,-0.15948363925251302,0.8111513546463385,0.9165793761912246,0.3683568527746466,-0.15550970713780665,-0.26359302605929197,0.15003746197855047,-0.05097630089242464,0.09852617303351942,0.6422909797058332,-0.38709740358510664
379,4.790000000000004,-0.6323903863843688,-0.15290006931789157,0.788848167259255,0.919264174556328,0.36198712243296993,-0.15461953411624044,-0.2547209415603074,0.16638417103557732,-0.04819003145358307,0.09872140759562155,0.6426074113581535,-0.38251091366855894
380,4.800000000000003,-0.6345005089997872,-0.13964953212581435,0.747421641276261,0.9218007732754898,0.3558832287158289,-0.15368864008121946,-0.2556867229222873,0.1736279152791575,-0.042593175789934795,0.09883532123863803,0.642951961234441,-0.37802026274311384
381,4.810000000000003,-0.6615953205037048,-0.13618813322828038,0.6823568035033312,0.9241187761304906,0.35026773161662117,-0.15267123424127896,-0.2565994958160443,0.1814060737990108,-0.038508495822315525,0.09874651533515133,0.643361057303324,-0.37364782106117944
382,4.820000000000004,-0.7284337026242028,-0.14920474199316958,0.5949694938549869,0.926128393388354,0.3454080974071968,-0.15156940532469843,-0.256030613160692,0.2027293395309352,-0.051851223217099535,0.09824690707618536,0.6438653963118123,-0.36937119592423723
383,4.830000000000004,-0.8302459340278705,-0.16789598999669092,0.4926427946118273,0.9277577719195341,0.3415393581852885,-0.15037483714057895,-0.2555768096262157,0.22781013135086503,-0.08439671378072397,0.09712482805405818,0.6444988399316158,-0.36513776571588347
384,4.840000000000003,-0.9394614640201666,-0.18325321699885955,0.3839683352387158,0.9289863509940917,0.338792036627273,-0.1490042111461657,-0.2536009849864048,0.24547124936726047,-0.11958146958787572,0.09526752643007995,0.6453066515611374,-0.36090360138228983
385,4.850000000000003,-1.0148446916238927,-0.18437509543436814,0.28221582636394144,0.9298379579384347,0.337152325436909,-0.14740594030044973,-0.2558689040888585,0.2532432100917515,-0.1431159957544933,0.0927343815113952,0.646293454225667,-0.35670927759254806
386,4.860000000000003,-1.0342840159888984,-0.16085235040135104,0.20060194531152642,0.9303916904895511,0.33642492091011666,-0.14556204342575163,-0.2670369753686645,0.25185662489966776,-0.14741605167445695,0.08976119467484715,0.6474250933526392,-0.3526580487230219
387,4.870000000000004,-0.997537195333259,-0.11261577693219608,0.137522709701423,0.930759191280231,0.33633015729719773,-0.14341456783586098,-0.28289582161233406,0.24764289852464427,-0.14081560765043546,0.08664880927871131,0.6486770773122463,-0.3488509900741463
388,4.8800000000000034,-0.9117656185989872,-0.057421724224679005,0.08721603699085259,0.9310129461809993,0.33665406925138097,-0.14098602192825557,-0.2940314050065377,0.24946132081095304,-0.12884793628472369,0.08364925693957198,0.650005617052105,-0.3454048235890336
389,4.890000000000003,-0.7889573152445264,-0.018096544418827548,0.04323300011313609,0.9311768085059193,0.3372493789478649,-0.13845819820452113,-0.28927694594898945,0.26104913176947603,-0.1190719377545534,0.08092914420166937,0.6513212425401099,-0.3424312532867254
390,4.900000000000004,-0.6250159702584059,0.0066105742818379784,0.0006271780048781005,0.9312401109178773,0.3380281752474402,-0.13611462249766473,-0.25764033840587847,0.2800551049367915,-0.1215311345377378,0.07860232324352767,0.6525051338911234,-0.34004986876698196
391,4.910000000000004,-0.4530728645214668,0.025468780068155793,-0.03549666010131922,0.931201698409859,0.3389250259118856,-0.13413397240656125,-0.20283924070533862,0.3086656588537277,-0.1369683726457953,0.07675961170023779,0.6534830843547726,-0.33834484495559924
392,4.9200000000000035,-0.32453553517985856,0.031661669219283324,-0.06212917210360358,0.9310724731709341,0.3399028462299614,-0.1325488168600709,-0.1399900974298149,0.34698195784004865,-0.16023693030147956,0.0753540699598978,0.6542529066478696,-0.33724438386801703
393,4.930000000000003,-0.2592586648344747,0.028461479849646146,-0.08002920324361659,0.9308674915286246,0.3409525018767457,-0.13128707874566276,-0.07738261904448987,0.3835161615832587,-0.17981550979166577,0.07420634820192877,0.6548660345970234,-0.33653794355020034
394,4.940000000000003,-0.25302359258494633,0.02784649577570299,-0.08416117534361446,0.9306178694590926,0.34206333519541693,-0.13016194831579883,-0.022335172258300628,0.3965148992923785,-0.1815480561926935,0.07312968080116951,0.6554164518231526,-0.3359821804883171
395,4.950000000000004,-0.2864693988928664,0.030859571119453578,-0.07360709326517417,0.9303790646112108,0.34316294184419427,-0.12896989660548724,0.018336052220029066,0.38082278536240366,-0.17022571194705774,0.07201397815151392,0.655994387864647,-0.3353657698291038
396,4.9600000000000035,-0.3392380111210719,0.03988239105602123,-0.056681259429745334,0.9301989417523145,0.34417623488698185,-0.1275612405413989,0.04944017740200368,0.35616159827913246,-0.14969342143739608,0.07080830041858023,0.656662064294194,-0.3345493546826004
397,4.970000000000003,-0.3711916507512848,0.05665803919474236,-0.04256701773192194,0.9300903504132293,0.34508339876774724,-0.12589051088725614,0.08104030737887385,0.33380613510961815,-0.11986388596704914,0.06952425382300992,0.6574348262329093,-0.33352154650667065
398,4.980000000000004,-0.35886217766090966,0.09065480238497794,-0.03469470899580998,0.9300453934702091,0.34590851982939086,-0.12394223668816177,0.12382693254623617,0.3313103256572543,-0.09083489465991862,0.06827653855990745,0.6583058912549135,-0.3324148683168262
399,4.990000000000004,-0.30153150502589643,0.1285946772637664,-0.0183990785109842,0.9300877760862931,0.34656623661285285,-0.12176751392980717,0.17893755898114522,0.3589400225901184,-0.07262982538667981,0.06724762952454956,0.6592371241865076,-0.33136576146140306
400,5.0000000000000036,-0.1835972290456473,0.15708387578198163,-0.00802350017493101,0.9302127810311503,0.34698824316146787,-0.11959177661628849,0.22468676273712324,0.393073561490757,-0.06866276448126944,0.06661197102924725,0.6601263011992219,-0.33055094251690575
401,5.010000000000003,0.0009449259944569743,0.1730293764457995,-0.009426342563081792,0.9303762210127112,0.34718831723141824,-0.11772665863340644,0.255731633845864,0.42083748622832695,-0.07895366043242212,0.06653431128370234,0.6608401884909944,-0.33021285798630734
402,5.020000000000003,0.24075848925330978,0.18086131085725057,-0.032218407769426666,0.9305181162469263,0.34722853654725033,-0.11648207966389475,0.2870090051102074,0.4553445812767509,-0.10505443458396725,0.0671580397646325,0.6612477094154772,-0.3306053035422024
403,5.030000000000004,0.5169402077264365,0.19215970780449873,-0.09908178294426301,0.930516760637234,0.34737076650909415,-0.11606884896522375,0.34028521541852075,0.50796680015227,-0.13562873316340787,0.06852132671634258,0.6612637411744118,-0.33199855939923145
404,5.040000000000004,0.7756844671678969,0.21726667673035,-0.2194421293170799,0.930207059492005,0.34807696603537835,-0.11643339325464602,0.40967953439682475,0.5644312766068746,-0.1585559301470009,0.07051336602488562,0.6609159762955433,-0.3346004400506538
405,5.050000000000003,0.9727634260782414,0.24118123445648187,-0.37163331382677167,0.9294419383210456,0.3498036865050476,-0.11735922977298861,0.4490469131255807,0.6053588854393249,-0.1691369466965107,0.07284734359981314,0.6603121483925168,-0.3384017925677824
406,5.060000000000004,1.1236892612452474,0.2758528323623344,-0.5369682889115243,0.9281425405570807,0.35279703854393485,-0.11866628495425577,0.4243870980182866,0.6167471348780672,-0.15724896769011892,-0.11139985955195118,0.6361225580860057,-0.13727978336606905
407,5.070000000000004,1.250910098570911,0.32498991777131786,-0.7155384893401283,0.926261766151427,0.35721294496316675,-0.12012734404829795,0.3439423764708641,0.5790298018520242,-0.11663453132043164,-0.23528320105591663,0.6201424480966551,-0.0040808863557078145
408,5.080000000000004,1.36237735294857,0.37823272608950054,-0.903680889136806,0.9237164475198361,0.3632351093678176,-0.12163510605496461,0.2444665666320015,0.5058715452599873,-0.07051669078717533,-0.23292834100283058,0.6204236997287118,-0.011614434897843022
409,5.090000000000003,1.4664979088993633,0.4296599276218501,-1.1063858134381737,0.9204568042419838,0.3709041404566989,-0.12316442647788838,0.16265912288797468,0.43338812188883336,-0.02645144984997626,-0.23076266896431422,0.6206168885135942,-0.020282265116011736
410,5.100000000000003,1.560149119992305,0.4667592621423054,-1.3129167066131027,0.9164268854161476,0.3802190865841147,-0.12476513454676075,0.11061112518362701,0.37003383241242477,0.009810322369604742,-0.22881509123856963,0.620693369605344,-0.030059740848827697
411,5.110000000000004,1.6339863730944006,0.486341649874526,-1.498610659450126,0.9115673929511083,0.3911298228616987,-0.12658208201610321,0.07454175297460644,0.3175057100917733,0.02273871496508996,-0.227129465621012,0.6205808246344615,-0.040858481119192325
412,5.120000000000004,1.6924235024819465,0.48552795712371616,-1.6457554421366758,0.9059090894071675,0.40335466242948204,-0.1287833381122346,0.051475067626341874,0.27648891232048434,0.018426487804992977,-0.22567821035427013,0.6202234882815464,-0.05248932022263984
413,5.1300000000000034,1.7272274331934587,0.4666841338338348,-1.7533480756598707,0.8995342357877496,0.4165198186345513,-0.13150302228543923,0.05602462172180006,0.24671823733292764,0.011412270909059857,-0.2244133234766401,0.619585884373753,-0.06471729930163496
414,5.140000000000004,1.725585148233215,0.4290170441454205,-1.8355324175325523,0.8925126106420037,0.4303292420096169,-0.13481431344626024,0.09074879373367378,0.22226059033126988,0.006967286412690121,-0.22334411739604726,0.6186353806631841,-0.07730704124219644
415,5.150000000000004,1.681373085791688,0.3796606624862573,-1.8990014576353336,0.8848825302877201,0.4446125598580745,-0.1386845397035373,0.1297424341581189,0.1982820687859115,0.006433344839024777,-0.22255926863333064,0.617352830502346,-0.09003713033371384
416,5.160000000000004,1.6090411606477284,0.32610600473851975,-1.9493677221471617,0.8766658269014411,0.45927052045590777,-0.14301437469184913,0.1521367745241202,0.17077964744675037,0.010548031788496106,-0.22216302081604208,0.6157399288869,-0.1027269140980078
417,5.1700000000000035,1.5196714036923016,0.27293995885118344,-1.9884114822954995,0.8678919699770599,0.47420000897982933,-0.14771178895389486,0.16416496553284035,0.135446245242187,0.02313700914019756,-0.22220240055097912,0.6138152664201927,-0.11525570317319998
418,5.180000000000003,1.4101910650089478,0.22276017753245753,-2.0118708889349417,0.8586124439461825,0.48928868846124274,-0.15263912742957625,0.1672235946432914,0.09916085897856472,0.04400815209374564,-0.2226998753652828,0.611623927768483,-0.12752017121302928
419,5.190000000000004,1.2790490100131515,0.17518899298344667,-2.0243266202216192,0.8488771359527407,0.5044549831914847,-0.1576314478347138,0.15422639392212964,0.061615354472354084,0.06541249640552317,-0.2237010845368364,0.609212813308799,-0.13940877180902964
420,5.200000000000004,1.147896361100672,0.13259699153239404,-2.030120188777802,0.838730954536,0.5196361976704852,-0.16254854622821038,0.12904556415741164,0.018986064475012443,0.08466170631800912,-0.22522879236402338,0.6066261624113306,-0.15084617277590542
421,5.2100000000000035,1.037039623988637,0.10000955533540784,-2.0247727655805603,0.8282188282319071,0.534756316730642,-0.16733793256935495,0.1000052304006999,-0.027277913992311397,0.10572592629251588,-0.22720981922134262,0.6039071006264923,-0.16185618565570184
422,5.220000000000004,0.9447270644886521,0.06990352041701516,-2.006680345250051,0.817417184269284,0.5496857173129746,-0.1720121489524919,0.0708492934645497,-0.07232396000474188,0.12587587629969543,-0.2295294398381178,0.6010879896731798,-0.1724614867012917
423,5.230000000000004,0.8749210517125676,0.04548737860749648,-1.9838868333317716,0.806390868790909,0.5643187840905795,-0.17661478286027152,0.040623154389310724,-0.11172081581027256,0.14029233301335348,-0.2320793035024399,0.5981873280995094,-0.18269655253068023
424,5.240000000000004,0.8035199629868955,0.02090760656428616,-1.9521500080029137,0.7951925841814701,0.5785916959684111,-0.18115474503086948,0.010861084489492419,-0.14375697882722166,0.151509024318527,-0.23479794214849944,0.5952214243413972,-0.19257427360614887
425,5.2500000000000036,0.722384408268019,-0.0022141481314693484,-1.9132213423839237,0.7838877507821771,0.5924590260460602,-0.1855580033952058,-0.014690217630355535,-0.17087441688782898,0.15765083194937451,-0.2376890637852375,0.5922166890018317,-0.20204065891726583
426,5.260000000000003,0.6448999593690197,-0.022480708726904913,-1.8670119431442354,0.7725330684477245,0.6058928480107264,-0.18976086166954528,-0.027912424689891163,-0.19362115340786343,0.1634015112890513,-0.24074766669234124,0.5891991113602475,-0.21106566359209478
427,5.270000000000004,0.593033557599237,-0.039214014916527845,-1.8056401382616585,0.7612162739065343,0.6188054336226566,-0.19379517749483596,-0.031302082101746086,-0.2164910580777363,0.1742008514852443,-0.24389315502720502,0.5861859412319457,-0.21965518229516573
428,5.280000000000004,0.5886531914864641,-0.0491715107955414,-1.7337804475783394,0.750058017455195,0.6310395170828571,-0.19782456791144093,-0.03507373281814224,-0.24059254528097007,0.18811928154490865,-0.24694381566012727,0.5831827959262705,-0.22787587874450732
429,5.290000000000004,0.6232378918906658,-0.05965772327719618,-1.659608225055343,0.7391346994751127,0.6424781429487953,-0.20208782578935686,-0.04540361430881272,-0.25960920044400737,0.20380392638689757,-0.24971348824243728,0.5801684207359309,-0.23584141867130218
430,5.300000000000004,0.6738185947809598,-0.08093599068223019,-1.5863194762983412,0.7284612443588117,0.6530840772784648,-0.20680288047738865,-0.05777620938146231,-0.27156188194793524,0.21251690584918867,-0.2521105256327664,0.5770921140783661,-0.24362682486782453
431,5.310000000000004,0.7275092826681694,-0.1114151325897252,-1.507307916132359,0.7180656505246851,0.662822337776791,-0.212118802624494,-0.06831301548986721,-0.27545247847989845,0.20824977849481063,-0.25410093976175085,0.5739076543117144,-0.2512370853299953
432,5.320000000000004,0.7589462122697567,-0.15295234815374642,-1.430127303865879,0.7079588502695658,0.6717172926930532,-0.21803587253536139,-0.07484593044887763,-0.27575983559170597,0.19997798594578142,-0.25573872535289455,0.5705931001479326,-0.2586208317872912
433,5.330000000000004,0.7699513045246527,-0.20531144096989795,-1.3538569929619344,0.6981082954409965,0.6798524993038603,-0.22449281114296835,-0.07678414405261022,-0.2806245181377126,0.19758343450660895,-0.2571350846254141,0.5671258427154326,-0.26571175414278697
434,5.340000000000003,0.7751763700952894,-0.2598809231758497,-1.2675312858916128,0.6885237310440293,0.6872591392151299,-0.23143849121616775,-0.07793573647550571,-0.28868126754244605,0.19865857610080093,-0.2583432273054773,0.5635032918085694,-0.2724635247838232
435,5.350000000000004,0.7671121680214629,-0.30798472757132866,-1.1747218190425635,0.6793374738765611,0.6938711919630668,-0.23874919237099299,-0.07716106305425768,-0.3004342738229169,0.20467706515167813,-0.25935299560071007,0.5597837503455123,-0.2788003245975938
436,5.360000000000004,0.7394414721389808,-0.35180381773233343,-1.0676268457821663,0.670673245458909,0.6996551693733021,-0.24625604339234397,-0.0728350384153805,-0.3079384035188303,0.22509295942161156,-0.260187452151506,0.556031408448345,-0.2846276040261594
437,5.370000000000004,0.6882677213015426,-0.39397394221004944,-0.9519573257561547,0.6626204060502298,0.7046295366714735,-0.25376788710950887,-0.06384768946514587,-0.3099153622562511,0.24730468973095698,-0.26090437042456843,0.5523056709430619,-0.2898513568427034
438,5.380000000000004,0.6370566670225228,-0.4289400280431552,-0.8344355285864181,0.6552194911507356,0.7088362349421061,-0.2611698708048309,-0.044820805251455056,-0.31730209892288647,0.26719615224566345,-0.2615372052375841,0.5486438658852316,-0.2944379771667659
439,5.390000000000004,0.6006241303253931,-0.4526017039091,-0.7136601144809656,0.6485350773219748,0.712259099918837,-0.2684485688560039,-0.014855506550568665,-0.32731233086331746,0.2914391196748603,-0.2620320645965252,0.5450797106715787,-0.29841447126516746
440,5.400000000000004,0.5714481746945727,-0.466871886924508,-0.5820524432498528,0.6426545617281272,0.7148524357228282,-0.2756093627688692,0.01734842500406972,-0.33047964002863656,0.31401986563125817,-0.2623152950694982,0.5416486444543963,-0.301804777916863
441,5.410000000000004,0.5251687079491023,-0.47925773113671777,-0.4463107589835613,0.6376476359351637,0.7166142809838946,-0.282582082320928,0.04463025108324456,-0.32851847957134456,0.32824810901282625,-0.26238608575669076,0.5383865301586458,-0.30457650545698
442,5.4200000000000035,0.44445913383321234,-0.48757616198031645,-0.316379737708132,0.6335224165183756,0.7176497900351523,-0.28916239679596345,0.07304490347960585,-0.3250568425754895,0.3343583107102336,-0.2623442352775984,0.535343081896479,-0.3066664651113854
443,5.430000000000004,0.3234789190689631,-0.48830439158846184,-0.19105140223686523,0.63027050718665,0.7181288690349903,-0.2950266358173417,0.11202016845347341,-0.31908602591138024,0.3381272965634724,-0.2623405514145746,0.532599736805439,-0.3079987587627283
444,5.440000000000004,0.17433678037899364,-0.47938166183448117,-0.0704470747373765,0.6278841797437046,0.7182102586579276,-0.2998832605830119,0.15781540331519822,-0.31026194351433867,0.34253418810694886,-0.2625048418589772,0.5302342782926784,-0.30851626227784934
445,5.450000000000004,0.014496184145111377,-0.4533643046961383,0.04866977077113026,0.62637533902307,0.7180107750347814,-0.3034995603942673,0.1991955307399765,-0.3035963802292809,0.3480015717876109,-0.26291262476646066,0.5283241453349722,-0.3081982394395635
446,5.460000000000004,-0.13979702322492546,-0.4150085956833016,0.1819565004522461,0.6258714699157281,0.7174853047283247,-0.3057760388684991,0.2294662866392291,-0.30552827137726424,0.35126650455422415,-0.26351737293194083,0.526944164135442,-0.3070280809687201
447,5.470000000000004,-0.2795730005186317,-0.3620836737863756,0.27907691509538424,0.626346222602297,0.7166747412207766,-0.3067041301539577,0.2567721697109056,-0.3093758488568719,0.3508957182428269,-0.26429176802034043,0.5261155207004842,-0.30508663142207987
448,5.480000000000004,-0.37342657296338744,-0.2938209447104588,0.3500434731051073,0.6275864177624437,0.7157147712296064,-0.30640942186469333,0.2956184187136673,-0.3039477162513506,0.34777885717343743,-0.2652002268592376,0.5257983548007534,-0.3026075630762025
449,5.490000000000004,-0.4011568827792188,-0.22388248125605575,0.4454925812813854,0.6296259009064844,0.7144247424319912,-0.30523119994064946,0.3326835238588234,-0.29005457202407553,0.33696553806931345,-0.266019758918567,0.5259446098182822,-0.2997478123055705
450,5.5000000000000036,-0.366869326824855,-0.15369676420966355,0.5637258366924018,0.6326389898953265,0.7124297364899734,-0.30365614276626224,0.356357749224024,-0.27346569534134363,0.31545819132546415,-0.2664359064650305,0.5264824002621532,-0.2965843764406788
451,5.510000000000004,-0.2794171670385846,-0.07249577347462156,0.6678442146702219,0.6366689711299859,0.7095113698407645,-0.3020568512321909,0.38170001102117856,-0.2537386214709753,0.2920989435107825,-0.26620642326184074,0.5273570046022393,-0.29326376391545983
452,5.520000000000004,-0.16797298142769204,6.894117862212001e-05,0.7796037326232687,0.641674292710379,0.7055691778819874,-0.30069000261719286,0.4130569657340077,-0.2320996271271637,0.26798900584762,-0.26519537962751416,0.5285126253062228,-0.2899065940449125
453,5.530000000000004,-0.07766989792186658,0.050215986032270336,0.9054386821124858,0.6476713579802916,0.7005053592554737,-0.2996612032024128,0.4532485144751445,-0.21240655668515668,0.23449339541474076,-0.2633887078687847,0.5299001633297974,-0.28644800057949027
454,5.5400000000000045,-0.00444943666165077,0.09344349277840538,1.0306483196079363,0.6546399134704907,0.6943235985570143,-0.2988942866032155,0.5072131110380085,-0.19929313422593684,0.20004581453737302,-0.2608713330753147,0.5315039554244503,-0.2827844781173647
455,5.550000000000004,0.0680048679298884,0.129572893212766,1.1515096209769167,0.662506478671279,0.6870417179743494,-0.2983761215400589,0.5613146286268814,-0.18613030893902097,0.17254819544176686,-0.2576871021493387,0.5332969068364692,-0.27889817793674904
456,5.560000000000004,0.11611285320397174,0.1599349426833341,1.2674070982030143,0.6712084217433623,0.6786881099978891,-0.2980331066573852,0.5982105868970511,-0.18054044890595874,0.14334190595398927,-0.2538965564196887,0.5352710412777779,-0.2747555501314545
457,5.570000000000004,0.13803350802846232,0.17928921662678918,1.3558665976306918,0.6805737014292426,0.6694225063765735,-0.29773952188043024,0.6236317294678971,-0.1808283282662158,0.11924478800937541,-0.24965110558060355,0.5374000000103106,-0.27033716295171606
458,5.580000000000004,0.11678486434446603,0.18472681647472228,1.4159931876202059,0.6903496290469808,0.6595083361535183,-0.2973515687554025,0.6379329020783215,-0.17418613639165045,0.10515050013054492,-0.24516423854606115,0.5396410719425782,-0.26564427073250024
459,5.590000000000004,0.038144465207955586,0.18247001358079443,1.4530849272089805,0.7003066628009416,0.6492700861570116,-0.2965959500227734,0.6319421833650345,-0.16378358647722727,0.08308867041350756,-0.24072908253340042,0.5419830242737637,-0.2606111547147473
