time,seconds_elapsed,rotationRateX,rotationRateY,rotationRateZ,gravityX,gravityY,gravityZ,accelerationX,accelerationY,accelerationZ,quaternionW,quaternionX,quaternionY,quaternionZ
1681574612829991700,0.18999169921875,-0.5437245965003967,0.07660717517137527,0.3525068759918213,-0.026571305468678474,-0.21603189408779144,-0.9760246872901917,-0.042352646589279175,-0.006425991654396057,0.0019951462745666504,0.9939881509723685,0.10866925252950836,-0.013366007441665557,5.3642973743974165e-17
1681574612840036400,0.200036376953125,-0.5282524228096008,0.08123574405908585,0.3315741717815399,-0.026538847014307976,-0.21067458391189575,-0.9771959185600281,-0.04580307379364967,-0.002643287181854248,0.003929316997528076,0.9942812637179514,0.1059658235747714,-0.013163268403124062,0.0017121751117715265
1681574612850080500,0.21008056640625,-0.5112783908843994,0.0905032828450203,0.3099631369113922,-0.02636498585343361,-0.20549531280994415,-0.9783028960227966,-0.05188208818435669,-0.010126650333404541,0.007126748561859131,0.994555339830584,0.10335333662936753,-0.012908829384288601,0.0033278825692583
1681574612860125400,0.22012548828125,-0.5130237936973572,0.09793324023485184,0.2744453549385071,-0.026029998436570168,-0.2003966122865677,-0.9793689846992493,-0.05906827002763748,-0.021832376718521118,0.005858302116394043,0.9948172738647396,0.10078110106925073,-0.01259645440274974,0.004800784556555284
1681574612870171600,0.230171630859375,-0.5330976247787476,0.10106205940246582,0.23945675790309906,-0.025557249784469604,-0.19518668949604034,-0.9804330468177795,-0.0636303722858429,-0.029712572693824768,0.008875489234924316,0.9950775273078394,0.09815116554722829,-0.012240074209175505,0.006100810390222947
1681574612880215300,0.24021533203125,-0.5526697039604187,0.10838761925697327,0.21458576619625092,-0.024955764412879944,-0.18978050351142883,-0.9815093278884888,-0.06504055857658386,-0.037148118019104004,0.01617729663848877,0.995366516110362,0.09533197160379069,-0.012535967209251743,1.550198671906438e-17
1681574612890260500,0.250260498046875,-0.5677681565284729,0.11553388833999634,0.18088479340076447,-0.024217812344431877,-0.18420693278312683,-0.982589066028595,-0.07116486877202988,-0.053479135036468506,0.02134639024734497,0.9956372166091524,0.09251931323879221,-0.012068006346867187,0.001011139017104478
1681574612900304600,0.2603046875,-0.5636078119277954,0.12064023315906525,0.1429419368505478,-0.02334560826420784,-0.17856958508491516,-0.983650267124176,-0.07446321845054626,-0.06787502765655518,0.024589598178863525,0.9959025021903982,0.08967351092631258,-0.011555019174212984,0.0018414743302589075
1681574612910349300,0.270349365234375,-0.5317671298980713,0.1292840838432312,0.11496250331401825,-0.02233929932117462,-0.17310789227485657,-0.9846494793891907,-0.07907059788703918,-0.06877435743808746,0.029922306537628174,0.9961517303984952,0.08691603173146357,-0.010993656207660026,0.002511617500061187
1681574612920393500,0.2803935546875,-0.4797031581401825,0.14802822470664978,0.08923263847827911,-0.02114815264940262,-0.1680704802274704,-0.9855480790138245,-0.07942251861095428,-0.06075023114681244,0.03329282999038696,0.996375716171606,0.08437268792923121,-0.010353650600387853,0.0030572695282337693
1681574612930438400,0.2904384765625,-0.4161609709262848,0.16978135704994202,0.058652885258197784,-0.019703857600688934,-0.16360889375209808,-0.9863284826278687,-0.08080577105283737,-0.05187563598155975,0.030517935752868652,0.9965702174932556,0.08211941756376218,-0.0095998470724311,0.0034706476844142105
1681574612940483300,0.3004833984375,-0.3459203839302063,0.1923612356185913,0.035612281411886215,-0.01799885742366314,-0.15980757772922516,-0.9869840741157532,-0.08579141646623611,-0.04296639561653137,0.027862370014190674,0.9967336026369789,0.08019858788416337,-0.008726126931656775,0.0037632215745616922
1681574612950527200,0.31052734375,-0.2740841209888458,0.21972855925559998,0.019739307463169098,-0.015993056818842888,-0.15674279630184174,-0.9875099658966064,-0.09181027114391327,-0.0413924902677536,0.023001909255981445,0.9968647322548762,0.07864855743613086,-0.007708771429025205,0.003966077796604147
1681574612960572200,0.320572265625,-0.22850118577480316,0.2476792335510254,0.01087311189621687,-0.01368458941578865,-0.15426088869571686,-0.9879353642463684,-0.09712472558021545,-0.04970325529575348,0.019490540027618408,0.9969706569574607,0.07739185494473279,-0.006543188637139715,0.004120945371204707
1681574612970616300,0.3306162109375,-0.22412942349910736,0.26418930292129517,0.0055065760388970375,-0.011156835593283176,-0.15204578638076782,-0.9883104562759399,-0.0996219664812088,-0.06166873872280121,0.01968252658843994,0.9970642879018026,0.07626922114976599,-0.0052692814632468886,0.0042560471866425215
1681574612980661200,0.3406611328125,-0.25271713733673096,0.27027463912963867,0.00636438000947237,-0.008513225242495537,-0.14971289038658142,-0.9886928796768188,-0.10168574005365372,-0.07846696674823761,0.019073128700256348,0.9971595477948825,0.07508696217312662,-0.0039392317207347285,0.004375863650314251
1681574612990705200,0.350705078125,-0.2922041118144989,0.2621332108974457,0.001372817438095808,-0.005861474666744471,-0.1470150351524353,-0.989116907119751,-0.09596041589975357,-0.09817837178707123,0.024608850479125977,0.9972654535589719,0.07372078977976518,-0.0026076161003832756,0.004479764853441863
1681574613000750300,0.360750244140625,-0.32806649804115295,0.2470030039548874,0.0014127648901194334,-0.003333344357088208,-0.14392687380313873,-0.9895827174186707,-0.08927223831415176,-0.1087128072977066,0.033329665660858154,0.9973817951571676,0.07215849730436659,-0.0013398013802206883,0.004578514319601565
1681574613010794200,0.370794189453125,-0.34789183735847473,0.23973430693149567,0.009027541615068913,-0.0009259317885152996,-0.14053931832313538,-0.9900746941566467,-0.086888387799263,-0.11301590502262115,0.03739213943481445,0.9975045404098152,0.07044607424450465,-0.00013256130323008338,0.004694873288520762
1681574613020839200,0.380839111328125,-0.32872745394706726,0.23985335230827332,0.004637053702026606,0.0014458203222602606,-0.13717757165431976,-0.990545392036438,-0.08544544130563736,-0.10969428718090057,0.04163181781768799,0.9976218429289999,0.06874718979739364,0.0010565602048089888,0.004816740454733722
1681574613030884400,0.39088427734375,-0.30565375089645386,0.23951356112957,0.0006977061275392771,0.0038249201606959105,-0.13400687277317047,-0.9909729957580566,-0.09051009267568588,-0.10732603073120117,0.038916170597076416,0.9977286430728906,0.06714491432787331,0.002247282308471755,0.00491054033171315
1681574613040928000,0.400927978515625,-0.2580021023750305,0.2419349104166031,-0.0031452353578060865,0.006199345923960209,-0.13117554783821106,-0.9913397431373596,-0.09749267250299454,-0.09910999238491058,0.029456257820129395,0.9978201188821546,0.06571389538347074,0.0034348466285154043,0.004986555641826937
1681574613050973200,0.41097314453125,-0.2118675857782364,0.24647513031959534,-0.004585206508636475,0.008636950515210629,-0.1288389414548874,-0.9916279315948486,-0.10003708302974701,-0.08611154556274414,0.024205446243286133,0.9978920014867264,0.06453199724376299,0.004654172720186468,0.005050000207041865
1681574613061017300,0.421017333984375,-0.17714422941207886,0.2481747567653656,-0.009448138996958733,0.011106648482382298,-0.12690585851669312,-0.9918525815010071,-0.10302558541297913,-0.08532856404781342,0.01870805025100708,0.9979480556453584,0.06355328946618395,0.00588962668055965,0.005101500689759365
1681574613071062300,0.431062255859375,-0.14861218631267548,0.24452835321426392,-0.005233420059084892,0.013564491644501686,-0.1253013014793396,-0.9920260310173035,-0.10694827139377594,-0.09146498143672943,0.01644003391265869,0.9979912157811262,0.06273996573520971,0.007120075995691706,0.00515663869091355
1681574613081106200,0.441106201171875,-0.1405092179775238,0.23511134088039398,-0.009589819237589836,0.015958193689584732,-0.12388058006763458,-0.9921687841415405,-0.10789238661527634,-0.10451289266347885,0.012691855430603027,0.9980265852042938,0.062019346146543065,0.008318583812796081,0.005209201211528633
1681574613091151400,0.4511513671875,-0.16220822930335999,0.21551711857318878,-0.017180893570184708,0.018224559724330902,-0.12239472568035126,-0.9923141598701477,-0.1053369790315628,-0.11547444760799408,0.017979443073272705,0.9980630657036315,0.061266734624216876,0.00945019865222482,0.0052167758590460685
1681574613101196300,0.4611962890625,-0.19997930526733398,0.19671520590782166,-0.004793466068804264,0.02031223475933075,-0.12059286236763,-0.9924942255020142,-0.10536471754312515,-0.11987031996250153,0.02678072452545166,0.9981080475686187,0.060355743759923704,0.010491655706016968,0.005230468883143706
1681574613111240200,0.471240234375,-0.21443235874176025,0.17576219141483307,0.007789704017341137,0.022158507257699966,-0.11850973963737488,-0.9927056431770325,-0.10702788829803467,-0.11891693621873856,0.03691035509109497,0.9981606063237617,0.05930342738643584,0.011414688250679247,0.005302197491390947
1681574613121285000,0.48128515625,-0.20481382310390472,0.15614669024944305,0.01717228628695011,0.023786749690771103,-0.11641594767570496,-0.992915689945221,-0.10838146507740021,-0.12090391665697098,0.04433780908584595,0.9982125259665074,0.05824570486987642,0.012231343703980692,0.005427110983014227
1681574613131329300,0.491329345703125,-0.17169110476970673,0.1316809505224228,0.009648057632148266,0.02519284375011921,-0.11454686522483826,-0.9930983781814575,-0.11462459713220596,-0.11698991060256958,0.04268944263458252,0.998257551894067,0.05730146052649073,0.012937058817915627,0.005551248795006659
1681574613141374500,0.50137451171875,-0.12418830394744873,0.11803865432739258,-0.006760742980986834,0.026431139558553696,-0.11307580024003983,-0.9932347536087036,-0.1173429936170578,-0.10111173987388611,0.04122364521026611,0.998291482035981,0.05655854654077375,0.013555757357323919,0.0056052920819485595
1681574613151418000,0.511418212890625,-0.06713859736919403,0.10794299095869064,-0.014812277629971504,0.0275573767721653,-0.11212078481912613,-0.993312418460846,-0.1195526123046875,-0.0822455957531929,0.03422123193740845,0.9983110284197619,0.056076239961381814,0.014115816549289596,0.005586804305059906
1681574613161463300,0.52146337890625,-0.028585078194737434,0.10140546411275864,-0.016605649143457413,0.028620030730962753,-0.11166983842849731,-0.9933331608772278,-0.12455202639102936,-0.06997071206569672,0.03558474779129028,0.9983164293685306,0.055847806374249735,0.01464409591163091,0.005540524227655606
1681574613171508200,0.53150830078125,-0.022764205932617188,0.09498843550682068,-0.009920050390064716,0.029606549069285393,-0.11144761741161346,-0.9933291673660278,-0.13460226356983185,-0.06874334067106247,0.03608429431915283,0.9983156375678011,0.05573430609302622,0.015135788908817924,0.005508646213634379
1681574613181552000,0.54155224609375,-0.039894454181194305,0.08141323179006577,-0.007543978746980429,0.030490323901176453,-0.11116427928209305,-0.9933342337608337,-0.13835470378398895,-0.06724139302968979,0.03819507360458374,0.9983170606557331,0.055590127559503995,0.01557674654933983,0.0054932369338220625
1681574613191597300,0.551597412109375,-0.06519574671983719,0.0634879395365715,-0.006667266134172678,0.023903360590338707,-0.11890201270580292,-0.992618203163147,-0.12902115285396576,-0.06319628655910492,0.04353684186935425,0.9981363548881712,0.059491168065760505,0.01231617986296416,0.0057411287473104035
1681574613201641200,0.56164111328125,-0.09643116593360901,0.03469650447368622,-0.0019273718353360891,0.018037574365735054,-0.1253410130739212,-0.991949737071991,-0.11937118321657181,-0.06684334576129913,0.04801052808761597,0.9979675525687978,0.06274182128929315,0.009412577195908113,0.0059714461442558365
1681574613211686100,0.57168603515625,-0.13809950649738312,0.005678198300302029,-0.010255875065922737,0.013105549849569798,-0.12945634126663208,-0.9914985299110413,-0.11239448189735413,-0.06890784204006195,0.05303722620010376,0.9978535013747537,0.06482464793134153,0.006964838257230665,0.006125959498583518
1681574613221731000,0.58173095703125,-0.18599405884742737,-0.025353219360113144,-0.01827332191169262,0.009020823985338211,-0.13122506439685822,-0.9913115501403809,-0.10727215558290482,-0.06678816676139832,0.05597829818725586,0.997806179250905,0.06572617699896591,0.004928591922152814,0.006197951524059761
1681574613231775200,0.591775146484375,-0.2175634801387787,-0.05060321092605591,-0.018608348444104195,0.005485012661665678,-0.1311943233013153,-0.9913414716720581,-0.10175269842147827,-0.06344671547412872,0.054818034172058105,0.9978137073301284,0.06572125223847147,0.0031572441147967585,0.006205529184069201
1681574613241820400,0.6018203125,-0.22239366173744202,-0.06837156414985657,-0.012038861401379108,0.002279758220538497,-0.1302815079689026,-0.991474449634552,-0.09865426272153854,-0.060239627957344055,0.0524638295173645,0.9978469573084887,0.06527167867753572,0.0015483162712992523,0.006206421914276244
1681574613251864300,0.6118642578125,-0.2087070643901825,-0.08264470845460892,-0.004507974721491337,-0.0008795472676865757,-0.12920013070106506,-0.9916181564331055,-0.10011836886405945,-0.05848288536071777,0.04731273651123047,0.9978828824350502,0.0647373525157495,-0.00003691254529060833,0.006224215754810723
1681574613261909200,0.6219091796875,-0.17965278029441833,-0.0914781466126442,-0.0008258884190581739,-0.00390261341817677,-0.12822194397449493,-0.9917378425598145,-0.1028631255030632,-0.0518774539232254,0.04268693923950195,0.9979127097729472,0.06425480202417314,-0.0015527081090499723,0.006253845565273814
1681574613271953400,0.631953369140625,-0.14709414541721344,-0.10051380842924118,0.004478062968701124,-0.006810133345425129,-0.1276557445526123,-0.9917951822280884,-0.10013870894908905,-0.04370035231113434,0.03551161289215088,0.9979268559006809,0.06397943912541555,-0.0030088163088601923,0.006290897380077174
1681574613281998000,0.641998046875,-0.11951205134391785,-0.10798797011375427,0.0068727778270840645,-0.009660834446549416,-0.12762123346328735,-0.9917759299278259,-0.09721171110868454,-0.04231581091880798,0.029602468013763428,0.9979216697294861,0.06397169115940221,-0.0044339718353021826,0.006341250286908356
1681574613292043300,0.652043212890625,-0.10372743010520935,-0.11890260875225067,0.006655463948845863,-0.01251430157572031,-0.1279752254486084,-0.9916983842849731,-0.09394626319408417,-0.04025283455848694,0.02525252103805542,0.9979019799629641,0.0641596480610807,-0.005859640084745967,0.006387256353514182
1681574613302087400,0.66208740234375,-0.0967898890376091,-0.13694952428340912,0.0011853307951241732,-0.015491807833313942,-0.12850084900856018,-0.9915884137153625,-0.08861889690160751,-0.041146278381347656,0.01919156312942505,0.9978742301258616,0.06443449994804402,-0.007348510853006075,0.006409832164907963
1681574613312132400,0.67213232421875,-0.09204123914241791,-0.1532190591096878,-0.01186575647443533,-0.01860710233449936,-0.12907317280769348,-0.9914605021476746,-0.08684638142585754,-0.05130089819431305,0.01469963788986206,0.9978424557236275,0.0647330421326924,-0.008910156752286812,0.0063741549705871835
1681574613322176300,0.68217626953125,-0.09542718529701233,-0.17049792408943176,-0.02617065981030464,-0.021943476051092148,-0.12963788211345673,-0.9913185834884644,-0.08485277742147446,-0.061112165451049805,0.013367533683776855,0.9978075632270016,0.06502789337141973,-0.010587219089189531,0.00627009619744612
1681574613332221200,0.69222119140625,-0.1072363629937172,-0.18724660575389862,-0.04623757675290108,-0.025596357882022858,-0.13013361394405365,-0.9911659955978394,-0.08148981630802155,-0.06890194118022919,0.00972074270248413,0.9977705393772857,0.0652878477607953,-0.012429390675535343,0.006073087294681003
1681574613342265000,0.70226513671875,-0.11868103593587875,-0.20318961143493652,-0.065309539437294,-0.029746999964118004,-0.13044145703315735,-0.9910096526145935,-0.07826995849609375,-0.07514011859893799,0.005352914333343506,0.9977330878554701,0.06545318252534535,-0.014527630634204054,0.005787372459141378
1681574613352310300,0.712310302734375,-0.13642579317092896,-0.22327810525894165,-0.08433809876441956,-0.034397486597299576,-0.1305105984210968,-0.990850031375885,-0.07389412820339203,-0.07826006412506104,-0.000009953975677490234,0.9976951882461128,0.06549745762040533,-0.01688386996084393,0.0054015317024442965
1681574613362355200,0.722355224609375,-0.14585605263710022,-0.23885494470596313,-0.10155142843723297,-0.03982842341065407,-0.13078263401985168,-0.9906107187271118,-0.06783758103847504,-0.08288611471652985,-0.012227416038513184,0.9976377041574762,0.0656432360477857,-0.019636851257499473,0.004931952467658532
1681574613372399400,0.7323994140625,-0.11836738884449005,-0.2560293674468994,-0.12094616889953613,-0.045091018080711365,-0.1310526728630066,-0.9903494119644165,-0.06342947483062744,-0.08505748212337494,-0.021003127098083496,0.9975748566757808,0.06578316765451879,-0.022312761435509334,0.004360686450884268
1681574613382444000,0.742444091796875,-0.08888859301805496,-0.2681765556335449,-0.1378319412469864,-0.04963609576225281,-0.1314137578010559,-0.990084171295166,-0.0590369887650013,-0.08729039132595062,-0.031980037689208984,0.9975111656164665,0.06596145984226785,-0.02463730331996354,0.0036697530768441565
1681574613392488200,0.75248828125,-0.03564397618174553,-0.2863873839378357,-0.15906372666358948,-0.05380823463201523,-0.13239213824272156,-0.9897358417510986,-0.05404087156057358,-0.07726354897022247,-0.04122430086135864,0.9974265277744465,0.06644368411416833,-0.02678295026163677,0.0028609613790910302
1681574613402533400,0.762533447265625,0.010211128741502762,-0.3041064441204071,-0.18458347022533417,-0.05773090943694115,-0.1338985115289688,-0.9893120527267456,-0.04805826023221016,-0.06490817666053772,-0.055075764656066895,0.9973226057884452,0.06718432327578039,-0.028813914221270342,0.0019154220575664702
1681574613412577300,0.772577392578125,0.05975859612226486,-0.3212288022041321,-0.2101287692785263,-0.061408016830682755,-0.1357012242078781,-0.9888448715209961,-0.03969670832157135,-0.05610167980194092,-0.0750284194946289,0.9972068803659185,0.06806609774001003,-0.030733659690213282,0.0008255314632422567
1681574613422622200,0.782622314453125,0.1325092315673828,-0.31957072019577026,-0.234939306974411,-0.06486961245536804,-0.13791929185390472,-0.9883168339729309,-0.031611695885658264,-0.04065424203872681,-0.09176129102706909,0.9970748338755354,0.06914956919109928,-0.03255627614886049,-0.00037941574530906124
1681574613432667100,0.792667236328125,0.20022998750209808,-0.2991321384906769,-0.25865769386291504,-0.06796776503324509,-0.1405220478773117,-0.9877418279647827,-0.027430176734924316,-0.02874360978603363,-0.10613024234771729,0.9969293334852183,0.07041934325514278,-0.034208149125379624,-0.0016930943579296744
1681574613442711300,0.802711181640625,0.2552911043167114,-0.2597604990005493,-0.27459511160850525,-0.07024598121643066,-0.14287924766540527,-0.9872441291809082,-0.03459714353084564,-0.022876903414726257,-0.1236262321472168,0.996801096005047,0.07155851109601521,-0.035458445400555115,-0.0031027268898870253
1681574613452756200,0.812756103515625,0.30163297057151794,-0.20723475515842438,-0.26818594336509705,-0.07204724848270416,-0.14573292434215546,-0.9866970777511597,-0.048420876264572144,-0.012439608573913574,-0.14388763904571533,0.9966584876868274,0.07294574735981882,-0.036474411569167094,-0.004508920551405174
1681574613462800400,0.82280029296875,0.35765764117240906,-0.1554463803768158,-0.2480362057685852,-0.07333435118198395,-0.14904993772506714,-0.9861065745353699,-0.06252989917993546,-0.006025061011314392,-0.16257506608963013,0.9965036605107935,0.07456949110983598,-0.03723037030554887,-0.0058070117004040255
1681574613472845300,0.83284521484375,0.4204728603363037,-0.11706379055976868,-0.2411271631717682,-0.07417896389961243,-0.15298296511173248,-0.9854408502578735,-0.06861276924610138,-0.000489845871925354,-0.19059979915618896,0.9963288792712481,0.0765077575468833,-0.03776416742946626,-0.007006462960827944
1681574613482890200,0.84289013671875,0.47032058238983154,-0.07411951571702957,-0.267141193151474,-0.07458939403295517,-0.15748219192028046,-0.9847008585929871,-0.060679756104946136,0.02076353132724762,-0.22719794511795044,0.9961338093695011,0.07873183975056758,-0.03809027265908268,-0.008234410136284447
1681574613492934100,0.85293408203125,0.48656266927719116,-0.030245862901210785,-0.29141882061958313,-0.07451781630516052,-0.16230149567127228,-0.9839234352111816,-0.042776480317115784,0.05965571105480194,-0.27109670639038086,0.9959266362030649,0.08111536507487227,-0.03819139367359342,-0.009577955622003441
1681574613502979300,0.862979248046875,0.47186386585235596,0.022154495120048523,-0.26839765906333923,-0.07392368465662003,-0.1671188771724701,-0.9831615090370178,-0.02718103677034378,0.09840862452983856,-0.3015980124473572,0.9957218064551662,0.08350230021102609,-0.03803429694124947,-0.010894738134782955
1681574613513023200,0.873023193359375,0.4184236526489258,0.08291342109441757,-0.21540981531143188,-0.07280868291854858,-0.17154748737812042,-0.9824817180633545,-0.015280298888683319,0.11460177600383759,-0.3012096881866455,0.9955384678217067,0.08570513325149812,-0.03760007062227911,-0.011994341387208425
1681574613523068200,0.883068115234375,0.30948543548583984,0.12404248118400574,-0.20377740263938904,-0.07121529430150986,-0.17515705525875092,-0.9819614887237549,-0.006665550172328949,0.09485013782978058,-0.2660090923309326,0.9953962746772086,0.08750446653733197,-0.03690825183886589,-0.012921515592296066
1681574613533112300,0.8931123046875,0.1497286558151245,0.1525162011384964,-0.2295733094215393,-0.06925665587186813,-0.17738540470600128,-0.9817015528678894,-0.0015898942947387695,0.05618491768836975,-0.2173798680305481,0.9953177715132824,0.08860680188851118,-0.03602859949714211,-0.013899369673146063
1681574613543157200,0.9031572265625,0.004866012837737799,0.14116421341896057,-0.2631989121437073,-0.06710182875394821,-0.17803151905536652,-0.9817342162132263,0.0068601444363594055,0.02840392291545868,-0.18502908945083618,0.9953090895940631,0.08890488870043521,-0.03505426562816918,-0.015060061190644859
1681574613553202200,0.9132021484375,-0.03831710293889046,0.09000521153211594,-0.3000117838382721,-0.06519286334514618,-0.17779019474983215,-0.9819065928459167,0.022102050483226776,0.024881958961486816,-0.16010695695877075,0.9953308977569518,0.08874769638716977,-0.03421339135462503,-0.0164197322892752
1681574613563246300,0.923246337890625,-0.00945216789841652,0.004653561394661665,-0.357994943857193,-0.06385549157857895,-0.17747920751571655,-0.9820507168769836,0.05146536976099014,0.033497363328933716,-0.16426581144332886,0.9953388239333495,0.08854426891215308,-0.033683173201000255,-0.018052250865705943
1681574613573291300,0.933291259765625,0.09934978932142258,-0.09909272193908691,-0.4225478172302246,-0.0633138045668602,-0.17783807218074799,-0.9820208549499512,0.09250388294458389,0.06054385006427765,-0.21165895462036133,0.995293751468767,0.08866384048487767,-0.033590033236426224,-0.02001995970443868
1681574613583335200,0.943335205078125,0.24849505722522736,-0.20052453875541687,-0.49006882309913635,-0.06365419179201126,-0.1795247197151184,-0.9816918969154358,0.14200809597969055,0.10689298808574677,-0.23901116847991943,0.9951617595258151,0.08943577911890555,-0.03398946305918224,-0.02233914408772628
1681574613593380000,0.953380126953125,0.37846341729164124,-0.26425984501838684,-0.5465757846832275,-0.06465214490890503,-0.18262651562690735,-0.9810543656349182,0.18087834119796753,0.149927020072937,-0.2185916304588318,0.9949383863609758,0.09090419218160103,-0.03477425370265399,-0.024995188372891032
1681574613603425300,0.96342529296875,0.4880133271217346,-0.31529852747917175,-0.5919275879859924,-0.06603366881608963,-0.18684089183807373,-0.980168342590332,0.19814428687095642,0.1820649802684784,-0.1646375060081482,0.9946381889709909,0.09291940605308475,-0.03580221266888806,-0.027910366038493336
1681574613613469200,0.97346923828125,0.5728614330291748,-0.3432176411151886,-0.634326696395874,-0.06765005737543106,-0.19203467667102814,-0.9790536761283875,0.19522881507873535,0.1917906254529953,-0.09345608949661255,0.9942650589037378,0.09541598214484533,-0.03699920377658715,-0.031042882222110425
1681574613623514000,0.98351416015625,0.6235504150390625,-0.35993242263793945,-0.6736165881156921,-0.06933994591236115,-0.1978805959224701,-0.9777705669403076,0.17699071764945984,0.17107099294662476,-0.04192852973937988,0.9938321796037113,0.09822958540665844,-0.03828417186682,-0.03438952991574883
1681574613633558300,0.993558349609375,0.6639007925987244,-0.37186500430107117,-0.7001187205314636,-0.07106781750917435,-0.2042066603899002,-0.9763447046279907,0.15273286402225494,0.14988544583320618,-0.015110373497009277,0.9933460073044117,0.10127528444212369,-0.03963533927086117,-0.03789371611169452
1681574613643603200,1.003603271484375,0.6515045762062073,-0.3804318606853485,-0.7098107933998108,-0.07282329350709915,-0.21070590615272522,-0.9748331904411316,0.13782574236392975,0.13180279731750488,-0.0017140507698059082,0.9928218604659935,0.10439980535999506,-0.0410375084807915,-0.041487515948676744
1681574613653647000,1.013647216796875,0.5995488166809082,-0.393349289894104,-0.7092267870903015,-0.07462883740663528,-0.21687158942222595,-0.9733433127403259,0.1313762664794922,0.11561435461044312,0.0016636252403259277,0.9922882082378949,0.10734669203909286,-0.04248552649427308,-0.04511986272483092
1681574613663692300,1.0236923828125,0.54389888048172,-0.3943527638912201,-0.703224241733551,-0.07648781687021255,-0.22252827882766724,-0.9719212055206299,0.12481241673231125,0.1096438467502594,0.012585818767547607,0.991758227933347,0.11002760914279468,-0.04396971325557807,-0.04874608155934438
1681574613673737200,1.0337373046875,0.48643958568573,-0.37745657563209534,-0.7083284854888916,-0.07826177775859833,-0.22764651477336884,-0.9705936908721924,0.11691229045391083,0.110672727227211,0.012097597122192383,0.991238571971895,0.11242969497948503,-0.0454170465784279,-0.05237264378961287
1681574613683781000,1.043781005859375,0.4483603835105896,-0.3428453207015991,-0.7121184468269348,-0.07973693311214447,-0.23231667280197144,-0.9693662524223328,0.10306763648986816,0.11973743140697479,-0.004770100116729736,0.9907292540107888,0.11460332174104133,-0.04672196440075654,-0.05602236522865364
1681574613693826300,1.053826416015625,0.43726247549057007,-0.29043519496917725,-0.7009219527244568,-0.08076862245798111,-0.23675964772701263,-0.9682052135467529,0.0934029147028923,0.1394544541835785,-0.01372838020324707,0.9902252693961906,0.11666904492394713,-0.04780938411026657,-0.059636629236465635
1681574613703870200,1.0638701171875,0.4507865309715271,-0.22581042349338531,-0.675197958946228,-0.08125371485948563,-0.24121148884296417,-0.9670650959014893,0.07914802432060242,0.15718144178390503,-0.018332242965698242,0.9897213435817724,0.11875734089012958,-0.048622619877414314,-0.06312019568469149
1681574613713915400,1.073915283203125,0.47139400243759155,-0.15311017632484436,-0.636490523815155,-0.08111768215894699,-0.24579934775829315,-0.9659205675125122,0.06624037027359009,0.17063464224338531,-0.03267562389373779,0.9892177994506772,0.12094246354613375,-0.049118456662431496,-0.06639529440524353
1681574613723959300,1.083959228515625,0.47848066687583923,-0.10960504412651062,-0.5890918374061584,-0.08047991991043091,-0.2505130469799042,-0.964762270450592,0.0605519562959671,0.18102464079856873,-0.04353851079940796,0.9887172329973096,0.12322082340666503,-0.0493508546964669,-0.06942073780824264
1681574613734004200,1.094004150390625,0.4521208107471466,-0.08206053078174591,-0.5553354620933533,-0.07959774881601334,-0.2550947368144989,-0.963634192943573,0.06621579825878143,0.18556052446365356,-0.0460551381111145,0.9882320707218014,0.12545361902681354,-0.04943975766185677,-0.07221057542368726
1681574613744049400,1.10404931640625,0.37968844175338745,-0.06811542063951492,-0.5439770817756653,-0.07854454964399338,-0.25918206572532654,-0.9626294374465942,0.07988732308149338,0.1835443377494812,-0.03698909282684326,0.9877778542905028,0.1274471383537522,-0.04942177951444797,-0.07489745279118452
1681574613754093000,1.114093017578125,0.28713756799697876,-0.08284205198287964,-0.5277618765830994,-0.07752135396003723,-0.26241758465766907,-0.9618354439735413,0.09261229634284973,0.17059028148651123,-0.02838367223739624,0.9873730493113202,0.1290083798628977,-0.049387339462416704,-0.07753799315491768
1681574613764138200,1.12413818359375,0.19194234907627106,-0.10218378901481628,-0.503724217414856,-0.07672407478094101,-0.26472559571266174,-0.9612667560577393,0.10913374274969101,0.1579446792602539,-0.015097379684448242,0.9870232669762171,0.13009127263019818,-0.04942556715264312,-0.08011412346180116
1681574613774182400,1.134182373046875,0.1097775474190712,-0.13253191113471985,-0.47937676310539246,-0.07621615380048752,-0.2661685049533844,-0.9609086513519287,0.1303543597459793,0.14803507924079895,-0.002485513687133789,0.9867265554379712,0.13072463746217725,-0.04956560547495616,-0.08261350541877693
1681574613784227000,1.14422705078125,0.04664359241724014,-0.15916405618190765,-0.45103806257247925,-0.0760771706700325,-0.26688352227211,-0.9607213139533997,0.1440550684928894,0.14206671714782715,0.004910767078399658,0.9864757947234506,0.1309758009230875,-0.04984656110643765,-0.08500685760246533
1681574613794272300,1.154272216796875,-0.0053274258971214294,-0.17953291535377502,-0.42324957251548767,-0.07623167335987091,-0.2670440673828125,-0.9606644511222839,0.1547228842973709,0.13426217436790466,0.018266379833221436,0.9862614026902871,0.13093543156927603,-0.0502362606091569,-0.08729683286715129
1681574613804316200,1.164316162109375,-0.037861935794353485,-0.18607762455940247,-0.3905542194843292,-0.0766291469335556,-0.26676803827285767,-0.9607095122337341,0.1602930873632431,0.13107171654701233,0.03076261281967163,0.9860794311524853,0.13066688157119843,-0.050709064155411446,-0.08945336232225565
1681574613814361300,1.174361328125,-0.050640009343624115,-0.19199205935001373,-0.3529735505580902,-0.07719319313764572,-0.26627489924430847,-0.9608011841773987,0.15653890371322632,0.13302001357078552,0.03784281015396118,0.9859195317296952,0.13028666275623735,-0.051232811061220115,-0.09145091137215747
1681574613824405200,1.1844052734375,-0.04038870334625244,-0.1860063374042511,-0.3154975473880768,-0.07786060869693756,-0.2657564580440521,-0.9608908295631409,0.15027880668640137,0.1321658492088318,0.04817110300064087,0.9857729709090284,0.1298973544275489,-0.051780827930719815,-0.0932570019994794
1681574613834450200,1.1944501953125,-0.015499445609748363,-0.17371106147766113,-0.27716851234436035,-0.0785517692565918,-0.2654052674770355,-0.960931658744812,0.1434626579284668,0.13483589887619019,0.05997645854949951,0.9856301511381265,0.12960161247192484,-0.05232203864107863,-0.09486219830493794
1681574613844495400,1.204495361328125,0.007732107304036617,-0.15756379067897797,-0.24121931195259094,-0.07922916114330292,-0.26529425382614136,-0.9609066843986511,0.1323145031929016,0.13773086667060852,0.07055634260177612,0.9854878113887813,0.12943873212231957,-0.052841873762132084,-0.0962651755680506
1681574613854539300,1.214539306640625,0.015705078840255737,-0.13869689404964447,-0.21027444303035736,-0.07985427975654602,-0.26531165838241577,-0.9608501195907593,0.12711074948310852,0.13970139622688293,0.08089101314544678,0.9853537221283871,0.12935280615683248,-0.053317727965409935,-0.09748286368345947
1681574613864584200,1.224584228515625,0.011454140767455101,-0.12084438651800156,-0.18094292283058167,-0.08038920164108276,-0.2653382420539856,-0.9607982039451599,0.12399882823228836,0.13830888271331787,0.09182542562484741,0.9852349244636923,0.12928336641172214,-0.05372810616000785,-0.09854480727578312
1681574613874628400,1.23462841796875,-0.009904943406581879,-0.10293169319629669,-0.14971816539764404,-0.08083979785442352,-0.2652483284473419,-0.9607852101325989,0.11916987597942352,0.13417541980743408,0.10047942399978638,0.9851414648580737,0.12916674568777828,-0.05406791318546404,-0.09944234425752346
1681574613884673300,1.24467333984375,-0.014434447512030602,-0.07321267575025558,-0.11928249895572662,-0.08117474615573883,-0.2649998664855957,-0.9608255624771118,0.11517133563756943,0.13234007358551025,0.11464935541152954,0.9850778975925497,0.12898351961770668,-0.054318330027476325,-0.10017104187436511
1681574613894717200,1.25471728515625,-0.04248194769024849,-0.038582295179367065,-0.10250937938690186,-0.08125793188810349,-0.26460030674934387,-0.9609286189079285,0.11147034168243408,0.12392961978912354,0.12665432691574097,0.9850427524116385,0.12874211891309062,-0.05441648396311506,-0.10077197960090609
1681574613904762400,1.264762451171875,-0.0786157101392746,-0.002372626680880785,-0.0801531970500946,-0.08106306940317154,-0.26387766003608704,-0.9611437916755676,0.10607222467660904,0.11457052826881409,0.13015013933181763,0.9850462265390736,0.12835490541163713,-0.05434272715122905,-0.10127049826277333
1681574613914807300,1.274807373046875,-0.114364854991436,0.02816726267337799,-0.04906159266829491,-0.08063554763793945,-0.262800395488739,-0.9614748358726501,0.10131119936704636,0.11390519142150879,0.13356345891952515,0.9850946990074577,0.12780657002835272,-0.05411155267053358,-0.10161629880867128
1681574613924851200,1.284851318359375,-0.1562984436750412,0.061136394739151,-0.012443396262824535,-0.07997819781303406,-0.2613486051559448,-0.9619253873825073,0.09993669390678406,0.10850140452384949,0.13334256410598755,0.9851917591745709,0.12708842122111633,-0.053720124158403736,-0.10178366312228454
1681574613934898200,1.294898193359375,-0.19468773901462555,0.08687949180603027,0.023281577974557877,-0.07911741733551025,-0.25946754217147827,-0.962505578994751,0.10063230991363525,0.10222581028938293,0.12873482704162598,0.9853404412488922,0.12617141963184916,-0.05317869818245332,-0.10176958257298094
1681574613944942000,1.304942138671875,-0.21990732848644257,0.11753992736339569,0.06431716680526733,-0.0781145691871643,-0.257264643907547,-0.9631785750389099,0.1023607850074768,0.09953463077545166,0.12266343832015991,0.98553365659606,0.1251084853143519,-0.05252205363606205,-0.10155160839613543
1681574613954987000,1.314987060546875,-0.253383606672287,0.14292363822460175,0.1085091233253479,-0.07695800065994263,-0.2547560930252075,-0.9639381766319275,0.10747558623552322,0.09350129961967468,0.11547321081161499,0.9857718988767861,0.12390934104748283,-0.05174348145792003,-0.10110836248698615
1681574613965032200,1.3250322265625,-0.27813154458999634,0.1567547619342804,0.14969730377197266,-0.07570885121822357,-0.25193434953689575,-0.9647783637046814,0.11373376101255417,0.0831875205039978,0.1074785590171814,0.9860520736292353,0.12256619520797167,-0.05087591061453413,-0.10045080264869696
1681574613975075800,1.335075927734375,-0.307564914226532,0.16676561534404755,0.19028201699256897,-0.07445456832647324,-0.24883043766021729,-0.9656810760498047,0.11885764449834824,0.07665036618709564,0.10326957702636719,0.9863674432812335,0.12108919197059058,-0.049968725479007374,-0.09959799060115625
1681574613985121000,1.34512109375,-0.3440166711807251,0.17194786667823792,0.22663523256778717,-0.07322098314762115,-0.24536705017089844,-0.9666610956192017,0.12268998473882675,0.0631161630153656,0.09459078311920166,0.9867217168706988,0.11943778337613808,-0.04903126418377703,-0.0985427060572725
1681574613995165200,1.355165283203125,-0.3831947147846222,0.16722580790519714,0.26800742745399475,-0.07205521315336227,-0.24151194095611572,-0.9677189588546753,0.12279068678617477,0.045772284269332886,0.08530318737030029,0.9871112023857092,0.11759140138980438,-0.04809128258391832,-0.09731866771717286
1681574614005210000,1.365210205078125,-0.41592469811439514,0.16148297488689423,0.3150995969772339,-0.07106466591358185,-0.23727048933506012,-0.9688408374786377,0.12392110377550125,0.03359626233577728,0.08051985502243042,0.9875361275611545,0.1155500076282776,-0.04719944594594363,-0.09587905494111525
1681574614015254000,1.37525390625,-0.44361910223960876,0.1527276337146759,0.35335588455200195,-0.07021839171648026,-0.23271837830543518,-0.9700059294700623,0.12003834545612335,0.025397300720214844,0.08064740896224976,0.9879891180023577,0.11335299912936535,-0.04634786398227105,-0.0942364957796303
1681574614025299200,1.38529931640625,-0.48459476232528687,0.14006084203720093,0.3867979943752289,-0.06954098492860794,-0.22778697311878204,-0.9712245464324951,0.11730100214481354,0.013599440455436707,0.07959246635437012,0.9884687111422601,0.1109631307331435,-0.04555113409323252,-0.09242150302952389
1681574614035344100,1.39534423828125,-0.5276861786842346,0.12223922461271286,0.4278298616409302,-0.06906869262456894,-0.2224358469247818,-0.9724977016448975,0.10768869519233704,-0.0014410167932510376,0.08800673484802246,0.9889737451572121,0.10835829562265639,-0.04482880231833763,-0.09044218846486157
1681574614045388000,1.405387939453125,-0.574661135673523,0.10605280101299286,0.46499985456466675,-0.06883550435304642,-0.21663205325603485,-0.9738234877586365,0.09682012349367142,-0.024639829993247986,0.09911340475082397,0.9895039356288496,0.10552176714144605,-0.04419731094232226,-0.08828188787193739
1681574614055433000,1.415432861328125,-0.6250255703926086,0.09000340849161148,0.48315462470054626,-0.06879271566867828,-0.2103007733821869,-0.9752134084701538,0.08705748617649078,-0.04857975244522095,0.10946017503738403,0.990055465722235,0.1024157565719052,-0.043638537178585075,-0.08600446758129014
1681574614065477000,1.42547705078125,-0.6614174246788025,0.06950213015079498,0.49685394763946533,-0.06894649565219879,-0.2035146951675415,-0.9766412377357483,0.07205928862094879,-0.06478050351142883,0.12420898675918579,0.9906157384924854,0.09907512299599612,-0.043168170320937956,-0.08367208088709371
1681574614075522300,1.435522216796875,-0.6690550446510315,0.061284612864255905,0.5080700516700745,-0.06921911984682083,-0.19650064408779144,-0.9780573844909668,0.05786658823490143,-0.0703602284193039,0.1402583122253418,0.9911720416028622,0.09561894668849019,-0.04275903154223124,-0.08128091187193093
1681574614085567000,1.44556689453125,-0.6425504684448242,0.06006861478090286,0.5176422595977783,-0.06952975690364838,-0.18956057727336884,-0.979404091835022,0.03957676142454147,-0.0757438987493515,0.14456522464752197,0.9917084121859768,0.0922028858183592,-0.04238603158843114,-0.07884465958203982
1681574614095611100,1.455611083984375,-0.5961459875106812,0.06521525979042053,0.5326920747756958,-0.06978832185268402,-0.18299081921577454,-0.9806344509124756,0.018717162311077118,-0.081276074051857,0.14454436302185059,0.9922145688590488,0.08898094477174354,-0.04201381137798115,-0.0763372054590103
1681574614105656000,1.465656005859375,-0.5283368825912476,0.07873853296041489,0.5496875643730164,-0.06997346132993698,-0.1769573837518692,-0.9817279577255249,-0.002444751560688019,-0.08323539793491364,0.1330341100692749,0.9926873082078435,0.08603823151953337,-0.0416346137438343,-0.07372795463528553
1681574614115700000,1.475699951171875,-0.46006086468696594,0.08718249201774597,0.5734213590621948,-0.0700509250164032,-0.1715838462114334,-0.9826758503913879,-0.014116548001766205,-0.08555717766284943,0.12053900957107544,0.9931252915597805,0.08343829352708891,-0.041232509332118174,-0.07099360315755987
1681574614125745200,1.4857451171875,-0.4058018922805786,0.09471577405929565,0.5915130376815796,-0.07006251066923141,-0.16682492196559906,-0.9834941029548645,-0.025274403393268585,-0.09066706895828247,0.119495689868927,0.9935311176249721,0.08115564907816969,-0.04082522387589711,-0.06813912760772212
1681574614135790000,1.4957900390625,-0.3747142553329468,0.09850575774908066,0.5983059406280518,-0.0699901133775711,-0.162454754114151,-0.9842305779457092,-0.0367756262421608,-0.09947754442691803,0.11849266290664673,0.9939125498965792,0.07907414776263531,-0.04039787511075483,-0.06521598719623682
1681574614145834000,1.505833984375,-0.3425973355770111,0.11037120223045349,0.608433723449707,-0.06983387470245361,-0.15839557349681854,-0.98490309715271,-0.04791818559169769,-0.1051388829946518,0.11989760398864746,0.9942726782579865,0.07715349116343212,-0.03994746447965424,-0.06223614582332872
1681574614155879000,1.51587890625,-0.32031792402267456,0.12640151381492615,0.6157385110855103,-0.06953665614128113,-0.15460509061813354,-0.9855262041091919,-0.05906440317630768,-0.11001275479793549,0.1189948320388794,0.9946147228321058,0.07537348021431424,-0.03944276896161205,-0.05919892499056553
1681574614165923000,1.525923095703125,-0.3104860484600067,0.12928731739521027,0.6173768639564514,-0.06911591440439224,-0.15096019208431244,-0.9861207008361816,-0.06786222755908966,-0.11341351270675659,0.10370492935180664,0.994941741811726,0.0736696435779536,-0.0388901105463443,-0.05613488617432168
1681574614175968300,1.53596826171875,-0.3030974268913269,0.12480366975069046,0.637065052986145,-0.06870710104703903,-0.1474049836397171,-0.9866869449615479,-0.07802139967679977,-0.11010226607322693,0.07811760902404785,0.9952548178163563,0.07201068697345135,-0.03835355419315818,-0.05302001002563893
1681574614186013000,1.546012939453125,-0.2854374945163727,0.13149593770503998,0.6634745597839355,-0.06830458343029022,-0.1439632922410965,-0.9872229099273682,-0.07865280658006668,-0.10164208710193634,0.051721811294555664,0.9955565370296171,0.07041136049984437,-0.0378257991383531,-0.04978500981040357
1681574614196057000,1.55605712890625,-0.2787688970565796,0.13881927728652954,0.6843026280403137,-0.0678374320268631,-0.14063377678394318,-0.9877349138259888,-0.07583931088447571,-0.09865446388721466,0.02666008472442627,0.9958475904237065,0.06887277121140152,-0.037270560669553934,-0.04642012425980059
1681574614206102000,1.56610205078125,-0.3088109493255615,0.13629619777202606,0.7099917531013489,-0.06735557317733765,-0.1371857225894928,-0.9882526397705078,-0.07735877484083176,-0.09914231300354004,0.0034809112548828125,0.9961335635554969,0.06727661880180572,-0.03670874610673691,-0.04294250257229165
1681574614216146000,1.57614599609375,-0.3520503044128418,0.12876436114311218,0.7480760216712952,-0.06695413589477539,-0.1333218365907669,-0.9888085722923279,-0.07496784627437592,-0.09740622341632843,-0.023291587829589844,0.9964226433151431,0.06547247405619966,-0.03618092633519781,-0.03932076838889027
1681574614226191000,1.586191162109375,-0.36976513266563416,0.1277313083410263,0.7701088786125183,-0.06660086661577225,-0.12912826240062714,-0.9893888235092163,-0.06532660871744156,-0.0849372148513794,-0.04212057590484619,0.9967101372946969,0.06350512378607412,-0.03567485192101873,-0.035541256049682134
1681574614236236000,1.596236083984375,-0.36488664150238037,0.1403706669807434,0.7655852437019348,-0.06617812812328339,-0.12485956400632858,-0.9899649024009705,-0.05493086576461792,-0.07602231204509735,-0.05500274896621704,0.9969838585408576,0.06150082654854479,-0.03514524830210408,-0.031709820180405454
1681574614246280000,1.606280029296875,-0.3221133351325989,0.15744765102863312,0.7334981560707092,-0.06554599851369858,-0.12083505094051361,-0.9905062317848206,-0.050436049699783325,-0.06074445694684982,-0.07983678579330444,0.9972315622297993,0.05961658536499315,-0.03453610105768117,-0.027970257978624864
1681574614256325000,1.6163251953125,-0.2386864572763443,0.18426862359046936,0.6819435954093933,-0.06460638344287872,-0.11748717725276947,-0.9909706115722656,-0.04605034738779068,-0.027333907783031464,-0.11599349975585938,0.9974411267444225,0.05806652462951467,-0.03380778966559528,-0.02442180935167588
1681574614266369000,1.626369140625,-0.14937043190002441,0.2258767932653427,0.6370914578437805,-0.0632261335849762,-0.11504214257001877,-0.9913464188575745,-0.04170854389667511,0.0077729374170303345,-0.16932857036590576,0.9976111526739907,0.056963102348285534,-0.03289354665796782,-0.021099686474284493
1681574614276414200,1.636414306640625,-0.0580776110291481,0.27234938740730286,0.6063559055328369,-0.06136121600866318,-0.11352726817131042,-0.9916382431983948,-0.04313095286488533,0.03958326578140259,-0.24015802145004272,0.9977461321094434,0.05632091115154016,-0.03176232487222023,-0.017935224323606738
1681574614286458000,1.6464580078125,0.0035926797427237034,0.3158518671989441,0.5944299697875977,-0.05899866670370102,-0.11283454298973083,-0.9918606281280518,-0.04534091800451279,0.0626789852976799,-0.30199313163757324,0.9978524565164197,0.05608623242838669,-0.030397647398152733,-0.014852720856500122
1681574614296503000,1.6565029296875,0.013620469719171524,0.35233068466186523,0.5968276262283325,-0.0562281496822834,-0.1125250831246376,-0.9920567274093628,-0.0471348762512207,0.06841199845075607,-0.3516475558280945,0.9979426858181947,0.056038335869548185,-0.028833209266620887,-0.011774357312622464
1681574614306548200,1.66654833984375,-0.04741838201880455,0.38134637475013733,0.598651111125946,-0.05312716215848923,-0.11196299642324448,-0.9922912120819092,-0.04671107977628708,0.06029681861400604,-0.3926575183868408,0.9980331267833278,0.055856127727495306,-0.0271016944230858,-0.008679565947475107
1681574614316591900,1.676591796875,-0.16441066563129425,0.4113992154598236,0.5862929821014404,-0.04970353841781616,-0.11051461845636368,-0.9926308989524841,-0.03595929220318794,0.044596731662750244,-0.41134554147720337,0.998140202856483,0.05521853521886692,-0.02520853798820974,-0.005611987118546635
1681574614326637000,1.686636962890625,-0.31504198908805847,0.4612528085708618,0.560322642326355,-0.04583729803562164,-0.10773023962974548,-0.993122935295105,-0.02096566930413246,0.01976340264081955,-0.4027358293533325,0.9982756819086095,0.05389681739640107,-0.023101351346843168,-0.0026507766108136185
1681574614336681200,1.69668115234375,-0.4798623323440552,0.5199530124664307,0.5453306436538696,-0.041353993117809296,-0.10337146371603012,-0.9937827587127686,-0.013013053685426712,-0.004981115460395813,-0.39243245124816895,0.9984443961043185,0.05177039637443088,-0.020698868727998206,0.00019949284516487887
1681574614346726100,1.70672607421875,-0.6237140893936157,0.5847421288490295,0.5405028462409973,-0.036183103919029236,-0.09744947403669357,-0.9945825338363647,-0.00416111946105957,-0.02071450650691986,-0.38885557651519775,0.9986401624845419,0.048845066074689,-0.017969454823986326,0.0029999472764636135
1681574614356771000,1.71677099609375,-0.7119793891906738,0.6539308428764343,0.5411502718925476,-0.030274830758571625,-0.09035307914018631,-0.9954495429992676,0.01530596986413002,-0.01894555240869522,-0.3922762870788574,0.9988449283897406,0.04531526502888375,-0.014891749359019464,0.00580083996642737
1681574614366815000,1.72681494140625,-0.7251673340797424,0.705420970916748,0.5289543271064758,-0.02364286407828331,-0.08274543285369873,-0.9962902069091797,0.035071708261966705,-0.0036344975233078003,-0.4071216583251953,0.9990352751785182,0.041511234405695166,-0.011476319343116256,0.00858043729791276
1681574614376860200,1.736860107421875,-0.6888263821601868,0.7324885129928589,0.5174220204353333,-0.016478702425956726,-0.07523421943187714,-0.997029721736908,0.04954451322555542,0.022072680294513702,-0.42574554681777954,0.9991931664770823,0.03773593956768562,-0.007819121398664787,0.011303254767221913
1681574614386904000,1.746904052734375,-0.6130805015563965,0.7382715940475464,0.5212602019309998,-0.008959203027188778,-0.06824585050344467,-0.9976283311843872,0.06300584971904755,0.05840401351451874,-0.4444950819015503,0.9993087326629394,0.0342026323432236,-0.00400339396218462,0.014004037671936117
1681574614396949000,1.756948974609375,-0.5235004425048828,0.716117799282074,0.5595718622207642,-0.0011390465078875422,-0.061842311173677444,-0.9980852603912354,0.08217848837375641,0.09765475988388062,-0.45255255699157715,0.9993797903675548,0.030941176737084606,-0.00004945052561657231,0.0168094243645503
1681574614406994200,1.766994140625,-0.44424208998680115,0.6474848985671997,0.6101325154304504,0.008457356132566929,-0.05464831367135048,-0.9984698295593262,0.10587675869464874,0.12802791595458984,-0.43797725439071655,0.999420996700916,0.02724541545658349,0.0047711723744418965,0.019809998613860354
1681574614417038000,1.7770380859375,-0.3913790285587311,0.5303956866264343,0.6541298031806946,0.015462015755474567,-0.04945320636034012,-0.9986567497253418,0.1353406012058258,0.138701930642128,-0.4021611213684082,0.9993982959654333,0.024549984346043524,0.008301968044757888,0.023053577411847995
1681574614427083000,1.7870830078125,-0.36311542987823486,0.38664573431015015,0.6978653073310852,0.020308954641222954,-0.04536972567439079,-0.9987637996673584,0.1696782410144806,0.13350456953048706,-0.3568575382232666,0.9993394341079574,0.022414601606935588,0.010755657424069013,0.026503922749954407
1681574614437127200,1.797127197265625,-0.3351365625858307,0.2423313707113266,0.7431193590164185,0.0235153641551733,-0.041746221482753754,-0.998851478099823,0.19933925569057465,0.13407722115516663,-0.285938560962677,0.9992574765028718,0.020514686079370983,0.012385772621195302,0.030168329799610358
1681574614447172000,1.807172119140625,-0.32095974683761597,0.11671964079141617,0.7728546261787415,0.025295764207839966,-0.038448531180620193,-0.9989403486251831,0.22069118916988373,0.14393261075019836,-0.1930915117263794,0.9991562118933489,0.01878779776211813,0.013298148655042169,0.034013855111978436
1681574614457217000,1.817217041015625,-0.31568899750709534,0.010524855926632881,0.7888649702072144,0.0258947741240263,-0.035272274166345596,-0.9990422129631042,0.23225343227386475,0.14637158811092377,-0.10386306047439575,0.9990394220034705,0.017135860339497343,0.013611018099655592,0.03796464701606757
1681574614467261200,1.82726123046875,-0.31693190336227417,-0.07700632512569427,0.7881680130958557,0.025514714419841766,-0.03213173523545265,-0.9991579055786133,0.23699750006198883,0.14185775816440582,-0.02882671356201172,0.9989092408570522,0.015519801140360551,0.013422940887400663,0.04194268844725418
1681574614477306000,1.83730615234375,-0.3112087547779083,-0.14828020334243774,0.7738168239593506,0.024364473298192024,-0.029002010822296143,-0.9992823600769043,0.2502784729003906,0.1331128031015396,0.016952037811279297,0.9987675281770486,0.013929264341997297,0.012837070677701706,0.045875578736940426
1681574614487350000,1.84735009765625,-0.293231338262558,-0.2008078694343567,0.7563613653182983,0.022633254528045654,-0.02599000185728073,-0.9994059801101685,0.26816874742507935,0.1252790093421936,0.05427658557891846,0.998614428958915,0.012418004959902766,0.011950626603887196,0.049721389962585745
1681574614497395000,1.85739501953125,-0.2720658779144287,-0.2363399863243103,0.739499032497406,0.02049398049712181,-0.02314809523522854,-0.9995219707489014,0.2863602936267853,0.11798153817653656,0.07651782035827637,0.9984492588524265,0.011010727884175873,0.010852667291083648,0.053479459931951696
1681574614507440000,1.867440185546875,-0.24960877001285553,-0.26750776171684265,0.7320594787597656,0.018064625561237335,-0.020500188693404198,-0.999626636505127,0.30304133892059326,0.11479957401752472,0.08698320388793945,0.9982710751796445,0.009717823398794654,0.009604470629706822,0.05716837785059262
1681574614517484300,1.877484375,-0.21649524569511414,-0.27749741077423096,0.7341314554214478,0.015439396724104881,-0.01809779182076454,-0.9997169971466064,0.31389105319976807,0.11099337041378021,0.09905177354812622,0.9980771134401287,0.00856310882362848,0.00825648052111118,0.060831420097549736
1681574614527529000,1.887529052734375,-0.17145401239395142,-0.275139719247818,0.7410750985145569,0.012810076586902142,-0.016061434522271156,-0.9997889399528503,0.3244549632072449,0.10254832357168198,0.09800976514816284,0.9978637465133271,0.007601138873294702,0.006910193080231912,0.06451571876097273
1681574614537573000,1.897572998046875,-0.11875301599502563,-0.2531397342681885,0.7664342522621155,0.010348442941904068,-0.01449988130480051,-0.9998413324356079,0.32873237133026123,0.09221296012401581,0.08983767032623291,0.9976261955404574,0.006879969103959622,0.0056574323190446635,0.0682824684410775
1681574614547618000,1.9076181640625,-0.05506325140595436,-0.21328075230121613,0.7983711361885071,0.00821385346353054,-0.013495269231498241,-0.9998751878738403,0.3350631296634674,0.07973374426364899,0.08758276700973511,0.9973591870707543,0.006433717313191419,0.004583514315474134,0.0721951547561199
1681574614557663000,1.9176630859375,-0.006196529604494572,-0.15337897837162018,0.8491719961166382,0.006605175789445639,-0.01306963711977005,-0.9998927712440491,0.3438739776611328,0.06154687702655792,0.08901935815811157,0.9970573808239276,0.006263908655563267,0.0037917354743276996,0.07630859397403686
1681574614567707100,1.92770703125,0.030449632555246353,-0.09316357225179672,0.904556155204773,0.005625476129353046,-0.013037492521107197,-0.9998992085456848,0.350667268037796,0.03833663463592529,0.08943778276443481,0.9967133083201369,0.006270658162331081,0.0033297056475434985,0.08069710022612264
1681574614577752000,1.937751953125,0.026220571249723434,-0.04739765822887421,0.9494211077690125,0.005204330664128065,-0.013191026635468006,-0.9998994469642639,0.36485183238983154,0.025993220508098602,0.09865432977676392,0.996327131378838,0.006349557029084949,0.0031555855787280583,0.08533355467089151
1681574614587796000,1.9477958984375,0.0008259976748377085,-0.013647148385643959,0.9895871877670288,0.005196747835725546,-0.01314636506140232,-0.9999001026153564,0.3846958577632904,0.021004710346460342,0.09870076179504395,0.9959003295730561,0.006312228078377263,0.0031806526153238,0.09018037068644393
1681574614597841200,1.957841064453125,-0.025695014744997025,-0.03595156595110893,1.1771893501281738,0.005239712540060282,-0.012772019021213055,-0.9999046921730042,0.40247514843940735,0.0286870039999485,0.08515560626983643,0.9954027037505748,0.006106671488498143,0.003218012383096304,0.09552862904550591
1681574614607886000,1.967885986328125,0.0329350084066391,0.03791200369596481,1.1259028911590576,0.005635144654661417,-0.012623783200979233,-0.999904453754425,0.4175216257572174,0.039387766271829605,0.06554776430130005,0.9948225469501101,0.005993821027046145,0.003443121369483139,0.10139149214327578
1681574614617930200,1.97793017578125,-0.025274235755205154,0.07784941792488098,1.021572232246399,0.006725522223860025,-0.012491054832935333,-0.9998993873596191,0.4215887188911438,0.041620150208473206,0.04590463638305664,0.99426753341115,0.005851262211745188,0.004009992323062128,0.10668537626253378
1681574614627975000,1.987974853515625,-0.027786927297711372,0.03132293000817299,1.1058096885681152,0.007736912928521633,-0.011963510885834694,-0.9998984932899475,0.4030449688434601,0.034180376678705215,0.02600628137588501,0.9936873108510552,0.005511165818025783,0.004513976061724068,0.11195891699122378
1681574614638019000,1.99801904296875,0.012314950115978718,0.04714290797710419,1.2146077156066895,0.00851212814450264,-0.011766152456402779,-0.9998945593833923,0.41632309556007385,0.048326276242733,0.037599027156829834,0.993014033607266,0.005341009823463507,0.004919457057263177,0.11777284532262125
1681574614648064300,2.008064208984375,0.008548707701265812,0.08927304297685623,1.228078842163086,0.009654916822910309,-0.011742813512682915,-0.9998844265937805,0.4224892854690552,0.029900839552283287,0.05531966686248779,0.9922668529851675,0.005228229700159256,0.0055178544787100586,0.1238900929727626
1681574614658109200,2.018109130859375,-0.011071217246353626,0.10002567619085312,1.2142082452774048,0.011104159988462925,-0.01163813378661871,-0.9998705983161926,0.38287779688835144,0.0057483091950416565,0.0824207067489624,0.9914850657872076,0.005048230249793071,0.006261524256961262,0.12997187422298437
1681574614668153000,2.028153076171875,-0.06119430810213089,0.09769860655069351,1.2334294319152832,0.012620726600289345,-0.011174888350069523,-0.9998579025268555,0.3589308261871338,-0.012613496743142605,0.11918169260025024,0.9906658343179153,0.004677082005089359,0.007012144096987369,0.1360523694529762
1681574614678198000,2.038197998046875,-0.1434755176305771,0.10138649493455887,1.2476762533187866,0.014299122616648674,-0.010036935098469257,-0.999847412109375,0.35520774126052856,-0.040362779051065445,0.15020751953125,0.9897948039429224,0.003950656758761704,0.007790980255237464,0.14223214807937212
1681574614688242000,2.048241943359375,-0.22468355298042297,0.0922611728310585,1.2596769332885742,0.016218209639191628,-0.007969475351274014,-0.9998367428779602,0.3413257598876953,-0.05239422991871834,0.1673324704170227,0.9888765636360534,0.00273673094052947,0.008611195886691353,0.14846352658419318
1681574614698287000,2.058287109375,-0.2565823197364807,0.1042572632431984,1.2770339250564575,0.018920011818408966,-0.005114852450788021,-0.9998078942298889,0.3118447959423065,-0.05762922391295433,0.17699295282363892,0.9879031784044726,0.0010625431406762118,0.009742298352038794,0.15476189475391028
1681574614708332000,2.06833203125,-0.23478755354881287,0.12421632558107376,1.2966322898864746,0.022064631804823875,-0.0022343776654452085,-0.9997540712356567,0.28128013014793396,-0.05848028138279915,0.18221867084503174,0.9868680478554074,-0.0006753896974811956,0.011068834533766142,0.16114698367975572
1681574614718376200,2.078376220703125,-0.16725176572799683,0.1559428572654724,1.3167521953582764,0.02529374696314335,0.000053769417718285695,-0.9996800422668457,0.2449546903371811,-0.049064937978982925,0.1776890754699707,0.9857693498732113,-0.0021467962208999943,0.01246439010534416,0.16762642920803303
1681574614728420900,2.0884208984375,-0.07302086800336838,0.21036562323570251,1.3327511548995972,0.027989806607365608,0.0011497962987050414,-0.9996075630187988,0.20710238814353943,-0.032704908400774,0.17116212844848633,0.9846131799118357,-0.0030043469953267886,0.013682115104526637,0.17418516666697492
1681574614738465000,2.098465087890625,0.02605202980339527,0.2654058039188385,1.361288070678711,0.030938347801566124,0.0011306680971756577,-0.9995206594467163,0.1702945977449417,-0.02154686488211155,0.1625608205795288,0.9833914736342521,-0.003354124521812411,0.015113644443836678,0.18083549642012023
1681574614748510200,2.10851025390625,0.10647762566804886,0.32385340332984924,1.3940390348434448,0.03431006520986557,0.00009875238174572587,-0.9994112253189087,0.13326199352741241,-0.014747127890586853,0.1563936471939087,0.9820909146157057,-0.003268156087700647,0.016843497697067493,0.1876243442772446
1681574614758555100,2.11855517578125,0.17928153276443481,0.384648859500885,1.4295467138290405,0.038176823407411575,-0.0017831875011324883,-0.999269425868988,0.10276864469051361,-0.014848831109702587,0.15660279989242554,0.9807030047772224,-0.002840619520904253,0.01890044310000284,0.19456675245732424
1681574614768599000,2.12859912109375,0.22013255953788757,0.4330808222293854,1.4572385549545288,0.042525921016931534,-0.004347024019807577,-0.9990859031677246,0.07812535762786865,-0.01985335350036621,0.1606001853942871,0.9792244419824087,-0.00216028922429711,0.021269220524259624,0.20164914433273462
1681574614778644000,2.13864404296875,0.21701425313949585,0.47064658999443054,1.484060287475586,0.04721980541944504,-0.007187310606241226,-0.9988586902618408,0.05896614491939545,-0.021834846585989,0.15394902229309082,0.9776549411974377,-0.0014184792355303412,0.023846498769416975,0.20885408146155635
1681574614788689200,2.148689208984375,0.19127880036830902,0.49476203322410583,1.512979507446289,0.05213708057999611,-0.009972686879336834,-0.9985901117324829,0.05099710822105408,-0.016760651022195816,0.14891976118087769,0.9759928235435504,-0.0007693560636352155,0.026539358151846243,0.21617814572565805
1681574614798733000,2.158733154296875,0.14754649996757507,0.5079574584960938,1.542343258857727,0.05718139931559563,-0.012486619874835014,-0.998285710811615,0.04885195568203926,-0.01854969561100006,0.15586328506469727,0.9742330155334524,-0.00031171739922187326,0.029275325066155444,0.22363527389007953
1681574614808778000,2.168778076171875,0.09888415783643723,0.5101026296615601,1.5567845106124878,0.06223461404442787,-0.014635173603892326,-0.997954249382019,0.04605704918503761,-0.024686666205525398,0.16493117809295654,0.9723817160844044,-0.00007874582837762387,0.03198239975671092,0.23119458598135903
1681574614818822100,2.178822265625,0.04434981197118759,0.5033441185951233,1.5617319345474243,0.06722214818000793,-0.016359657049179077,-0.9976038932800293,0.04515886306762695,-0.028302757069468498,0.16390949487686157,0.9704533977958847,-0.00008804796720234298,0.03461273632345563,0.2387928786653119
1681574614828867000,2.1888671875,-0.009945347905158997,0.48795023560523987,1.5639591217041016,0.07206538319587708,-0.017603570595383644,-0.9972445368766785,0.04567146301269531,-0.03079724870622158,0.16507601737976074,0.968457026237289,-0.00035481296981520143,0.03711601564882797,0.24640053178293495
1681574614838911000,2.198910888671875,-0.05044761300086975,0.4608844220638275,1.5516899824142456,0.07666178047657013,-0.018461337313055992,-0.9968862533569336,0.046354614198207855,-0.030931303277611732,0.1685018539428711,0.9664006936641292,-0.0008165513955716994,0.039448947769009146,0.2539937160000161
1681574614848956200,2.2089560546875,-0.09063657373189926,0.42550164461135864,1.5330904722213745,0.08091889321804047,-0.01895875111222267,-0.996540367603302,0.04278414696455002,-0.026024101302027702,0.170917809009552,0.9643154254725262,-0.0014402616019473114,0.041566133516816164,0.26146867704210325
1681574614859001000,2.2190009765625,-0.11942888796329498,0.39838844537734985,1.5451710224151611,0.08486075699329376,-0.01917673461139202,-0.9962082505226135,0.034539297223091125,-0.020572353154420853,0.1725388765335083,0.9621760162784544,-0.002189105483867785,0.04348650112969773,0.26892648545415515
1681574614869045000,2.229044921875,-0.12865568697452545,0.379507452249527,1.552659034729004,0.08853666484355927,-0.019282637163996696,-0.9958862662315369,0.026087403297424316,-0.008991841226816177,0.18305057287216187,0.9599615344088794,-0.0029882279999797153,0.045254184347354696,0.2764363800249971
1681574614879090200,2.239090087890625,-0.12762446701526642,0.357557475566864,1.5279537439346313,0.09199753403663635,-0.01941024139523506,-0.9955700635910034,0.008206970989704132,0.004639789462089539,0.19083678722381592,0.9577045791927496,-0.003771779440366159,0.04691221179149604,0.2838785631618767
1681574614889135000,2.249135009765625,-0.10677537322044373,0.35500481724739075,1.521498441696167,0.09533859044313431,-0.019671862944960594,-0.9952505230903625,-0.013704031705856323,0.010745525360107422,0.19443875551223755,0.9554152244089256,-0.004495342952039572,0.048523594155889645,0.29121606533162314
1681574614899179000,2.259178955078125,-0.07885425537824631,0.3537405729293823,1.5071946382522583,0.09865614026784897,-0.020245376974344254,-0.9949156045913696,-0.035301610827445984,0.011776803061366081,0.19526350498199463,0.9530803724933311,-0.005089081182517353,0.05016265059260803,0.29848885094492644
1681574614909224000,2.269223876953125,-0.061520010232925415,0.3507855534553528,1.4702038764953613,0.10194052010774612,-0.021063245832920074,-0.9945674538612366,-0.05462297797203064,0.014975044876337051,0.19074976444244385,0.9507300759822868,-0.005579327679683533,0.05181825448723432,0.30560770696737033
1681574614919268000,2.27926806640625,-0.04318300634622574,0.35305705666542053,1.443564534187317,0.105222687125206,-0.02207128331065178,-0.9942037463188171,-0.07316393405199051,0.019980883225798607,0.18058985471725464,0.9483736132562682,-0.005995292031467127,0.05349948457463034,0.3125528920394836
1681574614929313300,2.289313232421875,-0.030173728242516518,0.35759347677230835,1.4210759401321411,0.10850609093904495,-0.0232558436691761,-0.9938237071037292,-0.08633503317832947,0.02375943958759308,0.17125296592712402,0.9460015353222044,-0.006345999111073929,0.05520748480952045,0.31936334816850537
1681574614939355400,2.29935546875,-0.0043898411095142365,0.36525866389274597,1.3998820781707764,0.11183404177427292,-0.024655800312757492,-0.9934209585189819,-0.09797903150320053,0.02685312181711197,0.1579107642173767,0.9436094447314156,-0.0066210659014974025,0.05697080747939867,0.32605472205186986
1681574614949399600,2.309399658203125,0.00757654057815671,0.35950225591659546,1.3648604154586792,0.1151585802435875,-0.026253538206219673,-0.9930001497268677,-0.10553023964166641,0.027352221310138702,0.14303982257843018,0.9412138397633343,-0.006819098085580675,0.05876594509204543,0.33259055465542964
1681574614959444500,2.319444580078125,-0.005321681499481201,0.35209226608276367,1.3162353038787842,0.11840168386697769,-0.027870602905750275,-0.9925745725631714,-0.11124526709318161,0.018669603392481804,0.1345423460006714,0.9388419554472227,-0.007006989672686484,0.060527835058672146,0.3389144448123472
1681574614969488400,2.32948828125,-0.0471266508102417,0.3511497676372528,1.2668496370315552,0.12159186601638794,-0.029201462864875793,-0.9921505451202393,-0.11805178970098495,0.009319311007857323,0.12561917304992676,0.9365119782078476,-0.007329214017775132,0.062217464313529584,0.34499362469871464
1681574614979533300,2.339533203125,-0.09790841490030289,0.34381869435310364,1.2268660068511963,0.12474827468395233,-0.030023688450455666,-0.9917340874671936,-0.12311553955078125,0.004923027008771896,0.1206403374671936,0.9342211046186509,-0.007892404685220306,0.06380187823397701,0.35085323042522276
1681574614989578500,2.34957861328125,-0.1374656856060028,0.32447054982185364,1.1855316162109375,0.12775491178035736,-0.03036024235188961,-0.9913409948348999,-0.13243931531906128,0.0048475973308086395,0.1224750280380249,0.9319628214097331,-0.0086646227369769,0.06522602861894929,0.35653293566174316
1681574614999622700,2.35962255859375,-0.15518103539943695,0.31426000595092773,1.1268150806427002,0.13062861561775208,-0.030410628765821457,-0.9909648895263672,-0.1426830142736435,-0.0007935464382171631,0.11965751647949219,0.9297588618650883,-0.00954845285761364,0.06653116605988237,0.3619818334814781
1681574615009667300,2.369667236328125,-0.16475509107112885,0.30473145842552185,1.0538138151168823,0.13343597948551178,-0.030271120369434357,-0.9905950427055359,-0.1485268622636795,-0.0036643799394369125,0.10138911008834839,0.9276491965045716,-0.010501258423854961,0.06776585922032814,0.3671029045755759
1681574615019711500,2.37971142578125,-0.17493084073066711,0.28334182500839233,0.9988446235656738,0.1360897570848465,-0.03000359609723091,-0.990242063999176,-0.15519371628761292,0.004521466791629791,0.0857163667678833,0.925633956041735,-0.011476918749231914,0.06890024378816832,0.371917757287615
1681574615029756700,2.389756591796875,-0.2119021713733673,0.2642331123352051,0.9553388953208923,0.13857418298721313,-0.029440222308039665,-0.9899143576622009,-0.16222524642944336,0.007788049057126045,0.07020610570907593,0.9236867876844314,-0.012553820959880033,0.06989430845477104,0.37651005687544226
1681574615039801600,2.399801513671875,-0.2554047107696533,0.232784703373909,0.8927298784255981,0.14083610475063324,-0.028416773304343224,-0.9896250367164612,-0.16645556688308716,-0.0002849642187356949,0.05409342050552368,0.921820425956311,-0.013793884022447606,0.07069100885364532,0.38086697039972595
1681574615049845500,2.409845458984375,-0.2886697053909302,0.19799956679344177,0.8120118379592896,0.14278604090213776,-0.02692420408129692,-0.9893872737884521,-0.17533297836780548,-0.010002018883824348,0.050346195697784424,0.9200836807274678,-0.015172643015756082,0.0712470357875064,0.38488904397205503
1681574615059890400,2.419890380859375,-0.30671578645706177,0.16909204423427582,0.7349229454994202,0.14444205164909363,-0.025089409202337265,-0.9891951084136963,-0.18626634776592255,-0.019923975691199303,0.045103371143341064,0.9184910104018905,-0.016629176296323454,0.07159541950843966,0.3885507383005881
1681574615069935600,2.429935546875,-0.3068990111351013,0.1456008404493332,0.6677665114402771,0.1458650529384613,-0.023060018196702003,-0.9890357255935669,-0.19576124846935272,-0.020091794431209564,0.034308552742004395,0.9170320997556183,-0.018106674457158675,0.07179343202348697,0.3918800122294313
1681574615079979500,2.4399794921875,-0.2973636984825134,0.11867907643318176,0.5934699177742004,0.14706476032733917,-0.020998165011405945,-0.9889039397239685,-0.2034306824207306,-0.016004355624318123,0.026883065700531006,0.9157081470608085,-0.01953076300162172,0.07187886461256097,0.3948804853610999
1681574615090024400,2.4500244140625,-0.2877667248249054,0.08826445043087006,0.5239132046699524,0.148014098405838,-0.0189328882843256,-0.9888039827346802,-0.21300122141838074,-0.016909964382648468,0.014408290386199951,0.9145304181038703,-0.02088011273388974,0.07184716734021415,0.39753749090420215
1681574615100068600,2.460068603515625,-0.2829348146915436,0.056856993585824966,0.45974892377853394,0.14869414269924164,-0.016858303919434547,-0.988739550113678,-0.21915918588638306,-0.02044939436018467,-0.0043024420738220215,0.9134871509510303,-0.02215537295568504,0.07168944509065077,0.39988871719826846
1681574615110113300,2.47011328125,-0.28795886039733887,0.018749555572867393,0.40326592326164246,0.14905475080013275,-0.014684166759252548,-0.9887198805809021,-0.21733780205249786,-0.02564476989209652,-0.018863677978515625,0.9125696531842652,-0.02338921335872529,0.07136519768631,0.40196581460787206
1681574615120158500,2.480158447265625,-0.2872660756111145,-0.02647840790450573,0.34858325123786926,0.14899742603302002,-0.012416054494678974,-0.9887596368789673,-0.21494585275650024,-0.03146818280220032,-0.035257697105407715,0.9117763399520364,-0.024559280069278582,0.07083097014325318,0.40378661507048746
1681574615130202600,2.49020263671875,-0.28520452976226807,-0.08172621577978134,0.30428555607795715,0.14847609400749207,-0.01007575262337923,-0.9888646602630615,-0.20685619115829468,-0.04065968096256256,-0.0544244647026062,0.9110930414550032,-0.02564825239070616,0.07007020537772576,0.40539085426205645
1681574615140247600,2.50024755859375,-0.29662397503852844,-0.14982253313064575,0.2566751539707184,0.14735206961631775,-0.007625109050422907,-0.9890547394752502,-0.19305208325386047,-0.04883236810564995,-0.06401532888412476,0.910521021871429,-0.02664514356176082,0.06901217124015585,0.4067908232141713
1681574615150291500,2.51029150390625,-0.30139902234077454,-0.21003606915473938,0.2080564945936203,0.14558802545070648,-0.0050018830224871635,-0.9893326759338379,-0.1741829514503479,-0.05169973522424698,-0.06984090805053711,0.9100645623698624,-0.027569626496126178,0.0676283026297041,0.4079812803829874
1681574615160336400,2.52033642578125,-0.29903045296669006,-0.25822561979293823,0.16324613988399506,0.1432838886976242,-0.0022941925562918186,-0.9896789789199829,-0.15742872655391693,-0.050958942621946335,-0.06824338436126709,0.9097173033625247,-0.028402210717431726,0.06598355795587023,0.4089667139332138
1681574615170381600,2.530381591796875,-0.2906705141067505,-0.2984478771686554,0.12073676288127899,0.14056867361068726,0.0004230388440191746,-0.9900708198547363,-0.15147867798805237,-0.05805544555187225,-0.0680040717124939,0.909470911467692,-0.029136274226025622,0.06415339919201123,0.40975341578421653
1681574615180425500,2.540425537109375,-0.2724229693412781,-0.34224408864974976,0.08549754321575165,0.1374252736568451,0.003100232221186161,-0.9905073046684265,-0.1509750336408615,-0.0658595934510231,-0.08357411623001099,0.9093187372180592,-0.02974746413988203,0.06214053501358834,0.4103571116244406
1681574615190470400,2.550470458984375,-0.2016015201807022,-0.38408637046813965,0.07076866924762726,0.13384002447128296,0.005368679761886597,-0.9909884333610535,-0.14966332912445068,-0.06622069329023361,-0.11826449632644653,0.9092327901402941,-0.03006962130694874,0.06001345275045703,0.41084031571992197
1681574615200515600,2.560515625,-0.08074754476547241,-0.4180484712123871,0.05562886595726013,0.12990406155586243,0.006702938117086887,-0.991503894329071,-0.14478135108947754,-0.05531740188598633,-0.17013239860534668,0.909194784562652,-0.029884832554079203,0.05792185739592072,0.411237930641165
1681574615210559500,2.5705595703125,0.0581032894551754,-0.4444334805011749,0.03515554964542389,0.12563925981521606,0.006739212200045586,-0.9920530915260315,-0.1311781406402588,-0.04261258617043495,-0.2335023283958435,0.9092218962316275,-0.029030098230607662,0.05595267352963424,0.41151197006635104
1681574615220604400,2.5806044921875,0.1844804733991623,-0.4618145227432251,0.03360159322619438,0.1211744025349617,0.005434744991362095,-0.9926163554191589,-0.11385013908147812,-0.022753432393074036,-0.30349570512771606,0.9092974661149463,-0.027515456325728455,0.05417307662668533,0.4116872014192059
1681574615230648600,2.590648681640625,0.24402263760566711,-0.45333313941955566,0.0826098769903183,0.11664126068353653,0.0031671037431806326,-0.9931690692901611,-0.09222714602947235,-0.003029735293239355,-0.37330126762390137,0.9093360205365562,-0.025551701357726095,0.05256025053777692,0.4119373551528574
1681574615240693500,2.600693603515625,0.24166779220104218,-0.437775194644928,0.16830535233020782,0.1122545376420021,0.0005452344194054604,-0.9936793446540833,-0.06640182435512543,0.008335419930517673,-0.41984909772872925,0.9092224470358764,-0.023474406329399084,0.05108116503351641,0.4124972469474234
1681574615250738400,2.610738525390625,0.19208931922912598,-0.4223299026489258,0.22223728895187378,0.10803374648094177,-0.0019119428470730782,-0.994145393371582,-0.030305422842502594,0.0023087107110768557,-0.40917491912841797,0.9089432468851841,-0.02152434465090727,0.049638783969226725,0.41339407457557314
1681574615260782600,2.620782470703125,0.09130659699440002,-0.42094817757606506,0.2397499680519104,0.10390874743461609,-0.003615319961681962,-0.9945802688598633,0.00728210061788559,-0.018738767132163048,-0.3804349899291992,0.9085764085518278,-0.01994478103125864,0.04808402853125805,0.4144623093468522
1681574615270827500,2.63082763671875,-0.009365690872073174,-0.4509657323360443,0.24119020998477936,0.09964948147535324,-0.004272689111530781,-0.995013415813446,0.04860495775938034,-0.03192111849784851,-0.3701446056365967,0.9081795488386086,-0.018813481524560687,0.04625297934087268,0.4155919038628041
1681574615280872700,2.640872802734375,-0.10633012652397156,-0.5280049443244934,0.22825390100479126,0.09485828876495361,-0.003957506734877825,-0.9954829216003418,0.09821122139692307,-0.03350277990102768,-0.3733372688293457,0.907791894592413,-0.018009032450888647,0.04397971360772364,0.4167195614128725
1681574615290916400,2.650916259765625,-0.18857041001319885,-0.6431451439857483,0.21538178622722626,0.08910863101482391,-0.0026988813187927008,-0.9960182309150696,0.15167511999607086,-0.03471563011407852,-0.39869606494903564,0.9074393156147966,-0.01742527804347911,0.04107591978737463,0.4178073936596363
1681574615300961500,2.66096142578125,-0.22651509940624237,-0.7866508364677429,0.20239700376987457,0.08208725601434708,-0.0008236161665990949,-0.9966248273849487,0.1997426301240921,-0.030762039124965668,-0.41516411304473877,0.9071193862891487,-0.01684656076419729,0.03746719006102011,0.4188638089819514
1681574615311005700,2.671005615234375,-0.21301579475402832,-0.9369290471076965,0.19383014738559723,0.07361830770969391,0.0011707842350006104,-0.997285783290863,0.24077382683753967,-0.019588103517889977,-0.39983946084976196,0.9068294325640779,-0.016008181930798972,0.03317885552712,0.4198848398209442
1681574615321050400,2.68105029296875,-0.1927347630262375,-1.0831472873687744,0.15716561675071716,0.06373947858810425,0.003001769073307514,-0.9979620575904846,0.274593710899353,-0.007487815339118242,-0.3579034209251404,0.9065901281352757,-0.014786644472676788,0.028290038146561593,0.42080329898746516
1681574615331095600,2.691095458984375,-0.1935020089149475,-1.2162116765975952,0.10761909186840057,0.05262328311800957,0.004718487616628408,-0.9986032843589783,0.2904096245765686,0.0019954172894358635,-0.28466087579727173,0.9064368157374305,-0.013238473481338133,0.02287135779929754,0.4215139311127975
1681574615341139500,2.701139404296875,-0.17395953834056854,-1.323678970336914,0.06114400550723076,0.04079455882310867,0.006194667890667915,-0.9991483688354492,0.2851027250289917,0.01219221018254757,-0.18337726593017578,0.9063638352277407,-0.011419699257266935,0.017187619331672347,0.42199377547886907
1681574615351184600,2.7111845703125,-0.13082699477672577,-1.3854358196258545,0.029058240354061127,0.028351159766316414,0.007305856794118881,-0.9995713233947754,0.262649267911911,0.009631436318159103,-0.07649374008178711,0.9063467139478446,-0.009298892087474192,0.011307851423427476,0.42228109869610053
1681574615361228500,2.721228515625,-0.06884092092514038,-1.413380742073059,-0.0038416520692408085,0.015330945141613483,0.007941215299069881,-0.9998509287834167,0.23106804490089417,-0.0036992356181144714,-0.0018122196197509766,0.9063698312161765,-0.006837220477652567,0.005270974233286653,0.4223968573140411
1681574615371273500,2.7312734375,0.009547089226543903,-1.439462423324585,-0.0229189395904541,0.0019271831260994077,0.007931801490485668,-0.9999666810035706,0.20691992342472076,-0.010388429276645184,0.03959375619888306,0.9064118002079599,-0.004001803516854409,-0.0008017011708802591,0.42237530118162214
1681574615381318700,2.741318603515625,0.09280838817358017,-1.448786735534668,-0.019106891006231308,-0.011753679253160954,0.0071243951097130775,-0.999905526638031,0.19769734144210815,-0.009428435005247593,0.06774616241455078,0.9064340452820607,-0.0007471930181704915,-0.006831575799378568,0.42229148894842167
1681574615391362300,2.7513623046875,0.18379154801368713,-1.4355415105819702,0.0005224701017141342,-0.0254821814596653,0.005483463406562805,-0.9996602535247803,0.19583135843276978,-0.006597317289561033,0.07616782188415527,0.9063871287313828,0.0028953091725644918,-0.01270820722683618,0.4222470249077127
1681574615401407500,2.761407470703125,0.2774007022380829,-1.403646469116211,0.02762759104371071,-0.03905024379491806,0.002950971946120262,-0.9992328882217407,0.19359132647514343,-0.004080084152519703,0.06640207767486572,0.9062501020048825,0.00691071540028795,-0.018324752801777533,0.42228795986562506
1681574615411452400,2.771452392578125,0.36592525243759155,-1.346484661102295,0.0599016398191452,-0.05226675793528557,-0.00046883674804121256,-0.9986330270767212,0.19521115720272064,-0.0003093233972322196,0.05663174390792847,0.9060040737147573,0.011260406904747056,-0.023594043276275647,0.42246070492434307
1681574615421496300,2.781496337890625,0.44403713941574097,-1.2570056915283203,0.10446591675281525,-0.06490938365459442,-0.004609168507158756,-0.9978805184364319,0.1997818946838379,0.011323073878884315,0.043717920780181885,0.905641273089311,0.015825522478679428,-0.028448096023290095,0.42279321565833045
1681574615431541500,2.79154150390625,0.5184328556060791,-1.161661148071289,0.18521268665790558,-0.0767340436577797,-0.00944257341325283,-0.997006893157959,0.20321421325206757,0.019009873270988464,0.034177303314208984,0.9051158343851221,0.020548714352776914,-0.03277665260337943,0.4234013876781615
1681574615441585700,2.801585693359375,0.5348392128944397,-1.0650875568389893,0.27365413308143616,-0.08764089643955231,-0.014665454626083374,-0.9960441589355469,0.21465513110160828,0.02273739129304886,0.033275604248046875,0.9043751619191888,0.025279567466729224,-0.03659038505149882,0.42441437769534984
1681574615451630600,2.811630615234375,0.4718852639198303,-1.0056791305541992,0.34174689650535583,-0.09778089076280594,-0.01953865960240364,-0.9950161576271057,0.2393367439508438,0.019386110827326775,0.031194746494293213,0.9034540049763369,0.02971620667852055,-0.040110751567307146,0.4257685462612032
1681574615461675500,2.821675537109375,0.34877023100852966,-0.985434353351593,0.4141659736633301,-0.10761920362710953,-0.0233076773583889,-0.9939189553260803,0.2737569808959961,0.008949194103479385,0.03766590356826782,0.9023747950199779,0.033617097641065484,-0.04370836470050741,0.42740979545188745
1681574615471719400,2.831719482421875,0.22726377844810486,-0.9599249958992004,0.48790544271469116,-0.11727260053157806,-0.02569161355495453,-0.9927673935890198,0.31319552659988403,-0.015903806313872337,0.061065733432769775,0.9011351413206496,0.03688452915392605,-0.047495684178296395,0.42934718997507
1681574615481764600,2.8417646484375,0.13410279154777527,-0.9269520044326782,0.5546993613243103,-0.1266726702451706,-0.026865016669034958,-0.9915807247161865,0.34136390686035156,-0.025777768343687057,0.08438467979431152,0.8997425782302598,0.03958657230825238,-0.05140572337672256,0.4315709472532065
1681574615491809500,2.8518095703125,0.07053153961896896,-0.892444908618927,0.6144870519638062,-0.13576479256153107,-0.027124911546707153,-0.9903697371482849,0.3522565960884094,-0.017568040639162064,0.10006517171859741,0.898210642669993,0.041848034712751316,-0.055352401117477544,0.4340533424009556
1681574615501853400,2.861853515625,0.03738153353333473,-0.8446443676948547,0.673149049282074,-0.14446420967578888,-0.026778461411595345,-0.9891476035118103,0.35985735058784485,-0.006348332390189171,0.1140407919883728,0.8965458169567417,0.043791431798591865,-0.059232623695976774,0.4367828485668877
1681574615511898600,2.871898681640625,0.02028510719537735,-0.7887712717056274,0.7370632886886597,-0.15267062187194824,-0.026020865887403488,-0.9879345297813416,0.359274685382843,-0.001170257106423378,0.12668269872665405,0.8947419199650632,0.04548592596617082,-0.06295851929353954,0.43977736960328445
1681574615521942300,2.8819423828125,0.019461961463093758,-0.7245903611183167,0.8154556155204773,-0.16029556095600128,-0.025000881403684616,-0.9867523908615112,0.35083210468292236,0.0037912018597126007,0.12914741039276123,0.8927753768039123,0.046983936935489225,-0.06645534001179007,0.44308946519440334
1681574615531987500,2.891987548828125,0.04012329876422882,-0.6521475911140442,0.8861987590789795,-0.16724829375743866,-0.02392692118883133,-0.9856244325637817,0.34188520908355713,0.010682327672839165,0.12942326068878174,0.8906369171652293,0.04836109634485304,-0.06963469184305884,0.446741651502891
1681574615542032400,2.902032470703125,0.048369549214839935,-0.5770834684371948,0.9537250399589539,-0.17346706986427307,-0.0227912999689579,-0.9845759272575378,0.33568334579467773,0.019709061831235886,0.12797802686691284,0.8883323206403623,0.049598659872393036,-0.07247079502886976,0.4507256029098099
1681574615552076500,2.91207666015625,0.044509030878543854,-0.5065882802009583,1.022667407989502,-0.1789931207895279,-0.021532712504267693,-0.9836146831512451,0.33315277099609375,0.022280428558588028,0.12787127494812012,0.8858729801354768,0.05067483507298758,-0.07499820010077513,0.455012401026763
1681574615562121500,2.92212158203125,0.03011411428451538,-0.4359918236732483,1.0804773569107056,-0.18382085859775543,-0.019999802112579346,-0.9827562570571899,0.3250410556793213,0.01877913437783718,0.13470327854156494,0.8832677112809287,0.051517206698351505,-0.07725179975286518,0.45958261272503836
1681574615572166400,2.93216650390625,0.016036108136177063,-0.3645719587802887,1.1225332021713257,-0.18793225288391113,-0.018181422725319862,-0.9820137023925781,0.3149006962776184,0.015160216018557549,0.14197158813476562,0.8805497737372052,0.052108433442102024,-0.07923296120901693,0.4643693417980322
1681574615582210600,2.94221044921875,0.0008942128624767065,-0.29072675108909607,1.1498277187347412,-0.19130106270313263,-0.016109690070152283,-0.9813991785049438,0.3051469624042511,0.01482798345386982,0.14787256717681885,0.8777546107922138,0.05244715061957883,-0.08093021052048331,0.4693041502317866
1681574615592255500,2.95225537109375,-0.027730241417884827,-0.22292374074459076,1.17598557472229,-0.19395606219768524,-0.01374807022511959,-0.9809138774871826,0.2947862148284912,0.015014580450952053,0.15658831596374512,0.8749013125239664,0.05251646245389484,-0.0823716144853735,0.47434649999257095
1681574615602299400,2.96229931640625,-0.07362799346446991,-0.15419010818004608,1.201843023300171,-0.19592182338237762,-0.010930083692073822,-0.9805585741996765,0.2797231674194336,0.014027649536728859,0.1670515537261963,0.8719942609230452,0.05224406558966826,-0.08361372954074589,0.4794844542323121
1681574615612344600,2.972344482421875,-0.12610159814357758,-0.09233634173870087,1.229811191558838,-0.19721120595932007,-0.007557775359600782,-0.9803318977355957,0.26225948333740234,0.010823186486959457,0.1762547492980957,0.8690279069846867,0.0515876844016787,-0.08469217990285695,0.4847230257242517
1681574615622389500,2.982389404296875,-0.17610004544258118,-0.02560068853199482,1.2587062120437622,-0.1978226751089096,-0.0036127541679888964,-0.9802311658859253,0.24655933678150177,0.008358265273272991,0.1853855848312378,0.8659955589082869,0.05053719054949536,-0.08561781575245418,0.49006862758247577
1681574615632433400,2.992433349609375,-0.22081957757472992,0.043985843658447266,1.278665542602539,-0.19770973920822144,0.000833748490549624,-0.9802602529525757,0.2361619621515274,0.006292133592069149,0.19176232814788818,0.8629104939035561,0.04910707762485065,-0.08636184269139573,0.495495296415711
1681574615642478600,3.002478515625,-0.25517624616622925,0.10202006250619888,1.2887799739837646,-0.19692009687423706,0.005716049112379551,-0.9804028868675232,0.22589661180973053,0.005239786580204964,0.1993054747581482,0.8597885910810087,0.04733142499144922,-0.0869384701249895,0.5009640000540857
1681574615652523500,3.0125234375,-0.3062535524368286,0.15957708656787872,1.293587327003479,-0.19550800323486328,0.010998825542628765,-0.9806404113769531,0.21860988438129425,0.0008725374937057495,0.20161819458007812,0.8566453706912137,0.04523308484296011,-0.08737136224675182,0.5064373973489168
1681574615662567400,3.0225673828125,-0.34682387113571167,0.22171758115291595,1.30120849609375,-0.1934165507555008,0.016749106347560883,-0.9809737801551819,0.20977407693862915,-0.004450501874089241,0.19523769617080688,0.8534885183694471,0.04276445277607336,-0.08766028035031727,0.5119025716581765
1681574615672612400,3.0326123046875,-0.3737527132034302,0.2836875021457672,1.3060349225997925,-0.19063720107078552,0.022829577326774597,-0.9813950657844543,0.20002144575119019,-0.008745692670345306,0.19359904527664185,0.8503083989973386,0.03998094937628973,-0.08777239287169922,0.5173713955694216
1681574615682656500,3.042656494140625,-0.3706657886505127,0.3487981855869293,1.3042407035827637,-0.18716508150100708,0.028984012082219124,-0.9819008111953735,0.18730250000953674,-0.011436384171247482,0.19343340396881104,0.8471090367795355,0.03698664573834118,-0.0876447055309263,0.5228350908440602
1681574615692701700,3.05270166015625,-0.36121103167533875,0.41961216926574707,1.3053299188613892,-0.18294019997119904,0.035013772547245026,-0.9825003147125244,0.1703975647687912,-0.008127767592668533,0.19049286842346191,0.8439025127589866,0.0338437518662181,-0.08720339305367068,0.5282789167620161
1681574615702746400,3.062746337890625,-0.35481056571006775,0.48389875888824463,1.3150856494903564,-0.17796292901039124,0.04091126099228859,-0.9831863641738892,0.1540982574224472,-0.005053088068962097,0.18142855167388916,0.8406629944170341,0.030553579592133926,-0.0864481751201971,0.5337405306259521
1681574615712790500,3.07279052734375,-0.3368464708328247,0.5457311868667603,1.3279244899749756,-0.17227987945079803,0.04663041979074478,-0.9839437007904053,0.1337057501077652,-0.006087798625230789,0.17318320274353027,0.8373752903074646,0.027144014530313357,-0.0853893575722866,0.5392350703056401
1681574615722835500,3.08283544921875,-0.33204126358032227,0.5932051539421082,1.3344210386276245,-0.1659517139196396,0.05217747017741203,-0.9847525358200073,0.10908229649066925,-0.02117159590125084,0.16639316082000732,0.8340373493622586,0.02362262394217354,-0.08405776767122151,0.5447549587577624
1681574615732880600,3.092880615234375,-0.33933964371681213,0.6291705965995789,1.3469511270523071,-0.1591246873140335,0.05768107622861862,-0.9855720400810242,0.08873596787452698,-0.03549478203058243,0.15596693754196167,0.8306468716761591,0.01996958855056719,-0.08255422589536274,0.5502833309137442
1681574615742924500,3.102924560546875,-0.34242480993270874,0.6608390808105469,1.3624696731567383,-0.15188106894493103,0.06316383928060532,-0.9863784909248352,0.0740918517112732,-0.043327413499355316,0.1464889645576477,0.8271799573854087,0.016197480886748827,-0.08092224687080235,0.5558440790556022
1681574615752969500,3.112969482421875,-0.3491019010543823,0.6900981664657593,1.3667166233062744,-0.14424577355384827,0.0686197355389595,-0.987159788608551,0.06674645841121674,-0.056824684143066406,0.14328771829605103,0.8236479358183489,0.012310466107766942,-0.07917416520577167,0.5614123971308859
1681574615763013600,3.123013671875,-0.35286280512809753,0.7182427048683167,1.372351884841919,-0.1362459510564804,0.07402212917804718,-0.987905740737915,0.05198699235916138,-0.06779653578996658,0.13822007179260254,0.8200656569265533,0.008321908710188144,-0.07731670260226084,0.566961275133088
1681574615773058300,3.133058349609375,-0.3554745614528656,0.7388238906860352,1.3802952766418457,-0.12791621685028076,0.07934414595365524,-0.9886060357093811,0.036058396100997925,-0.06956326216459274,0.13232862949371338,0.8164221925213245,0.004251156338888098,-0.07535845856763455,0.5725012377671395
1681574615783103500,3.143103515625,-0.32685890793800354,0.7457062602043152,1.3957000970840454,-0.1193787157535553,0.08446286618709564,-0.989249587059021,0.021753057837486267,-0.07086727768182755,0.1210092306137085,0.8126942381704825,0.00018373758260788127,-0.07331557458034997,0.5780593919714927
1681574615793147600,3.153147705078125,-0.2769957482814789,0.7605358362197876,1.40121328830719,-0.11065135896205902,0.08906890451908112,-0.9898601174354553,0.011896558105945587,-0.06578399240970612,0.10419422388076782,0.8088849678017574,-0.0037520227213119818,-0.07110468026203273,0.5836394603995215
1681574615803192300,3.1631923828125,-0.2209087610244751,0.7691270112991333,1.405440092086792,-0.10172975063323975,0.09303176403045654,-0.9904524683952332,-0.0007634460926055908,-0.06306350231170654,0.07674098014831543,0.8050159260209274,-0.0075114805186908985,-0.06868281666109548,0.5892160985052972
1681574615813237500,3.173237548828125,-0.15651965141296387,0.7635447978973389,1.4115439653396606,-0.09273727238178253,0.09628415107727051,-0.9910243153572083,-0.017202228307724,-0.05969357490539551,0.04246169328689575,0.801075381906085,-0.011034758042169475,-0.06607635403040728,0.5948028166958422
1681574615823281400,3.183281494140625,-0.09953773766756058,0.7564353346824646,1.4116179943084717,-0.08376729488372803,0.09878561645746231,-0.9915767312049866,-0.02675202488899231,-0.05589316040277481,0.014159798622131348,0.7970749854868878,-0.014283697131162943,-0.06330563535403466,0.6003830529354053
1681574615833326600,3.19332666015625,-0.05441899597644806,0.7477108240127563,1.4042301177978516,-0.07482356578111649,0.10065536946058273,-0.9921038150787354,-0.03320857882499695,-0.05062180757522583,-0.01747870445251465,0.7930401523806822,-0.0173116733852931,-0.060402079754105956,0.6059200897891376
1681574615843371300,3.203371337890625,0.00124662509188056,0.730430006980896,1.397158145904541,-0.06601061671972275,0.10191290080547333,-0.9926007986068726,-0.03738286346197128,-0.04159490764141083,-0.04971182346343994,0.7889700532291741,-0.02009757330906602,-0.057408058205098526,0.6114135919795267
1681574615853415400,3.21341552734375,0.05716342106461525,0.7154784798622131,1.3839092254638672,-0.057348452508449554,0.10245794802904129,-0.9930828213691711,-0.040414534509181976,-0.03385443240404129,-0.07527655363082886,0.7848843192390671,-0.022599424555626017,-0.054294079907700285,0.616845174567104
1681574615863460600,3.223460693359375,0.08737523853778839,0.691789984703064,1.3616715669631958,-0.048864904791116714,0.10244377702474594,-0.9935378432273865,-0.044106822460889816,-0.02872856706380844,-0.10053259134292603,0.7808093403954999,-0.02487356065134367,-0.05111137397904961,0.6221781284865621
1681574615873504500,3.23350439453125,0.09575434029102325,0.6704106330871582,1.3415199518203735,-0.04064254090189934,0.10211215913295746,-0.9939423203468323,-0.04779732599854469,-0.02427707612514496,-0.11932367086410522,0.7767506987786291,-0.02699005888057093,-0.047962367612965226,0.627398840388286
1681574615883549400,3.243549560546875,0.0921613946557045,0.6467869877815247,1.3275282382965088,-0.03267737478017807,0.10163777321577072,-0.9942846298217773,-0.05255814269185066,-0.02484028786420822,-0.12712955474853516,0.7726971771409863,-0.029015986535063362,-0.044897115413957384,0.6325198096335857
1681574615893594600,3.2535947265625,0.07217836380004883,0.6276262998580933,1.3089723587036133,-0.024951165542006493,0.10117152333259583,-0.9945560693740845,-0.05933831259608269,-0.030355483293533325,-0.13534200191497803,0.7686454972861867,-0.03101320843895582,-0.041954137756640586,0.6375437226434093
1681574615903638500,3.263638427734375,0.03811592236161232,0.6050731539726257,1.2820863723754883,-0.017467183992266655,0.10087424516677856,-0.9947458505630493,-0.06288552284240723,-0.033048927783966064,-0.14659631252288818,0.7646181214567543,-0.033041116700126806,-0.03918374031391528,0.6424421371295131
1681574615913683500,3.273683349609375,0.000008217059075832367,0.5925853252410889,1.255265474319458,-0.010190707631409168,0.1008506566286087,-0.9948493838310242,-0.062105365097522736,-0.030095651745796204,-0.15429002046585083,0.7606309718627722,-0.035147886976881704,-0.036605122404337706,0.6471978267735066
1681574615923728400,3.283728271484375,-0.010723409242928028,0.5862171053886414,1.236803412437439,-0.0030092846136540174,0.10098236054182053,-0.99488365650177,-0.061932049691677094,-0.026000678539276123,-0.15956580638885498,0.756672035039129,-0.03731995995227562,-0.0341377846103337,0.6518352289551173
1681574615933772500,3.2937724609375,0.0022515119053423405,0.5890070796012878,1.2218025922775269,0.004132838454097509,0.1010056883096695,-0.994877278804779,-0.06225349381566048,-0.02031721919775009,-0.16892582178115845,0.7527306482051781,-0.039472503057183424,-0.03167474854498504,0.6563802930538992
1681574615943818000,3.30381787109375,0.049896493554115295,0.6031516194343567,1.1979219913482666,0.011329489760100842,0.10064684599637985,-0.9948577284812927,-0.06394172459840775,-0.00900256633758545,-0.19679266214370728,0.7488187935800255,-0.04153336254157275,-0.029088261835328873,0.6608321721520605
1681574615953862100,3.313862060546875,0.12910395860671997,0.6201441884040833,1.1593064069747925,0.018648389726877213,0.09955653548240662,-0.994857132434845,-0.06357019394636154,0.005607031285762787,-0.23101872205734253,0.7449898949358368,-0.04339784925450467,-0.026230814324327677,0.6651455437540118
1681574615963907300,3.3239072265625,0.22117669880390167,0.647003710269928,1.1208910942077637,0.026111798360943794,0.09752722084522247,-0.9948902726173401,-0.06110013276338577,0.020468980073928833,-0.2679118514060974,0.7412928919621667,-0.04500108905683102,-0.02301685865864459,0.6692756393559145
1681574615973952300,3.3339521484375,0.31732797622680664,0.6989784836769104,1.1073089838027954,0.03391822800040245,0.09447307884693146,-0.994949460029602,-0.05723359063267708,0.03985002636909485,-0.32154834270477295,0.7376777892630456,-0.046380704552707895,-0.019341907257800234,0.6732801914701869
1681574615983996200,3.34399609375,0.35480260848999023,0.7740477323532104,1.1381635665893555,0.04233945161104202,0.09061478078365326,-0.9949855804443359,-0.05431753396987915,0.053443439304828644,-0.36721229553222656,0.7340211533595328,-0.047714007326005836,-0.015184750866235582,0.6772781227143443
1681574615994041000,3.354041015625,0.31246259808540344,0.8464990258216858,1.18621027469635,0.051495958119630814,0.08665717393159866,-0.9949063658714294,-0.05082450807094574,0.04714713245630264,-0.3941774368286133,0.730196421291309,-0.04930788632007011,-0.010749131573148201,0.681370861844571
1681574616004086300,3.364086181640625,0.2045888602733612,0.9097887873649597,1.2375210523605347,0.06135186180472374,0.08332228660583496,-0.9946322441101074,-0.043346427381038666,0.03095076233148575,-0.3939632773399353,0.726141045856902,-0.051421028771207536,-0.006304378093530305,0.6855910773505176
1681574616014130200,3.374130126953125,0.0531759075820446,0.9697301387786865,1.269982933998108,0.0718020349740982,0.08114539831876755,-0.9941126108169556,-0.02625449001789093,0.010086886584758759,-0.38514459133148193,0.7218624715878288,-0.05421584867934346,-0.0020818968050324337,0.6899064041211516
1681574616024175000,3.384175048828125,-0.09693723171949387,1.031028151512146,1.2997732162475586,0.08287486433982849,0.08032600581645966,-0.9933174252510071,-0.006153613328933716,-0.00438302755355835,-0.3863059878349304,0.7173909110400909,-0.05777432412044901,0.0018490997857665717,0.6942687224105679
1681574616034220300,3.39422021484375,-0.21816007792949677,1.0876898765563965,1.3349049091339111,0.09456469118595123,0.08069106936454773,-0.9922431707382202,0.012887760996818542,-0.005434736609458923,-0.4009300470352173,0.7127148212963611,-0.06203086022452724,0.005531511981166358,0.6986837687745757
1681574616044264200,3.40426416015625,-0.2721937596797943,1.1127960681915283,1.3744232654571533,0.10670097172260284,0.08173621445894241,-0.9909258484840393,0.03990554064512253,0.011235564947128296,-0.4232891798019409,0.7078202929400281,-0.06674476987614908,0.009066315174186818,0.7031736398715754
1681574616054309000,3.41430908203125,-0.2475835084915161,1.131277322769165,1.403940200805664,0.11907690763473511,0.0826931819319725,-0.9894354343414307,0.06585967540740967,0.045587435364723206,-0.44531792402267456,0.7027333018765232,-0.07157091009854101,0.012644161790840314,0.7077313721931422
1681574616064353300,3.424353271484375,-0.13733088970184326,1.1434869766235352,1.4305802583694458,0.1316533088684082,0.08274126052856445,-0.9878366589546204,0.07469134032726288,0.08791301399469376,-0.46608173847198486,0.6975180620071738,-0.07620928537707086,0.016547158792579876,0.7123109848026107
1681574616074398200,3.434398193359375,0.03929368406534195,1.1299210786819458,1.447451114654541,0.14429987967014313,0.08099759370088577,-0.9862134456634521,0.06766001880168915,0.13976654410362244,-0.47710442543029785,0.6922166419526866,-0.08031170772232311,0.021055020652609887,0.7168980464919973
1681574616084443100,3.444443115234375,0.22214677929878235,1.086436152458191,1.4599575996398926,0.15699493885040283,0.07669907063245773,-0.9846165776252747,0.06366245448589325,0.19371715188026428,-0.47419989109039307,0.6868501839505827,-0.08361854778156075,0.026450717930804325,0.7214881118470741
1681574616094487300,3.4544873046875,0.35072022676467896,1.0011308193206787,1.4710054397583008,0.1685996949672699,0.07117480784654617,-0.983111560344696,0.07358784973621368,0.22563913464546204,-0.45927125215530396,0.6814849327013877,-0.08618511297095853,0.031880411862188464,0.7260398826935672
1681574616104532200,3.4645322265625,0.3828381299972534,0.8637908101081848,1.4834314584732056,0.1789250671863556,0.0647859275341034,-0.9817273616790771,0.09953261911869049,0.2224607616662979,-0.42179131507873535,0.6760757790369512,-0.08806657616238678,0.03715644066618584,0.7306059559566125
1681574616114577400,3.474577392578125,0.3006196916103363,0.6826229095458984,1.4827097654342651,0.18755048513412476,0.05855527147650719,-0.9805080890655518,0.14184103906154633,0.18396790325641632,-0.35401034355163574,0.670613715470807,-0.08945010447066949,0.041768886779493024,0.7352082552966757
1681574616124621000,3.48462109375,0.13056550920009613,0.469274640083313,1.465985894203186,0.19410453736782074,0.05349070206284523,-0.9795213937759399,0.18623609840869904,0.12868395447731018,-0.25795114040374756,0.66511778416753,-0.09051985631519563,0.04522671967611328,0.7398505977499689
1681574616134666200,3.494666259765625,-0.10487072169780731,0.24373580515384674,1.4280316829681396,0.19840078055858612,0.05043768510222435,-0.9788223505020142,0.22110915184020996,0.07453177869319916,-0.13874661922454834,0.659642550818502,-0.09145873118663604,0.0471607084224019,0.7445016974752637
1681574616144711200,3.504711181640625,-0.3621811866760254,0.043301623314619064,1.3804500102996826,0.2005079686641693,0.049875807017087936,-0.978421688079834,0.24674244225025177,0.030202291905879974,-0.022997379302978516,0.6542326894382632,-0.09241518737934032,0.04741941074011518,0.7491264025828361
1681574616154755000,3.514755126953125,-0.5779443979263306,-0.12388790398836136,1.348084568977356,0.20081649720668793,0.05173776298761368,-0.9782617092132568,0.26067036390304565,0.0015764199197292328,0.06482481956481934,0.648873151784085,-0.0934814372290036,0.046155991075203406,0.7537204180662115
1681574616164800300,3.52480029296875,-0.7206711769104004,-0.25337597727775574,1.335882544517517,0.1996956467628479,0.055413465946912766,-0.9782898426055908,0.2655143737792969,-0.012276895344257355,0.12929081916809082,0.6435110045756194,-0.09457207601925578,0.04371736519927549,0.7583128196232336
1681574616174845200,3.53484521484375,-0.7782191634178162,-0.3536836802959442,1.3371260166168213,0.19750677049160004,0.060120631009340286,-0.9784561991691589,0.25780028104782104,-0.017167169600725174,0.1700761318206787,0.6381084890299383,-0.09555186723277993,0.04051823742396601,0.7629192002964412
1681574616184889300,3.544889404296875,-0.7450265884399414,-0.42086613178253174,1.3449708223342896,0.19455257058143616,0.06498225033283234,-0.9787372350692749,0.24740302562713623,-0.012751445174217224,0.18120616674423218,0.6326580077799966,-0.09624207334232586,0.0369978406731893,0.7675365487081788
1681574616194934000,3.55493408203125,-0.6239928603172302,-0.44742581248283386,1.3532676696777344,0.1911875605583191,0.06908733397722244,-0.9791191220283508,0.23282372951507568,-0.0026353299617767334,0.17388230562210083,0.6271841314649363,-0.09648432487025385,0.03363351660444996,0.7721396073605977
1681574616204978200,3.564978271484375,-0.4585416615009308,-0.4409340023994446,1.3566222190856934,0.18780314922332764,0.07177470624446869,-0.9795807003974915,0.22023215889930725,0.0030390992760658264,0.15322577953338623,0.6217194255380921,-0.09622720967621598,0.030821582715113326,0.7766950910998498
1681574616215023400,3.5750234375,-0.29600760340690613,-0.4081574082374573,1.3482105731964111,0.1846453845500946,0.07286715507507324,-0.9801002144813538,0.20994694530963898,0.005501948297023773,0.13406139612197876,0.6163093157443942,-0.09552371517247495,0.02872463937659332,0.7811613023087371
1681574616225068000,3.585068115234375,-0.16272816061973572,-0.3568725287914276,1.339609146118164,0.18189506232738495,0.07256515324115753,-0.9806367754936218,0.19762158393859863,0.0036372095346450806,0.1280367374420166,0.6109665991301088,-0.09452348479133252,0.027329891247203267,0.7855177700796696
1681574616235112200,3.5951123046875,-0.056973233819007874,-0.2846420109272003,1.3455593585968018,0.1797482818365097,0.07111749053001404,-0.9811385273933411,0.18006928265094757,-0.004222996532917023,0.13741910457611084,0.6056485149169271,-0.09339809518034276,0.026599258450690062,0.7897841610397159
1681574616245157000,3.6051572265625,0.00006878492422401905,-0.19245906174182892,1.3608020544052124,0.17840278148651123,0.06887518614530563,-0.981544017791748,0.15431517362594604,-0.02463998645544052,0.16338300704956055,0.6002848564497979,-0.0923501428453623,0.02644697438171011,0.793996299278535
1681574616255202300,3.615202392578125,0.003968451637774706,-0.09449095278978348,1.3838034868240356,0.17798301577568054,0.06627792119979858,-0.9817990064620972,0.12887127697467804,-0.05231616646051407,0.18496978282928467,0.5948197518356844,-0.09157620839143644,0.02672632089934884,0.7981785663487923
1681574616265246200,3.62524609375,-0.050447728484869,-0.03393608704209328,1.4108550548553467,0.17835839092731476,0.06389147788286209,-0.9818890690803528,0.12124797701835632,-0.06717216223478317,0.19651925563812256,0.5892008692609038,-0.09120245379368852,0.027158305160829184,0.8023632390078872
1681574616275291100,3.635291015625,-0.1435108184814453,0.0070888446643948555,1.4243205785751343,0.17921265959739685,0.06215773522853851,-0.9818447828292847,0.14023013412952423,-0.0644771084189415,0.19829076528549194,0.5834192915086736,-0.09123337103565701,0.02746026643825777,0.8065632174049884
1681574616285336300,3.64533642578125,-0.2414218783378601,0.03461817651987076,1.4204450845718384,0.18039244413375854,0.061338815838098526,-0.9816802740097046,0.16447150707244873,-0.05853123217821121,0.1926635503768921,0.5775408057472446,-0.09167757380533316,0.027479027039739333,0.8107322078006074
1681574616295380200,3.655380126953125,-0.3125453293323517,0.055370062589645386,1.4138362407684326,0.18181511759757996,0.06135477125644684,-0.9814167618751526,0.17188365757465363,-0.05644148588180542,0.1791248917579651,0.571613419150173,-0.0924700431957369,0.027219692871989016,0.8148413619902856
1681574616305425200,3.665425048828125,-0.3320019543170929,0.07693752646446228,1.4022839069366455,0.18347333371639252,0.061765410006046295,-0.9810823202133179,0.16105490922927856,-0.04829193651676178,0.17198508977890015,0.5656643276771451,-0.093474759639339,0.026856952429169717,0.8188803779365149
1681574616315470300,3.67547021484375,-0.2964852452278137,0.10702086240053177,1.3769277334213257,0.18543599545955658,0.06204168125987053,-0.9806958436965942,0.1382487267255783,-0.031173184514045715,0.17268192768096924,0.5597549688831222,-0.09456646919212809,0.026632045346123748,0.8228136497438048
1681574616325514200,3.68551416015625,-0.2267410308122635,0.14452707767486572,1.339766263961792,0.1878265142440796,0.061632003635168076,-0.9802666306495667,0.1042267382144928,-0.009797945618629456,0.17855465412139893,0.553960227012968,-0.09564286303626872,0.02681640366516036,0.8265962780601863
1681574616335559200,3.69555908203125,-0.13579435646533966,0.18503348529338837,1.3033612966537476,0.19065779447555542,0.06033653765916824,-0.9798005223274231,0.06884846091270447,0.0052914805710315704,0.17819535732269287,0.5483197398160108,-0.09666094292909491,0.02750253776271365,0.8302082868552848
1681574616345603300,3.705603271484375,-0.03422299027442932,0.20133498311042786,1.2601810693740845,0.1936807930469513,0.05818825215101242,-0.9793374538421631,0.038649559020996094,0.0159541554749012,0.18684178590774536,0.542857588984928,-0.0975327270818985,0.028611794682833345,0.8336510989673261
1681574616355648300,3.715648193359375,0.025252319872379303,0.21245315670967102,1.1995939016342163,0.19660790264606476,0.05553967505693436,-0.9789078831672668,0.01902933418750763,0.021608717739582062,0.20008409023284912,0.5376470160200925,-0.09823625444403998,0.02992807709036269,0.8368927795045165
1681574616365693200,3.725693115234375,0.0442250594496727,0.21511387825012207,1.1392639875411987,0.1994539499282837,0.05270874872803688,-0.978488564491272,0.00823347270488739,0.02654535323381424,0.18840372562408447,0.5327010022670259,-0.09886554919346023,0.031325897673173536,0.8399249370933244
1681574616375737000,3.735737060546875,0.047085829079151154,0.20525912940502167,1.0990031957626343,0.20215842127799988,0.049888502806425095,-0.9780813455581665,0.0028892308473587036,0.04093177244067192,0.1806570291519165,0.527955691914556,-0.09944840896434999,0.03270083991335654,0.8427949503995182
1681574616385782300,3.7457822265625,0.02620786242187023,0.18936991691589355,1.0476502180099487,0.20466648042201996,0.04725566878914833,-0.9776903986930847,0.0004269331693649292,0.04750135913491249,0.1953418254852295,0.5233837955838853,-0.1000074331621709,0.033960435326746065,0.8455261210839136
1681574616395827200,3.7558271484375,-0.00233642989769578,0.17268361151218414,0.9816408157348633,0.20696735382080078,0.04497213661670685,-0.9773136973381042,-0.0136994868516922,0.04563451185822487,0.20173996686935425,0.5190335343726965,-0.10057560974913755,0.03503868583495711,0.8480924996667355
1681574616405871000,3.76587109375,-0.015552975237369537,0.15592946112155914,0.9062597751617432,0.20902660489082336,0.04303453490138054,-0.9769625663757324,-0.03406928479671478,0.041285496205091476,0.2028232216835022,0.5149675544974119,-0.10113043109414478,0.03593521572409634,0.8504644284351094
1681574616415916300,3.775916259765625,-0.009063384495675564,0.1454259604215622,0.8396291136741638,0.21088740229606628,0.04129023104906082,-0.9766378998756409,-0.052836835384368896,0.0384368859231472,0.19796669483184814,0.5111982914342831,-0.10164662068630297,0.036728814155215325,0.852640185638575
1681574616425961200,3.785961181640625,0.02834036946296692,0.14628662168979645,0.774695098400116,0.21266822516918182,0.03946145251393318,-0.9763273000717163,-0.06716038286685944,0.04418718442320824,0.1851590871810913,0.5077106595021214,-0.10210241879097465,0.037569169767433186,0.8546305546962968
1681574616436005000,3.796005126953125,0.07842510938644409,0.15957020223140717,0.7192792296409607,0.21447698771953583,0.037299156188964844,-0.9760165810585022,-0.07842959463596344,0.049233388155698776,0.16739237308502197,0.504503479758687,-0.10248071710105766,0.03859279044177935,0.8564371644321443
1681574616446050000,3.806050048828125,0.11949877440929413,0.17143097519874573,0.6754406690597534,0.21637062728405,0.03480206057429314,-0.9756908416748047,-0.0842294692993164,0.05301222205162048,0.1368083953857422,0.501520994839817,-0.10280955926906524,0.03980939027593457,0.8580920762160479
1681574616456095200,3.81609521484375,0.14420385658740997,0.1743926703929901,0.6406851410865784,0.21830923855304718,0.03202231973409653,-0.9753541350364685,-0.0831926167011261,0.05550204962491989,0.120724618434906,0.4987157810263361,-0.10308769144681078,0.04118097279049298,0.8596275269129365
1681574616466139400,3.826139404296875,0.1251637041568756,0.17644916474819183,0.6016940474510193,0.2202451378107071,0.029287446290254593,-0.9750047922134399,-0.0819699615240097,0.04830344766378403,0.11356985569000244,0.4960734178989205,-0.1033777935083394,0.04255164714446673,0.8610536821715318
1681574616476184000,3.83618408203125,0.10266291350126266,0.16884158551692963,0.565411388874054,0.22211404144763947,0.026851017028093338,-0.9746509194374084,-0.08261814713478088,0.04245436191558838,0.10749393701553345,0.4935700496566818,-0.1037152866862372,0.043791461683651334,0.8623884549321847
1681574616486228200,3.846228271484375,0.07425634562969208,0.1636737436056137,0.5355469584465027,0.22388489544391632,0.0247451514005661,-0.9743013978004456,-0.08924131095409393,0.04231717437505722,0.10874664783477783,0.4911951353340717,-0.10409311197781185,0.04487674820115342,0.8636422319370757
1681574616496273200,3.856273193359375,0.05302482843399048,0.15670211613178253,0.4958520531654358,0.2255823314189911,0.022932276129722595,-0.9739541411399841,-0.0970270037651062,0.035890307277441025,0.0954751968383789,0.48895341213668536,-0.10451071863261066,0.04583040984832161,0.8648130065471457
1681574616506318000,3.866318115234375,0.019709141924977303,0.140276700258255,0.4545064866542816,0.2271662950515747,0.021473444998264313,-0.9736192226409912,-0.10752210021018982,0.026149189099669456,0.07863020896911621,0.4868755780902681,-0.10496221976371485,0.0466189993418646,0.8658877266052925
1681574616516362200,3.8763623046875,-0.009993893094360828,0.1118738204240799,0.4166856110095978,0.2285006046295166,0.020415106788277626,-0.9733296632766724,-0.12364217638969421,0.019944345578551292,0.05774134397506714,0.4849542852418329,-0.10539720555261944,0.04718667963376414,0.8668817814821408
1681574616526407200,3.8864072265625,-0.036580078303813934,0.07860711961984634,0.3927573561668396,0.22954198718070984,0.01970408484339714,-0.9730992913246155,-0.13696688413619995,0.018976900726556778,0.04136711359024048,0.4831553517759388,-0.10578338883694759,0.04754187951370296,0.86781945826416
1681574616536452400,3.896452392578125,-0.043805234134197235,0.04638633131980896,0.3690461814403534,0.23023372888565063,0.019207891076803207,-0.9729457497596741,-0.14495231211185455,0.014376657083630562,0.026107430458068848,0.4814518737238819,-0.10606305569863363,0.04772566929719354,0.8687214257343999
1681574616546496300,3.906496337890625,-0.04175037518143654,0.013328601606190205,0.3355441391468048,0.23060044646263123,0.01878195069730282,-0.9728672504425049,-0.15560345351696014,0.0030991081148386,0.012372255325317383,0.4798853752274858,-0.10620851961771599,0.04781348134878296,0.8695652191446392
1681574616556541200,3.916541259765625,-0.037569478154182434,-0.03255926072597504,0.30513057112693787,0.23057213425636292,0.018416065722703934,-0.9728809595108032,-0.16378438472747803,-0.015928931534290314,0.0007282495498657227,0.4784663926459601,-0.10618485982049673,0.04779435667662028,0.8703507521523253
1681574616566586400,3.92658642578125,-0.036822009831666946,-0.07463543117046356,0.26756030321121216,0.23009899258613586,0.01809164695441723,-0.9729990363121033,-0.17199350893497467,-0.03283168375492096,-0.005226612091064453,0.4772074032161933,-0.10596411168747882,0.04766640336879292,0.871075473864192
1681574616576630000,3.936630126953125,-0.0678611472249031,-0.11208213865756989,0.2166302651166916,0.22924354672431946,0.018006492406129837,-0.9732025265693665,-0.17524264752864838,-0.05273554474115372,-0.012805163860321045,0.47614761682968243,-0.10561940746285657,0.047363242542332214,0.8717136108125868
1681574616586675200,3.94667529296875,-0.09346257150173187,-0.14988787472248077,0.18059636652469635,0.2280140221118927,0.018343746662139893,-0.9734850525856018,-0.1784381866455078,-0.06219755485653877,-0.03348821401596069,0.4752747038210051,-0.10519882147969643,0.04680479970419089,0.8722709092086317
1681574616596720000,3.95672021484375,-0.09394167363643646,-0.17278440296649933,0.16536842286586761,0.22645343840122223,0.018846139311790466,-0.9738396406173706,-0.17997513711452484,-0.057328857481479645,-0.060446858406066895,0.4745105271581387,-0.10466333647515437,0.0461060105527391,0.8727882825312611
1681574616606764300,3.966764404296875,-0.06483533978462219,-0.16571693122386932,0.15054179728031158,0.22482158243656158,0.019260816276073456,-0.9742095470428467,-0.1782059669494629,-0.05244872719049454,-0.09396666288375854,0.47381268640557367,-0.10407037378604335,0.045437615515499054,0.8732732660314885
1681574616616809200,3.976809326171875,-0.003745089750736952,-0.15300166606903076,0.1216006875038147,0.22329674661159515,0.01928185112774372,-0.9745597839355469,-0.17637594044208527,-0.04572538286447525,-0.12692636251449585,0.4732337872475032,-0.10342375053445697,0.04498484065617737,0.8736873795220197
1681574616626854100,3.986854248046875,0.06992818415164948,-0.13695839047431946,0.09247849881649017,0.2219088226556778,0.01870747283101082,-0.9748879671096802,-0.1769716590642929,-0.0381319597363472,-0.16036593914031982,0.47281174193184267,-0.10268713702727421,0.04484841292486131,0.8740096859700766
1681574616636898300,3.996898193359375,0.1455656886100769,-0.1326187700033188,0.05590077489614487,0.22061586380004883,0.017457619309425354,-0.9752045273780823,-0.17119260132312775,-0.025376979261636734,-0.20378106832504272,0.47257300164463606,-0.10182179953099108,0.045056166491006425,0.8742293573673375
1681574616646943000,4.00694287109375,0.20739811658859253,-0.1471777856349945,0.010993486270308495,0.21924471855163574,0.015617137774825096,-0.9755449295043945,-0.15144987404346466,-0.009422115981578827,-0.25657176971435547,0.47254914044592855,-0.10076926487157802,0.04553134824232631,0.874339598622398
1681574616656988200,4.01698828125,0.25178876519203186,-0.1550128012895584,-0.030994975939393044,0.21774309873580933,0.013343523256480694,-0.9759148955345154,-0.11964432895183563,0.010826349258422852,-0.31281185150146484,0.4727448419106971,-0.09954351186565469,0.046191345050394156,0.8743395530068756
1681574616667032300,4.0270322265625,0.2555248439311981,-0.15365703403949738,-0.06963025033473969,0.2162218689918518,0.010903450660407543,-0.9762833714485168,-0.08304312825202942,0.034781314432621,-0.35861653089523315,0.47312226560607895,-0.09825952525439029,0.04694020998392166,0.8742407346369714
1681574616677077200,4.0370771484375,0.2218553125858307,-0.14739754796028137,-0.09047934412956238,0.21473564207553864,0.00868239440023899,-0.976633608341217,-0.05067312717437744,0.05107097327709198,-0.3802999258041382,0.4736297447222574,-0.09703639604347487,0.047614390652486495,0.8740661300601171
1681574616687122200,4.0471220703125,0.16599635779857635,-0.13410955667495728,-0.11208529770374298,0.21334874629974365,0.006928273476660252,-0.976951539516449,-0.02301056683063507,0.05999672785401344,-0.3788681626319885,0.474201354205665,-0.0959657229841288,0.048112460477900534,0.8738472028561632
1681574616697166000,4.057166015625,0.08798064291477203,-0.12801358103752136,-0.15349265933036804,0.2120547592639923,0.005901032593101263,-0.9772399663925171,-0.003604412078857422,0.06489969789981842,-0.3666473627090454,0.4748670759173662,-0.09510554398341771,0.04832133285393271,0.8735681053978078
1681574616707211300,4.067211181640625,-0.003042167518287897,-0.12612803280353546,-0.21364760398864746,0.21078252792358398,0.005779129918664694,-0.9775158762931824,0.007158800959587097,0.06395348906517029,-0.35735344886779785,0.4757143775747965,-0.09446273582117024,0.0481543641887115,0.8731859989510197
1681574616717255200,4.077255126953125,-0.09623256325721741,-0.12843966484069824,-0.27479299902915955,0.20952998101711273,0.006676058284938335,-0.9777794480323792,0.01381295919418335,0.06169852986931801,-0.35382455587387085,0.47679075352418243,-0.09406230388674763,0.04756644187811877,0.8726742204356676
1681574616727300000,4.087300048828125,-0.1698751300573349,-0.13600653409957886,-0.32723063230514526,0.20819415152072906,0.008249597623944283,-0.9780527353286743,0.024761810898780823,0.06813585013151169,-0.3507589101791382,0.4780603702375519,-0.09377966706346212,0.046679874156442216,0.8720576935890607
1681574616737345300,4.09734521484375,-0.23896311223506927,-0.14891593158245087,-0.3827122747898102,0.20673665404319763,0.010767915286123753,-0.9783373475074768,0.035283029079437256,0.07315538078546524,-0.3434399366378784,0.47953943998821613,-0.09366393188464396,0.04536941411731249,0.8713269171819036
1681574616747389400,4.107389404296875,-0.2566843628883362,-0.17038674652576447,-0.45858094096183777,0.20510393381118774,0.014014389365911484,-0.9786398410797119,0.036015480756759644,0.07682114094495773,-0.3375527858734131,0.4812909808227054,-0.09363867340985256,0.04372492429691755,0.8704475732364935
1681574616757434000,4.11743408203125,-0.23945611715316772,-0.1790233850479126,-0.5424577593803406,0.20329143106937408,0.01745126210153103,-0.9789627194404602,0.0363326370716095,0.09383104741573334,-0.3192702531814575,0.48339289697650084,-0.09357037309663045,0.041990658231589276,0.8693748630868546
1681574616767479300,4.127479248046875,-0.19538000226020813,-0.17867609858512878,-0.6191035509109497,0.20142361521720886,0.020742133259773254,-0.9792845845222473,0.037040770053863525,0.11246705055236816,-0.2995240092277527,0.48586424956878066,-0.09343348747141338,0.04034717046258909,0.8680887469986142
1681574616777523200,4.137523193359375,-0.1399332582950592,-0.1770225465297699,-0.6736538410186768,0.1995331346988678,0.02365267090499401,-0.9796055555343628,0.03314816951751709,0.12963707745075226,-0.27382761240005493,0.488644420200727,-0.09318879718827575,0.038898099845697434,0.8666194561389463
1681574616787568000,4.147568115234375,-0.08733384311199188,-0.1876508742570877,-0.7014764547348022,0.19757992029190063,0.026109298691153526,-0.9799390435218811,0.029211506247520447,0.13242948055267334,-0.2329363226890564,0.4916163945784739,-0.0928053829286616,0.03765172486870649,0.8650333685701148
1681574616797613000,4.157613037109375,-0.049248505383729935,-0.22115476429462433,-0.7360514402389526,0.19539926946163177,0.028162222355604172,-0.9803193211555481,0.030674979090690613,0.10841915011405945,-0.18397200107574463,0.49473745100658784,-0.092224156059114,0.03653811855638037,0.8633622638408992
1681574616807657200,4.1676572265625,-0.058836303651332855,-0.2809603214263916,-0.7846461534500122,0.19272065162658691,0.030136555433273315,-0.9807907938957214,0.03404025733470917,0.0675654262304306,-0.13661032915115356,0.49805475231627294,-0.09140581365488092,0.03534956877165275,0.8615896342666359
1681574616817702400,4.177702392578125,-0.08202711492776871,-0.34544745087623596,-0.8249033093452454,0.1893739104270935,0.03237041085958481,-0.9813713431358337,0.041598424315452576,0.04300796613097191,-0.10519176721572876,0.501564948877309,-0.09036387053044762,0.033892607221933976,0.8597197973222722
