seconds_elapsed,rotationRateX,rotationRateY,rotationRateZ,gravityX,gravityY,gravityZ,accelerationX,accelerationY,accelerationZ,quaternionW,quaternionX,quaternionY,quaternionZ
1.0,-2.1396009522449653,0.6602859872940374,2.192005531770563,0.2959220102371935,-0.22711108334516067,-0.927766953036667,0.09582183067768912,0.1618638804131556,-0.13075267126173332,0.9283146827766164,0.06034654847297974,0.1800883545389565,0.3194264041337395
1.01,-2.097018445644789,0.6109763475161955,2.256385127769176,0.29695073460917687,-0.2140263750380064,-0.9305544104975256,0.08080299300756524,0.16592289479896516,-0.12033967500497961,0.924716956969022,0.05149597867152713,0.17898080838276448,0.3318003286680048
1.02,-2.0640143381568077,0.5823077464399149,2.280181741134423,0.2976659637058036,-0.2014624727004737,-0.9331682996486413,0.06776479243039543,0.15059800711665827,-0.10953419619308055,0.9208851162150338,0.042953314638503055,0.17767581003143604,0.3443107473474557
1.03,-2.0786597636690245,0.5437370865068614,2.2497405309623226,0.2986118481994376,-0.18877927782931503,-0.9354719173762256,0.03532094586310619,0.13524347291233538,-0.11680152719547514,0.9167790414958065,0.034417210721802684,0.1761845508328889,0.3566038429916762
1.04,-2.0954711023474952,0.47970718084769653,2.23600702749198,0.29930408703256833,-0.1759550712556282,-0.9377483138533376,0.016130914500170415,0.1307668733164271,-0.11746437359250386,0.9125764371683681,0.0259215392525827,0.17440413336522395,0.3687796688006948
1.05,-2.113609460909156,0.3879888403723711,2.241778755963988,0.29971323501442054,-0.1629789222930738,-0.9400016908616898,0.011894883732591087,0.13821429047507325,-0.11049087577088335,0.9082740522051949,0.01747004186459888,0.1723108607840163,0.38083172993508907
1.06,-2.1211798794358003,0.32223995868642946,2.2721969232854735,0.2994190157679548,-0.1497350067935095,-0.9422497032992534,0.018119318750660002,0.17350814208017587,-0.11701655455835383,0.9036936502607804,0.009120041221498992,0.1695644697728826,0.39290804005462804
1.07,-2.1012574052520265,0.2721056941278666,2.305660603043514,0.2989699718374282,-0.13668220477475884,-0.94437958202757,0.01739364492907728,0.19679976602564778,-0.11868592839583694,0.8989307086274053,0.0009387694327229212,0.16665430719188049,0.40500637234863296
1.08,-2.0507324483904754,0.2387497507756284,2.341806024024025,0.29836801601627516,-0.12385242659678736,-0.9463767574107409,0.00853559263005168,0.2057523720161827,-0.11448615455549994,0.8939708517103327,-0.0070557947497019435,0.16357965419958212,0.41712874145919826
1.09,-1.9788688200999125,0.2321438762013062,2.3499499584029606,0.2978444909880804,-0.11195488501866996,-0.9479875038247556,-0.021837047619781377,0.2020973132628353,-0.11755609277093465,0.8886463569582866,-0.014529772469173915,0.16050359096671543,0.4291984228177815
1.1,-1.917977441255585,0.23560859741513307,2.3393055070815425,0.2975746188866389,-0.10042447617239063,-0.9493702008814437,-0.04736376885365273,0.19178013276246433,-0.11660581495886937,0.8831904881318516,-0.021820113623871096,0.15751332082138403,0.4411104039546056
1.11,-1.870585292964006,0.24965812310743457,2.308059948164862,0.29759454428278354,-0.08928161968663245,-0.9505046597544745,-0.06645751266785818,0.17426241839137235,-0.11073081686219077,0.8775971478731509,-0.02891871950767101,0.15462215734791374,0.45284236614118967
1.12,-1.8358282402978936,0.2375011603442325,2.2892340217473293,0.2980400714587953,-0.0786090017513898,-0.9512797806550717,-0.09692127298837196,0.16561377701862742,-0.07828274785265074,0.8718128159656733,-0.03576674171971977,0.15183029571846923,0.4642174387426412
1.1300000000000001,-1.8103610978492428,0.21274567276566025,2.279559260599506,0.2985024207547288,-0.06807025529253621,-0.9519510194386983,-0.11780001261202354,0.15902454755410772,-0.05327865637466736,0.8659201589569377,-0.04250068256528188,0.14897362344980375,0.47548001094170017
1.1400000000000001,-1.795290157304176,0.17432788045508926,2.280126721521146,0.29896421626579256,-0.05766745597196693,-0.9525164978948494,-0.12677784547590895,0.15444797641055827,-0.03837091238867478,0.8599083778578832,-0.04911154842709582,0.14603540236979246,0.486626496349441
1.1500000000000001,-1.7271266808681518,0.11722305226412777,2.2756347532105523,0.2990851763868995,-0.04783198742094881,-0.953000338782373,-0.13955242289895628,0.1603990757988214,-0.021935594030377478,0.8537102899929966,-0.055276169233020256,0.1428965070722843,0.4975903463605183
1.1600000000000001,-1.6394256606372029,0.06871169077663862,2.2666425874638247,0.29897884798335306,-0.03856991978012144,-0.9534614610464058,-0.15241620152706134,0.16257515935263664,-0.016980642281761073,0.8474495988620946,-0.061066399720515814,0.13971978701985097,0.5084163232316181
1.1700000000000002,-1.5310473028520846,0.03173371146916537,2.252471796578099,0.29861591427420026,-0.029972181593464986,-0.9538996936863661,-0.1651682082931322,0.15955025577967813,-0.02607408851659569,0.8411235911056443,-0.06642726795289787,0.13650871369540254,0.5190852445604416
1.1800000000000002,-1.43767485159805,0.03088015972011559,2.2140914332143384,0.29838316305519325,-0.02261454076158315,-0.9541635512744232,-0.20826554200973244,0.1300700939938855,-0.06478752938570055,0.8347225686763009,-0.07115818154044751,0.13356123900342723,0.5293799236000657
1.1900000000000002,-1.3658088418306855,0.044249605594306095,2.1617545299953784,0.2983606267879157,-0.015713463386759944,-0.9543137131321918,-0.2477168737898185,0.1025762895741918,-0.09339591369930487,0.8283403521781206,-0.07567858956815933,0.1307824292480407,0.5393942883794127
1.2000000000000002,-1.3197664092202064,0.07290550637959761,2.0936490774228216,0.29859163116990944,-0.009297582831520787,-0.9543338556358054,-0.2805413038616441,0.07937139683159591,-0.10736319358202558,0.8219867435324916,-0.07997926921363005,0.12819616388557084,0.5490842862099466
1.2100000000000002,-1.23506142833242,0.06381648027516505,2.052122214509958,0.2991107367876396,-0.0033696577378064026,-0.9542027278495248,-0.3294622683075525,0.07089402092743019,-0.10527337449629016,0.8156936358275443,-0.08403587216842882,0.1257972540800194,0.5582831544065282
1.2200000000000002,-1.1396436965232821,0.0621801335057841,2.0181070492762996,0.29971350956223336,0.001929950495998354,-0.9540221464354378,-0.3612205900991673,0.06690161995253098,-0.10495773070575733,0.809418949374653,-0.08780416856441364,0.12358005851682183,0.5672725573598456
1.2300000000000002,-1.0335757881427148,0.07309978032112531,1.991602006817226,0.3004005639601935,0.006463214115180514,-0.9537902338561633,-0.3697031425969749,0.06748415211625629,-0.10819419782763515,0.8031630528465717,-0.0912224300371567,0.1215808146489283,0.5760326321537662
1.2400000000000002,-0.9010861946254682,0.07466778245880043,1.9687191072817352,0.3013537060908345,0.009473500275408348,-0.9534627291226142,-0.377711844117844,0.08923714287561321,-0.11265579908948285,0.796921085914561,-0.09402437853214655,0.1200953562025545,0.584457088622686
1.2500000000000002,-0.7757176487470432,0.05908799009832069,1.9234189785054199,0.30220273817243043,0.011638136044590427,-0.9531721626311289,-0.3833688442945434,0.10373245882455938,-0.11519954714991612,0.7907540352739183,-0.0964104927205365,0.118813959073866,0.592661778092345
1.2600000000000002,-0.6621335346331806,0.0218018136813503,1.8482935156326856,0.3028904691329827,0.012829375818852375,-0.9529389340278271,-0.3859750411047818,0.10674361872202949,-0.11510799243297902,0.7846842782082759,-0.09830583569668531,0.11775407710000807,0.6006080015762058
1.2700000000000002,-0.6210663103133384,0.006154097362131943,1.7052722579950257,0.30324365242828516,0.013470523821128252,-0.952817712203076,-0.4075045551304794,0.088699981353034,-0.12253961045041445,0.7790696588662402,-0.09975545553964613,0.11678369403975356,0.6077957973092601
1.2800000000000002,-0.6185785738827048,-0.007682354237492112,1.5613634216157366,0.3034726695921206,0.014418440380550356,-0.9527305572502904,-0.43036365194873727,0.07244601744919547,-0.12811873752245803,0.7737489288023558,-0.10121562121939053,0.1157081022431297,0.614531576710927
1.2900000000000003,-0.6606686063603544,-0.021319156027657913,1.4233054189797663,0.303568718485206,0.01583780872151728,-0.9526777848760092,-0.45305373098343626,0.06079539327372914,-0.1304146728173578,0.7687778819373742,-0.1027363101366623,0.11448111803155843,0.6207355899838477
1.3000000000000003,-0.7105094717223494,-0.029203080492624062,1.3058052805524456,0.3035420875590363,0.018410417326708325,-0.9526381340161614,-0.48311134241745324,0.031348125637030336,-0.1278678108001269,0.7642451874899451,-0.10455836306135301,0.11289483777077751,0.6262759101846813
1.3100000000000003,-0.7473844319847726,-0.0418849794366515,1.181504619036163,0.3034281913596517,0.021543390564997506,-0.9526073161362383,-0.5052945300498896,0.00838408027702705,-0.12647748427258543,0.7599601191630327,-0.10650823591518994,0.11112405022466033,0.6314639239183911
1.3200000000000003,-0.7653662449019739,-0.06189626507703522,1.045361852326795,0.3032076277458461,0.025318487988094465,-0.9525872126302249,-0.5156918095879433,-0.003501573679079613,-0.1272589039826559,0.7559671584437295,-0.10860008876584906,0.1091394415906384,0.6362410373683048
1.3300000000000003,-0.75665731152513,-0.08684410720364821,0.8796687365793969,0.302720041211602,0.02975026273472462,-0.9526092995641077,-0.5111914793903274,-0.005791309944839098,-0.12225399005176063,0.7526264122726476,-0.110713595731395,0.10692399945424902,0.6401909111530385
1.3400000000000003,-0.737320392802595,-0.12004917540243562,0.709645548104533,0.3019847403145376,0.034428866405605066,-0.952684802125075,-0.5033092204971986,-0.008778210118875598,-0.11623145139141257,0.749687950722359,-0.11275797746700883,0.1045885679260663,0.6436645707876264
1.3500000000000003,-0.7063405331690016,-0.16437193915821352,0.5373277713584819,0.30093150692848736,0.03937304515510002,-0.9528308796717284,-0.4925618742868786,-0.014016764467272631,-0.1095177527244266,0.7472371452979899,-0.11470102890715637,0.10211244299332214,0.6465681895261153
1.3600000000000003,-0.7365464958758144,-0.202794565207651,0.36323259809350905,0.2992924090473028,0.045037557630738856,-0.9530877839692212,-0.48245604521019664,-0.03650546365275262,-0.1148113345710687,0.7455772225962385,-0.11657791971527637,0.09929458165783148,0.6485794596113778
1.3700000000000003,-0.7683285629896827,-0.2452275050082643,0.20421247847358,0.29730290865238346,0.05129199752250643,-0.9533916288497728,-0.4758483147103669,-0.05203136889146865,-0.11877037746725534,0.7442965033953887,-0.11849594362643007,0.0962075878230626,0.6501675626841217
1.3800000000000003,-0.7934778307010272,-0.29438894643012004,0.0675048647926079,0.2948864017645538,0.05830419366226791,-0.9537479514100031,-0.47426413244094584,-0.054851590885459045,-0.11902305841488506,0.7434549723627365,-0.12048380513209571,0.09277681113321726,0.6512669874875788
1.3900000000000003,-0.7661771759093134,-0.33024353707874604,-0.05523108802367153,0.29178979713091574,0.06575316324919624,-0.9542008437118263,-0.45817227692104084,-0.03771037615554851,-0.12042541684065813,0.7431841293948511,-0.1223203779544219,0.08903818972549477,0.6517498582341358
1.4000000000000004,-0.7106556974912727,-0.3617583338325963,-0.1824112953980187,0.2884074374296438,0.07313265889898554,-0.9546956196331748,-0.4434719285898591,-0.022340850429173525,-0.12321397594059519,0.7432478523051542,-0.12398892832017072,0.08527496303302118,0.6518669087666913
1.4100000000000004,-0.6212167060093856,-0.38890623523910267,-0.31853385947165963,0.28470577529873,0.08033699512927506,-0.9552377005615948,-0.4332127763953905,-0.01286727643628062,-0.1278996392652529,0.7437219572904101,-0.1254294624620033,0.0815246204850708,0.6515340341986531
1.4200000000000004,-0.5050528739696771,-0.3897427700110007,-0.4584276426741136,0.2805763078064648,0.08661256915187443,-0.9558999729572367,-0.4251735877239127,0.0057234338199198785,-0.13677764015573235,0.7449000744797017,-0.12629602185449784,0.07805479053228902,0.6504401575106863
1.4300000000000004,-0.3909618892579608,-0.3812840055069004,-0.5883788233078305,0.27640097476000497,0.09237241169542902,-0.9565827414111495,-0.41838040008662997,0.020309788233204125,-0.1488829682302152,0.7464383454278395,-0.12691757993949265,0.07481118674447294,0.6489359531672065
1.4400000000000004,-0.2848423751364623,-0.3631729343094277,-0.7023074672379974,0.2722312154471751,0.09750189742009151,-0.9572756923982587,-0.4131144166568695,0.027086514445204286,-0.1652220919487496,0.7484069216800661,-0.1272633863210951,0.07186674453353038,0.6469341608507072
1.4500000000000004,-0.20042338312438526,-0.36832042766364353,-0.8236904441206814,0.2679455136635965,0.10170606770785949,-0.9580404731967579,-0.3958098005973153,0.024690950861121733,-0.1865934119037996,0.7509133453134587,-0.12718116702344717,0.06929076384358897,0.6443151613158662
1.4600000000000004,-0.1328397844113121,-0.3890801002226492,-0.9686756351441013,0.26337613887190975,0.10570068449518681,-0.9588758381335698,-0.3785581351603407,0.013916185675779444,-0.20617952913661158,0.7537901595127211,-0.12690187515171406,0.06674609877276803,0.6412707011418872
1.4700000000000004,-0.08770502934164401,-0.4300416678069727,-1.1496453343785222,0.25837944615638625,0.10954460272227677,-0.9598090849137098,-0.3637556897365616,-0.008351589645978201,-0.22194444478023848,0.7571489934628005,-0.12639398643234395,0.0641787305623135,0.6376724345624354
1.4800000000000004,0.03915758251666744,-0.4571305406617701,-1.2974815335255299,0.25259447661850637,0.11281972968919385,-0.9609590887262505,-0.35160857895903863,-0.019208954252075406,-0.27089416969127256,0.761273609583043,-0.12537138352808302,0.06163006540670345,0.6331830551691849
1.4900000000000004,0.18003141504143005,-0.4587340511670573,-1.4223692236216663,0.24667308054864862,0.11526209653841563,-0.9622111781296083,-0.33486340016287225,-0.015134120286928069,-0.32440170905247667,0.7657403817502237,-0.12397026388497541,0.05935299649451021,0.6282713244297695
1.5000000000000004,0.32616174410486387,-0.4217685269065879,-1.5169695524287945,0.24069888744824378,0.11646903572616285,-0.9635830714389656,-0.31004945489097513,0.010832412233243865,-0.3781989673055178,0.7706002405579486,-0.12206273623072668,0.0575147484902971,0.6228627194204416
1.5100000000000005,0.39321052746594026,-0.430273607492068,-1.5553266744639527,0.23481241694229849,0.11648916709272719,-0.9650250148477741,-0.23266111271991977,0.08244072814091916,-0.44982811458486227,0.7757371510658331,-0.11972817953858948,0.05611162246923913,0.6170175115031793
1.5200000000000005,0.4155295339709538,-0.47324205385573476,-1.5756637380775793,0.22863054937324015,0.11623957605418538,-0.9665383285317342,-0.16145760582645294,0.13309884387687615,-0.49149288578406336,0.7809096467437218,-0.1172124509419842,0.054661100534120155,0.6110834498984462
1.5300000000000005,0.38149190764078866,-0.5632679775808368,-1.5790312578651184,0.22193304717258056,0.11581711456319006,-0.9681547649908456,-0.11298248281091626,0.13791627572684612,-0.47875194559937284,0.7860766171380907,-0.11449355553430121,0.053028825300684895,0.6051031729931325
1.5400000000000005,0.2680825823993708,-0.697858846608125,-1.6251060398005521,0.21370157200437495,0.1163320417762533,-0.969926315402472,-0.058155097835148904,0.0923889056798009,-0.4341977888971161,0.7912510463361839,-0.11172840110771293,0.05045097863189686,0.5990408343333492
1.5500000000000005,0.14214113892210206,-0.8549897220848056,-1.6872615522105507,0.20428491516524536,0.11769517558625013,-0.9717818814839112,-0.015392206811452334,0.0511222148949672,-0.3903070667976411,0.7964838609082032,-0.10898304261974825,0.04712460746787529,0.5928538137144396
1.5600000000000005,0.014967642991677937,-1.0395284875446005,-1.7661707872045012,0.19321948152841753,0.12027946244962484,-0.9737424293169008,0.004951133632151373,0.03011407589341051,-0.3557215819001243,0.8018153728816054,-0.10628366515524176,0.04275095711935463,0.5864729919965235
1.5700000000000005,-0.057130998748667505,-1.2008120349990918,-1.8388065532250644,0.179590542975808,0.1239503581457764,-0.9758402101286081,0.021727245360056106,0.019710745478291162,-0.2926835033379976,0.8073119285486197,-0.1033758527402557,0.0369980510841643,0.5797633558424423
1.5800000000000005,-0.08452952188007308,-1.3276048216588239,-1.9055123200253186,0.16481602806655335,0.1277748494856309,-0.9779544011249701,0.03398284209961454,0.015186071523660616,-0.2424044695345044,0.8128853360378019,-0.10027579959208234,0.030718574346537644,0.572852763279455
1.5900000000000005,-0.048063667783617654,-1.3997522028154346,-1.9634575925555688,0.14872617154843873,0.13156845656205307,-0.9800593953134954,0.03922122874603841,0.01812260899815612,-0.22267725673301814,0.8185489176339806,-0.09689315716853583,0.023890544154723428,0.5656777147982786
1.6000000000000005,0.052490034166987776,-1.3913357853434463,-1.9839963688353754,0.13218912029691812,0.13404051272092657,-0.9820394358584068,0.03367804855926712,0.05639810304948603,-0.20990833845666804,0.8242482307185521,-0.09301078099433159,0.017204301611804695,0.5581983028527798
1.6100000000000005,0.18140830782117962,-1.369837028825521,-1.985276212802152,0.1157507939310271,0.13540229254293254,-0.9839516103728462,0.034615428474524805,0.09677452050265335,-0.19918433803877852,0.8299119655709905,-0.08879255195063135,0.0108239708409694,0.5506228918230717
1.6200000000000006,0.3426105942529306,-1.3488916569438216,-1.9627865836637044,0.09962777631864345,0.13514096112212132,-0.9857779465625914,0.05062678323405681,0.13027943308530554,-0.19007993714429727,0.8355000474453164,-0.08411360969839339,0.004958171455880208,0.5429646978067313
1.6300000000000006,0.48302571344437173,-1.3186640760175812,-1.932086426826799,0.08383932378075583,0.1324964422756427,-0.9875583039286246,0.07933980749233678,0.17382941596367796,-0.16408931257744963,0.8409124571883458,-0.07867133676487315,-0.000244050074696283,0.5353478157580137
1.6400000000000006,0.6011227486200297,-1.2885004462170742,-1.8921832811051766,0.06836654040548537,0.12869525282574548,-0.9892731668934722,0.10583417261241972,0.20699349598412065,-0.14005625949596356,0.8461961507025144,-0.07290227831570607,-0.005084903009821353,0.5277838779366242
1.6500000000000006,0.6841924567082232,-1.2615015985773192,-1.8377179390818137,0.05337588542993975,0.12350708115750292,-0.990880311019455,0.12400199979955678,0.21738898095750547,-0.12523288071786642,0.8512961287390336,-0.06677089783152912,-0.009465868682287942,0.520305658372783
1.6600000000000006,0.7004751372215365,-1.2554983376817732,-1.7728126529596293,0.038727050222091386,0.11732204610096703,-0.992267029929591,0.14157946148833825,0.20202320712363236,-0.09441684839669932,0.8560544361650105,-0.060409011360124165,-0.013605089873022402,0.5130922334731415
1.6700000000000006,0.6748293098520516,-1.2448467961085585,-1.7119065992918305,0.024286725100354314,0.111024552574619,-0.993473083925499,0.15696533414657424,0.18167768824744088,-0.06851035247621455,0.860616224943191,-0.054111339624731615,-0.017716790813006672,0.5060139639890805
1.6800000000000006,0.5920111003514422,-1.2177784502143236,-1.6624194234645873,0.01012727944032802,0.10486391220654655,-0.9944088869350403,0.16833346530014712,0.16086918529436023,-0.057749133307517846,0.8649202110403357,-0.048019331074795175,-0.021861200034580593,0.49910241846674136
1.6900000000000006,0.5113015211641811,-1.2027700827545034,-1.5917279843364598,-0.0035399113098559063,0.0995912990545941,-0.9949631791210684,0.16759626175788345,0.12257308637731412,-0.026891063156548836,0.8688859630767567,-0.04252249451625835,-0.026148139452639024,0.4924285934380229
1.7000000000000006,0.446583809795153,-1.1758728273715904,-1.5234455468622807,-0.016885042781071325,0.09464014868932964,-0.9953314066697998,0.16857088995974892,0.08966676237152911,0.0009333167721082966,0.8726539932837682,-0.037291437748973935,-0.030446779202367213,0.4859224488720333
1.7100000000000006,0.41281497530808725,-1.1207406869869125,-1.468079301744855,-0.029779399816546658,0.0899868016514587,-0.995476453267427,0.1775876097958934,0.07417060720868857,0.015025676228061498,0.8761590955113174,-0.03235992159681165,-0.0347139909811439,0.4796581233514825
1.7200000000000006,0.38794482929727014,-1.0540174572374368,-1.4045397174448153,-0.04172195746232278,0.0854967132458048,-0.9954202024579993,0.1980708902390785,0.08106942547622514,0.009794792322286607,0.879416149410169,-0.0277927203345051,-0.03869847228533797,0.4736154960346659
1.7300000000000006,0.35415949242657147,-0.9946076883643533,-1.3215161783946452,-0.05315078685545164,0.08114905827569038,-0.9952579803255368,0.2205968205545845,0.09411049472597478,0.003938784976080655,0.8824857963411505,-0.02343901940955864,-0.04254423706217662,0.4677965140591279
1.7400000000000007,0.29845914786194955,-0.9549513124279189,-1.202027642099574,-0.06392283518855453,0.07702514067079204,-0.994962331064533,0.24255532085150275,0.11044611762280471,0.0048003551401215976,0.8852748156428635,-0.01937119880120631,-0.04622330394094371,0.462343175565382
1.7500000000000007,0.17958843239499134,-0.9342961726249444,-1.0597965614002147,-0.074144909716992,0.07402674295703969,-0.9944651794216743,0.26212931630604575,0.09379070742294304,0.01665188746152707,0.8876123431678774,-0.015945617604385554,-0.049990677270030905,0.4575612940663429
1.7600000000000007,0.032514281051421796,-0.9204806673424534,-0.9184228377171614,-0.08413036143843994,0.07204487138084553,-0.9938286008791394,0.2761124441891335,0.0662742402085795,0.03143700831548956,0.8896730162538155,-0.013031008818843339,-0.05392001327703674,0.4531997138970781
1.7700000000000007,-0.14576667739299817,-0.9125915770041096,-0.7889941270968714,-0.09386290243370002,0.07170110502867344,-0.9929883514176349,0.2793891434954335,0.030603259597846343,0.04749770408883214,0.8913521752091947,-0.010905718939431439,-0.05815093166989933,0.44942354948175356
1.7800000000000007,-0.32920144159186143,-0.9157619109959128,-0.7182899686925219,-0.10348161973679357,0.0736055789980471,-0.9918761047366379,0.2719471197737162,-0.043983709953134664,0.08081413093254272,0.8927159224887228,-0.009822977447884223,-0.06286515221942088,0.44608252581212593
1.7900000000000007,-0.5136872769806883,-0.9276710683802559,-0.6742420817594406,-0.11314183957643104,0.07686340192708047,-0.9905776998178178,0.26592786343594393,-0.10959998186884735,0.11126716897714312,0.893952887148954,-0.00935363359295516,-0.06791254969400055,0.44286910237576965
1.8000000000000007,-0.6979794275378199,-0.9532289291730807,-0.6598324279146921,-0.1229467248996885,0.08197791030777617,-0.9890060180271817,0.2681398835275861,-0.1370768898398661,0.12722610129714768,0.89506621678229,-0.009714519736697295,-0.07345072722291494,0.43972361895925755
1.8100000000000007,-0.8093657900810399,-1.0223919968029147,-0.6366279015407933,-0.1332703655648456,0.08891758318032875,-0.9870352768376424,0.26476067800784114,-0.14575611275249237,0.16192403501050587,0.8960550689244179,-0.010828472907233438,-0.0796345306697697,0.4365742779747325
1.8200000000000007,-0.8545927861711579,-1.0726031028512906,-0.6149793529868649,-0.1439635485446998,0.09623975476621416,-0.9848574250721125,0.26179546603718956,-0.14556051712693333,0.1929668217125443,0.8969571922278589,-0.012058862111540364,-0.08607518339369423,0.43346653299806004
1.8300000000000007,-0.7895918663071706,-1.0579372989536047,-0.6013501009948835,-0.1552148331823369,0.10347438590075538,-0.9824227195554661,0.26264277178729106,-0.13523525203164802,0.2061634600854636,0.897729742649418,-0.013160633676183043,-0.0927565408013796,0.4304537525335662
1.8400000000000007,-0.6722880608504288,-1.0144947636977768,-0.5719310878441106,-0.16596482690954534,0.10946294530366564,-0.9799941489685349,0.25285391685959563,-0.06834489985126604,0.196104191236387,0.8984453462352733,-0.013843785218822912,-0.09894626027523044,0.42753742256872196
1.8500000000000008,-0.5395959726503975,-0.9715323937467792,-0.5226497793093016,-0.17641692577011375,0.11452438305468668,-0.9776082593782469,0.24523295987314564,-0.00045547192507275347,0.18871654036836275,0.8990796871503015,-0.014175255874000321,-0.10480654378661564,0.4248033569171389
1.8600000000000008,-0.400487265557606,-0.9456602284268181,-0.43635949075308456,-0.186460861962532,0.11814107541354908,-0.9753173344782347,0.24851628845874937,0.038318610444016944,0.20040356834464995,0.8995583619124224,-0.013928678471334766,-0.1101806063575211,0.4224358069347802
1.8700000000000008,-0.3352614001475871,-0.8784085959055671,-0.3474960260452038,-0.1957196477611488,0.12082959873162025,-0.9731607959010815,0.22918718912179845,0.042153179799452496,0.20836996600043037,0.8998244879581249,-0.013387796490921705,-0.11501199791612861,0.4205886418638937
1.8800000000000008,-0.29752252141762286,-0.8043409498576708,-0.27056962330510365,-0.204410978748728,0.12323968362418698,-0.9710834584900302,0.2063385799889205,0.03034041671545981,0.21464574881823,0.8999783214110432,-0.012816874427885002,-0.11953203463672311,0.41902326215997115
1.8900000000000008,-0.2810522084925613,-0.7387506193173066,-0.22354920832408992,-0.2122218471001348,0.12554151750362896,-0.9691142192254294,0.1886102422076692,0.0021745487754741416,0.2191222153939463,0.8999920199658007,-0.012350067651167085,-0.12363568845979706,0.4178172767209569
1.9000000000000008,-0.2275966873157626,-0.7018769404108296,-0.24016644436995122,-0.2193453164425999,0.1274637651687725,-0.9672692085239455,0.1646485355949488,-0.04120266748932751,0.2299850202724293,0.9000233448419349,-0.011861931756178152,-0.12734681771951437,0.4166436765034217
1.9100000000000008,-0.12040272143573391,-0.6777452676675212,-0.28201181416668714,-0.22633262487520214,0.12860435203498938,-0.9655132005938587,0.14536670837936103,-0.0736418286529864,0.24108978011061616,0.9001032114641794,-0.011059494567257125,-0.13083071726797849,0.41541573159440914
1.9200000000000008,0.0948556346633348,-0.6664656187123682,-0.3449615251945227,-0.23342623707229904,0.12807166229677458,-0.9638958522154322,0.14154899781512942,-0.06952615836469432,0.24869879522760574,0.9002907970366423,-0.009500176146998234,-0.1340088609674066,0.41403382089734103
1.9300000000000008,0.24511451120295935,-0.5535942610404617,-0.35131159152029806,-0.2396109251519982,0.12532922454738935,-0.9627317599680557,0.13710904237155094,-0.039316372344159634,0.20984754673743586,0.9006247318854408,-0.007139766952826829,-0.136297623618169,0.4126012765673812
1.9400000000000008,0.33710611232480536,-0.4240747344983636,-0.31852727469170483,-0.24494102443312046,0.12178950112531421,-0.9618526731041589,0.13460038840015634,-0.007522532946008361,0.16885345509169492,0.9009842333502291,-0.0045828448790778695,-0.1380225210685223,0.4112826787977588
1.9500000000000008,0.32630627004670715,-0.3222591324016641,-0.22560290975075803,-0.24873298592956253,0.11775095046016677,-0.9613833457633274,0.1374076982805517,0.010341739577580122,0.15437568207926994,0.9013078344076345,-0.002079265927949621,-0.1389316769584439,0.4102872926864956
1.9600000000000009,0.2317324951935955,-0.30201866378005254,-0.17963020821481177,-0.2519440718184063,0.11475873083317617,-0.9609085188937205,0.1517882611339912,-0.03150484784287302,0.14771555708835138,0.9014803050212989,-0.00012852666994467472,-0.13979806992162583,0.4096187521560507
1.9700000000000009,0.11494068905977713,-0.30341952366516506,-0.16223480938709534,-0.25503684451390507,0.11253519783362037,-0.9603582834893888,0.16312742357517196,-0.0877962771790358,0.14612819048507986,0.9016130263725636,0.0014507029103982155,-0.1407758109930666,0.40899041522078766
1.9800000000000009,0.0018230465536699658,-0.3012595039968893,-0.18490387462887986,-0.2582484657472184,0.11154890257736433,-0.9596151088962033,0.1579957165751334,-0.13783433573516718,0.15203334383470063,0.9017532450467242,0.0024666994450678026,-0.1420759306008367,0.40822632199124276
1.9900000000000009,-0.017656667736787885,-0.24830956478967547,-0.15576048911353638,-0.261002782366623,0.11126602291518731,-0.9589021293840998,0.1235821306351125,-0.18704789533953362,0.14282289387505068,0.9019048781253254,0.0030599906735537304,-0.14331298911927404,0.40745368848899893
2.000000000000001,0.023125703399084038,-0.16313974478377088,-0.10279022841262572,-0.263197039592524,0.11095501172808193,-0.9583400643794211,0.0884606257300766,-0.21759389851329003,0.12806372065405494,0.9020335483651046,0.0035691749927587372,-0.14428126078928183,0.4068238345740523
2.0100000000000007,0.15256858314274935,-0.03113969513149789,-0.026454219947809096,-0.26424091800544913,0.11001207546355118,-0.9581615148383351,0.07457281799837663,-0.1983999814515072,0.1102737152792502,0.9020912101620587,0.0041854294750515554,-0.14457380740757067,0.40658615332414483
2.020000000000001,0.23404774194370348,0.10535617686968868,0.04671391940199502,-0.2636338248328605,0.10804672186779349,-0.958550636739378,0.0816923959168805,-0.13881676155068526,0.05877664429789264,0.9020930976153425,0.004995062079928365,-0.14387054167586674,0.4068211590262018
2.030000000000001,0.27677200340171143,0.2247372514002768,0.12356567303092081,-0.26210658566622963,0.10579258548771939,-0.9592204223055528,0.09645628363102378,-0.07922124286179393,0.008973247818653177,0.9020410149685427,0.00578706676078397,-0.14267164970434862,0.4073477103749693
2.040000000000001,0.25198948959628714,0.29255053176205903,0.2133805460762082,-0.25941051104460994,0.1035988687641223,-0.9601924247646441,0.11475257542161754,-0.05381207534762089,-0.007544965064040994,0.9018855854359583,0.006366037345746161,-0.14093344184429646,0.4082873222127542
2.0500000000000007,0.1787763735302254,0.3313640071148006,0.28817678466686547,-0.2560746932671731,0.10230252636069086,-0.961224030516715,0.13321931963077627,-0.06178347685083475,-0.019725689907826742,0.9015645803042736,0.006454660613759748,-0.1390837935220161,0.40962447196050006
2.060000000000001,0.1031652541315186,0.3671180247853985,0.3534593923286503,-0.2524062908566967,0.10160744828588343,-0.9622688569637319,0.14287065049907757,-0.08283245755873281,-0.0281378196808463,0.9011542286600424,0.006224430906676408,-0.13720624553866,0.41116246255917566
2.070000000000001,0.0645987521284339,0.42037059643963337,0.40493119453251963,-0.2483592065083409,0.10183224500387218,-0.9632977169033382,0.1269376645729959,-0.11130533069045845,-0.029616064897553637,0.9006364399760715,0.005519519023977487,-0.1353493743637203,0.41291895505433673
2.080000000000001,0.08961710271603388,0.5323801045601126,0.5126090749889272,-0.24310322869238654,0.10223033599096154,-0.964588287323065,0.08649375696233938,-0.11892446326265534,-0.04682384957399622,0.8999872099795108,0.004530978264040531,-0.13296988861597997,0.4151072754092737
2.0900000000000007,0.1474866895371694,0.662515211338855,0.645394087638371,-0.23692210530716176,0.10252029435581961,-0.9660939033355458,0.04767398649783258,-0.1119544560515658,-0.06802441518889389,0.8992014976212286,0.003443412253572865,-0.1301406559020872,0.41770779545545644
2.100000000000001,0.2415421319773526,0.7895709157669778,0.7984268129422921,-0.22915562925080993,0.1023187239952298,-0.9679868050516541,0.03756265653298488,-0.08172657460296304,-0.08583437683378398,0.8981362512590509,0.0023362865502367545,-0.1264773825501052,0.42111862862784083
2.110000000000001,0.3411713905128535,0.8852706995116428,0.8917175975706976,-0.22001896867484927,0.10127817694496195,-0.9701950169765047,0.05847319966499487,-0.030632124641213364,-0.11648849789388227,0.8968410459326803,0.0013655172050821758,-0.12201434630306324,0.4251617933047744
2.120000000000001,0.43031165760802825,0.9631964692156284,0.9540584624356743,-0.2101715888016488,0.09965281410198748,-0.9725526547672415,0.08659370645513742,0.018764086021695832,-0.14561552756367657,0.8954325456359858,0.0005173548907395963,-0.1171075500858929,0.42949950334906833
2.130000000000001,0.4812159355135652,1.0188857978971495,0.9830419685835559,-0.19955643206504103,0.09709479661284137,-0.9750433086591915,0.10464463260898793,0.04114677250800286,-0.15662554769033907,0.8939136906134008,-9.403949327615167e-05,-0.1116632150458026,0.43408814954594777
2.140000000000001,0.48933266948750154,1.02192352711646,1.0204141271040628,-0.1886095348293305,0.09427297679803785,-0.97747729597169,0.15076013780258815,0.06863132117146153,-0.16212433148602975,0.8922667850795298,-0.0006971212980453682,-0.10602981177083642,0.43884393840582564
2.1500000000000012,0.4660465458495744,0.9884979857013868,1.0515977570774249,-0.17774203422589185,0.09146511430840096,-0.9797996051713093,0.19897833865920764,0.08973028769527067,-0.16076062675054645,0.8905283028550108,-0.0013173039447463212,-0.10044995646071724,0.4436788597647846
2.160000000000001,0.3900530977757537,0.8971894474595223,1.053597635784226,-0.16749939612673423,0.08899672218518899,-0.9818277533768804,0.22256584542168326,0.08468763655487371,-0.14358859131618545,0.8886397745925585,-0.0020015159278134113,-0.09525278866142588,0.44858030846732444
2.170000000000001,0.24511987110785505,0.7707894494766127,1.0442990769894027,-0.15850739795544233,0.0877325954036873,-0.9834305364923238,0.24909897473370493,0.034587094230302526,-0.10231900525412962,0.8866617275264104,-0.0030007245728289706,-0.09091685857580123,0.45335577545059214
2.180000000000001,0.06332060675525117,0.6221039776587222,1.0223830894602783,-0.15053941066955998,0.08755850509684701,-0.9847127439926484,0.2705021074752877,-0.031144858848892412,-0.05721824863771743,0.8846334683295664,-0.004290226380015655,-0.08730817579924521,0.4580099626734732
2.1900000000000013,-0.15822420308120513,0.441503198540369,0.9721271232489718,-0.14447154151079045,0.08955927205495356,-0.9854406614865987,0.2713468771783386,-0.09476048320971572,-0.0282815258654949,0.8825458277142789,-0.006165777754965708,-0.08508125919962796,0.4624125738461984
2.200000000000001,-0.3298627687843951,0.308320902902902,0.9104054141401186,-0.14005009889194103,0.09349231281907289,-0.9857102877128925,0.25673131225391466,-0.19031545334254985,0.010672427517845182,0.8805294994598686,-0.008565507143593727,-0.08406850949193242,0.4663826075570222
2.210000000000001,-0.45105974838301055,0.21687506605661097,0.8628930227416743,-0.1364658490349689,0.09840432271161735,-0.9857391621744155,0.23627185436534962,-0.2737970933989689,0.04707471918972737,0.8785407540483259,-0.011227040738015448,-0.08367771749162034,0.47013951118202274
2.220000000000001,-0.4626896839290931,0.2082199983990284,0.8790307279665025,-0.13364926119113,0.10420496717149884,-0.9855277917039525,0.21555027261164394,-0.2746850396915999,0.06182477787070646,0.8765553774821221,-0.01411667300630064,-0.08386875963545551,0.473718242564798
2.2300000000000013,-0.41851854308657527,0.2293614737260211,0.9097827081907104,-0.13046732676747058,0.10966006146483437,-0.985358169457837,0.2005437650432626,-0.21215291300463376,0.05591961271169585,0.874474155319378,-0.016925704789345228,-0.0838455373466488,0.4774551716325749
2.240000000000001,-0.3509471658174584,0.24853851293506904,0.9422717884651737,-0.12712635093183963,0.11475021167806715,-0.9852222574976738,0.19191721656545743,-0.13428445349523846,0.04369401340178938,0.8723302689643885,-0.019602813462297277,-0.083684234603359,0.481295374151808
2.250000000000001,-0.2766157013673738,0.21962462558537882,0.9608297829324347,-0.12372025891288241,0.11901175347756224,-0.9851493376800039,0.1982255044408116,-0.08898938089549166,0.03733765752808275,0.8700944250274455,-0.021919316772533975,-0.08332453303996679,0.4852867965131401
2.260000000000001,-0.2033908621241856,0.20033821683760059,1.0049490292537318,-0.12047695583306972,0.12245765415214191,-0.9851285531600452,0.20884237453226911,-0.030587278460391568,0.02847778943320023,0.867747675854737,-0.02382606478819745,-0.0828624805797498,0.48945390481509266
2.2700000000000014,-0.1388636868609111,0.19117556225736548,1.0673245902481414,-0.11727352936816482,0.12543345965628153,-0.9851440291637755,0.21639326245308413,0.023598380068459893,0.01933468278384285,0.8652907270227183,-0.02550417278823723,-0.0823214893143087,0.49379758725662487
2.280000000000001,-0.10501325870619502,0.2053917446391633,1.1597380679304088,-0.11397760515693925,0.1278685414305238,-0.9852171472408737,0.20618457719604877,0.04274407495855591,0.012840140088722748,0.8625883222205607,-0.026938583651742027,-0.08163853354676097,0.49853755075212797
2.290000000000001,-0.0720906704678721,0.2416518689807963,1.2649117126206433,-0.11014634733404122,0.1300541444814498,-0.9853639100991207,0.18412152763048484,0.055878887027568325,0.00038916814209195676,0.8595949577186462,-0.028366062784023933,-0.0806948211028914,0.5037428312173188
2.300000000000001,-0.046861235315522685,0.27870485582247195,1.370324301322795,-0.10595463870915217,0.13209597321119063,-0.9855543457053321,0.1619542377161094,0.06417709977414796,-0.01302444760604922,0.8563953075558812,-0.029801765105603516,-0.07958408862761698,0.509265624221786
2.3100000000000014,-0.049869183118792335,0.28386095119016386,1.456423729103957,-0.10121993620585329,0.13397822506995033,-0.985796642637427,0.1581838163391047,0.06333016078016197,-0.020709435425781332,0.852860462373273,-0.031280215877106256,-0.07824189613791825,0.5152766324187908
2.320000000000001,-0.06930405857730373,0.25010002234703677,1.5225989562427582,-0.0966045652575898,0.13605908229235594,-0.9859721617923102,0.17356928191967486,0.06283365952366854,-0.019292619511342243,0.8490688522437891,-0.03280456457019156,-0.07704354560258214,0.5215712365167618
2.330000000000001,-0.09753837629518156,0.20059814456619351,1.5719771186565592,-0.09216896812290128,0.1382997030147643,-0.9860894480466561,0.19331470098137102,0.06082902023422051,-0.01262995914885332,0.845115367120488,-0.03434677167637086,-0.07599230429961744,0.5280237142406885
2.340000000000001,-0.13316808864422616,0.15410545615185162,1.5877608689458595,-0.08825291320288249,0.1408443528619682,-0.986086355199577,0.19795585506441143,0.05216337819342593,-0.00038089690008742856,0.8409484464912668,-0.03588259056620369,-0.07528750905715402,0.5346278280524717
2.3500000000000014,-0.1741106340863925,0.13603737928907914,1.6100812785450285,-0.08455861120254436,0.14376755726032553,-0.9859858252650783,0.18095444859308024,0.029492506135585437,0.034411097956155025,0.8366600893026438,-0.037524315422570204,-0.07481526055924483,0.5412556260874276
2.360000000000001,-0.21593259206758836,0.13490224159372063,1.6342170387424224,-0.08091277226077155,0.1469598059474565,-0.9858239417051328,0.15545329685545461,0.0013192627716286844,0.07553363294595584,0.8322798351757779,-0.039268952930445286,-0.0744645069157382,0.5479103215446918
2.370000000000001,-0.2517147969005015,0.15268914707541292,1.6539946102565524,-0.07706410269037664,0.15058646596095734,-0.9855833301552708,0.13395195057276862,-0.024274264222544122,0.10191921921970884,0.8277368029280904,-0.041250952145152606,-0.07419717378517501,0.5546343676393461
2.3800000000000012,-0.29184339598749465,0.1626654086631712,1.6695921036923402,-0.07297085109874256,0.15450926698603135,-0.985283202005415,0.10922463001232746,-0.06247502127214722,0.14976708011574863,0.8230919594340907,-0.04342860921222723,-0.07395577314611296,0.5613588185690813
2.3900000000000015,-0.34436932509957535,0.1599394980008729,1.680507051876199,-0.0687802016377641,0.15874585569049185,-0.98491553953906,0.08714598402846957,-0.10141778104486675,0.20165795040577095,0.8183710688527184,-0.0457660740566307,-0.07379686866246313,0.5680756987422495
2.4000000000000012,-0.4424930130459206,0.11709795479803871,1.6791920642237455,-0.06464520758094072,0.1637704815561648,-0.984369973896602,0.08298053979625311,-0.11880516820793487,0.2289945953648449,0.8135182807677053,-0.04841668868048708,-0.0739472682107534,0.5747587167964331
2.410000000000001,-0.5201093497139063,0.0817965566728342,1.643432646665032,-0.06091923424516182,0.16962697339744148,-0.9836088357033541,0.07637469573176112,-0.134765000257002,0.2581485493289536,0.8086306738991693,-0.05129619562346167,-0.07455816485860278,0.5812781834681225
2.4200000000000013,-0.5720847693188307,0.05680412836680891,1.5862952914733293,-0.05742287076637531,0.17590166040044367,-0.982725095069127,0.06853716441045803,-0.144904043461019,0.28260658356292695,0.8037666373520168,-0.05428828465658202,-0.0754176896662077,0.5876293755157384
2.4300000000000015,-0.550507878539283,0.06287615048164905,1.5045674418413981,-0.05410788638937678,0.18232266867366703,-0.9817385165028174,0.06024824750028628,-0.1315105187503442,0.2817925700028703,0.7990838657430397,-0.05730929077939904,-0.07643635195942786,0.5935592037875166
2.4400000000000013,-0.4884780609354159,0.08734988722918446,1.4334904756828917,-0.05065893166727688,0.18811712364050853,-0.980826904843915,0.045465794078945854,-0.09006736188001405,0.27419941426814143,0.7946069886195307,-0.06013912486373258,-0.07723581645617306,0.5991545013940918
2.450000000000001,-0.4009238210232458,0.12823202650385346,1.3716922468148893,-0.047021540258564844,0.1933324900843739,-0.9800019651795616,0.0278439656454537,-0.04114707649106262,0.2622447065953608,0.7902708127721856,-0.06280821707927366,-0.07780027207641348,0.6045356443177713
2.4600000000000013,-0.28386560960981777,0.20541095382701202,1.3298610698469315,-0.04279099427838497,0.1972147062649301,-0.9794194280595921,0.011483703346894216,-0.020505964811670493,0.24494448019095286,0.7861362476020475,-0.06514658515240479,-0.07774376070021782,0.6096581276564598
2.4700000000000015,-0.1901558840705675,0.3116673393858731,1.2827088160371651,-0.03759866298937336,0.1999672965983905,-0.9790703755121114,-0.015490534903402131,0.005441700305290377,0.20875716981913223,0.7821784592567795,-0.06736164054072995,-0.07696700647567539,0.6145818800807323
2.4800000000000013,-0.11961660747419824,0.4269535736909122,1.2386022203373737,-0.03166393758712226,0.20202828604495723,-0.9788614571635662,-0.04528297948458674,0.03118504650825726,0.1672565176908981,0.7783440263183637,-0.0695563853001447,-0.0756902248461703,0.6193576356008086
2.490000000000001,-0.10736828869828832,0.5158490964283802,1.222781117971812,-0.024386790581848474,0.20341300919485733,-0.9787782675075186,-0.06305613674488468,0.042864509419976896,0.14565345666683693,0.7746909414363897,-0.07195283446332766,-0.07368735828618926,0.6238829801273172
2.5000000000000013,-0.10823905194812913,0.5440967643923463,1.2139827778058498,-0.016746786487066772,0.2047097179981216,-0.9786615821076697,-0.0713430098521596,0.06371240282295627,0.1124711882399328,0.7710211393051393,-0.07445917630067828,-0.07154476770995223,0.6283619203543823
2.5100000000000016,-0.11589690281070739,0.5496116718733003,1.2060010147777742,-0.008891253582965738,0.20596070785697654,-0.9785126190777061,-0.07489648598199691,0.08558349839615556,0.07499128073029393,0.767350075580166,-0.07703980636245315,-0.06932476827541528,0.6327901642900183
2.5200000000000014,-0.12428101411884794,0.5970105282172948,1.1836647566419745,-0.0008700823256431456,0.20720585597244498,-0.9782835538547762,-0.0788370709834103,0.08848999388492271,0.04573116243129103,0.7637167528374733,-0.07971778607729076,-0.06707021604073916,0.637076137028547
2.530000000000001,-0.14003394892603543,0.6683961461010259,1.1825825336861535,0.007877404704262,0.20845131053427918,-0.9779768584029012,-0.0985535516836662,0.08722022248805031,-0.0027191221798314805,0.7600864532425352,-0.08266619590866146,-0.064565436828056,0.6412800883989974
2.5400000000000014,-0.16115793859717467,0.7388255987885056,1.1880188543362542,0.0171025724859485,0.20972715700823266,-0.9775999757172426,-0.12458207580550702,0.0832681030480766,-0.05634533439392908,0.7564489658981642,-0.08580802068614096,-0.06191099047542949,0.6454291222511669
2.5500000000000016,-0.19067208828617715,0.7352510336677605,1.1683524816829476,0.026870540474297697,0.211169109600989,-0.9770599608880072,-0.14007467800676304,0.07654812005386512,-0.08340745199047671,0.7527633214892372,-0.08923743631134015,-0.05915141403876039,0.6495115072630957
2.5600000000000014,-0.23355334581750736,0.6998629714686712,1.116833794207964,0.03624298383181058,0.21290648945604093,-0.9763751464335778,-0.15208103509790283,0.08333656468454721,-0.12977018055348127,0.7491716292924508,-0.09269548338285004,-0.056658824865178224,0.6533871524841264
2.570000000000001,-0.2744734715484889,0.6491429306302509,1.051176355989695,0.04526689629835793,0.21484303983772965,-0.9755914730736127,-0.1618638589269846,0.09818748432572995,-0.1813963351141142,0.7456619289253337,-0.09614834375052166,-0.054376648418171865,0.6570995374782239
2.5800000000000014,-0.2625730683300497,0.608531429718193,1.0026451839611616,0.05350368584838596,0.21701401031477552,-0.9746857447020987,-0.16961340362817326,0.11771909119270109,-0.2035478213682969,0.742334590082813,-0.09948236615851726,-0.0524821386665494,0.6605098362590766
2.5900000000000016,-0.2175036462490071,0.5906505723738794,0.9573566689341895,0.06148185192468203,0.2187451717619335,-0.9738248954082411,-0.17992289878096165,0.13245774938498753,-0.218217897704784,0.7391351851234018,-0.10259476810450288,-0.05054486859189249,0.6637626295147429
2.6000000000000014,-0.1575524495978559,0.582861939770434,0.9089203139903392,0.06926665815210599,0.2200985470978882,-0.9730097139317891,-0.1925267635615775,0.1418821155643504,-0.22585047943158093,0.7360493761468472,-0.10552420768144365,-0.04855545269949385,0.6668831400635894
2.610000000000001,-0.11850896763350216,0.5600980301427289,0.830391697446536,0.07674327892451677,0.22062945610753254,-0.9723218330199151,-0.21049940698022637,0.13504748855917081,-0.2157682737767277,0.7332253798545145,-0.10808432813008757,-0.0463921317257563,0.6697274556074041
2.6200000000000014,-0.1540526794030333,0.5084447480167043,0.7361350360751184,0.08360773235069702,0.22140013384855053,-0.9715799101010328,-0.22681109321132883,0.123888072180337,-0.21184501084381296,0.7306741203999224,-0.11056284987699219,-0.044508386661587296,0.6722345200901981
2.6300000000000017,-0.2302082677004738,0.4395460083863994,0.6385311730179904,0.08993758792454735,0.2224722952180603,-0.970778764967893,-0.24127122318459227,0.11157412203065793,-0.2096753997856922,0.728318678872584,-0.1129981293161428,-0.0429044605578248,0.6744923883506666
2.6400000000000015,-0.2951018965321829,0.3652628679073091,0.5768499709143569,0.09506543315901753,0.22460752949790197,-0.9697941536580067,-0.2498907452359524,0.10763214800254184,-0.1962872948958222,0.7262263475785296,-0.11545336469317016,-0.042078879737408086,0.6763795139150038
2.6500000000000012,-0.32698771761322376,0.3407174801906833,0.5127053982690215,0.09971163238031065,0.22709444870499831,-0.9687469128037071,-0.26874313781996356,0.10102507354585931,-0.18856816727735146,0.7242866284294396,-0.11788991546865081,-0.041535423049818776,0.6780702882722832
2.6600000000000015,-0.3376976197904552,0.3485544794552256,0.44616384908215967,0.10409383325164401,0.22979763324754224,-0.9676530172957983,-0.2931021487714636,0.09466573266598267,-0.18606752542010505,0.7224821944137275,-0.1203295015638235,-0.041147691911728984,0.6795922442601772
2.6700000000000017,-0.33550161507493925,0.3790614905243303,0.3731009248455936,0.10859398648783253,0.2325746476067478,-0.9664905618447612,-0.3142596349702943,0.10058787359893016,-0.1965483398654904,0.720991838873335,-0.12286402925852818,-0.04069827909088179,0.6807457703948583
2.6800000000000015,-0.34905746397428444,0.3841304596027981,0.3070926081974431,0.11305811471308497,0.23554659534217035,-0.9652557959268113,-0.33782883974483036,0.10868064353996638,-0.20908011282260097,0.7197106283764924,-0.12547622761173116,-0.04029729717715427,0.6816477764926672
2.6900000000000013,-0.36882452732757176,0.37194995005548914,0.2438119891505991,0.11743692895722344,0.2386598764109492,-0.9639737639078912,-0.3603497669811084,0.11632442224725767,-0.2207415675602316,0.7185909829751596,-0.1281245793229802,-0.039951327206633934,0.6823590650136937
2.7000000000000015,-0.36514808379591723,0.3454735136802063,0.16964148161724657,0.12135560585817932,0.24194881197733303,-0.9626638638661711,-0.3648368933144269,0.11130983661834436,-0.21721964742686922,0.7177315257068243,-0.13069726239301815,-0.03979275856990999,0.6827833303869765
2.7100000000000017,-0.34406164646020354,0.3000588963097479,0.07023134370880835,0.12470844860548641,0.24522191157506124,-0.9614064981454854,-0.3584952234780411,0.10840763543922835,-0.22854063140791048,0.7171681159077405,-0.13308377034228877,-0.03978238218882349,0.6829151696108863
2.7200000000000015,-0.30665933707035736,0.24075704441114704,-0.048066098169873304,0.12754106017511896,0.24841458021609042,-0.9602196795689412,-0.34491650678327745,0.10826719730345302,-0.24820708956406395,0.716869155448016,-0.13527324272773095,-0.0398861138179603,0.6827946013627126
2.7300000000000013,-0.22644588479583544,0.16455053715907764,-0.19180706065679407,0.1290594551526054,0.2510643469728586,-0.9593258110124075,-0.32707811155710703,0.11933059502598473,-0.26161642636054017,0.7171983422275009,-0.1368315674170809,-0.04016392091766592,0.682121238453033
2.7400000000000015,-0.15732056429139576,0.09487615934420482,-0.3207716622803116,0.12959174197593712,0.2531852013451609,-0.9586977805742025,-0.2917866268850265,0.14413493596996793,-0.2906240877139849,0.7179945820101914,-0.13786992432515063,-0.04052941915411243,0.6810516214393842
2.7500000000000018,-0.10231215880954722,0.028857027324659834,-0.4347307051034809,0.12935774928101726,0.254943761663104,-0.9582638615700094,-0.24815574424693218,0.17529352394192455,-0.32577207818591614,0.7191387399837468,-0.13852221273251206,-0.040982752538906736,0.6796843682573153
2.7600000000000016,-0.10537978207510669,-0.04116257490106098,-0.5025072465026745,0.12796936105513945,0.25648248757164394,-0.9580389597274511,-0.22691256180211702,0.18709282147418324,-0.33014858398146835,0.7207065452537136,-0.1387132446715109,-0.04170018798110101,0.6779375383817873
2.7700000000000014,-0.13440826590691954,-0.1223668812144659,-0.5765726118895184,0.12572785130589614,0.2583219326195853,-0.9578391042231932,-0.20052085386559282,0.17244026493938647,-0.29087645991274536,0.7224384400486409,-0.13873503592177053,-0.04280225805148911,0.6760165059761452
2.7800000000000016,-0.1792746003193772,-0.21007582504962635,-0.6615379105621738,0.12275072423848717,0.2604422229577222,-0.9576523370122626,-0.17391849279390142,0.1392646813091694,-0.22417125877003807,0.724326291459436,-0.13862145155011452,-0.044240583173948855,0.6739258647208557
2.790000000000002,-0.21468078993846718,-0.2909086182537478,-0.8062629203195544,0.11819432571603825,0.26330847243622907,-0.9574371893751468,-0.1749348433323209,0.09477033789185822,-0.16630399881928815,0.7266450003687464,-0.13828729806265683,-0.04643132383827555,0.6713423162761581
2.8000000000000016,-0.20628659535612667,-0.3426349306812921,-0.9541516421790988,0.11275264337416517,0.2663332010768172,-0.9572504689608609,-0.19321512548635433,0.04541718867889816,-0.09849712560798665,0.7293961313851386,-0.13775888344710488,-0.04891949148008893,0.6682779670834083
2.8100000000000014,-0.1577206131928753,-0.36835416310832536,-1.1021845337514984,0.10666479264926328,0.2693400886848517,-0.9571166263597654,-0.22112606794377432,-0.0011851309532470054,-0.03048728666039643,0.7325092170099803,-0.13704421289257934,-0.051571660658622176,0.6648190524102418
2.8200000000000016,-0.006752368270660447,-0.3325208531960382,-1.231580928640126,0.10007228997069897,0.2711768036790252,-0.9573023161401613,-0.2308358730017818,0.00889527054081082,-0.02338884574716191,0.7363062024444729,-0.1357990129677115,-0.05389215157220049,0.6606741570246679
2.830000000000002,0.181748140116622,-0.2779910701307461,-1.3386581382178584,0.09364691359697558,0.27144143527133924,-0.9578765877649353,-0.2358402032579684,0.051746089312793904,-0.04090561391762952,0.7405296449956592,-0.13405949061062797,-0.05555738694855725,0.6561485248923398
2.8400000000000016,0.39375630046703564,-0.21058127667014873,-1.4277653141078828,0.08740500369355081,0.27035815208359826,-0.9587809256443928,-0.23670003959212452,0.11385535166296987,-0.07375745878853988,0.7450948029342664,-0.13190492105963011,-0.056652938095540235,0.6513199018415949
2.8500000000000014,0.5823307357163274,-0.1429122409989331,-1.490099664390482,0.08186243833804423,0.26655091680719994,-0.9603268733612563,-0.22828475955718533,0.14258298419289409,-0.09040189290728047,0.7501547693038808,-0.12898348102674267,-0.05653291278200439,0.6460708298255049
2.8600000000000017,0.7313029618946973,-0.09085574215414546,-1.549507578159162,0.0767104071042588,0.26136347417887773,-0.9621690064041838,-0.20848642325432212,0.16567664661210835,-0.10950465361268563,0.7554391889332817,-0.12566972262885692,-0.05581198396911318,0.6405961309437387
2.870000000000002,0.8469810835288213,-0.053294856577107495,-1.6072274719657347,0.07185244654621677,0.2550912417341319,-0.9642385160927849,-0.1809735351057933,0.18299492912301138,-0.12815973237913014,0.7609049250860771,-0.1220425506457839,-0.054627197349572006,0.6349291720827924
2.8800000000000017,0.9037343125686083,-0.054122342628480286,-1.6691381246250911,0.06719652722146052,0.24760152676509037,-0.9665093906614002,-0.1570524919483134,0.18043591310786225,-0.12265093657624761,0.7666229235388539,-0.11801325478423823,-0.053005620454029,0.6288980347927325
2.8900000000000015,0.9302845212452189,-0.058953811748779894,-1.740033372910187,0.06239315496292556,0.2397390172969469,-0.9688039760576745,-0.11787482999751359,0.15965793761311362,-0.10422200804898973,0.7724884229312847,-0.11379375827569,-0.05135498971608,0.6225930018680682
2.9000000000000017,0.9305462610144163,-0.06815726538716452,-1.8150161226644759,0.057467076031675876,0.23163053673395886,-0.971099785393127,-0.0694860744024466,0.12771923313524572,-0.07717712365832576,0.7784724799534171,-0.10944163838694913,-0.04970311842914795,0.6160529373838409
2.910000000000002,0.8778462319199202,-0.09510541891448876,-1.860624566843649,0.052350566548082095,0.2238175272155037,-0.9732024510858325,-0.043530141154803775,0.1206208282063615,-0.059269790259519915,0.7845963827479544,-0.10515408375995591,-0.048291047675397866,0.6090732745350472
2.9200000000000017,0.8176749241927935,-0.1290542863795262,-1.874847836008508,0.04699536364318251,0.21641521411192674,-0.9751466368360828,-0.010657273157184594,0.10539193224238656,-0.028088094611205768,0.7906642299725879,-0.10095670412266454,-0.047168808622928805,0.6019773001849715
2.9300000000000015,0.7526350712745118,-0.16684675030997495,-1.864234891634043,0.04145321476177701,0.20937169551249055,-0.9769532765334588,0.02596444387387885,0.08470992593335619,0.011123193154500645,0.7966707094398215,-0.09684474849194485,-0.04629197372222736,0.5947975864815279
2.9400000000000017,0.6968496720338085,-0.18640569760192977,-1.834132277231736,0.03578867494445126,0.20303308995238092,-0.978499963104638,0.043921902320407415,0.0720356193609332,0.025632767495698067,0.8024159614494276,-0.09297602274204397,-0.04580877100213901,0.587656160161298
2.950000000000002,0.6341969968514606,-0.18612536177438624,-1.7979186473515016,0.030251362468163505,0.19704313832366815,-0.9799106532522311,0.07031148973312665,0.057270036082797765,0.020844849471122327,0.807987618458884,-0.08928578734477156,-0.04545315997523147,0.5805768905475223
2.9600000000000017,0.565131256844601,-0.17308059383760396,-1.755342898405607,0.024834326569366606,0.1913895128741761,-0.9811976895891843,0.10247835864805298,0.04262951121091365,0.0013532489477657318,0.813401874903907,-0.0857672090159333,-0.04521410486783723,0.5735589661825653
2.9700000000000015,0.4789169055390313,-0.19551548174107458,-1.6878389176149067,0.019756599301505504,0.18676487685484008,-0.9821945128864842,0.124760705744454,0.053425473087308946,-0.017381961859683843,0.8184521680755785,-0.08276770845402218,-0.04525535417143059,0.5667449392401331
2.9800000000000018,0.37875987188875987,-0.22926256546440038,-1.6009036262179397,0.014545057269913685,0.18280021218587889,-0.9830315712782977,0.15591140138394388,0.06845180045496353,-0.02850439170198761,0.8232098661118896,-0.07999945509670132,-0.04561333416562244,0.5601868093126736
2.990000000000002,0.26626582885681,-0.271580200567753,-1.4980697748642275,0.009217486706198699,0.17945536734061812,-0.9837215315695231,0.1925841784457316,0.0857716774972824,-0.032534132662684234,0.8277015458049409,-0.07745181111280484,-0.04626018548440158,0.5538656065144686
3.0000000000000018,0.13075661006303696,-0.30874722147907824,-1.3846016217361337,0.0037083638439647532,0.17779353698800693,-0.9840528627258305,0.2054019379511448,0.08607327965234017,-0.018093074524518804,0.8315923682851887,-0.07555068209812524,-0.04757251900233267,0.5481406562955984
3.0100000000000016,-0.007916113509298842,-0.3465328534313869,-1.2889774117801271,-0.0019331325636491165,0.17719318045648502,-0.9841653440181156,0.21370903183045045,0.06392602034002812,0.02699298627597431,0.8351789597764308,-0.07406384958688163,-0.04928483848913149,0.5427144981240158
3.020000000000002,-0.14734132343233308,-0.3867396523801937,-1.209427059121719,-0.00771524792218819,0.17754055488821335,-0.9840815203004097,0.2182922079173945,0.024267553351376196,0.09559180383257357,0.8384999868999767,-0.07294212174654695,-0.05136194556141184,0.537546697631918
3.030000000000002,-0.2529751858666849,-0.4631052387370539,-1.1617452701352227,-0.014135798030264345,0.1796248265173337,-0.9836225497242658,0.2212005547725496,-0.004503398863597793,0.1419588552473032,0.8414372900752504,-0.07240808296510844,-0.05423765511636681,0.5327095153316214
3.040000000000002,-0.3216190494235086,-0.5380017486445207,-1.131466750690417,-0.021195514006907896,0.1821845200263896,-0.9830180950941645,0.223325861484663,-0.03205534704800207,0.19696363174628434,0.8442389845271263,-0.07193030660029359,-0.05753214461486395,0.5279720973896007
3.0500000000000016,-0.3564259918958063,-0.6087880464239506,-1.1145338396120277,-0.028809470611016796,0.1851395371489689,-0.9822873378266169,0.22477798486471848,-0.05700636638442751,0.2566444356015284,0.8469213411059424,-0.07149559346348221,-0.06118571925443024,0.5233224039887595
3.060000000000002,-0.3210037746802401,-0.6168105574773645,-1.0748345820380527,-0.0369769681623948,0.18813925608750634,-0.9814273582637595,0.22567803931661032,-0.04743016288565124,0.26279814643752797,0.8494483736286634,-0.07098551681872058,-0.06511412566849006,0.518785467773614
3.070000000000002,-0.24607471795499988,-0.5942386773913011,-1.0127909828561532,-0.04486205868926657,0.1904406995377458,-0.9806566922872696,0.21154559923640606,-0.01530219681760887,0.2652538563998738,0.8518399548661046,-0.07026083672896079,-0.0687646171645085,0.5144761123134491
3.080000000000002,-0.13739480849483512,-0.5464073825237923,-0.9310895858867753,-0.05247539720650306,0.19208652796290457,-0.9799727318113456,0.18534930277698455,0.03475464102627707,0.26458042820824546,0.8541054422223557,-0.06933476646332663,-0.07215137190946275,0.5103817172410252
3.0900000000000016,-0.023559886576775463,-0.5170608237111011,-0.8318994819950303,-0.05927088036583956,0.19212804348715712,-0.9795669344138289,0.17713162791407233,0.05350241933112498,0.26419493257617027,0.8560874440643924,-0.0679182569782841,-0.07482786621941269,0.5068430724649271
3.100000000000002,0.08090232031455746,-0.487360973988317,-0.729826053251718,-0.06568746813957611,0.19133873880853286,-0.9793131509448665,0.17208289685406095,0.060176603443438864,0.27673503040541847,0.8578788234562292,-0.06621862304636478,-0.07716471161350182,0.5036815758478623
3.110000000000002,0.17555999499057182,-0.45676724659348333,-0.6251451692541693,-0.0717459120100441,0.18979512487343783,-0.9791980335983141,0.16983080802881348,0.05608673595083335,0.299899511409421,0.8594931108187618,-0.06426469871510325,-0.07918776521780219,0.5008698713812934
3.120000000000002,0.2191619320740041,-0.40790317715916247,-0.5174999351824291,-0.07693157569949906,0.18730444124257367,-0.979276504679972,0.16868231098754202,0.04439662650782267,0.30316535966539776,0.860764646382685,-0.06207410768087778,-0.0806546273319598,0.49871803661045067
3.1300000000000017,0.24085473804886698,-0.36365027034826075,-0.40247090852295364,-0.08156293098834061,0.18469795717547488,-0.9793985773976097,0.16613816510688037,0.031059240267242105,0.3071071450443501,0.8618186155616375,-0.05993981209970273,-0.0818850600945647,0.49695753435523154
3.140000000000002,0.24251276883940676,-0.3239740895689831,-0.28120547609939633,-0.08568046587327384,0.1819940198624734,-0.9795592890105435,0.1625404103736661,0.016663567569483208,0.31150639363817045,0.8626675032440024,-0.057861421794413795,-0.08289910223817828,0.49556499096649004
3.150000000000002,0.22680310506072765,-0.30216615370136607,-0.17444343915299235,-0.08908488370049397,0.1795314610492284,-0.979705909776954,0.16662487716191357,0.018649073634904395,0.31010005545953756,0.8631020159078011,-0.05600237004708791,-0.0837182974223839,0.4948815655415242
3.160000000000002,0.21026919249387602,-0.2706368760822588,-0.06254801189360061,-0.09209925297999462,0.17730195379668975,-0.9798346951182056,0.1686521781183815,0.02707010258815712,0.29736037534471343,0.8633299217479496,-0.054308828701404056,-0.08444977020796628,0.49454926178464564
3.1700000000000017,0.193901114327694,-0.22917515448684742,0.05447519439057679,-0.0947322183576811,0.1752865619370322,-0.9799490943536543,0.16867375073333965,0.04134146172720698,0.2743138230440147,0.8633602684365845,-0.052771674550107554,-0.08509139481480323,0.4945540525835685
3.180000000000002,0.22732749762628723,-0.1332682577909548,0.19392816514724984,-0.09610453296148086,0.17328104178633466,-0.980170705143157,0.16236197687445786,0.0525232109966093,0.25648749713187075,0.8629640713900928,-0.05147499572027207,-0.08522980098816575,0.4953565658881076
3.190000000000002,0.24360291215456836,-0.007403699896911073,0.33766402267608187,-0.09630914153572159,0.17124032635625466,-0.9805093336635442,0.1480767626668097,0.06256920913954479,0.21668820318880094,0.8623343122048251,-0.050410820168366066,-0.08487260819978247,0.49662114973145266
3.200000000000002,0.2430838823859998,0.14641090588394404,0.4855190238192492,-0.09538342327671295,0.16917364921737998,-0.9809597254881733,0.12644007319962128,0.07143396042919356,0.15666175126850862,0.8614787121376338,-0.049575508335134355,-0.08403773024161708,0.4983316262083176
3.2100000000000017,0.18856194486925187,0.27776183143191147,0.6405586698363951,-0.09188621122458267,0.16771315131404488,-0.9815405859607377,0.11817194131224754,0.07089473443653878,0.13615922833005178,0.8601294075875373,-0.04957293387494508,-0.08228427859481593,0.5009427214507843
3.220000000000002,0.11641303780352041,0.381195551531558,0.7810502472079147,-0.08746566866142752,0.1668588578041767,-0.9820862807713072,0.12281961870212049,0.054464828333039866,0.1192555398828793,0.8585095239723071,-0.05003725067624641,-0.08031382738508316,0.5039810526834988
3.230000000000002,0.026954393600977112,0.45744228344839605,0.9072283945769154,-0.08214658682163713,0.16659979996282426,-0.9825966222190393,0.13990360930882867,0.022769953486541313,0.10584449886259036,0.8566258776563707,-0.05095831556679563,-0.07813370934319391,0.5074351417605848
3.240000000000002,-0.11361199480682875,0.49531764346412765,0.9861455877864134,-0.0756780447822672,0.16808737267965834,-0.9828516465795751,0.14826455838642683,0.008493079580862727,0.0951271714798258,0.8543215416742012,-0.05290779954264607,-0.07596496633133545,0.5114198013253187
3.2500000000000018,-0.2409650811804426,0.5013389365416865,1.0537235273988936,-0.06907541805063457,0.17054897701491525,-0.9829104220158521,0.15692008801176274,-0.0007653264095598665,0.08175169484886481,0.8518405476015891,-0.05531144770486994,-0.07402608064409108,0.5155679193087289
3.260000000000002,-0.35521153323070365,0.4757633126646454,1.110053752396865,-0.06233978905921073,0.17397674985286915,-0.9827745327967723,0.16586782010912174,-0.005045777331782564,0.06573952754944903,0.8491843215554931,-0.058165593698609366,-0.07231519670027656,0.5198781761515339
3.2700000000000022,-0.3305646794239003,0.48416487983539036,1.160199376370946,-0.055747021165597606,0.17807893689223614,-0.9824203411290838,0.15918150858491556,-0.010801611245909223,0.04410548804002197,0.846243915305807,-0.06127378814819512,-0.07091899040976295,0.5244678766504495
3.280000000000002,-0.2893432562628441,0.5601717896409509,1.2314898656143676,-0.04843451307276406,0.18176015953924773,-0.982130186912058,0.14148454310687236,0.002773248200446542,-0.028844267235919617,0.8431762694761934,-0.06439394437694025,-0.06914549160596495,0.5292462281815992
3.290000000000002,-0.231417349324534,0.704936514601614,1.3243053313827362,-0.040389405440747976,0.1850122058401256,-0.9819054546241978,0.11260103198603488,0.036021414816360946,-0.15400809818394628,0.839979472464927,-0.06752597633388688,-0.06698767901666136,0.5342162308502618
3.300000000000002,-0.23899830278656228,0.8263987363922288,1.455784218148548,-0.029806751066974464,0.18768267959592558,-0.9817465001136745,0.10536400131449833,0.06737497495823716,-0.21785887328303177,0.8363299188654322,-0.07109885219469946,-0.06371632612538157,0.5398174932250933
3.3100000000000023,-0.2932267294488663,0.9008642115685173,1.5768942304685483,-0.018477798736381883,0.1906515771544604,-0.9814441634285502,0.1086593501713954,0.08013042059786006,-0.2674689765950078,0.8323786125882926,-0.07501683579907853,-0.060290853498161226,0.5457467461384456
3.320000000000002,-0.3956509879624213,0.926428474995815,1.6868617185664434,-0.006389796016159029,0.1939368784534138,-0.9809915298026974,0.12278135573131425,0.0734749714996539,-0.30269909925772853,0.8281157716868246,-0.07929173557385763,-0.05671338443778385,0.5520134993825686
3.330000000000002,-0.5200006895117824,0.9043072111007361,1.743454937421846,0.0059600508847183105,0.19872389961828216,-0.9799914134850696,0.11323190764578676,0.03821780083070359,-0.2931300022173237,0.8233327140144736,-0.084332730113717,-0.053613359430020144,0.5586456481638712
3.340000000000002,-0.6249382637650931,0.8722196980494684,1.783600392861577,0.018238090542585503,0.20409104799748934,-0.9787350428841662,0.09905037908021648,0.0008321521467372257,-0.2809801883615542,0.8183617252399912,-0.08963339956461762,-0.05079290834719323,0.5653460501893965
3.3500000000000023,-0.7087321621305247,0.830178120962886,1.8069310248351205,0.0304351544617196,0.21005709276773812,-0.9772123559028679,0.08026549431433727,-0.038397785133881146,-0.2667489612260458,0.8131972409379358,-0.09520070970587666,-0.04826484150969576,0.5721140284267441
3.360000000000002,-0.7376629212157825,0.7553919296280662,1.7818248431188541,0.0418445467235597,0.21655953553133303,-0.9753259861938387,0.07860283401227061,-0.037163987967780844,-0.259790833178053,0.8078409457485559,-0.10084019454678177,-0.04636928554424627,0.5788077964543704
3.370000000000002,-0.7484357008951429,0.6849263571502099,1.7510615463640091,0.052840334177019284,0.22295776071923198,-0.973355995720109,0.07854262284326516,-0.038087276977541024,-0.23490623450597772,0.802471069338857,-0.10635268696698733,-0.044675642495797925,0.5853919193828818
3.380000000000002,-0.7405051252506036,0.619969685915942,1.7151956530174801,0.06339941620826944,0.22922896318763947,-0.9713024390184242,0.0798491617677856,-0.04231827464933359,-0.19013681110209985,0.7970906885471879,-0.11172383654352805,-0.04318945809566946,0.5918571624701152
3.3900000000000023,-0.7374880754303506,0.45987456283088646,1.6206467303008045,0.07216557835507517,0.23524157624485606,-0.9692231365249685,0.06796739493877127,-0.0525025962750848,-0.16925070010614873,0.7918460186824205,-0.11651479631250927,-0.04243454124475259,0.5979616836321076
3.400000000000002,-0.7257756993660965,0.3043368319682944,1.502015835475596,0.07964614340459303,0.2411552134980559,-0.9671940806335257,0.0600107200219869,-0.06876879285029813,-0.12940456700900624,0.7868027818213975,-0.12090017493604725,-0.042172373632053665,0.6037489779341672
3.410000000000002,-0.7040928238027138,0.15693277602206698,1.3580424172625887,0.08573172617306281,0.24696524092491748,-0.9652225568597723,0.056899394196833694,-0.0917137786927586,-0.0674041888824846,0.7819826788443495,-0.1248459208463543,-0.042443496412754855,0.609189487768128
3.420000000000002,-0.5975721634481812,0.048384855729836126,1.2275973808398077,0.0895617952253554,0.25199817264097185,-0.9635631258094772,0.04006189350181175,-0.09485737565695333,-0.05469996855098248,0.777746706950595,-0.12781520997267026,-0.04332225741491927,0.6138982948746701
3.4300000000000024,-0.4396631507398622,-0.00664750135444092,1.1280522493835718,0.0928123251993579,0.2559126236396704,-0.9622303996229623,0.01990239646244276,-0.08111113753377831,-0.03977394272640139,0.7737819132485944,-0.13016457696956127,-0.044051126353772355,0.6183542110701179
3.440000000000002,-0.2256100395133454,-0.0012270972629469697,1.063769722656299,0.0954817595306329,0.2585622022892172,-0.961263726303238,-0.0035560506374368583,-0.0485879075558876,-0.020296738246512736,0.7701079230545184,-0.13183476713671535,-0.04458194377247384,0.622546431349483
3.450000000000002,-0.030449491218224878,0.06995576392414742,1.020681432921143,0.09863929581624102,0.25829223871494383,-0.9610151139261878,-0.015749890527939833,-0.030374658026727328,-0.010441124046203834,0.7668502657883175,-0.13251852710314455,-0.04394109459690611,0.6264463745462705
3.460000000000002,0.13334267692660373,0.1300741149529152,0.9860375182991299,0.10217949391336853,0.25681602098004114,-0.9610377933292308,-0.027855360202665318,-0.022820168216306537,0.005806943650713765,0.7637483725301779,-0.13286372576990158,-0.04274071412283008,0.6302356116574439
3.4700000000000024,0.2607739053640781,0.1737821004511477,0.9603846728824894,0.10615050604421108,0.25405011022417634,-0.9613474890583907,-0.04041331683825379,-0.027230328970395096,0.030131677706495216,0.7608110710067111,-0.13285520998110198,-0.040933061089632,0.6339076892297123
3.480000000000002,0.2803426991166033,0.15386516502188913,0.9305560639263033,0.11008435251890683,0.2503008080577987,-0.9618810362276142,-0.035609326921486155,-0.03280641648989485,0.036514592285722514,0.7580473221963433,-0.132485980390337,-0.038786763091294314,0.6374124146704838
3.490000000000002,0.26521073503011233,0.12451492327045682,0.9083378228167043,0.11372790716863004,0.24665170539002712,-0.962402190672587,-0.021122667501391808,-0.04141689603365009,0.03976882226416178,0.7553154231044302,-0.1320791058681586,-0.036774237971706335,0.6408518160237642
3.500000000000002,0.21413971772136092,0.08743602619733942,0.8956577126027472,0.11701932699838735,0.24318343110976368,-0.9628948970011537,0.004150032723421744,-0.0536619429115687,0.04027167931058711,0.7526120738562371,-0.13164774504896792,-0.03494515547070072,0.6442214378620064
3.5100000000000025,0.1593864129468967,0.041413270749780344,0.8979921115884592,0.11970430650668318,0.24043789642160612,-0.9632512037201469,0.009773019891764406,-0.04873867986381095,0.03237049630209504,0.7498337859069407,-0.13132080973681198,-0.033589549438148805,0.6475839462245211
3.5200000000000022,0.10588894609786462,0.0032837191637313003,0.9056037555167504,0.12210601187422167,0.23805490954547476,-0.9635434900373946,0.012502385060121942,-0.03376214187461877,0.019879420035253545,0.7469973033754249,-0.1310484594093453,-0.032468182433984846,0.6509665543980415
3.530000000000002,0.05422281668781469,-0.02432942525157597,0.918776984263847,0.1241952152066168,0.23607561628355458,-0.9637651044261694,0.01298134514310791,-0.0073902873476808725,0.002225329952767849,0.744093146874589,-0.13083719621293646,-0.03160718199836849,0.654374846049191
3.5400000000000023,-0.002894670004809752,-0.03947415692340732,0.9181234500627026,0.12601193932326712,0.23479317159805205,-0.9638416265313375,0.008261588327491045,0.008974804465094986,-0.0029316740707690673,0.7410783260996917,-0.13081356588998766,-0.031094668572933973,0.6578091617941734
3.5500000000000025,-0.06283140061629686,-0.049024419995207846,0.9150157148664758,0.12774893501087597,0.233939113270883,-0.963821250933532,-0.006078605414459828,0.023537912555359718,-0.001957741530985959,0.7380290083457727,-0.13093213960698122,-0.030758912656371613,0.6612218004924968
3.5600000000000023,-0.12595159264186703,-0.05239142451364309,0.909873635529793,0.1294055029983404,0.2335794543818249,-0.9636880292526552,-0.032369755450619056,0.03659551071119062,0.00588707265648833,0.7349443041729258,-0.13121837572207556,-0.030622205465817245,0.6646044486363347
3.570000000000002,-0.1561306261878112,-0.05396827127870915,0.8940792953415067,0.13096437149898446,0.2338299299571231,-0.9634160887739668,-0.049821832129610416,0.03484884117911597,0.017879513894066515,0.7318295432906058,-0.13170931399742714,-0.030732238936169186,0.6679242417944405
3.5800000000000023,-0.16959164122487316,-0.052589951168827365,0.8683240601073126,0.13249351301151216,0.23421858850495608,-0.9631126309279118,-0.07286100011815175,0.03022219730602279,0.03790678034453432,0.7287598176414967,-0.1322466294715916,-0.030892399758604933,0.6711609509841252
3.5900000000000025,-0.16404119010061202,-0.04747551217893142,0.8304056756152212,0.13399249306984928,0.23473292302640797,-0.9627804670820062,-0.10410207646129196,0.023170694312400403,0.06815922613628364,0.7257523681859596,-0.13282613124687864,-0.031095784748703777,0.6742937862932401
3.6000000000000023,-0.1404566887779677,-0.03384436165985449,0.784117016255046,0.13549587032488125,0.23507063108201057,-0.9624870925989278,-0.12218153274161334,0.019055226290558967,0.08307153358529488,0.722949930320587,-0.13335212233803762,-0.03120130263342121,0.6771843333265223
3.610000000000002,-0.11708450312469418,-0.015275036521947925,0.7358034108065659,0.13705868821328765,0.23528008571764372,-0.9622146217310844,-0.14311196243257643,0.016183352615026247,0.09504902072404614,0.7202752269471513,-0.13385826435367973,-0.031217792587065973,0.6799302418472191
3.6200000000000023,-0.09590606918733627,0.009091356357238532,0.6856281526442398,0.1387016541813114,0.2353342700193543,-0.9619664009270532,-0.1692997529064304,0.014687752879938924,0.1046674579245953,0.7177520904454155,-0.1343431421884931,-0.031123886235623146,0.6825055977835283
3.6300000000000026,-0.09370955559368316,0.030826171031080853,0.6400272700351605,0.1405057538467146,0.23530737091039158,-0.9617103593020696,-0.17962093386452643,0.01736906859101118,0.10519810416238796,0.7154661540466772,-0.13486996320865585,-0.03089890123929121,0.6848050671619438
3.6400000000000023,-0.10039653547270246,0.05144844283102847,0.6034186971910421,0.14239095724132783,0.2353534624883168,-0.9614217362032782,-0.18941171502321355,0.019652897980399826,0.10300598732427133,0.7132678170350998,-0.13545943063658397,-0.030653640117789357,0.6869905711942619
3.650000000000002,-0.11719036228326928,0.0708352428290739,0.578783751973446,0.14436988162821346,0.23551081813101346,-0.961088687409917,-0.2003531311219418,0.020886100347317242,0.09810545187062479,0.7111631875264268,-0.13613111482525833,-0.030395758147775873,0.689050269396074
3.6600000000000024,-0.14565986638133083,0.08101324862315434,0.5521801034371915,0.14643317297362685,0.23602436117752754,-0.9606493777599981,-0.20576202333931007,0.018299835951504764,0.09485315267924736,0.7091470269461162,-0.13697385590345862,-0.03021674029733696,0.6909640071073233
3.6700000000000026,-0.17660481633992914,0.09213202800369434,0.5194260454050351,0.14852479619206313,0.23676996244675574,-0.9601446324817362,-0.21255956604817833,0.013658972105551554,0.08940982894596278,0.7071976441194302,-0.13791778993621,-0.030097338637403926,0.6927778777334658
3.6800000000000024,-0.20953308041653823,0.10582379437211933,0.4781393918363916,0.15064568633756076,0.23779992017594237,-0.959560480902665,-0.22208044969711088,0.006589239157512014,0.08061361324579563,0.7053319587858866,-0.13898362468909287,-0.03005267394988886,0.6944683978596599
3.690000000000002,-0.2268772485978305,0.11211744804304201,0.4350933180510815,0.15278133880446274,0.2392713321346008,-0.9588551136672425,-0.22840714513504484,0.003070555260236997,0.07565197617791196,0.703634690690411,-0.14022782777517623,-0.030128718176678435,0.6959333270920853
3.7000000000000024,-0.2367127962070414,0.11824535549265561,0.39073481676212335,0.15489418726812001,0.24087707893969854,-0.9581140533774553,-0.23246326173075013,0.0030765214842684687,0.06864043699081976,0.7020412632574059,-0.14151884053872585,-0.030242355549322617,0.697275831515312
3.7100000000000026,-0.23782808308199074,0.12522670377541578,0.3447090946419743,0.15697134538083726,0.2426147221804966,-0.9573385292027353,-0.23365726879016935,0.007734048137112975,0.05804881014586653,0.7005754170563161,-0.1428521744922786,-0.0303933233788838,0.6984719299281278
3.7200000000000024,-0.22332510307167774,0.13460903941348026,0.28945884409367867,0.15899622872941604,0.24428855431536628,-0.9565768552369366,-0.23527505078684174,0.011750395928146678,0.05212167449019128,0.6993572180078702,-0.14415500359797281,-0.03049563722211053,0.6994189791833963
3.730000000000002,-0.2069235687879215,0.13719256028308954,0.23295973810488182,0.16093979928994961,0.24590219970307048,-0.9558387573172877,-0.23344430045872294,0.016162756951273533,0.04220889323908307,0.6982946417458544,-0.1454134051654241,-0.030576445444641453,0.7002168829244974
3.7400000000000024,-0.1902226946792373,0.1291252837307394,0.17609145668042248,0.16276928782971314,0.24743552772339636,-0.9551339511865528,-0.226341592490163,0.021277825195665744,0.025517485403110027,0.6974261663695666,-0.14660979387952439,-0.03063280060787589,0.700830687457594
3.7500000000000027,-0.1870790386396076,0.08643557317859162,0.11023683889848228,0.1640467499627006,0.2490242567310942,-0.9545015277256694,-0.22005869602494127,0.024447479482135107,0.015786583045757335,0.6968406140828948,-0.14763753327819623,-0.030851326937802587,0.7011874143874567
3.7600000000000025,-0.18681946445617356,0.04549823283728678,0.0408219132228078,0.16492958065711188,0.250679077547537,-0.9539165193343158,-0.21280120938719882,0.026593687762423875,0.0021238084878811916,0.69643293048049,-0.1485529892095916,-0.031198898644966538,0.7013840008635296
3.7700000000000022,-0.18857391294483314,0.013551056455337086,-0.03248353535501777,0.165300716278823,0.2524263095102189,-0.9533918937562323,-0.20388443816813845,0.027505953791549305,-0.018895116447052156,0.6962496970988705,-0.14932495270397977,-0.03171711960993164,0.7013789346233682
3.7800000000000025,-0.1968160885332876,-0.0211935519739632,-0.11060031183788946,0.16498155552248023,0.2544172019528709,-0.9529168452376326,-0.20401327067814493,0.02892331912224272,-0.03101231190328993,0.6964040900650448,-0.14994951780677832,-0.032498449083667745,0.7010561894576908
3.7900000000000027,-0.20180846366045668,-0.05512364513341599,-0.19486873459804938,0.1642508793035958,0.2565496717109999,-0.9524709136867088,-0.2100008380527809,0.027564415698199264,-0.042315489932745386,0.6967689350357439,-0.1504863883543405,-0.033432851175669895,0.7005342028185206
3.8000000000000025,-0.2003314763232541,-0.08719906706012237,-0.28798019008697306,0.16300200305628587,0.25885919364741367,-0.9520615013181649,-0.22352172613303994,0.021681725010770453,-0.05409407559997355,0.6974018566448917,-0.15091288848334422,-0.03455874798417296,0.6997580289449352
3.8100000000000023,-0.172810444334971,-0.09767120347752874,-0.3929705968440185,0.16115533940618407,0.26117004898760343,-0.951742690030667,-0.2310968066056817,0.019004575203928634,-0.05927861594150231,0.6985016639604147,-0.1511494228671543,-0.03579959862623315,0.6985451356474939
3.8200000000000025,-0.12999912797344393,-0.10006236025329082,-0.49624858884566025,0.15905300699038216,0.26330992256680347,-0.9515072842647134,-0.23914323170157262,0.022830277076837612,-0.06726245588759078,0.6998882239908872,-0.15124814910170467,-0.03701073254865429,0.6970707620368192
3.8300000000000027,-0.0678374480995915,-0.09393616522309386,-0.594133020623473,0.15666251045414584,0.2651696139682955,-0.9513886535298374,-0.24925781027698896,0.03660190974025637,-0.0812665921035877,0.7016423767259394,-0.15116271307750803,-0.0381481536816916,0.6952635875566661
3.8400000000000025,-0.017126259529505236,-0.080424584972048,-0.7000741912849112,0.15406619649718473,0.26652291085662316,-0.9514328395771267,-0.25263200308320516,0.045065714275909184,-0.09096516053795922,0.7039149333557461,-0.15085248068819151,-0.03907174842997694,0.6929749585911337
3.8500000000000023,0.06003734965291864,-0.061296215898902565,-0.8051580053784272,0.15137419544633565,0.2674733011260721,-0.9515988972677619,-0.2588211982705153,0.052155526514065895,-0.10447991528206123,0.7064946716359107,-0.15038018781704798,-0.039825034313914154,0.690403871735899
3.8600000000000025,0.1844525123440533,-0.034475007617205865,-0.906878058180784,0.14857021235415335,0.26786629096453096,-0.9519312593730955,-0.2713552187953467,0.05819819632056991,-0.1254441051248855,0.7094678338551033,-0.14968872539447173,-0.040342652621004796,0.687472164297847
3.8700000000000028,0.42356459941662505,0.036921111298597695,-1.0292635897060662,0.14593490075334326,0.2660072462737126,-0.9528568687852349,-0.2801474002696502,0.06799301943648944,-0.1580908776053762,0.7131095737063181,-0.14825287488545635,-0.039889105452145725,0.6840239046906218
3.8800000000000026,0.6466247899234489,0.1396092820144412,-1.1422438264789803,0.14383316717126918,0.2626873991051289,-0.9540933660912493,-0.2707928493174757,0.10444140718248815,-0.23769895092396037,0.7171698683848208,-0.14647356608537937,-0.03866007635384985,0.6802188482985903
3.8900000000000023,0.8121199046208072,0.2848714818131844,-1.2335813898966181,0.14261097710055815,0.2574245232813849,-0.9557137800493221,-0.23100743596465015,0.1860389210663564,-0.3955387932782108,0.721780831928192,-0.14429323027614044,-0.03634130549841789,0.6759305124126717
3.9000000000000026,0.8393628143509194,0.2983903857541655,-1.2265032957687194,0.1424485783641337,0.2511644295280252,-0.9573925489146106,-0.1826830118277345,0.24374215818498346,-0.46480003646657675,0.7265507883247665,-0.14208220138320632,-0.03328824391796814,0.671413545841137
3.910000000000003,0.7967486250599798,0.23845820729233827,-1.23020732878703,0.14198659782653889,0.24507613198771652,-0.9590429029605522,-0.11424320759746345,0.26213311587206667,-0.4973148644707164,0.7313025691011947,-0.13981478794689872,-0.030428273975558716,0.666858712237059
3.9200000000000026,0.6688535298650042,0.08501020779024213,-1.2808984579813738,0.14069209262941382,0.23957525563346196,-0.9606262027536772,-0.012414359933919594,0.2173059156967872,-0.4894481682734402,0.7359770941003095,-0.13745569185708617,-0.028119362992745506,0.6623010601195186
3.9300000000000024,0.5192013813615184,-0.05503418297595283,-1.3513275617466955,0.13747829731457142,0.23605391238835063,-0.9619588336385129,0.020211148039765096,0.16606567427345326,-0.4706597624718416,0.7407420707055595,-0.13519364425684224,-0.027206854898423567,0.6574609049742491
3.9400000000000026,0.3965608351529563,-0.19143425572662434,-1.4275044236433116,0.13313852190390424,0.23340893504027138,-0.9632128680725193,0.04880700503575737,0.11632036942438441,-0.43962150124770444,0.7455836222974225,-0.13289554055070887,-0.027015166553326968,0.6524496018057317
3.950000000000003,0.33002893649024745,-0.32527295916247645,-1.5081508025511485,0.12732622054694614,0.2317611493749242,-0.9643998891088572,0.09124131207684086,0.07127711797480508,-0.3895104038816868,0.7505376011219845,-0.13050169394212607,-0.02771473013598397,0.6472116473153661
3.9600000000000026,0.2641133585949331,-0.47777131122009464,-1.5664147185507313,0.1195652915891691,0.230837411872371,-0.9655985873675849,0.12323544558482283,0.065793696530045,-0.35413146687030983,0.755658820615267,-0.12778860213858492,-0.029404011107114682,0.6416752520114064
3.9700000000000024,0.17971368105745614,-0.6379736841690477,-1.6157142128165929,0.11058855529346912,0.23046339923239326,-0.9667528456371968,0.15067243626486412,0.05810949684768715,-0.29276720370835035,0.7608015294951644,-0.12492731168105095,-0.03176051085422819,0.6360296787820745
3.9800000000000026,0.06029454071715368,-0.8064855936287609,-1.6555673714160157,0.099969418498841,0.23088417512970597,-0.9678195210124749,0.1729955358800447,0.033133735648852025,-0.17756404267271383,0.765929136497911,-0.1218929809697858,-0.03504481148621862,0.6302776468637998
3.990000000000003,-0.018151204575817405,-0.9130541285744082,-1.691662386509415,0.08748270078438497,0.2323933673594394,-0.9686312723818817,0.17559009366816503,0.0039536622738354996,-0.11301311488992064,0.7710276682869329,-0.11878775408573089,-0.03945336188702275,0.6243379369257215
4.000000000000003,-0.054167688891946925,-0.9673347655266271,-1.718156930340117,0.0744504200465834,0.2340969956223116,-0.9693210280818045,0.15711089595781821,-0.019044716019394094,-0.051404082947024116,0.7761088499476034,-0.11565100950381361,-0.04416821556884356,0.6182965754985158
4.0100000000000025,-0.02266680843768889,-0.9425244220816625,-1.7273932819707543,0.06103177586636428,0.23578638403543417,-0.9698659242941041,0.10487363565664157,-0.028550274214531143,0.02270426034262968,0.7811668497548474,-0.11247865010654082,-0.04907278592046737,0.6121256233665578
4.020000000000003,0.07769452142957992,-0.8828009651861027,-1.7233051904639387,0.048183652414036646,0.23624718199379968,-0.9704508855838477,0.07997211879585053,-0.015200738856341696,0.049860681273308775,0.7862022467316299,-0.109100528928085,-0.05343242259818778,0.6058677382472119
4.030000000000003,0.20143514058058284,-0.8114149433185228,-1.7201888444316202,0.03581894324062173,0.23572541812135386,-0.9711312617638587,0.059193652471317935,0.008724213679334451,0.06643761215666298,0.7912369101652804,-0.1055316351836104,-0.05733733026666717,0.5995701507243735
4.040000000000003,0.34508643007256046,-0.7303149849718235,-1.7241813064907017,0.02419705567476979,0.23372060315565088,-0.9719864041894789,0.03603129587499104,0.044873825319067036,0.08013257853966964,0.7962788815507745,-0.10166207464882122,-0.060546702572474964,0.5932271076945129
4.0500000000000025,0.4796805815453263,-0.6532953318739885,-1.7207515707793681,0.013624144350607293,0.22976747108310908,-0.9731135523914994,0.032618064349598894,0.0674011094081228,0.08096417430911951,0.8013609638054492,-0.0973837225451452,-0.06282178160832816,0.5868047869374987
4.060000000000002,0.5964466378114046,-0.5822385780738077,-1.7084168082693305,0.0036363453096688128,0.22479201484757513,-0.9743750397896995,0.035111071477500595,0.08809783449813813,0.07819788090828766,0.8064246347621694,-0.09289091405767597,-0.06461032131078615,0.5803805525273239
4.070000000000003,0.6803841680737296,-0.52172159266519,-1.6808984789472858,-0.005588935700370458,0.21853265739908534,-0.9757985424837439,0.04146365298734456,0.11074071665793798,0.0734293451426672,0.811433682278212,-0.08812881353374787,-0.06579079077868628,0.5739855971838022
4.080000000000003,0.7329489034315212,-0.4494825982485816,-1.6481956153490844,-0.013759634300646823,0.21135943669687926,-0.9772772956997995,0.04866925540448087,0.11846809643001358,0.07190383909874382,0.8163080366767782,-0.08331435826625525,-0.0663846111157478,0.567665893980426
4.0900000000000025,0.7709122018969427,-0.3819714291651847,-1.6089341944739606,-0.021319513573859635,0.20376075307366603,-0.9787666366842639,0.05305492285767866,0.11726705244469228,0.07030641583434383,0.8210813195057363,-0.07850308509494536,-0.0666728640565667,0.561414675623664
4.100000000000003,0.792136654565147,-0.3297543412406133,-1.5581344663951442,-0.028062805416636867,0.19567419461505126,-0.9802534479356851,0.05108861586985594,0.10390444734962676,0.06709329205246935,0.8257015181617322,-0.0737221720644539,-0.06657927671326085,0.5552744121630896
4.110000000000003,0.782025413465859,-0.26851700396841666,-1.5127265715490101,-0.033805868858403886,0.18746938313968817,-0.9816599219949855,0.05638986810417897,0.09439577364058348,0.0645469721990614,0.8300929957378063,-0.06915857702400793,-0.0661478970395271,0.549313701266175
4.120000000000003,0.7597433607640436,-0.21123300689069519,-1.4669884297620546,-0.03898416144554007,0.17932464880584204,-0.9830011514404993,0.06558696802948435,0.08471497936601996,0.06290977442901102,0.8343528880738782,-0.06476716614850851,-0.06555953651646061,0.5434495752249292
4.130000000000003,0.7261580067655308,-0.16694467395786788,-1.417912024816339,-0.04341751419112433,0.17136826181494386,-0.984239220681153,0.0797440743058613,0.0727874018252831,0.0629298366539444,0.8384371193504161,-0.060645424998844524,-0.06479314621304265,0.5377087189059488
4.140000000000002,0.6917371266620488,-0.1364525218163106,-1.3743750512018034,-0.04721236419282411,0.16377193266146464,-0.9853476105400267,0.09122935222668918,0.07037186020871275,0.070083181541237,0.8423044103001341,-0.05682619882323011,-0.06394258027911014,0.5321389478901705
4.150000000000003,0.651097360623281,-0.11426696621814837,-1.3291877160695393,-0.05069122814183945,0.15642979175284835,-0.9863763957900153,0.1034635761288139,0.07066859700544649,0.08125107436772562,0.8460418549642522,-0.05318551117201876,-0.06307591233506792,0.5266748508890489
4.160000000000003,0.596924159327831,-0.10352978535343228,-1.2773973599445898,-0.05379402122144704,0.1494704497627419,-0.9872941434590544,0.11877688706297648,0.0720860070740253,0.0977085218969978,0.8496010123697645,-0.04978776125703548,-0.06221707373746416,0.5213587100218295
4.170000000000003,0.5320612972853503,-0.12252001423007046,-1.2263546780278518,-0.05678540167323691,0.14325213910753093,-0.9880427730573114,0.13433899890138537,0.07621731449145765,0.11265825880940898,0.8529190430543212,-0.04671158166772399,-0.06157427049764549,0.5162658348596586
4.180000000000003,0.4644452948132074,-0.15214553517008556,-1.1786411021734173,-0.05983657434289966,0.13752844055519323,-0.9886822284323183,0.15191540238686435,0.07760115893790696,0.1327261236245733,0.8560998251678237,-0.04382028503488492,-0.06112386804449797,0.5112951025739533
4.190000000000003,0.3964610327436129,-0.18969619325932788,-1.1382193927623816,-0.06308889712860717,0.1325339566185917,-0.9891638480573387,0.1740182378916756,0.07109449604404643,0.16549826527990402,0.8590982173520918,-0.04117650319686567,-0.06099772731282244,0.5064818077338713
4.200000000000003,0.3371175684025592,-0.21361807805467295,-1.0953878544715547,-0.06657545362008277,0.12822437729237168,-0.9894996082158386,0.1832266764286536,0.06832809895095468,0.18422518389234127,0.8619078651573521,-0.03875856004491425,-0.06119470162781795,0.501845240131082
4.210000000000003,0.2766320007198529,-0.23562540334406631,-1.0452011122425744,-0.07015663939374724,0.12438160776656264,-0.9897469378812991,0.18829704477562687,0.06400822232564389,0.20070082181089488,0.8645876675502229,-0.036511956318302924,-0.061578307436964866,0.49734607467955544
4.220000000000002,0.20820249030805138,-0.26128376222420235,-0.9788948262698005,-0.07382255541159269,0.12124083002501848,-0.9898710106465459,0.19126252859676032,0.053719169064683436,0.22027430175496227,0.8670711421693362,-0.03453843509402682,-0.062212823092593135,0.4930685453635082
4.230000000000003,0.13957510358798153,-0.2895220991027864,-0.9048452391162194,-0.07768882993582928,0.11892225918640902,-0.9898539433634661,0.19372909035290997,0.046193216852626284,0.234971729845039,0.8692955887874089,-0.032859250800153644,-0.06317625023003787,0.4891229632379175
4.240000000000003,0.0696131888860309,-0.3112221816991637,-0.8332675091502854,-0.0816458496179138,0.1171120839214786,-0.9897537958346099,0.1920975363486836,0.03269085265032755,0.246293439989986,0.8713630662596886,-0.031371511520465,-0.06432534210288422,0.4853845847758997
4.250000000000003,-0.0035094101004509576,-0.31513802683213155,-0.7727971176688623,-0.08569672543151755,0.1160222433434234,-0.9895403239507284,0.18068961711274203,0.0026702587988264095,0.2524543083415896,0.8732114852790924,-0.030164923343289678,-0.06571894480350153,0.4819418320668266
4.260000000000003,-0.07251998840646123,-0.316336269751541,-0.7007356992531806,-0.08967704075101318,0.11586072450249797,-0.9892044272002418,0.17455957623391521,-0.009912733224866317,0.24674233194448258,0.8748453287942413,-0.02937374347126197,-0.06732860293732183,0.4787916244738252
4.270000000000003,-0.13481415220778628,-0.3128004704431345,-0.6169942879287559,-0.09357088434003079,0.11621695860081957,-0.9888037683111042,0.16928651490303182,-0.01299597332003918,0.23826386808345956,0.8763217803807362,-0.028820728121224687,-0.06903859083072687,0.4758776381793059
4.280000000000003,-0.18287993747968995,-0.2991101655460225,-0.5115969061985787,-0.09729379393767401,0.1172449269530383,-0.9883234728211695,0.1625237279961638,-0.004035630342826228,0.23100289306386884,0.8775470071478131,-0.028584785750641162,-0.07085359846557966,0.4733612152034528
4.290000000000003,-0.21295510927957784,-0.2741422152112588,-0.3742274933116478,-0.10058899941819097,0.11882402872741626,-0.9878032006967662,0.15881242736829101,0.002704958873604078,0.22705450937895974,0.8784198593421418,-0.028653325828790165,-0.07263336357972322,0.4714639830077855
4.3000000000000025,-0.2402842711736703,-0.23930969469463007,-0.22546283623128957,-0.1035259898201818,0.12072541457877228,-0.9872709611830603,0.1548964470342713,0.001973958187345192,0.22255708677350142,0.8790437001269007,-0.028916330831987663,-0.0743466562127428,0.47001881213265434
4.310000000000003,-0.273815303389656,-0.1869646556118247,-0.07059803768204936,-0.10584059925291511,0.12306269497711339,-0.9867370881949652,0.1481666100498342,-0.016736691083099397,0.21414608914220934,0.8792759612480935,-0.02946328840726003,-0.07591154561588224,0.4692998282284502
4.320000000000003,-0.339262762518483,-0.13592461927015143,0.06464073850435234,-0.10732385372590791,0.1261744301191562,-0.9861816526973338,0.14448667365075982,-0.042149528820154325,0.20343969498793782,0.8791347489295512,-0.030490855156429134,-0.07731537629445427,0.4692686026155208
4.330000000000003,-0.4224767617388669,-0.09905981025034044,0.19008013676014263,-0.10838374677517594,0.12994665925276494,-0.9855751747312465,0.14477078790717138,-0.07343143116783661,0.19338442026304375,0.8787632863189605,-0.03187493381892342,-0.07870445059389727,0.4696406950154691
4.340000000000003,-0.5283916609480563,-0.09962565473979625,0.3046154216187392,-0.1089593203720244,0.13489232684189073,-0.9848473998308217,0.1533753234875812,-0.11528390016094087,0.1869318264455433,0.8780655159472707,-0.03384235036530667,-0.080182257714996,0.4705575268712815
4.350000000000003,-0.590579895457679,-0.14157132064928085,0.4122677901798229,-0.10971189461048783,0.1409228596160411,-0.9839106810369397,0.1636187844842425,-0.13391717262109085,0.18719780221479887,0.8770321125446117,-0.03619532498638273,-0.08203005606172538,0.47198309768015867
4.360000000000003,-0.620415187727076,-0.1839575589709902,0.5172700038156948,-0.1105741966888765,0.1473731451338519,-0.9828728705734144,0.174967899345746,-0.1384076142814407,0.18629229333503977,0.8757877892990721,-0.038671628341174366,-0.08405043411453561,0.47374038363289617
4.370000000000003,-0.5969572286832279,-0.19210348984162537,0.6207369196386208,-0.11159264372850042,0.15407115259743778,-0.9817305343092041,0.1880143461331999,-0.1231202281542589,0.1763395235928558,0.8742393797288787,-0.04116343606680112,-0.08623786005077894,0.47599229508641555
4.380000000000003,-0.4781038830896053,-0.17083194447835504,0.745758636644618,-0.11227438533164993,0.1599296448420863,-0.9807133056765012,0.18731098736361582,-0.09973840372277928,0.16584088738271954,0.8723776003200701,-0.04329211104436587,-0.08811952994773159,0.4788597906495077
4.390000000000003,-0.3285432415391515,-0.12997680899138916,0.880545411931122,-0.11253510514441721,0.1649894638527057,-0.9798521115506842,0.18175337639647357,-0.0628457414056434,0.14568573687387906,0.8703052861603714,-0.04511876999908637,-0.08965214805977857,0.48217005737175445
4.400000000000003,-0.17755661301146897,-0.05932217467884389,1.0238596979789338,-0.11188326284009321,0.16850277952688664,-0.9793288256160518,0.17474707655246743,0.005823879860479858,0.09800144981859019,0.8679099579845261,-0.046402616717647824,-0.09045266288120056,0.4861996049427858
4.410000000000003,-0.0485667778924522,0.0012116330671026188,1.1830836283807755,-0.1101732078672562,0.17068072511662952,-0.9791454873886526,0.16817333704588727,0.04412052738343046,0.07139594999696904,0.8651160763015606,-0.04727367426188229,-0.09051043408818694,0.4910472418850035
4.4200000000000035,0.05404219371331488,0.05252379944244181,1.3283579770819405,-0.10785749971215958,0.17214315908554537,-0.9791477803638282,0.16427130326433986,0.06585371762471097,0.04559722613671916,0.8620748157262912,-0.047933649863818976,-0.09015646766484184,0.49637313008400186
4.430000000000003,0.09906919478378805,0.0861037273898895,1.4160473291104911,-0.10476491532691995,0.1727717604284056,-0.979372804814767,0.16796966437577518,0.06775268607932022,0.0014527422152107589,0.8586830610427313,-0.04836620516650884,-0.08929736471794145,0.5023297413706933
4.440000000000003,0.11518261034195325,0.09226353323999611,1.501019919335483,-0.10133186987384671,0.17323098967937553,-0.9796507862583026,0.16571228051388387,0.06384958548406137,-0.0189803592764292,0.8550318960519957,-0.04879068315740894,-0.08827986927565605,0.5086401403154692
4.450000000000003,0.12259309277828083,0.09223053146161515,1.5849420350323196,-0.09774569777238566,0.17360547001290222,-0.9799503516299038,0.15990096303538384,0.05612179644553685,-0.03515527910399036,0.8511905455423756,-0.04920343082881936,-0.08719762570837586,0.5151988021741821
4.460000000000003,0.133467490901758,0.10189007473328553,1.668465922948476,-0.09404281899459956,0.17389523708113708,-0.9802611229199972,0.14932639299249945,0.04262657894528357,-0.06312299029207306,0.84703168020346,-0.04958823016833557,-0.08608127059468058,0.5221559329107324
4.470000000000003,0.1661261823006367,0.1742470176344947,1.7512031245302746,-0.0896034235956138,0.17401785296603745,-0.9806510204248213,0.1311188996311483,0.03780904476694164,-0.08922512566499453,0.8426062931880752,-0.05008905468069142,-0.08464064450407285,0.5294317512165913
4.480000000000003,0.23775559761116374,0.2779676372656487,1.835746455437706,-0.08444419743303655,0.1737028974852456,-0.9811637709638017,0.10437891848231663,0.0415539121456909,-0.12296250670522255,0.8380000951878497,-0.05059598444639701,-0.08279992211980192,0.5369468617893404
4.490000000000003,0.4103003714894623,0.41178187673042566,1.9270000361615842,-0.07779917087547258,0.17216717995487416,-0.9819828203133331,0.0587849549251919,0.06306657678349176,-0.18341418545820576,0.8331129585130338,-0.0509912567424745,-0.08003703707277851,0.5448723049495762
4.5000000000000036,0.5896450317714255,0.5747048983918928,1.9817331469537698,-0.06943010108885614,0.16842052796863882,-0.9832372674736652,0.036720400977896125,0.08430928902112451,-0.2415726341232815,0.8280610692202999,-0.0509865913419326,-0.07596066488283384,0.5530643035951169
4.510000000000003,0.7368404607155673,0.7371114223774735,2.0354423530384347,-0.05989615042327971,0.16341037282080773,-0.9847123643766081,0.030363173089927843,0.11356513841608458,-0.3096388606605693,0.8228810952184887,-0.05082820328527618,-0.07106006539450432,0.5614204172980912
4.520000000000003,0.7683514140131346,0.862475472252106,2.130038696631092,-0.048561177431410904,0.15686034988578476,-0.9863965659205826,0.047948534676587065,0.16992635186596794,-0.4135966113660654,0.8174729825660073,-0.050641341407737864,-0.06499870959118403,0.5700015606283848
4.530000000000003,0.6254021303249192,0.8952705744676682,2.2402403807197464,-0.036462081259634876,0.15102836691405339,-0.9878036161901367,0.06282662639192253,0.18410179000195345,-0.4497601428294625,0.8115809409598654,-0.05108370836917615,-0.05888242759108725,0.578939540799776
4.540000000000003,0.38343087785961616,0.8657387976642481,2.33772989359563,-0.024284163333138202,0.14635773481155306,-0.9889142432858103,0.08009855949241716,0.16100715382904413,-0.44432558786121584,0.8053532995991274,-0.052099932852562335,-0.053116578518368304,0.5880690763055152
4.550000000000003,0.025088777758691783,0.740526668006507,2.370831446325407,-0.012827197064647577,0.1447800160213301,-0.9893575910190167,0.10919436969337111,0.06356302159120426,-0.3828551332107877,0.79859158640934,-0.0542873735842975,-0.04863740092796894,0.5973985520500947
4.560000000000003,-0.3297069406765256,0.5583525995585379,2.3115964420123722,-0.003204902661214675,0.14685441652675718,-0.9891267501622489,0.12052072879711898,-0.011426632014602152,-0.3196222085127341,0.7916412352709759,-0.05748479128976485,-0.04607598519475326,0.6064607156610246
4.570000000000003,-0.6542619730567947,0.347160848870028,2.19540307337548,0.004952098662126911,0.15124606928255135,-0.9884710749864142,0.12523090348762972,-0.0834075599380133,-0.23569711964396542,0.7846870977600536,-0.06121618824947641,-0.044852695127872044,0.6152004269778631
4.580000000000004,-0.8749395088078498,0.11101271097119447,2.0030562142856865,0.010395600137697924,0.1588815895326796,-0.9872271377432105,0.13092201351451754,-0.17588740897937044,-0.07976740156690612,0.7779825030387717,-0.0654601616304489,-0.0457693576669966,0.6231526784947011
4.590000000000003,-0.9580077891028806,-0.08116264492112645,1.805033815290161,0.013369022754917621,0.16778310245840114,-0.9857061048246446,0.1252815471758915,-0.21302265752592014,0.005433004415258513,0.7717802586920685,-0.06944440726960724,-0.04807621788494474,0.6302085771359324
4.600000000000003,-0.9458188515834213,-0.22860079808429962,1.619538219714248,0.014977570202196182,0.17697352725411936,-0.9840916194020486,0.10788195989619087,-0.20881887577230704,0.05778843058924525,0.7659151424097208,-0.07311779713109187,-0.05101810180532659,0.6367126702141771
4.610000000000003,-0.7833529210368915,-0.27453334667292256,1.489400679363836,0.015179159945466644,0.18534900395683057,-0.9825424743740319,0.06346240809825081,-0.1328492881522722,0.0931890987819522,0.7605589173206186,-0.07601727142830109,-0.05425376817766045,0.6424947970425207
4.620000000000003,-0.5674633281289001,-0.2727242480603798,1.3375358265359871,0.015151007600208164,0.19153974829267195,-0.9813595876626197,0.02962756425521232,-0.06541907824491736,0.09304863149443765,0.7557294853916654,-0.0780032568027133,-0.05684369437107762,0.6477090525741765
4.6300000000000034,-0.3335835413050246,-0.24965988149163076,1.187125505163993,0.0150365660533109,0.19612813964821377,-0.9804624812227504,-0.0018838312262616065,0.0034160573844180947,0.07671144292820443,0.7512828652371853,-0.07935396925191886,-0.058918107264592685,0.6525312334462782
4.640000000000003,-0.1155355918182322,-0.22059238273701776,1.0772852616595452,0.014955479186323136,0.1979915304484433,-0.9800889604601347,-0.04136073370251942,0.09143873307652886,0.054452619019627765,0.7474794755684503,-0.07970035878581823,-0.06002402044482504,0.6567401405330787
4.650000000000003,0.059664176833836936,-0.19726624480659458,1.0274068233541618,0.014992836308964221,0.1979115675889841,-0.9801049696253146,-0.054810721547545294,0.12798936927887855,0.044534878446277876,0.7439563796936822,-0.07936234239821752,-0.060406191099463324,0.6607318681981458
4.660000000000004,0.20265030411654997,-0.17401268885282511,1.0067143834087338,0.015148218019789555,0.19665479685226295,-0.9803547825650671,-0.05533016209697919,0.13873634185410397,0.04016591704283669,0.7405733324400445,-0.0786262913891881,-0.06033285650790235,0.6646217940011844
4.6700000000000035,0.2891128402767177,-0.14114834738028256,1.000762149725218,0.015577184521871904,0.19398533768470824,-0.9808793429335202,-0.048390070816338476,0.13379313354297448,0.03697549568169184,0.7372738373740687,-0.07745917588416712,-0.0596636024955384,0.6684741590067454
4.680000000000003,0.3554717062509013,-0.10337296746622363,0.9921022391902405,0.01631715540344745,0.19057964983317563,-0.9815317781104231,-0.04859436071622825,0.1276393656698994,0.034399392615630665,0.7340218494575751,-0.076137329588709,-0.05861141039695036,0.6722826636566577
4.690000000000003,0.399972874780116,-0.06453969545164807,0.9795152369808642,0.017283798442984194,0.18677612747554068,-0.9822479807468645,-0.05141129531232489,0.11980140906292017,0.029059989424556076,0.7308100258048584,-0.0747571354576546,-0.05732643577052632,0.6760436168505691
4.700000000000003,0.3895027128118272,-0.030348311595215796,0.9553749088700751,0.01863040342843278,0.1826587622067825,-0.9829961907206164,-0.0520067984494542,0.10710012745627295,0.010918940596177984,0.7276796209840313,-0.07341760749988142,-0.05576909968628431,0.6796852112267665
4.7100000000000035,0.3573113265160539,-0.008342991997502859,0.9620588854746741,0.020171410612434514,0.178841019145791,-0.98366645560823,-0.04942227757962452,0.10297067132798873,-0.0009298327682844554,0.7245334114237933,-0.07227482703668725,-0.054232762124613365,0.6832803019663442
4.720000000000003,0.3098178639644969,0.007659868120220756,0.9857932193968527,0.021851863165177468,0.17529725621831366,-0.9842714782723115,-0.042491840660305535,0.10211260660971319,-0.00746534508689531,0.7213388472341907,-0.07129188108920043,-0.05273679750211994,0.6868770589282537
4.730000000000003,0.23826959510555398,0.02153925543978376,1.0231218613939976,0.02375858480254846,0.17236231286087378,-0.9847446838753958,-0.022767029980612957,0.09856113590858667,-0.0031551058153632848,0.7179628723373419,-0.07062031324620492,-0.051376733783407944,0.6905739217802311
4.740000000000004,0.1250038408012039,0.029044238249296705,1.048670459468526,0.025806719033290015,0.17041714280689774,-0.9850321068016217,-0.018632329290566102,0.08990229543346974,0.006180619959620333,0.7144333698070763,-0.07036529056863192,-0.050320977860385765,0.694324093700769
4.7500000000000036,-0.013776622162017756,0.02858034154409688,1.0668039092410282,0.027899927267663546,0.16933666128912148,-0.9851627077246802,-0.02311539933715257,0.07320707075908664,0.02491724587540118,0.7107974369168298,-0.0704436212653546,-0.049560150660553116,0.6980987269877197
4.760000000000003,-0.180394572935039,0.005135743484833557,1.0761087000262597,0.029896948639823652,0.1701098433199527,-0.9849705943388126,-0.03378127331372135,0.030500602121762303,0.07611901205286198,0.7070013987042028,-0.07116150452045068,-0.04950302574065716,0.7018714675977844
4.770000000000003,-0.3097764989691211,-0.013834438720441947,1.0730586508317392,0.031659834354560615,0.17230436710991415,-0.9845316421584466,-0.04331488565785934,0.003826594450296242,0.11399367320401342,0.7031271396597102,-0.07230338796788453,-0.050049961586258636,0.7055933600254248
4.780000000000003,-0.4038654634550032,-0.02732122046801212,1.06017532918058,0.033295364833539204,0.17533653109368472,-0.9839433741390629,-0.055816690735864066,-0.013033650937700661,0.14877813876569015,0.6992203272577586,-0.07369780211926001,-0.05095098300198668,0.7092646850836456
4.790000000000004,-0.41429809980136206,-0.02477936106027679,1.0285625796840354,0.034859714107380646,0.17911113729986083,-0.9832076692478952,-0.08521340431931998,-0.019762020095772416,0.19951505218745288,0.6953378043974285,-0.07532646162071586,-0.05215837004931668,0.7128103601877223
4.800000000000003,-0.40051542751989877,-0.013085580413977407,0.9847199226056721,0.03652270183218946,0.18275620412019286,-0.9824750354039468,-0.10605334765424387,-0.018050618216318072,0.22210119859108093,0.691601877691181,-0.07694812573529823,-0.05328556315040256,0.7161780862356834
4.810000000000003,-0.37210260093504915,0.0043357410534339245,0.9355491639321782,0.03826288757471937,0.18624699161732564,-0.9817561385955874,-0.12345337098092687,-0.008206308338133435,0.22813001583655926,0.6879797971629251,-0.07854659815608689,-0.05432973166546831,0.7194146468643733
4.820000000000004,-0.3303901030538717,0.027781800271132247,0.8900397115633553,0.040145899360808736,0.18928382170712335,-0.981098763715358,-0.14486509773044287,0.021551700470342525,0.22096645348068972,0.6845655260582217,-0.08004572013977505,-0.05515574325750669,0.7224343527648558
4.830000000000004,-0.2924336252954737,0.05469389946197612,0.8479612735687203,0.042204828947070276,0.19193913330471726,-0.9804957978483919,-0.15755862988950226,0.03996725507043883,0.20907656098350197,0.681320274420644,-0.08148567534093538,-0.05577574767708737,0.7252867766846403
4.840000000000003,-0.257352244927147,0.08490829692243343,0.81009976760705,0.04442241803629224,0.19432059875478053,-0.9799305277217131,-0.16735347999066985,0.05437481495921265,0.19440283430723299,0.6781917067389711,-0.08289557872607824,-0.05623720651421841,0.7280234442214305
4.850000000000003,-0.22734481967703393,0.12323459727538566,0.7852766628983356,0.0470044523711588,0.1962827900111805,-0.9794178768186039,-0.18531385683797325,0.0781548441926451,0.17775054200868454,0.6752243987855322,-0.08430606063782446,-0.056415858394692285,0.7305990731746131
4.860000000000003,-0.20849817935838263,0.16636065813231307,0.7514683956582884,0.049970780344294446,0.1980187918014082,-0.9789199884238883,-0.19913734557810003,0.08623463303951817,0.16849043969647098,0.6723682114405156,-0.08579179123623289,-0.056377955869215894,0.7330577680855243
4.870000000000004,-0.19710703970407298,0.21129812618772256,0.7086559450218962,0.05321465572837786,0.1996244892207663,-0.978424736678661,-0.21170201910448636,0.08422510776299807,0.16232338489670803,0.6696176725519049,-0.08734595919722807,-0.056193259989184764,0.7354064591392588
4.8800000000000034,-0.19460466867992007,0.25231461163363994,0.6420217442617995,0.05688026438228446,0.20116547053895484,-0.9779011335289438,-0.2293250914994396,0.07192419076080263,0.15180116226704088,0.6671300556023622,-0.08906093146313011,-0.055824251833910855,0.7374849780880084
4.890000000000003,-0.17993910264065574,0.28459382518514054,0.5687975504057268,0.06070830896253676,0.20262049150090003,-0.977368754796688,-0.2392063199503819,0.06348013062094482,0.14575301090124937,0.664906973009224,-0.09083210760077111,-0.055346095509712465,0.7393100680155241
4.900000000000004,-0.16064810555465583,0.3110677843779383,0.49034185742559494,0.06464451666413686,0.2039972118582971,-0.9768329344598609,-0.24333951737247847,0.05863997440755194,0.14012654810706623,0.6628957810998886,-0.09263659413244262,-0.05478340521386469,0.7409352477378196
4.910000000000004,-0.1526861073866743,0.3311831574960557,0.4021097273742569,0.06870032034205376,0.20518766206861308,-0.9763046781265262,-0.23831072365539124,0.06268711457058229,0.12286034136294591,0.6612880620610322,-0.094458434831453,-0.05407113379699787,0.7421919075489397
4.9200000000000035,-0.16540859072989397,0.3433761620949068,0.31489669473968995,0.07272107897797533,0.20647774808189556,-0.9757399743824339,-0.23632708909376177,0.06666088881869475,0.10910100109949951,0.6599940526435824,-0.09632771672809119,-0.05337341435226005,0.7431533489339051
4.930000000000003,-0.19510507994028256,0.34661412219036314,0.22859523357337602,0.07666708876713581,0.20792517057652946,-0.9751337527241397,-0.23510271343548678,0.06918831238429911,0.09649494206861253,0.6589337901029862,-0.09824199179803622,-0.052733443076331904,0.743890587221469
4.940000000000003,-0.2585785795310996,0.321809791534152,0.144421359653426,0.08027276230582076,0.2100005145739411,-0.9743965531073105,-0.22814199955759415,0.06306304911288234,0.07899968412606338,0.6582399840130587,-0.10027105448132632,-0.05239921248982946,0.7442569048101395
4.950000000000004,-0.35653783351148743,0.27580794315823765,0.04561507073639158,0.08332472055384788,0.21299568681452677,-0.9734876899103468,-0.2251882748964054,0.053459407135503074,0.06783138941565084,0.6578259290433548,-0.10242511371277171,-0.05255858083925842,0.7443177970838297
4.9600000000000035,-0.4750243573374506,0.21489434047319847,-0.0638193466999839,0.08586670069984426,0.21677978024228575,-0.9724336793309937,-0.22485182573670998,0.04050436058347612,0.06097130008409152,0.657641146965164,-0.10467257799102753,-0.05315353668589396,0.744126940818624
4.970000000000003,-0.598899891741022,0.13574568419350946,-0.18801835345461768,0.08714882359813812,0.2222778412331277,-0.9710733641841939,-0.2266516352458009,0.018673794557878508,0.05862636530499151,0.6579082699394758,-0.10706317661507858,-0.05474783320252401,0.7434333776479665
4.980000000000004,-0.6888375718817483,0.07308097234195608,-0.3170239541926077,0.08751387989368559,0.2288209685955529,-0.9695115003632272,-0.23250962718831522,0.0036900108094293426,0.05629094503102923,0.6585481119187194,-0.1094994575100503,-0.05698273042351825,0.742340145437316
4.990000000000004,-0.7485355786964993,0.026351007292317645,-0.45064535189748983,0.08722213801185934,0.23604992610154793,-0.9678127849760877,-0.2434266755430626,-0.003419057132780303,0.05260598738605634,0.6594984798004349,-0.11195308168744886,-0.05964516248319175,0.7409232474202802
5.0000000000000036,-0.7371887951051984,0.02272104568359061,-0.5966231542326468,0.08611543901452545,0.24377595723455883,-0.9659866173834913,-0.2727827706342474,0.01602882477768646,0.039583435804346014,0.6610804034334173,-0.1143413651424572,-0.06266146930763557,0.7388933010965835
5.010000000000003,-0.6664766490096048,0.015066318858412652,-0.7569953342497223,0.08457588351176927,0.25109400364063506,-0.9642447294087313,-0.290913800550973,0.03277604754892223,0.025911401468125365,0.6632151559554368,-0.11649455187783311,-0.06557413848378082,0.73638338049632
5.020000000000003,-0.549251534745324,0.007786879015683107,-0.9300340130884719,0.08267170212834869,0.25791858119954697,-0.962620267842678,-0.30185808221764,0.050396888649512535,0.006518811423088455,0.6658198981480855,-0.11839783497598749,-0.0683433375392541,0.7334778519045524
5.030000000000004,-0.35395223903768036,0.02103293448364498,-1.132162386408488,0.08001181044002627,0.26293486411431916,-0.9614826764198056,-0.3098060352588944,0.08634008275277155,-0.05186053734914651,0.6694212869219629,-0.11951118754719907,-0.07052062621523647,0.7297980698620992
5.040000000000004,-0.1698471144244184,0.09122940297477691,-1.3104681246603318,0.0773308261062941,0.26629375867056343,-0.9607811904550643,-0.3101599155111129,0.11820858577566962,-0.11423101441262377,0.6737830042353028,-0.120126859935291,-0.07196074882046219,0.7255223245543031
5.050000000000003,-0.003235569628445652,0.19519664564321892,-1.4603834814760257,0.07476900365419843,0.26841634131620157,-0.9603966990496828,-0.3027984268714569,0.1539439082218603,-0.1864154028892989,0.6786923870545226,-0.12041847436311107,-0.07280808954228275,0.7208093493025973
5.060000000000004,0.08127943332345008,0.28693395746759986,-1.5043838272180095,0.07323663217347114,0.2689215528214798,-0.9603730680610512,-0.2720638877233127,0.23946181940106728,-0.3157122778893061,0.6841919998741766,-0.12059168776766173,-0.07260212436610018,0.7155718008896506
5.070000000000004,0.12209486803878809,0.3131604572027367,-1.5695757055577335,0.07188380355712098,0.2690377603229625,-0.9604428755295599,-0.24177771064418066,0.28396547400684774,-0.38462767859423835,0.8097713471011891,-0.12681430133586596,-0.02852595354837379,0.42357412742704964
5.080000000000004,0.13242022889576907,0.30059780929324487,-1.6496157272197185,0.07059728590967616,0.26892185984809674,-0.9605709749703882,-0.2098511045735294,0.2954710722632569,-0.4140183624667439,0.9900873630080127,-0.13577261112925115,0.03578092387549964,-0.0009427508391467905
5.090000000000003,0.12116981921248697,0.3127744473729108,-1.7406332999203387,0.06891298285088529,0.2689381964249755,-0.9606882652480758,-0.1620310296359075,0.2505777030038358,-0.435085964427285,0.9900592375906108,-0.1354653379291712,0.03612347524797049,-0.00966340900791981
5.100000000000003,0.12507466136479395,0.3218855900924475,-1.8168670786163736,0.06717663980672886,0.2689490279254665,-0.9608079721248273,-0.13409112253751862,0.21632622845534932,-0.4505689912763051,0.9899527735744948,-0.13514737476443714,0.036483664718968294,-0.018723205159480328
5.110000000000004,0.13611167294830595,0.32181803718853186,-1.8859068047309449,0.0653361569301667,0.26894881376318674,-0.9609353935097029,-0.1141704161843459,0.19033919905848978,-0.46210971732253747,0.9897810603307057,-0.1348185987092619,0.036826928532639844,-0.028060091497307087
5.120000000000004,0.12268302160855818,0.25828322512249025,-1.9767192660300745,0.06287528128811293,0.26888271299627514,-0.9611170814005182,-0.05033630186800726,0.1759705498076373,-0.4710436701658458,0.9894848028537366,-0.1344559440309076,0.036918622744455204,-0.03788854692528457
5.1300000000000034,0.07187383809275774,0.15660008347737098,-2.0859149585775367,0.059315479371999325,0.26919596923786715,-0.9612517816643863,-0.001040792072249698,0.16460035621805005,-0.46412236643863053,0.989065312355631,-0.13431336924971116,0.036520316099511965,-0.048121839695622864
5.140000000000004,-0.008637461214648725,0.025249670326130683,-2.205422742961103,0.05476190297595041,0.26989927591205143,-0.9613263876621181,0.04023472279709519,0.15233098803430337,-0.44054026805130403,0.9885350363010911,-0.1343994292186813,0.03567920854096344,-0.058691608961277966
5.150000000000004,-0.1330675752997926,-0.1447862395317434,-2.305669371345405,0.04777005624425558,0.2718913469941151,-0.9611292781386614,0.09803174002444259,0.11236448451981478,-0.35968261870136814,0.9877375727045964,-0.13525551959784232,0.03375388406142241,-0.06987780163586363
5.160000000000004,-0.2664496329957775,-0.2995500039643178,-2.386968195629116,0.039086329069998225,0.2748913556519848,-0.9606492997108372,0.1326694832795495,0.08041479838485821,-0.28865532095787055,0.9867329504887812,-0.13675399257708584,0.0310837758026085,-0.08129972098785931
5.1700000000000035,-0.3962752902114487,-0.43501975335549053,-2.454501441543549,0.029071119971279417,0.2786732731940963,-0.959935408750106,0.14781271506908975,0.05226176857513195,-0.21873443087683986,0.9855543835398745,-0.13876152109584702,0.027833219732202652,-0.09290995910002263
5.180000000000003,-0.42618093082731434,-0.48046045493768264,-2.514818322562535,0.017360475769311316,0.28334896106355856,-0.9588219949149673,0.12671836597774788,0.0063362431066042516,-0.0905665104030525,0.9840561181234971,-0.1414488450938723,0.023894704532222782,-0.1047852380716861
5.190000000000004,-0.3715680324829432,-0.4708881772404569,-2.5919688054488343,0.005448505939495824,0.2874015527314072,-0.9577499520648929,0.10008902971413502,-0.019031684411627954,-0.015439535031466046,0.9823985099463373,-0.1439324764425376,0.019923544176994074,-0.11697708267186316
5.200000000000004,-0.24729605066223892,-0.41658982288968877,-2.6804141653224054,-0.006547672686648278,0.2907599104957736,-0.9567657640433487,0.06742263138601672,-0.026626718819431797,0.020141429896172375,0.9806139498728862,-0.14615353474241702,0.01595621239489069,-0.12945405963158813
5.2100000000000035,-0.013637784551376875,-0.29795541421370225,-2.761858710224231,-0.017892280095490348,0.291295108012105,-0.9564351338186061,0.011127250117786834,0.0016439297616904318,0.033614918831593156,0.9786720105001566,-0.14705405924577875,0.012289671689948743,-0.1426111111231099
5.220000000000004,0.23228268374795824,-0.1615133215470309,-2.799558133771215,-0.028152421842578167,0.28949130165774456,-0.9567378548065553,-0.014611313738397066,0.033154038536300126,0.029740549102293734,0.9766879340798313,-0.14677941856180152,0.009025998254236015,-0.15603843316718666
5.230000000000004,0.48439429265214856,-0.013115613038391661,-2.802741215577564,-0.03744523157611325,0.2856939318397055,-0.9575829770492204,-0.017280144476740353,0.06860993181899931,0.012255535227405585,0.9746719931740742,-0.14549762639495956,0.006112577162184222,-0.16966246964107004
5.240000000000004,0.7031967084797559,0.12310260997020216,-2.7730056321149763,-0.04455883933560016,0.2783294069479648,-0.9594256001743523,-0.009658990102972529,0.12347043696118169,-0.017339125433659848,0.9726412286525307,-0.14235594867797066,0.003897594682254656,-0.18328798177341396
5.2500000000000036,0.8622118971525372,0.22856019831776392,-2.744478138587932,-0.05042633249406047,0.2694297311536347,-0.9616624244189688,-0.0028481393964757437,0.1529937910927189,-0.03527068907877067,0.970564168619296,-0.13839107708822537,0.0020504686127191304,-0.19681826787870482
5.260000000000003,0.9685639838814871,0.3064788767614503,-2.718376989705071,-0.05528389495834016,0.2593175632619025,-0.9642012020095743,0.00494332336032734,0.16169488685518818,-0.04340183913501313,0.9684364858482434,-0.1337775434934756,0.0004959730762172005,-0.21026909987190476
5.270000000000004,0.967059670644533,0.32293904856767924,-2.7127741782658377,-0.05907284080249288,0.24831510673242255,-0.9668422555037114,0.03405872159278149,0.1448027176680139,-0.03685269579338267,0.9660929079090491,-0.12870695129877432,-0.0008170781749803369,-0.22360765065132418
5.280000000000004,0.9510532991183337,0.3421375287371864,-2.6890083106542764,-0.06241471460524068,0.2373927120880492,-0.9693702157638311,0.057027451216702746,0.1294220062247522,-0.025331826654434668,0.9635884393507657,-0.12368061041530577,-0.0020265286028246154,-0.23682743575489312
