time,seconds_elapsed,rotationRateX,rotationRateY,rotationRateZ,gravityX,gravityY,gravityZ,accelerationX,accelerationY,accelerationZ,quaternionW,quaternionX,quaternionY,quaternionZ
1681247985468291800,0.133291748046875,-0.0330529659986496,0.11198452860116959,0.22976522147655487,0.11104170978069305,-0.8086004853248596,-0.5777847766876221,0.047542914748191833,-0.020516574382781982,0.034190595149993896,0.8881963195872893,0.45519242923855474,0.06250966685883674,-2.207682189177477e-18
1681247985483324000,0.148323974609375,-0.07173511385917664,0.08440323919057846,0.2283201813697815,0.10914312303066254,-0.8085501790046692,-0.5782166719436646,0.04162900149822235,-0.027906298637390137,0.026108086109161377,0.8883157812882453,0.45497049701794534,0.062398053499262744,0.0018849859937331073
1681247985498355700,0.163355712890625,-0.10920392721891403,0.05780518054962158,0.2182752788066864,0.1070447564125061,-0.8081153035163879,-0.5792160034179688,0.05372188240289688,-0.04384410381317139,0.011741876602172852,0.8885914405699047,0.45446082632918255,0.062107565434785135,0.0036656037441544728
1681247985513388500,0.178388427734375,-0.13046185672283173,0.05442535877227783,0.20217646658420563,0.10497637093067169,-0.8073981404304504,-0.5805930495262146,0.0656016618013382,-0.04494273662567139,0.0029565095901489258,0.8889705267068824,0.4537515514443318,0.0617494311225532,0.0053007825132255
1681247985528420400,0.19342041015625,-0.1954280287027359,0.05940280854701996,0.2335711419582367,0.10288898646831512,-0.806354284286499,-0.5824145674705505,0.08218490332365036,-0.0512661337852478,-0.0037668943405151367,0.8894708996597976,0.4527942159054197,0.06140115309799649,0.007001075996452721
1681247985543452200,0.2084521484375,-0.31110823154449463,0.03029419295489788,0.23702819645404816,0.10035181045532227,-0.804524302482605,-0.5853804349899292,0.08604959398508072,-0.06652384996414185,-0.0097731351852417,0.8902871619986374,0.45122597722831226,0.060867839195386735,0.008895657997710596
1681247985558484200,0.223484130859375,-0.3577899634838104,0.0001440141350030899,0.16571007668972015,0.09802816063165665,-0.8017886281013489,-0.5895131826400757,0.09620099514722824,-0.07466119527816772,-0.014048099517822266,0.8914299040813841,0.4490127529165825,0.060257521203638344,0.010470250990061488
1681247985573517300,0.238517333984375,-0.28615254163742065,0.01675574854016304,0.09870892763137817,0.09650751203298569,-0.7990983128547668,-0.5934040546417236,0.1030774712562561,-0.06139075756072998,-0.008127808570861816,0.8925080148751623,0.4469009980975203,0.05981201890115223,0.01147670116646142
1681247985588549400,0.25354931640625,-0.24712461233139038,0.103622205555439,0.08017119765281677,0.09602021425962448,-0.7969180941581726,-0.5964074730873108,0.0916171446442604,-0.04503154754638672,-0.03214764595031738,0.8933372285341313,0.4452059690367429,0.05989909902062053,0.012353804658592238
1681247985603581400,0.26858154296875,-0.29856258630752563,0.14555980265140533,0.028299475088715553,0.09647116810083389,-0.7946088314056396,-0.5994083285331726,0.07285565137863159,-0.06111949682235718,-0.044817566871643066,0.894162734455712,0.4434291566695952,0.060551017347930315,0.013320912587046225
1681247985618614500,0.283614501953125,-0.3545595407485962,0.1305462270975113,-0.06788618117570877,0.09798102080821991,-0.7916073203086853,-0.6031233072280884,0.04479549825191498,-0.0869329571723938,-0.049723803997039795,0.8951935918581833,0.44119497660397744,0.06152505558993515,0.013795095527344675
1681247985633646300,0.298646240234375,-0.3420971632003784,0.15001367032527924,-0.14920446276664734,0.10055536031723022,-0.7882082462310791,-0.6071379780769348,0.026107877492904663,-0.0852508544921875,-0.05410146713256836,0.896315863161739,0.43873551884107276,0.06278666393272299,0.013673390870333832
1681247985648678400,0.313678466796875,-0.25756269693374634,0.19875670969486237,-0.1762387454509735,0.10413239151239395,-0.7852094173431396,-0.6104120016098022,-0.036398597061634064,-0.04273265600204468,-0.06037944555282593,0.8972351489867546,0.436620170789813,0.06447345600463401,0.013241839696319565
1681247985663711200,0.328711181640625,-0.16689620912075043,0.2550103962421417,-0.17446774244308472,0.1082979291677475,-0.7830089330673218,-0.6125101447105408,-0.06394059956073761,-0.02402859926223755,-0.0625842809677124,0.8978242240451977,0.4351013146407081,0.0665715986764411,0.012917976881151387
1681247985678743300,0.343743408203125,-0.13323678076267242,0.27406051754951477,-0.17974799871444702,0.11287035048007965,-0.78138267993927,-0.6137601733207703,-0.06923018395900726,-0.011204838752746582,-0.05501711368560791,0.8981760519266665,0.43401184272256366,0.06894653036683047,0.012651604752131033
1681247985693775400,0.358775390625,-0.1759924441576004,0.3053092360496521,-0.13627615571022034,0.11747054755687714,-0.7797051668167114,-0.615028977394104,-0.06746746599674225,-0.0188789963722229,-0.04506605863571167,0.8985306302347601,0.4328808476193104,0.07141206962588921,0.012545389510080987
1681247985708807400,0.373807373046875,-0.2708357572555542,0.3431130647659302,0.008374501951038837,0.12132207304239273,-0.7775654792785645,-0.6169869303703308,-0.07011355459690094,-0.019767463207244873,-0.021120190620422363,0.8990650852879947,0.4313421298394257,0.0738274302799748,0.01324847808409877
1681247985723840500,0.388840576171875,-0.41170892119407654,0.33796223998069763,0.14345669746398926,0.12359606474637985,-0.7745535373687744,-0.6203152537345886,-0.06495650112628937,-0.024045944213867188,-0.00950634479522705,0.8999613354783171,0.4290547465433738,0.07585766352088427,0.01508183165991216
1681247985738872300,0.403872314453125,-0.5164814591407776,0.28971588611602783,0.2467745691537857,0.12422508001327515,-0.7705435156822205,-0.6251646280288696,-0.024997159838676453,-0.005610167980194092,0.0047119855880737305,0.9012595120104029,0.42596275352219376,0.07728787817740058,0.017710221799489993
1681247985753904400,0.418904296875,-0.5453433990478516,0.2618786692619324,0.3005560338497162,0.123632051050663,-0.765995979309082,-0.6308449506759644,0.004038266837596893,0.027775585651397705,0.015015661716461182,0.9027684669460995,0.4224485158848184,0.07819697002631289,0.02077822927687933
1681247985768937500,0.4339375,-0.5429173707962036,0.22883976995944977,0.346526175737381,0.12226789444684982,-0.7614226341247559,-0.6366211175918579,0.05389486998319626,0.1252833604812622,0.02942824363708496,0.9042848535334366,0.4189109522402026,0.07875951278740151,0.024079309720615803
1681247985783969300,0.44896923828125,-0.5928711891174316,0.22389908134937286,0.361986368894577,0.12035319209098816,-0.7567030787467957,-0.6425850987434387,0.07085471600294113,0.15187501907348633,0.03626203536987305,0.9058337205020701,0.41528064401327097,0.0790533986357001,0.027529911676249824
1681247985799001300,0.46400146484375,-0.74324631690979,0.26713868975639343,0.39126062393188477,0.1185358464717865,-0.7509717345237732,-0.649608314037323,0.06299800425767899,0.1703287959098816,0.047908663749694824,0.9076502509130744,0.41095650900825964,0.0794392856139353,0.031232417362489544
1681247985814034400,0.479034423828125,-0.9731289744377136,0.25029152631759644,0.3679838180541992,0.1168244257569313,-0.7432050108909607,-0.6587856411933899,0.06467890739440918,0.1573283076286316,0.06013774871826172,0.9100297127250746,0.4052521233986992,0.07986169437785637,0.035198590671255324
1681247985829066200,0.494066162109375,-1.1570725440979004,0.2084610015153885,0.24507839977741241,0.11566973477602005,-0.7330688834190369,-0.6702467799186707,0.06610824912786484,0.12906473875045776,0.09184730052947998,0.9130332516357197,0.39805210119567985,0.08019441643064008,0.038651475641771654
1681247985844098300,0.509098388671875,-1.189574122428894,0.17614540457725525,0.13727496564388275,0.11556518077850342,-0.7213379740715027,-0.6828736066818237,0.06911195814609528,0.13430166244506836,0.10209375619888306,0.9163728432637834,0.3899593521027416,0.0805908750851863,0.04120608893586754
1681247985859130400,0.52413037109375,-1.1115821599960327,0.1779734045267105,0.07681720703840256,0.11623526364564896,-0.7095719575881958,-0.6949800252914429,0.07420969754457474,0.1953200101852417,0.11209440231323242,0.9195813793460804,0.382007647715823,0.08111810290837532,0.04313281373279493
1681247985874163500,0.53916357421875,-1.00397527217865,0.23532697558403015,0.03608682379126549,0.11779732257127762,-0.6985583305358887,-0.7057904601097107,0.06451472640037537,0.20820164680480957,0.11730492115020752,0.9224392914269212,0.3746696259837462,0.08202094324952884,0.044734560425785726
1681247985889195500,0.554195556640625,-0.9168959856033325,0.2946411371231079,0.029498962685465813,0.1203749030828476,-0.6883795857429504,-0.7152926325798035,0.031236447393894196,0.20243269205093384,0.12113082408905029,0.9249351630541095,0.3679464015629699,0.08348122326404683,0.046276487531866854
1681247985904227300,0.569227294921875,-0.9183993935585022,0.32009243965148926,0.07174468785524368,0.1232551857829094,-0.678605318069458,-0.7240877747535706,0.019597619771957397,0.16612344980239868,0.12269330024719238,0.9272195266975377,0.36152143465698855,0.08519608227634318,0.04804107804136867
1681247985919260200,0.58426025390625,-0.9396839141845703,0.25677844882011414,0.0824175700545311,0.12561090290546417,-0.6685627698898315,-0.7329705357551575,0.02819770574569702,0.08642452955245972,0.1216273307800293,0.929507146408353,0.35496911413526727,0.08666986795835098,0.05001789617739758
1681247985934292200,0.599292236328125,-0.9006855487823486,0.20728307962417603,0.03544393554329872,0.1275189071893692,-0.6584230065345764,-0.7417668700218201,0.044707074761390686,0.06636649370193481,0.1239691972732544,0.9317830754202433,0.3484541523882995,0.08772835729692385,0.05161180662946116
1681247985949324300,0.61432421875,-0.8586968779563904,0.295043021440506,0.06087446212768555,0.12983238697052002,-0.6486945748329163,-0.7498926520347595,0.031544581055641174,0.06254321336746216,0.12191736698150635,0.9338773457505237,0.342253511166773,0.0889730287909067,0.05310011316889826
1681247985964357400,0.629357421875,-1.0120559930801392,0.48115697503089905,0.15145497024059296,0.13322065770626068,-0.6385319828987122,-0.7579771280288696,0.008853957056999207,0.027981817722320557,0.12548518180847168,0.9359047666029742,0.335739337191385,0.0910523274829863,0.05541792785241857
1681247985979389400,0.644389404296875,-1.3995726108551025,0.5929282903671265,0.29101312160491943,0.1374037265777588,-0.6253100037574768,-0.7681846618652344,-0.025236353278160095,-0.05987083911895752,0.13436520099639893,0.9383987326213844,0.32726254037946934,0.0938450495272314,0.05916415259897368
1681247985994421200,0.659421142578125,-1.6897754669189453,0.5167882442474365,0.31517624855041504,0.14107607305049896,-0.6076201796531677,-0.781597912311554,-0.012108772993087769,-0.0917971134185791,0.1553162932395935,0.9416563680093233,0.3160956610845217,0.09635644905512336,0.06389403715131282
1681247986009453300,0.674453369140625,-1.5958313941955566,0.3944351077079773,0.19610898196697235,0.14401863515377045,-0.5884587168693542,-0.7955973148345947,0.06218867003917694,-0.028149187564849854,0.17943227291107178,0.9450802072465475,0.30427137963272066,0.09808292273980977,0.06798836370401902
1681247986024486400,0.689486328125,-1.3328683376312256,0.459121435880661,0.12452853471040726,0.14769044518470764,-0.5710756778717041,-0.8075023889541626,0.07635436952114105,0.004577696323394775,0.19068121910095215,0.9479962091988107,0.2937077835229896,0.09992266136251705,0.07109475234538047
1681247986039518500,0.7045185546875,-1.0942169427871704,0.6586856842041016,0.14515818655490875,0.15338951349258423,-0.5566762089729309,-0.816445529460907,0.03783363103866577,0.04512512683868408,0.1942075490951538,0.9501206567544452,0.2849193090240243,0.10294764844890264,0.07411897605240822
1681247986054550500,0.719550537109375,-1.0559881925582886,0.8427942991256714,0.259513258934021,0.16112293303012848,-0.5440470576286316,-0.8234392404556274,0.006433844566345215,0.035913944244384766,0.194105863571167,0.9516523300011768,0.27704937143497493,0.10734997397962207,0.07795862123950506
1681247986069583400,0.734583251953125,-1.1964935064315796,0.9904860258102417,0.41872501373291016,0.1697111278772354,-0.5311360955238342,-0.8301160335540771,-0.0019712448120117188,0.017143607139587402,0.17736035585403442,0.9529623907678583,0.26885411030425793,0.11251427965741917,0.0831912497875502
1681247986084615400,0.749615478515625,-1.5421559810638428,1.0798629522323608,0.537775456905365,0.17905321717262268,-0.5152130722999573,-0.8381500244140625,0.020119771361351013,0.003921389579772949,0.14904797077178955,0.9544580022419261,0.25876519178112967,0.11817596301062472,0.08991697251291299
1681247986099647200,0.764647216796875,-1.7061928510665894,1.0252209901809692,0.5796675086021423,0.18821251392364502,-0.4959515929222107,-0.8477075695991516,0.07693947851657867,0.021616697311401367,0.10713762044906616,0.9562156622769074,0.24673092716372788,0.12357211357571375,0.09749623670630576
1681247986114680300,0.779680419921875,-1.6470723152160645,0.9644230008125305,0.5357069969177246,0.19682809710502625,-0.47588399052619934,-0.8572007417678833,0.10943107306957245,0.030754417181015015,0.07427239418029785,0.9579091965437344,0.23433128361315345,0.12840741896007676,0.10493092712763068
1681247986129712400,0.79471240234375,-1.4701390266418457,1.0020568370819092,0.5304653644561768,0.20575080811977386,-0.4573051333427429,-0.8651812672615051,0.14251580834388733,0.1369466781616211,0.03215831518173218,0.9592019429271093,0.222832811324054,0.13324749346279502,0.11190384488970631
1681247986144744400,0.809744384765625,-1.378706693649292,1.0852530002593994,0.727559506893158,0.2153068482875824,-0.4407142996788025,-0.8714435696601868,0.1402534693479538,0.19767209887504578,0.0014943480491638184,0.9599215310067073,0.21231129430752174,0.1385716968697311,0.119468595707963
1681247986159776500,0.824776611328125,-1.3462845087051392,1.1088181734085083,1.1174319982528687,0.22382743656635284,-0.4258977472782135,-0.8766483664512634,0.14026254415512085,0.3155765235424042,-0.04122871160507202,0.9600150757502949,0.20246061281056685,0.14382456323563594,0.1292104680021199
1681247986174809300,0.839809326171875,-1.3285459280014038,1.1666878461837769,1.5250990390777588,0.23037680983543396,-0.41280660033226013,-0.8812021613121033,0.13949623703956604,0.3261517882347107,-0.06942027807235718,0.9594012960528272,0.19314495514656504,0.14864031378440032,0.1419519711114991
1681247986189841200,0.854841064453125,-1.4078516960144043,1.3067277669906616,1.6880395412445068,0.2368675023317337,-0.40052416920661926,-0.8851407766342163,0.1296486258506775,0.26484283804893494,-0.19365555047988892,0.9580865940187562,0.18383502309717165,0.1537344912101245,0.15697336803195241
1681247986204873200,0.869873291015625,-1.5486482381820679,1.3281577825546265,1.6412853002548218,0.24468198418617249,-0.3869222104549408,-0.8890567421913147,0.12960085272789001,0.22430914640426636,-0.24174147844314575,0.9564344374270184,0.17355447642269595,0.15921827318244497,0.17251557069514012
1681247986219906300,0.88490625,-1.7547979354858398,1.2532174587249756,1.6759592294692993,0.25267118215560913,-0.37090519070625305,-0.8936367630958557,0.16859346628189087,0.20578962564468384,-0.2449434995651245,0.9547159552399976,0.16191708970731047,0.1642086255343284,0.18797893158934284
1681247986234938400,0.8999384765625,-1.8325573205947876,1.2326953411102295,1.8405795097351074,0.2597470283508301,-0.3534358739852905,-0.8986738324165344,0.18136930465698242,0.1935388445854187,-0.2243272066116333,0.952692283151908,0.1494013840970419,0.16835178891497907,0.2042413535456929
1681247986249970400,0.914970458984375,-1.851215124130249,1.211807131767273,1.9536861181259155,0.26646482944488525,-0.3359467387199402,-0.9034026265144348,0.17568910121917725,0.18576955795288086,-0.2076355218887329,0.9500599542740714,0.13666703971282254,0.17210697194359595,0.22155690171761208
1681247986265003500,0.93000341796875,-1.8331326246261597,1.16091787815094,1.9518510103225708,0.2729848027229309,-0.3188894987106323,-0.9076281189918518,0.1651102900505066,0.1754719614982605,-0.18827331066131592,0.946918104626544,0.12407882374503443,0.1754718588944585,0.2390825420855602
1681247986280035300,0.945035400390625,-1.8965216875076294,1.1176377534866333,1.900972604751587,0.2795286476612091,-0.30145397782325745,-0.9115861058235168,0.1371125876903534,0.12178155779838562,-0.16818678379058838,0.9434593543035699,0.11130697492945144,0.1783751470087521,0.2562766143927101
1681247986295067400,0.9600673828125,-2.016256093978882,1.0275357961654663,1.8620004653930664,0.28609398007392883,-0.2826843857765198,-0.9155543446540833,0.12108680605888367,0.08607470989227295,-0.16376078128814697,0.9398056155871848,0.0979128863700046,0.18065403331655924,0.2730252225204785
1681247986310099500,0.975099365234375,-2.1613101959228516,0.8474521636962891,1.9302787780761719,0.2913816273212433,-0.2619393765926361,-0.9200459718704224,0.11634847521781921,0.11873546242713928,-0.15614116191864014,0.9359634977220745,0.08370505504507661,0.18157778132859442,0.2898196286975841
1681247986325132300,0.99013232421875,-2.1904702186584473,0.7280150055885315,2.090980052947998,0.294617235660553,-0.24050386250019073,-0.9248560070991516,0.11247199773788452,0.1399482786655426,-0.1406652331352234,0.9316484849120322,0.06936450193941422,0.18099880370413884,0.3073423341686073
1681247986340164400,1.005164306640625,-2.112978219985962,0.6248396039009094,2.244877815246582,0.29660487174987793,-0.22010189294815063,-0.9292904138565063,0.08710786700248718,0.173333540558815,-0.12556487321853638,0.9265699176578465,0.05562694904511379,0.17961186556891598,0.3257506738148827
1681247986355196400,1.020196533203125,-2.0633656978607178,0.5817443132400513,2.280649423599243,0.2976800203323364,-0.20121555030345917,-0.9332196712493896,0.06750854849815369,0.15029682219028473,-0.10932183265686035,0.9208098078213092,0.042785422925939995,0.17765016248083015,0.3445566186130065
1681247986370229200,1.035229248046875,-2.086817741394043,0.5234637260437012,2.2332534790039062,0.2991088926792145,-0.18214567005634308,-0.9366732835769653,0.018151819705963135,0.12721389532089233,-0.12079125642776489,0.9146289983149835,0.029953539019638223,0.17540278179074598,0.36302992938108547
1681247986385261300,1.05026123046875,-2.1140832901000977,0.38559287786483765,2.241929531097412,0.29972392320632935,-0.16263994574546814,-0.940060555934906,0.011784225702285767,0.1384088397026062,-0.1103087067604065,0.9081616608011277,0.017249263002168738,0.17225617812625532,0.3811465664930431
1681247986400293400,1.06529345703125,-2.12503719329834,0.28780481219291687,2.2886486053466797,0.29925328493118286,-0.14272059500217438,-0.9434396028518677,0.02156272530555725,0.19258618354797363,-0.12066256999969482,0.9012650865973107,0.004701445416824272,0.16810140583410538,0.3993009272384405
1681247986415326500,1.080326416015625,-2.0490832328796387,0.2376609593629837,2.3429858684539795,0.2983483672142029,-0.12343364208936691,-0.9464419484138489,0.008246451616287231,0.20604459941387177,-0.11434906721115112,0.8938089540370387,-0.00731675012841043,0.16347929260166466,0.4175244350016988
1681247986430358500,1.095358642578125,-1.9399738311767578,0.2290877103805542,2.3538076877593994,0.29756537079811096,-0.10559627413749695,-0.9488436579704285,-0.03850167989730835,0.1999107301235199,-0.11933261156082153,0.885786557264131,-0.018525396913497024,0.1588552131259286,0.4356651809778196
1681247986445390300,1.110390380859375,-1.8687351942062378,0.2502065896987915,2.306840181350708,0.2975953221321106,-0.08884662389755249,-0.9505489468574524,-0.06720289587974548,0.17357856035232544,-0.11050146818161011,0.8773787945754542,-0.029195835494199185,0.15450929185977716,0.45330035948924485
1681247986460422400,1.12542236328125,-1.8172600269317627,0.23033194243907928,2.27929949760437,0.29829102754592896,-0.07283227890729904,-0.9516921639442444,-0.11369028687477112,0.16111953556537628,-0.060102880001068115,0.8686721339473499,-0.039474468334104756,0.15031863432017034,0.47037755485295146
1681247986475455200,1.140455322265625,-1.794603943824768,0.1725786328315735,2.2801525592803955,0.29898524284362793,-0.05719379335641861,-0.952542245388031,-0.1271866261959076,0.15423959493637085,-0.037692129611968994,0.8596346480788369,-0.049412555869290276,0.14590161862188677,0.48713402064840183
1681247986490487300,1.1554873046875,-1.688333511352539,0.08539872616529465,2.2730374336242676,0.29914262890815735,-0.042449817061424255,-0.9532637000083923,-0.14666160941123962,0.1639402061700821,-0.012877047061920166,0.8503043334170318,-0.05864720322619574,0.1411688465737842,0.5036017641046167
1681247986505519400,1.170519287109375,-1.5254193544387817,0.02981349267065525,2.2517359256744385,0.2985970675945282,-0.02952571213245392,-0.95392245054245,-0.16583040356636047,0.15939317643642426,-0.02654629945755005,0.8407950896774713,-0.06670565092971124,0.13634196679693825,0.5196392678921409
1681247986520552400,1.185552490234375,-1.3862862586975098,0.03150486573576927,2.192044496536255,0.29825788736343384,-0.018566932529211044,-0.9543047547340393,-0.2331181764602661,0.11289668828248978,-0.08718395233154297,0.8311661258279602,-0.07376585809595376,0.13193267329364908,0.5350846523813941
1681247986535585000,1.2005849609375,-1.317073106765747,0.07458176463842392,2.089665174484253,0.29860514402389526,-0.008922278881072998,-0.9543350338935852,-0.28246140480041504,0.07801400125026703,-0.1081802248954773,0.8216150822455062,-0.08023084217336017,0.1280448774644655,0.5496511132314785
1681247986550616800,1.215616943359375,-1.186133861541748,0.05739399045705795,2.029724359512329,0.2994123697280884,-0.00005700462497770786,-0.9541237950325012,-0.35750263929367065,0.06664629280567169,-0.10353916883468628,0.8121609442566999,-0.08630592519966372,0.1244563384279618,0.563432966960059
1681247986565649700,1.230649658203125,-1.0266849994659424,0.0738091841340065,1.989880084991455,0.30044519901275635,0.006757721304893494,-0.95377516746521,-0.3702542185783386,0.06752199679613113,-0.10840445756912231,0.802756633396835,-0.09144450019777603,0.12145093213104591,0.5766017375987519
1681247986580681700,1.245681640625,-0.8247673511505127,0.0751895010471344,1.9558608531951904,0.3019057512283325,0.0111237158998847,-0.9532728791236877,-0.38224339485168457,0.10243213176727295,-0.11523908376693726,0.7933751745067574,-0.09559201550954721,0.1192716541996863,0.5892303132246073
1681247986595713800,1.2607138671875,-0.654025137424469,0.019140075892210007,1.842930555343628,0.3029395639896393,0.012914414517581463,-0.9529222846031189,-0.38616108894348145,0.10695857554674149,-0.11510145664215088,0.7842509781677502,-0.0984411380126584,0.11767841560363214,0.6011752563971726
1681247986610745900,1.275745849609375,-0.6006728410720825,-0.0018810536712408066,1.6200953722000122,0.30343180894851685,0.013814619742333889,-0.9527530074119568,-0.420710951089859,0.07740236818790436,-0.1271420121192932,0.7758636868986036,-0.10056869728424747,0.11623007977942448,0.611892296162083
1681247986625779000,1.290779052734375,-0.6639476418495178,-0.022381534799933434,1.4125499725341797,0.30357620120048523,0.015948385000228882,-0.9526736736297607,-0.4548214077949524,0.05988774821162224,-0.13059353828430176,0.7683906111720873,-0.10285477982257579,0.11438552949105256,0.6212189153342843
1681247986640810800,1.305810791015625,-0.7398514747619629,-0.03350183367729187,1.2385376691818237,0.3035205900669098,0.019961923360824585,-0.9526157379150391,-0.500938892364502,0.013363229110836983,-0.12615013122558594,0.761632853854989,-0.10563191503959275,0.1119554442566717,0.6294626912600152
1681247986655842800,1.3208427734375,-0.7668817043304443,-0.06358276307582855,1.0338881015777588,0.3031890392303467,0.025636643171310425,-0.9525855183601379,-0.5165680646896362,-0.004503265023231506,-0.12732475996017456,0.7556306423206087,-0.1087763845676184,0.1089721840465798,0.6366436398006557
1681247986670876000,1.3358759765625,-0.7500965595245361,-0.10177036374807358,0.7807098031044006,0.30241909623146057,0.03238987550139427,-0.9526245594024658,-0.5077414512634277,-0.0066178180277347565,-0.11900019645690918,0.7506986686234441,-0.1119566584990651,0.10560972765174796,0.6424671116145171
1681247986685908000,1.350907958984375,-0.7035276889801025,-0.1683962643146515,0.5216820240020752,0.30083587765693665,0.03982195630669594,-0.9528441429138184,-0.4915860593318939,-0.014492403715848923,-0.10890817642211914,0.7470146222175889,-0.11487745000837489,0.10188762100541023,0.6468318261981962
1681247986700939800,1.365939697265625,-0.7581171989440918,-0.2252664715051651,0.2597199082374573,0.2982840836048126,0.04844483360648155,-0.9532469511032104,-0.4764915406703949,-0.05088627338409424,-0.11866778135299683,0.7446381904706826,-0.11768881167572878,0.09760058702054362,0.6497211629305499
1681247986715972900,1.380972900390625,-0.7959246039390564,-0.2991718649864197,0.05420457571744919,0.2946512997150421,0.05898641049861908,-0.9537826180458069,-0.4741100072860718,-0.055125970393419266,-0.11904764175415039,0.7433730997756975,-0.12067720425563273,0.09244303073504762,0.6513739505696534
1681247986731004700,1.396004638671875,-0.7463898062705994,-0.3509117662906647,-0.12802541255950928,0.28988638520240784,0.07025426626205444,-0.9544790387153625,-0.4475708305835724,-0.026125885546207428,-0.12134188413619995,0.7430584302327979,-0.12341338287995852,0.08677336039135168,0.6519999041843169
1681247986746036700,1.41103662109375,-0.6119452714920044,-0.3917204439640045,-0.33264461159706116,0.284322053194046,0.08108381181955338,-0.9552938938140869,-0.4321492910385132,-0.011885225772857666,-0.12838536500930786,0.743771104013247,-0.1255787912697723,0.08113585206567167,0.651499527718773
1681247986761068800,1.42606884765625,-0.43267908692359924,-0.3884037435054779,-0.5435917377471924,0.27804017066955566,0.09035593271255493,-0.9563103318214417,-0.4204505383968353,0.017645753920078278,-0.14245980978012085,0.7456644681130603,-0.1267816381827406,0.07596869183433144,0.6497228882228774
1681247986776102000,1.441101806640625,-0.2731500566005707,-0.3611774444580078,-0.714860200881958,0.27177178859710693,0.09806706756353378,-0.9573520421981812,-0.4125342071056366,0.027833178639411926,-0.16702234745025635,0.748623820718794,-0.12730148749785714,0.07154232393543522,0.6467136020439602
1681247986791134000,1.456134033203125,-0.15028873085975647,-0.3732444941997528,-0.8987133502960205,0.26530784368515015,0.1042146384716034,-0.9585150480270386,-0.3842807114124298,0.02252483367919922,-0.2000848650932312,0.7524916454599986,-0.1270982232442733,0.06773863479846516,0.6426617790541339
1681247986806166000,1.471166015625,-0.08244224637746811,-0.4348178505897522,-1.1707466840744019,0.2577968239784241,0.10999280959367752,-0.9599179029464722,-0.36202970147132874,-0.010948047041893005,-0.22378265857696533,0.7575406387495577,-0.12633476581408937,0.0638793714174618,0.6372528710569799
1681247986821198600,1.486198486328125,0.12447977066040039,-0.472786545753479,-1.3864067792892456,0.24894417822360992,0.11480327695608139,-0.9616896510124207,-0.3442964553833008,-0.025005333125591278,-0.30395060777664185,0.7638928997801286,-0.12469541313068615,0.06005180898654168,0.6303274130186429
1681247986836230700,1.501230712890625,0.344146192073822,-0.4172191321849823,-1.5286121368408203,0.23996363580226898,0.11661757528781891,-0.9637519121170044,-0.30699557065963745,0.014028146862983704,-0.3848198652267456,0.7711983496460769,-0.12182797434339601,0.05728851293880215,0.6221970754299139
1681247986851262700,1.5162626953125,0.42825043201446533,-0.43959662318229675,-1.5744051933288574,0.2311336100101471,0.11639746278524399,-0.9659342169761658,-0.17957423627376556,0.13129842281341553,-0.496254563331604,0.7789785924762167,-0.11822858499717998,0.05527113152224107,0.6133184615895241
1681247986866295800,1.5312958984375,0.3770809769630432,-0.5749344229698181,-1.5794676542282104,0.22106511890888214,0.1157623678445816,-0.9683642387390137,-0.106700599193573,0.13854056596755981,-0.47710084915161133,0.7867462040241576,-0.11414121430324715,0.05281729900822712,0.6043281898433915
1681247986881327900,1.546327880859375,0.18884076178073883,-0.7872248888015747,-1.658285140991211,0.20834827423095703,0.1167461946606636,-0.9710619449615479,-0.022862523794174194,0.05883665382862091,-0.40300726890563965,0.7945260661916028,-0.10997428618526703,0.04873066398379593,0.5951969274707674
1681247986896360000,1.56135986328125,-0.0023262137547135353,-1.064623236656189,-1.776901364326477,0.19171473383903503,0.1206308901309967,-0.9740090370178223,0.007717549800872803,0.02725725620985031,-0.35101842880249023,0.8025403856182226,-0.10591658672562032,0.04215620046795695,0.5856052874806842
1681247986911393000,1.57639306640625,-0.09768251329660416,-1.3015817403793335,-1.8846118450164795,0.17061953246593475,0.12640652060508728,-0.977195143699646,0.032093390822410583,0.014126881957054138,-0.249519944190979,0.8108425197657815,-0.10149589625139592,0.03318139949433743,0.5754407556198093
1681247986926424800,1.5914248046875,-0.0428679957985878,-1.410031795501709,-1.971713662147522,0.14643368124961853,0.13210897147655487,-0.9803593158721924,0.03996759653091431,0.018541008234024048,-0.21986651420593262,0.8193558673946078,-0.09641119669041559,0.022917683212355024,0.564655410527377
1681247986941457000,1.606456787109375,0.12429090589284897,-1.3772584199905396,-1.9932447671890259,0.12146352231502533,0.1354948878288269,-0.983304500579834,0.02894226461648941,0.08490301668643951,-0.20241022109985352,0.8279319891978921,-0.09045040080089362,0.012902348440476604,0.5533363529988327
1681247986956489000,1.621489013671875,0.36661383509635925,-1.3457728624343872,-1.9594378471374512,0.09722703695297241,0.1351020485162735,-0.9860498905181885,0.05301089584827423,0.13526836037635803,-0.18872427940368652,0.8363321204763589,-0.08341690880004415,0.004084745907793252,0.5418243822475115
1681247986971521800,1.636521728515625,0.5722288489341736,-1.29789137840271,-1.9111278057098389,0.07358069717884064,0.13049983978271484,-0.9887141585350037,0.0995149090886116,0.20337766408920288,-0.14521223306655884,0.8444222398849779,-0.07503493890550304,-0.0035610842125645345,0.5303850057229049
1681247986986553900,1.651553955078125,0.6971011161804199,-1.2573060989379883,-1.8292542695999146,0.051046404987573624,0.12270086258649826,-0.9911300539970398,0.12682519853115082,0.21900439262390137,-0.1229293942451477,0.8520886424158508,-0.0658181088475991,-0.01014665106766983,0.5191435766461269
1681247987001585700,1.666585693359375,0.7031059861183167,-1.2540887594223022,-1.728803038597107,0.029121194034814835,0.11312798410654068,-0.9931535720825195,0.1530839055776596,0.18878234922885895,-0.07218456268310547,0.8591467121119268,-0.05619133814941121,-0.016301762420337707,0.5083737775664713
1681247987016618800,1.68161865234375,0.5786057114601135,-1.2133970260620117,-1.6544091701507568,0.007835357449948788,0.10386671870946884,-0.9945603609085083,0.17017357051372528,0.1575010120868683,-0.0560072660446167,0.8656168767586965,-0.04703324668304563,-0.02253203580457634,0.49798367953087497
1681247987031650800,1.69665087890625,0.45789340138435364,-1.194337248802185,-1.5419883728027344,-0.012566566467285156,0.09619861096143723,-0.9952828288078308,0.1655510812997818,0.0948566123843193,-0.0037863850593566895,0.8714800921031646,-0.03894306222591184,-0.029017638304387083,0.48802044734593303
1681247987046683000,1.711682861328125,0.4071321487426758,-1.1114627122879028,-1.4587619304656982,-0.03194934129714966,0.08920370787382126,-0.9955008625984192,0.1791049987077713,0.07156281918287277,0.01739722490310669,0.876748955610304,-0.03153001581466226,-0.03543210354928593,0.47860392423495085
1681247987061716000,1.726716064453125,0.37245112657546997,-1.0076305866241455,-1.360755443572998,-0.04961331561207771,0.08250332623720169,-0.9953550696372986,0.21338579058647156,0.08874598145484924,0.003655850887298584,0.8815699003785687,-0.02477486547896686,-0.041336055211925064,0.46958735527200374
1681247987076747800,1.741747802734375,0.28872382640838623,-0.9480201601982117,-1.1811434030532837,-0.0658055767416954,0.0763043612241745,-0.9949106574058533,0.24639323353767395,0.11330126225948334,0.0049509406089782715,0.8857622811990391,-0.018660224002984123,-0.04686633225600921,0.4613900395722983
1681247987091779600,1.756779541015625,0.08992893248796463,-0.9230213165283203,-0.9601048231124878,-0.08099603652954102,0.07215557992458344,-0.9940991997718811,0.27505719661712646,0.0777619332075119,0.026264727115631104,0.8891322499994109,-0.01371544970749884,-0.0525574633619913,0.4544158121588592
1681247987106811600,1.771811767578125,-0.17806704342365265,-0.911162257194519,-0.7655446529388428,-0.09562621265649796,0.07163882255554199,-0.9928361177444458,0.2799828052520752,0.024140506982803345,0.0504075288772583,0.8916563997845821,-0.010520665809668027,-0.05891747574688727,0.44873939625601844
1681247987121844700,1.7868447265625,-0.4555380642414093,-0.9196068644523621,-0.6787887215614319,-0.11004813015460968,0.07524963468313217,-0.9910736083984375,0.2652299106121063,-0.10093026608228683,0.106231689453125,0.8936016012070294,-0.009239764146624066,-0.06616510324908598,0.4438615884029916
1681247987136876800,1.801876708984375,-0.732565701007843,-0.9580253958702087,-0.6571281552314758,-0.12478681653738022,0.08293775469064713,-0.9887110590934753,0.26855501532554626,-0.14223350584506989,0.13022112846374512,0.8952751563548352,-0.009782247563527045,-0.07449008197547231,0.43913330326046074
1681247987151908900,1.816908935546875,-0.8746849894523621,-1.0771363973617554,-0.6191922426223755,-0.1404857039451599,0.09400348365306854,-0.9856100082397461,0.26153355836868286,-0.1487521231174469,0.18888765573501587,0.896718391913226,-0.011718297419647201,-0.08400993275554182,0.4343978028579469
1681247987166942000,1.83194189453125,-0.7769693732261658,-1.0550893545150757,-0.5987034440040588,-0.1573997139930725,0.10487927496433258,-0.9819499254226685,0.26280730962753296,-0.13323019444942474,0.20872610807418823,0.8978797637932919,-0.013374586093789644,-0.09405398994251027,0.4298687023427807
1681247987181974000,1.84697412109375,-0.5816885828971863,-0.9793609976768494,-0.548760175704956,-0.17337775230407715,0.11343001574277878,-0.978301465511322,0.2442394644021988,-0.012188039720058441,0.1851801872253418,0.8989348459637359,-0.014249867210148755,-0.10318041752919822,0.4255197488722502
1681247987197005800,1.862005859375,-0.3725840151309967,-0.9404706358909607,-0.4190508723258972,-0.18847553431987762,0.11886653304100037,-0.9748578071594238,0.24917487800121307,0.04609614610671997,0.20274782180786133,0.89965437733834,-0.01387921851185482,-0.11125856773648944,0.4219609097019909
1681247987212038700,1.87703857421875,-0.3024000823497772,-0.8237650394439697,-0.2844943702220917,-0.2020978480577469,0.12255801260471344,-0.9716666340827942,0.21158869564533234,0.038681529462337494,0.2133200764656067,0.8999742646857207,-0.01295511579022853,-0.11831676801382524,0.41938040579706215
1681247987227070700,1.89207080078125,-0.27764153480529785,-0.7251681685447693,-0.2138122171163559,-0.2138393223285675,0.12601818144321442,-0.9687064290046692,0.18493905663490295,-0.0036580413579940796,0.2200492024421692,0.89999485666359,-0.01225340126737514,-0.12448547341407686,0.4175675411620284
1681247987242102800,1.907102783203125,-0.18276773393154144,-0.6810132265090942,-0.26377391815185547,-0.22427745163440704,0.12875868380069733,-0.9659817814826965,0.1464727818965912,-0.07483422756195068,0.2388852834701538,0.9000488638570402,-0.011511262919142368,-0.12990994013709173,0.41581610108274203
1681247987257135900,1.922135986328125,0.1408345252275467,-0.6640563011169434,-0.35840749740600586,-0.23494142293930054,0.12795788049697876,-0.9635503888130188,0.140733540058136,-0.06864705681800842,0.2503240704536438,0.9003308650584557,-0.009167107864311755,-0.1346877081164859,0.4137386466617784
1681247987272168000,1.93716796875,0.3401646614074707,-0.4529092311859131,-0.3448437452316284,-0.24386712908744812,0.12293323129415512,-0.9619855880737305,0.13380534946918488,-0.012581750750541687,0.17295360565185547,0.9008925885195186,-0.005291866261721899,-0.13776504527938435,0.4115645752550502
1681247987287199700,1.95219970703125,0.32393062114715576,-0.29986268281936646,-0.20516227185726166,-0.24956710636615753,0.11686258763074875,-0.961280107498169,0.1380252242088318,0.014271356165409088,0.15119099617004395,0.9013790171597641,-0.001528551905741224,-0.13913166461880017,0.4100683369037203
1681247987302231800,1.967231689453125,0.14625516533851624,-0.30401748418807983,-0.15595930814743042,-0.2541477680206299,0.1128082349896431,-0.9605640172958374,0.16454803943634033,-0.07394418865442276,0.1444934606552124,0.9015742094891088,0.0011694435181467285,-0.14041589751082764,0.4092019399554022
1681247987317265000,1.982264892578125,-0.02379688434302807,-0.30077028274536133,-0.19003817439079285,-0.2589758634567261,0.11132551729679108,-0.9594467878341675,0.1568334400653839,-0.14916741847991943,0.15337079763412476,0.9017850030701662,0.002696811746145143,-0.14237039372586796,0.40805326308278367
1681247987332297000,1.997296875,-0.011864325031638145,-0.19882100820541382,-0.12342480570077896,-0.26291486620903015,0.11120989918708801,-0.9583883285522461,0.0922146737575531,-0.22278225421905518,0.1328725814819336,0.9020179616606154,0.0034025937030139836,-0.14420218178152563,0.4068880827869179
1681247987347329000,2.0123291015625,0.18271714448928833,-0.0003955429419875145,-0.008674788288772106,-0.2644840478897095,0.10979245603084564,-0.9581199288368225,0.07133820652961731,-0.193929523229599,0.10613024234771729,0.902104640180197,0.004328961402812107,-0.14464194448614676,0.40653079494709127
1681247987362361900,2.02736181640625,0.28331008553504944,0.20684686303138733,0.09987086057662964,-0.2628178596496582,0.10637132823467255,-0.9589639902114868,0.09162938594818115,-0.0859246477484703,0.013331055641174316,0.9020820201328276,0.0056343236909328085,-0.14313022085024055,0.4070998235214755
1681247987377393700,2.0423935546875,0.2460576593875885,0.30878201127052307,0.23487822711467743,-0.25876519083976746,0.10307379066944122,-0.960425078868866,0.1191318929195404,-0.047730252146720886,-0.011498689651489258,0.901848382527329,0.006504617121502269,-0.14051739228716892,0.40851222344463023
1681247987392425700,2.05742578125,0.11309311538934708,0.35340964794158936,0.340209424495697,-0.25344809889793396,0.10154958069324493,-0.9620040059089661,0.1469721496105194,-0.0755029171705246,-0.02775728702545166,0.9012875187939239,0.006405890645230663,-0.13768424479814664,0.4107103029676477
1681247987407458800,2.072458740234375,0.05511625111103058,0.43346402049064636,0.4175867736339569,-0.2473641335964203,0.10188751667737961,-0.9635506868362427,0.12302015721797943,-0.11830607056617737,-0.02997952699661255,0.9005091291890532,0.005346199503209527,-0.13489281797693306,0.4133508309312595
1681247987422491000,2.087490966796875,0.12388786673545837,0.6306365132331848,0.6069976687431335,-0.2388707399368286,0.10257086902856827,-0.9656189680099487,0.05021095275878906,-0.11953873187303543,-0.06355583667755127,0.8994687714704498,0.0037211937685433937,-0.13105978334931215,0.4168520060874729
1681247987437523000,2.10252294921875,0.2652718424797058,0.8216264247894287,0.8370361924171448,-0.22719618678092957,0.10226786881685257,-0.9684643745422363,0.035011619329452515,-0.07410023361444473,-0.09032773971557617,0.8978674950113279,0.002056964357407947,-0.12555315728596067,0.42197916451659584
1681247987452555800,2.1175556640625,0.4178689420223236,0.9495841264724731,0.9469739198684692,-0.21276628971099854,0.10027807950973511,-0.9719438552856445,0.08218145370483398,0.013293005526065826,-0.14292430877685547,0.8958038048275417,0.000666800217223245,-0.1184383284653218,0.4283778840687173
1681247987467587600,2.132587646484375,0.4943881630897522,1.0332962274551392,0.9905418753623962,-0.19680960476398468,0.0964328721165657,-0.9756878018379211,0.10931557416915894,0.04693862050771713,-0.15947455167770386,0.893520664627454,-0.0002522467461126429,-0.1102544136031781,0.43527552896588706
1681247987482619600,2.14761962890625,0.48413580656051636,1.0102328062057495,1.051121711730957,-0.180180162191391,0.09205268323421478,-0.9793168306350708,0.19336363673210144,0.09093062579631805,-0.1648482084274292,0.8909778426635783,-0.001154436102097282,-0.10168707526059813,0.44251213308388154
1681247987497652700,2.16265283203125,0.36989331245422363,0.8729668259620667,1.0541281700134277,-0.16478219628334045,0.08834189921617508,-0.9823657870292664,0.2288232147693634,0.08334990590810776,-0.13903313875198364,0.8881387797659032,-0.002183025874297941,-0.09387406734045223,0.44988058047908674
1681247987512684800,2.177684814453125,0.11461234092712402,0.6639164090156555,1.0340182781219482,-0.15194423496723175,0.08709529042243958,-0.9845442175865173,0.2703065276145935,-0.01641666144132614,-0.06391763687133789,0.8851167958675248,-0.0038560014364449335,-0.08782374831179844,0.4569906764979125
1681247987527717000,2.192717041015625,-0.21841883659362793,0.392433226108551,0.9584723711013794,-0.14282287657260895,0.09010288864374161,-0.985638439655304,0.2715764045715332,-0.11204510927200317,-0.020419299602508545,0.8819786071965171,-0.00667537275623068,-0.08447619682567466,0.46360878135941225
1681247987542749200,2.207749267578125,-0.44844216108322144,0.21882309019565582,0.8592608571052551,-0.13709978759288788,0.09709875285625458,-0.9857867360115051,0.24093572795391083,-0.27359724044799805,0.04375487565994263,0.8789876091890446,-0.010576661834662781,-0.08363471901691295,0.4693340345067831
1681247987557782300,2.2227822265625,-0.465925395488739,0.20581196248531342,0.8835206031799316,-0.13286562263965607,0.10581883788108826,-0.9854689836502075,0.20978505909442902,-0.2749320864677429,0.06592857837677002,0.8760030007402166,-0.014920634171568387,-0.08392191188816908,0.47471392671611856
1681247987572814300,2.237814453125,-0.36719265580177307,0.25485777854919434,0.9382158517837524,-0.12787076830863953,0.11381883174180984,-0.9852381944656372,0.19053851068019867,-0.1441839039325714,0.04508322477340698,0.8728189231373261,-0.01909653080523558,-0.08376284906613955,0.4804230300849461
1681247987587846400,2.252846435546875,-0.25545772910118103,0.21139447391033173,0.9661121964454651,-0.12275073677301407,0.12022477388381958,-0.9851285815238953,0.20002111792564392,-0.07609643042087555,0.035528361797332764,0.8694580064615077,-0.02257869450920495,-0.08322214630833624,0.48642292916232854
1681247987602879200,2.267879150390625,-0.1460428535938263,0.18816052377223969,1.0477250814437866,-0.11797254532575607,0.12491701543331146,-0.9851285219192505,0.21855837106704712,0.01953786611557007,0.020712077617645264,0.8658638664396215,-0.02519995581628238,-0.08246633396159123,0.49279231228383535
1681247987617911000,2.2829111328125,-0.09515894949436188,0.20953026413917542,1.1866408586502075,-0.11301811784505844,0.12857742607593536,-0.9852384328842163,0.2032126933336258,0.04831764101982117,0.010949492454528809,0.8618016162913391,-0.027356159704877488,-0.08143971605232161,0.4999174170783086
1681247987632943000,2.297943115234375,-0.04624253511428833,0.2776443064212799,1.3526146411895752,-0.1069285124540329,0.13170881569385529,-0.9855045080184937,0.16272976994514465,0.06435130536556244,-0.011443734169006348,0.8571223844763766,-0.029497664818740343,-0.07986016215607696,0.5080292291031387
1681247987647976200,2.31297607421875,-0.05076437070965767,0.28539544343948364,1.4820475578308105,-0.09981085360050201,0.13453839719295502,-0.9858687520027161,0.15706171095371246,0.06307810544967651,-0.02299654483795166,0.8518084662117501,-0.0317202137995821,-0.07784244969139924,0.5170655530711702
1681247987663008300,2.32800830078125,-0.09044200927019119,0.20985808968544006,1.5688334703445435,-0.09294892847537994,0.13779288530349731,-0.9860900640487671,0.1923903226852417,0.06255495548248291,-0.01506960391998291,0.8459452923766696,-0.03404088274806861,-0.07613267831299687,0.5267083734087415
1681247987678040300,2.343040283203125,-0.14400053024291992,0.13997036218643188,1.592559576034546,-0.08706232160329819,0.14161799848079681,-0.9860854148864746,0.19936689734458923,0.04952877759933472,0.0033431649208068848,0.8396815846114896,-0.03634952300358361,-0.07507323134342372,0.53663566568182
1681247987693073200,2.3580732421875,-0.20903822779655457,0.13147513568401337,1.630406379699707,-0.08165431767702103,0.1462610363960266,-0.9858703017234802,0.15959608554840088,0.006250515580177307,0.07044976949691772,0.8331551674633456,-0.03888706968331445,-0.07451601553552352,0.5466147607102423
1681247987708105000,2.37310498046875,-0.2628251016139984,0.15821194648742676,1.6601355075836182,-0.07586909830570221,0.1517125368118286,-0.9855086207389832,0.12727582454681396,-0.032221004366874695,0.11011189222335815,0.8263262002882937,-0.04186635903022685,-0.07411416737027021,0.5567221708188331
1681247987723137000,2.388136962890625,-0.3260885179042816,0.1679210364818573,1.6807520389556885,-0.06955056637525558,0.15780974924564362,-0.9850171804428101,0.08792202174663544,-0.0981784462928772,0.19656503200531006,0.8192751612813504,-0.04527225471594067,-0.07376884866849336,0.5668306276784917
1681247987738170000,2.403170166015625,-0.4735998511314392,0.10351647436618805,1.6787751913070679,-0.06333434581756592,0.1653633713722229,-0.9841970205307007,0.08166002482175827,-0.12431725859642029,0.23766076564788818,0.811979866380892,-0.04925697752059369,-0.07399494736442899,0.5768773444681504
1681247987753202200,2.4182021484375,-0.5759639739990234,0.055712468922138214,1.600988745689392,-0.05801885575056076,0.1747472584247589,-0.982902467250824,0.07002738863229752,-0.1473120003938675,0.2827529311180115,0.8046085301774204,-0.05374515259875885,-0.075234549306655,0.5865632804133603
1681247987768234200,2.433234130859375,-0.5435296297073364,0.0648399218916893,1.478135585784912,-0.05303577706217766,0.1843993067741394,-0.9814194440841675,0.05756750330328941,-0.1271788775920868,0.2815293073654175,0.7975693961262406,-0.0582863236922149,-0.07676580067520622,0.595476987847971
1681247987783266300,2.448266357421875,-0.42121753096580505,0.11485195904970169,1.3789442777633667,-0.04775496572256088,0.19265945255756378,-0.9801029562950134,0.030680250376462936,-0.044725507497787476,0.2652439475059509,0.7909875985942844,-0.062402827633782645,-0.07781006912920564,0.6036475887956022
1681247987798299100,2.463299072265625,-0.2452472597360611,0.23087283968925476,1.3160606622695923,-0.04139530658721924,0.19849547743797302,-0.9792272448539734,0.006086334586143494,-0.01369631290435791,0.2392370104789734,0.7847722246737259,-0.06591802967809353,-0.07772511718882799,0.6113480719278385
1681247987813331200,2.478331298828125,-0.12166048586368561,0.4121195673942566,1.2412422895431519,-0.03287827596068382,0.201797217130661,-0.9788753390312195,-0.04231717064976692,0.029236093163490295,0.17086142301559448,0.7789536170207151,-0.06915648954745023,-0.07602444342374555,0.6186024908293557
1681247987828363300,2.49336328125,-0.10324883460998535,0.5457471609115601,1.217460036277771,-0.02193928137421608,0.2038787305355072,-0.9787502884864807,-0.06903374940156937,0.046792641282081604,0.1383877396583557,0.7734623062475698,-0.07275882771703863,-0.07301373793144589,0.6254049807668965
1681247987843396000,2.50839599609375,-0.1145520880818367,0.5420088768005371,1.2095837593078613,-0.01017785258591175,0.20576098561286926,-0.9785493612289429,-0.07426441460847855,0.08511729538440704,0.07968461513519287,0.7679328619673612,-0.07661025737010696,-0.06968639933454225,0.6321026925885495
1681247987858428200,2.52342822265625,-0.12715527415275574,0.6132599115371704,1.1760073900222778,0.001879753777757287,0.20763272047042847,-0.9782050251960754,-0.08018799126148224,0.08948640525341034,0.03570014238357544,0.7624711689030771,-0.08063585715042888,-0.06629730533567792,0.6385454639131759
1681247987873460200,2.538460205078125,-0.15661336481571198,0.7393760085105896,1.1910470724105835,0.015598505735397339,0.2095051258802414,-0.9776831269264221,-0.12219653278589249,0.08430284261703491,-0.05217832326889038,0.7570164795526351,-0.08527996100967246,-0.06233590865380088,0.6448005186801156
1681247987888493300,2.553493408203125,-0.20098258554935455,0.7340022921562195,1.1614822149276733,0.030282890424132347,0.211672842502594,-0.9768713116645813,-0.14548687636852264,0.07420055568218231,-0.0928613543510437,0.751475775448043,-0.09043547117903929,-0.05818738134265983,0.6509376509919937
1681247987903525000,2.568525146484375,-0.2762286067008972,0.655132532119751,1.0583339929580688,0.044052090495824814,0.2145228534936905,-0.9757250547409058,-0.16072091460227966,0.09530685842037201,-0.17812931537628174,0.7461526626642908,-0.09565662428356086,-0.054656060854928724,0.6565965683635963
1681247987918557200,2.58355712890625,-0.25833994150161743,0.5940853953361511,0.9853820204734802,0.05643361806869507,0.2177862524986267,-0.9743635654449463,-0.17237001657485962,0.1246667355298996,-0.21142739057540894,0.7411510127650516,-0.1006683209066734,-0.05180823712648285,0.6617229234963081
1681247987933590300,2.59859033203125,-0.16305628418922424,0.5860708951950073,0.9199902415275574,0.06821270287036896,0.22002370655536652,-0.9731066823005676,-0.189993217587471,0.14284557104110718,-0.22727173566818237,0.7364474658585647,-0.10516331570218371,-0.04886040912777456,0.6664821860120755
1681247987948622300,2.613622314453125,-0.10436619073152542,0.5518522262573242,0.8019461631774902,0.0794515460729599,0.22082176804542542,-0.9720726609230042,-0.21700966358184814,0.1325717717409134,-0.21211618185043335,0.732202439595986,-0.10901168426037375,-0.045608508842764774,0.6707577561377647
1681247987963654400,2.628654296875,-0.2214755117893219,0.4495423138141632,0.6468316316604614,0.08924753218889236,0.222184956073761,-0.9709112644195557,-0.24011129140853882,0.11210459470748901,-0.21147704124450684,0.7286002445486787,-0.11266772752419484,-0.04301555922682242,0.6742384372737468
1681247987978687200,2.643687255859375,-0.319029837846756,0.33787277340888977,0.5541065335273743,0.09695620089769363,0.2253948450088501,-0.9694311022758484,-0.2530689835548401,0.1061786413192749,-0.1913507580757141,0.7254548514961543,-0.11635867279617879,-0.041774466965661304,0.6770753453944515
1681247987993719000,2.658718994140625,-0.33797892928123474,0.34464651346206665,0.4555232524871826,0.10351736098527908,0.22944189608097076,-0.9678019285202026,-0.29039186239242554,0.09390710294246674,-0.18472492694854736,0.7226731098317072,-0.12000482708105668,-0.04120526195740744,0.6794444768864301
1681247988008751000,2.673751220703125,-0.3346778452396393,0.3905053436756134,0.3456934094429016,0.11028209328651428,0.23361636698246002,-0.9660544991493225,-0.32219627499580383,0.10280939936637878,-0.2004799246788025,0.7204327736175216,-0.12381478653462973,-0.04052969442310075,0.6811784835066592
1681247988023784200,2.6887841796875,-0.36927151679992676,0.3751690089702606,0.25282979011535645,0.11696048825979233,0.23826000094413757,-0.9641330242156982,-0.3598042130470276,0.11693410575389862,-0.22116976976394653,0.7186954775356165,-0.1278117872895622,-0.03997060630357947,0.6823074819678209
1681247988038816300,2.703816162109375,-0.3637450933456421,0.33536967635154724,0.1413368135690689,0.12285103648900986,0.24320392310619354,-0.9621639847755432,-0.3665492534637451,0.10939618945121765,-0.21587562561035156,0.7174035428806197,-0.13167903995814878,-0.0397322462075899,0.6829452369311606
1681247988053848300,2.718848388671875,-0.31589680910110474,0.24953307211399078,-0.031512726098299026,0.12736620008945465,0.24810943007469177,-0.9603226184844971,-0.346970796585083,0.10699312388896942,-0.24666285514831543,0.7168312459255836,-0.1350937842912155,-0.03985412123765486,0.6828721465981854
1681247988068881200,2.733881103515625,-0.1953142136335373,0.13497400283813477,-0.24759441614151,0.12964875996112823,0.25209274888038635,-0.9589788913726807,-0.3201548457145691,0.12362441420555115,-0.2668207287788391,0.7173261030242165,-0.13743636936011294,-0.040271740728799216,0.6818598993374281
1681247988083913000,2.748912841796875,-0.10197865962982178,0.036469265818595886,-0.427362322807312,0.12950868904590607,0.2547764778137207,-0.958288311958313,-0.2504652142524719,0.1740107536315918,-0.3252962827682495,0.7189682947477318,-0.13850144453855798,-0.04090475595628728,0.6798742763001799
1681247988098945000,2.763945068359375,-0.10658998042345047,-0.06878578662872314,-0.5292455554008484,0.12742163240909576,0.2570895254611969,-0.957950234413147,-0.21853198111057281,0.1917477250099182,-0.33187514543533325,0.7213250551501341,-0.13878860807732837,-0.041983221167390485,0.6772484020546718
1681247988113978000,2.77897802734375,-0.17565618455410004,-0.2018149346113205,-0.6467474102973938,0.12321637570858002,0.2601493000984192,-0.9576743245124817,-0.17381462454795837,0.1438118815422058,-0.23008513450622559,0.7240893257491237,-0.13865560112283187,-0.04401669546836088,0.6741898963075139
1681247988129010200,2.79401025390625,-0.22887957096099854,-0.32332462072372437,-0.864301323890686,0.11636709421873093,0.26445791125297546,-0.9573509097099304,-0.17534242570400238,0.07692697644233704,-0.14309775829315186,0.7275748615148477,-0.13815329402982054,-0.04730986646894482,0.6703062477519253
1681247988144042200,2.809042236328125,-0.17217980325222015,-0.3717861473560333,-1.0897914171218872,0.10729619860649109,0.26916417479515076,-0.9570988416671753,-0.22019609808921814,-0.002150595188140869,-0.031167149543762207,0.7321455555388001,-0.13716347361780556,-0.0513494124688277,0.6652160354326448
1681247988159074300,2.82407421875,0.05475539714097977,-0.31792157888412476,-1.2842998504638672,0.09738636016845703,0.2719251215457916,-0.9573779702186584,-0.2347918599843979,0.013002246618270874,-0.020496785640716553,0.7378531773695408,-0.1352916912795722,-0.05483757033113066,0.6589854359749994
1681247988174107100,2.839107177734375,0.3769199550151825,-0.21662291884422302,-1.4221999645233154,0.08789985626935959,0.27069807052612305,-0.9586428999900818,-0.23745137453079224,0.11129048466682434,-0.07227140665054321,0.744643037870455,-0.13216575373053568,-0.05666365422277667,0.6517885506785792
1681247988189139200,2.85413916015625,0.6603847146034241,-0.11490294337272644,-1.5159008502960205,0.0795682817697525,0.26497504115104675,-0.9609667658805847,-0.22480154037475586,0.15447381138801575,-0.09729129076004028,0.7522491704227875,-0.12777425020844294,-0.056483232382451565,0.6438981548508769
1681247988204171300,2.869171142578125,0.8422770500183105,-0.05322626978158951,-1.6020959615707397,0.07223835587501526,0.25571203231811523,-0.96405029296875,-0.1829562485218048,0.18320703506469727,-0.1286163330078125,0.7604309845404906,-0.12237652182376199,-0.05476160295407359,0.635429067373315
1681247988219204000,2.8842041015625,0.9275939464569092,-0.05447022616863251,-1.695165991783142,0.06523913145065308,0.24445277452468872,-0.9674640893936157,-0.14699584245681763,0.17936007678508759,-0.12033498287200928,0.7690268281618222,-0.11631929788150894,-0.052323893058002655,0.6263624834222541
1681247988234236200,2.899236083984375,0.9345721006393433,-0.066098652780056,-1.8115320205688477,0.0578579343855381,0.2322273850440979,-0.9709391593933105,-0.07146888971328735,0.1282614916563034,-0.07854509353637695,0.7780046652111283,-0.10976917155169254,-0.049810988775546745,0.6165861250072276
1681247988249268200,2.914268310546875,0.8553522229194641,-0.10660772770643234,-1.880091667175293,0.05016668140888214,0.2204826921224594,-0.9740999341011047,-0.03245134279131889,0.1175910085439682,-0.051626384258270264,0.7872102546365494,-0.10332402229648696,-0.04768833202628167,0.6060941376799347
1681247988264301300,2.92930126953125,0.7565329670906067,-0.1654801070690155,-1.8663382530212402,0.04184901341795921,0.20981459319591522,-0.9768452048301697,0.024709701538085938,0.0855955183506012,0.010109364986419678,0.7962692711768448,-0.09711506814761484,-0.04632573656853832,0.5952965796975568
1681247988279333000,2.9443330078125,0.6726778149604797,-0.19488060474395752,-1.8210887908935547,0.03333422541618347,0.20028656721115112,-0.9791701436042786,0.05170288309454918,0.0665438324213028,0.031919777393341064,0.8049053836336669,-0.09129970085217075,-0.045599398886022734,0.5845617745575045
1681247988294365200,2.959365234375,0.5706038475036621,-0.1716565042734146,-1.7596278190612793,0.025156643241643906,0.1916830688714981,-0.9811344146728516,0.10106395184993744,0.041944220662117004,0.0025424957275390625,0.8130812996537512,-0.08595760700082089,-0.04521148650383969,0.5739914971896546
1681247988309398300,2.974398193359375,0.4409981667995453,-0.20538277924060822,-1.6581493616104126,0.01752331666648388,0.1847308725118637,-0.9826329350471497,0.13456091284751892,0.05817374587059021,-0.025622069835662842,0.820673384664632,-0.08144847010873874,-0.045273496412744904,0.5637479984352533
1681247988324430300,2.989430419921875,0.2739841639995575,-0.2694632411003113,-1.5045326948165894,0.009531275369226933,0.17955002188682556,-0.9837026596069336,0.1918541043996811,0.08575449883937836,-0.033356666564941406,0.8274799323077132,-0.07756009563407595,-0.046185437581634486,0.5541916882737623
1681247988339462400,3.00446240234375,0.07028694450855255,-0.3253326416015625,-1.3339675664901733,0.001249971566721797,0.17705196142196655,-0.9842007160186768,0.21112173795700073,0.08620786666870117,-0.011648893356323242,0.8333286098206852,-0.07470232184103787,-0.048158135018952254,0.5455859531681455
1681247988354495200,3.0194951171875,-0.14200805127620697,-0.38288408517837524,-1.21183443069458,-0.007391085382550955,0.17743532359600067,-0.9841046929359436,0.21814537048339844,0.025720149278640747,0.0932508111000061,0.8383516875111465,-0.07296908444674277,-0.05121675592860759,0.5377909186523536
1681247988369527000,3.034527099609375,-0.3007966876029968,-0.49767670035362244,-1.140159249305725,-0.01704244501888752,0.1805683970451355,-0.9834147691726685,0.222517192363739,-0.017528295516967773,0.16294968128204346,0.8427670364809895,-0.07216631828922442,-0.05553951747665757,0.5305196747214075
1681247988384559000,3.04955908203125,-0.35798782110214233,-0.6084343194961548,-1.1162842512130737,-0.028449350968003273,0.1850072741508484,-0.9823252558708191,0.22473829984664917,-0.057428598403930664,0.2563731074333191,0.8468099197012537,-0.07151808365929381,-0.0610125087567785,0.5235224456587931
1681247988399592200,3.06459228515625,-0.3047368824481964,-0.6204947233200073,-1.0566035509109497,-0.04072771593928337,0.1895168125629425,-0.9810324311256409,0.22609136998653412,-0.04303249716758728,0.26562410593032837,0.8506088590230082,-0.07075127507829182,-0.06691816191478976,0.5167019772900484
1681247988414624300,3.079624267578125,-0.14167195558547974,-0.547510027885437,-0.9348164796829224,-0.052220068871974945,0.19208496809005737,-0.9799879789352417,0.1856580674648285,0.03405022621154785,0.2645949125289917,0.8540309719871284,-0.06938798931726937,-0.07205080734054102,0.5105146755982137
1681247988429656300,3.09465625,0.0294444989413023,-0.5033963322639465,-0.7857140898704529,-0.062435027211904526,0.1921473741531372,-0.9793779850006104,0.17330527305603027,0.06223185360431671,0.26401543617248535,0.8570103136720904,-0.06725869474931143,-0.07607410888248277,0.505195390991057
1681247988444689200,3.109689208984375,0.17420488595962524,-0.4582858979701996,-0.628490686416626,-0.07158474624156952,0.18987253308296204,-0.9791955947875977,0.16986650228500366,0.05645005404949188,0.29979801177978516,0.85945359263583,-0.06433278031633838,-0.07914217646117787,0.5009367484726825
1681247988459721200,3.12472119140625,0.23974724113941193,-0.38483351469039917,-0.46667855978012085,-0.07937982678413391,0.18612854182720184,-0.9793135523796082,0.16814008355140686,0.03887750208377838,0.30470722913742065,0.8613649626603983,-0.06103988772433883,-0.08134716101271101,0.4977021142276738
1681247988474753000,3.1397529296875,0.24290090799331665,-0.32451289892196655,-0.2838432490825653,-0.08559635281562805,0.18205486238002777,-0.9795556664466858,0.1624394953250885,0.016614511609077454,0.3115411400794983,0.8626567677260394,-0.0579073534440307,-0.08287886235716212,0.4955818763798219
1681247988489786000,3.1547861328125,0.21928425133228302,-0.29172858595848083,-0.12334571033716202,-0.09071428328752518,0.17835284769535065,-0.9797760844230652,0.16857975721359253,0.019599363207817078,0.3094269633293152,0.8633099794395663,-0.055112603190287185,-0.0841103751174806,0.4945544690563917
1681247988504818200,3.169818115234375,0.19329313933849335,-0.23091955482959747,0.05193875730037689,-0.09470725804567337,0.17532303929328918,-0.9799450635910034,0.16878855228424072,0.04113808274269104,0.2746380567550659,0.8633674746572788,-0.05279525916261335,-0.0850888774173629,0.49453945608913774
1681247988519850200,3.184850341796875,0.2435404360294342,-0.08675013482570648,0.261567622423172,-0.09677015244960785,0.1723082959651947,-0.9802781939506531,0.1593005508184433,0.057946741580963135,0.24784111976623535,0.8627719022806531,-0.05084606216772497,-0.08529693271292631,0.4957458122704629
1681247988534882800,3.1998828125,0.2437228113412857,0.14487163722515106,0.483702152967453,-0.09542440623044968,0.16919076442718506,-0.9809529185295105,0.12653696537017822,0.07144027948379517,0.156902015209198,0.8614945243003306,-0.04957553850458971,-0.08405827850310345,0.4983010274359444
1681247988549915000,3.214914794921875,0.16176553070545197,0.3423181176185608,0.7167574763298035,-0.09016740322113037,0.1669953465461731,-0.9818260669708252,0.11410832405090332,0.07062971591949463,0.1260826587677002,0.8594662520724499,-0.049571668580558656,-0.08142249306987118,0.5022260212146046
1681247988564946700,3.22994677734375,0.02770252525806427,0.4572407007217407,0.9068083763122559,-0.08218101412057877,0.16659188270568848,-0.9825952649116516,0.13985911011695862,0.022845938801765442,0.10590153932571411,0.8566381419445576,-0.05094793989524402,-0.0781452519695759,0.5074139343439551
1681247988579979800,3.244979736328125,-0.18361034989356995,0.5141785740852356,1.0254442691802979,-0.07245688140392303,0.16882814466953278,-0.9829786419868469,0.15242809057235718,0.0013835728168487549,0.0897902250289917,0.8531740431139401,-0.05387859116020971,-0.07488498949508407,0.5134040567242897
1681247988595011600,3.260011474609375,-0.3553426265716553,0.4757339656352997,1.1101183891296387,-0.06233206018805504,0.1739806830883026,-0.9827743768692017,0.1658780872821808,-0.005050688982009888,0.06572115421295166,0.8491812736398645,-0.05816886871964652,-0.07231323352778284,0.5198831220028907
1681247988610043600,3.275043701171875,-0.31805306673049927,0.48842206597328186,1.1854877471923828,-0.05242190882563591,0.18014834821224213,-0.9822415709495544,0.15580007433891296,-0.013705536723136902,0.03319066762924194,0.8447606976042634,-0.06284161574515314,-0.07021496800673338,0.5267829463413509
1681247988625076700,3.29007666015625,-0.2309732884168625,0.7060462832450867,1.3250168561935425,-0.040327731519937515,0.18503713607788086,-0.9819037318229675,0.11237961053848267,0.03627629578113556,-0.15496760606765747,0.8399549657690892,-0.06754998653980636,-0.0669711371916363,0.5342543309683753
1681247988640108800,3.30510888671875,-0.24312986433506012,0.8883604407310486,1.523107886314392,-0.02439017780125141,0.18904469907283783,-0.9816655516624451,0.10175211727619171,0.08338567614555359,-0.25023752450942993,0.8344636163631961,-0.07292593389263413,-0.06204063414160931,0.5426816061361797
1681247988655140600,3.320140625,-0.3970913290977478,0.9267879724502563,1.6884081363677979,-0.006219808477908373,0.1939830780029297,-0.980985164642334,0.12297994643449783,0.07338137924671173,-0.303194522857666,0.8280558254866486,-0.07935185135193963,-0.056663076279123,0.5521016256000628
1681247988670173700,3.335173583984375,-0.5844958424568176,0.892510712146759,1.7723400592803955,0.012351280078291893,0.2012115865945816,-0.9794699549674988,0.1081167459487915,0.019766151905059814,-0.2878487706184387,0.8208543202147807,-0.08694638408164401,-0.052013058574500656,0.5620795423335815
1681247988685205800,3.350205810546875,-0.7104567289352417,0.8293128609657288,1.8074111938476562,0.030686182901263237,0.2101798802614212,-0.9771810173988342,0.07987888157367706,-0.03920517861843109,-0.26645606756210327,0.8130909504040837,-0.09531529082035482,-0.04821281122786028,0.5722533205569691
1681247988700237800,3.36523779296875,-0.752212405204773,0.7158600687980652,1.7681416273117065,0.047811880707740784,0.21997128427028656,-0.9743339419364929,0.07792042195796967,-0.03607238829135895,-0.2562263607978821,0.805033318062547,-0.10379483433905656,-0.04538339427580083,0.5823130367740043
1681247988715270700,3.380270751953125,-0.7402904033660889,0.6182109713554382,1.7142245769500732,0.06368530541658401,0.22939875721931458,-0.9712468385696411,0.07988453656435013,-0.04243282973766327,-0.1889246702194214,0.796945013686399,-0.11186926146736444,-0.043149219362765945,0.5920322101894435
1681247988730302700,3.395302734375,-0.7359607219696045,0.37357643246650696,1.5696439743041992,0.07678758352994919,0.2384260892868042,-0.9681201577186584,0.06147219240665436,-0.05799092352390289,-0.15852779150009155,0.7890669122237034,-0.11904675327309949,-0.04204502006025941,0.6011934259516121
1681247988745334500,3.41033447265625,-0.7033675909042358,0.1520025134086609,1.353226900100708,0.08593527227640152,0.24715957045555115,-0.965156614780426,0.056795328855514526,-0.09248122572898865,-0.06533044576644897,0.7818214595797373,-0.12497789525790438,-0.04245256472841793,0.6093714579456788
1681247988760367600,3.42536767578125,-0.5388194918632507,-0.009158408269286156,1.157829999923706,0.0915757566690445,0.25468525290489197,-0.9626781940460205,0.03076910972595215,-0.09617695212364197,-0.04879641532897949,0.7754838246241421,-0.12939089073343832,-0.04380523451533377,0.6164122387170732
1681247988775399700,3.440399658203125,-0.21705523133277893,-0.0010104663670063019,1.0612006187438965,0.09558844566345215,0.25866809487342834,-0.9612250924110413,-0.004493586719036102,-0.047288089990615845,-0.01951831579208374,0.7699610890225927,-0.13190151765682329,-0.04460315832604833,0.6227139768718776
1681247988790431700,3.455431640625,0.075127512216568,0.11010673642158508,0.9977566599845886,0.10036539286375046,0.2580795884132385,-0.9608963131904602,-0.02211843430995941,-0.020805448293685913,-0.005305469036102295,0.7650902374253716,-0.13286761608826145,-0.04356651499092627,0.6285580746571432
1681247988805464800,3.47046484375,0.2666974663734436,0.17581383883953094,0.9591922163963318,0.1063350960612297,0.2539215385913849,-0.9613618850708008,-0.04099706560373306,-0.027435332536697388,0.03126239776611328,0.760674532381207,-0.132854814129982,-0.040849033468167435,0.6340783834606097
1681247988820497000,3.485496826171875,0.28820890188217163,0.14121219515800476,0.91404789686203,0.11224572360515594,0.248213529586792,-0.9621803164482117,-0.0325034037232399,-0.03590273857116699,0.03954237699508667,0.7565327882627053,-0.13227335514330457,-0.03759790561650771,0.6393344167364984
1681247988835529000,3.500529052734375,0.21143779158592224,0.08547435700893402,0.8949868679046631,0.11719346046447754,0.24299994111061096,-0.9629209637641907,0.005487091839313507,-0.054309770464897156,0.040298283100128174,0.752469052425065,-0.1316249237868785,-0.03484838736084576,0.6443997086267388
1681247988850561500,3.5155615234375,0.12882083654403687,0.015539748594164848,0.8997568488121033,0.12117872387170792,0.23893341422080994,-0.9634451270103455,0.012289799749851227,-0.045467227697372437,0.02771514654159546,0.7482863064317048,-0.13114222808392334,-0.032850335459363694,0.6494537921368616
1681247988865593600,3.530593505859375,0.05115640163421631,-0.02596828155219555,0.9195588231086731,0.12431921064853668,0.23595814406871796,-0.9637782573699951,0.013009771704673767,-0.00582510232925415,0.0011775493621826172,0.7439207834846109,-0.1308246576184426,-0.031556081118022446,0.6545771301557319
1681247988880625700,3.545625732421875,-0.03522093966603279,-0.04755160212516785,0.917264997959137,0.127024307847023,0.2340964376926422,-0.9638795256614685,0.005421847105026245,0.017826169729232788,-0.005389273166656494,0.7393783404909127,-0.1308069322711866,-0.03081871203950559,0.6597421396821165
1681247988895658800,3.56065869140625,-0.1301092654466629,-0.05261320620775223,0.9095349311828613,0.12951461970806122,0.23355576395988464,-0.9636792540550232,-0.03410153090953827,0.03745560348033905,0.006403803825378418,0.7347411173599786,-0.1312372298489926,-0.03061320068065826,0.6648272607626053
1681247988910690800,3.57569091796875,-0.17198337614536285,-0.05479380488395691,0.8846634030342102,0.1318475902080536,0.23399695754051208,-0.963255763053894,-0.059398964047431946,0.03326074779033661,0.024870753288269043,0.730055752282372,-0.13199691740289482,-0.03080475949797885,0.6698109865503874
1681247988925723000,3.590722900390625,-0.16363994777202606,-0.04710578918457031,0.8276645541191101,0.13410085439682007,0.23477010428905487,-0.9627564549446106,-0.10636049509048462,0.022660940885543823,0.0703461766242981,0.725534959547341,-0.13286802345285081,-0.03111048745758278,0.6745202590801116
1681247988940756000,3.605755859375,-0.1260729283094406,-0.0256164763122797,0.7570984959602356,0.13636139035224915,0.235257089138031,-0.9623199701309204,-0.1319974958896637,0.016818106174468994,0.09096682071685791,0.7213460815600955,-0.1336524753819903,-0.03125764776317646,0.6788372245719061
1681247988955787800,3.620787841796875,-0.0942375436425209,0.011011042632162571,0.681675136089325,0.13883109390735626,0.23533853888511658,-0.9619468450546265,-0.17136293649673462,0.014569923281669617,0.10542523860931396,0.7175533072058874,-0.13438134289095746,-0.031116487900757356,0.6827084950883731
1681247988970819600,3.635819580078125,-0.09337601065635681,0.04334394633769989,0.6137171387672424,0.14156368374824524,0.23528768122196198,-0.9615609645843506,-0.18483774363994598,0.019137367606163025,0.10505461692810059,0.7141476405477226,-0.13517863844022956,-0.03076144561028318,0.6861295308546708
1681247988985852700,3.650852783203125,-0.11862251162528992,0.07248851656913757,0.5766829252243042,0.14453864097595215,0.2355242371559143,-0.9610602855682373,-0.2012861967086792,0.020991265773773193,0.09768754243850708,0.7109837082570475,-0.13618839492464888,-0.03037376640653434,0.6892259169990749
1681247989000884700,3.665884765625,-0.16305406391620636,0.08649754524230957,0.5364164710044861,0.14765200018882751,0.23634611070156097,-0.9603850245475769,-0.20864149928092957,0.01656833291053772,0.0930296778678894,0.7079654173611839,-0.13747917395489648,-0.03011571920314505,0.692082189079971
1681247989015916800,3.680916748046875,-0.2125517725944519,0.10707898437976837,0.47435444593429565,0.15084011852741241,0.23789434134960175,-0.9595069289207458,-0.22295327484607697,0.005941122770309448,0.07980722188949585,0.7051609224473261,-0.13908133488189234,-0.03004857932338455,0.6946233759620486
1681247989030950000,3.695949951171875,-0.23626109957695007,0.11541787534952164,0.40937545895576477,0.15405292809009552,0.2401733249425888,-0.958428144454956,-0.23197968304157257,0.0011902004480361938,0.07293009757995605,0.7026349381262997,-0.14097883377711704,-0.030181212841202766,0.6967914058177971
1681247989045981700,3.710981689453125,-0.2379375696182251,0.12591205537319183,0.3401907980442047,0.15717525780200958,0.24278530478477478,-0.957262396812439,-0.23377448320388794,0.008191272616386414,0.05700904130935669,0.7004315164807652,-0.14298306648024794,-0.0304081437314879,0.6985893496478036
1681247989061013800,3.726013671875,-0.21358108520507812,0.1404084414243698,0.255629301071167,0.1602105051279068,0.24529096484184265,-0.95611971616745,-0.23627567291259766,0.014123722910881042,0.04886263608932495,0.6986408445276912,-0.1449364853674788,-0.030553980427422456,0.6999722002971436
1681247989076046600,3.741046630859375,-0.18847472965717316,0.12828093767166138,0.17013944685459137,0.16296076774597168,0.24759601056575775,-0.9550601840019226,-0.22559820115566254,0.021813184022903442,0.023770511150360107,0.6973352690566238,-0.14673501161432262,-0.030638698913168505,0.7008949301341902
1681247989091078700,3.75607861328125,-0.18613147735595703,0.05802595615386963,0.06956781446933746,0.1647840440273285,0.2499939203262329,-0.9541222453117371,-0.21629782021045685,0.026235952973365784,0.01036614179611206,0.6965047833754016,-0.14825027247016603,-0.03099568416402727,0.7013859875322178
1681247989106110700,3.77111083984375,-0.18876880407333374,0.010002236813306808,-0.04062659665942192,0.16534194350242615,0.2526203989982605,-0.9533336162567139,-0.202893927693367,0.02760729193687439,-0.021229982376098633,0.6962293428047698,-0.1494107054847283,-0.0317746856595065,0.7013783718452253
1681247989121143800,3.786143798828125,-0.2023780196905136,-0.04275471717119217,-0.15896308422088623,0.16473247110843658,0.2556590735912323,-0.9526287913322449,-0.20478691160678864,0.029832899570465088,-0.03777343034744263,0.6965248677306537,-0.15032192132461356,-0.03299868271643367,0.7008335110786108
1681247989136175600,3.801175537109375,-0.20015785098075867,-0.09096965193748474,-0.2989257872104645,0.16285519301891327,0.25913068652153015,-0.952013373374939,-0.22511115670204163,0.020990192890167236,-0.055478692054748535,0.6974762589287794,-0.1509630251562238,-0.034691101332144945,0.6996667868257627
1681247989151207700,3.816207763671875,-0.15357230603694916,-0.10238555818796158,-0.4591284990310669,0.15995953977108002,0.262604683637619,-0.9515522718429565,-0.23530754446983337,0.01760774850845337,-0.06195175647735596,0.6992230078181924,-0.15128054846117364,-0.03657939557454591,0.6977560853083093
1681247989166240800,3.83124072265625,-0.06012490764260292,-0.09317607432603836,-0.6062777638435364,0.15636591613292694,0.26540035009384155,-0.9513739347457886,-0.2505127489566803,0.03831058740615845,-0.08300411701202393,0.7018600184300292,-0.15115211283642002,-0.03828927609863708,0.6950393673245342
1681247989181272800,3.84627294921875,0.013667186722159386,-0.07129261642694473,-0.767246425151825,0.15241925418376923,0.26732683181762695,-0.9514750242233276,-0.2541497051715851,0.04990339279174805,-0.09666645526885986,0.7053865589787277,-0.15063789937327493,-0.039632115342330916,0.6914965339856384
1681247989196305000,3.861304931640625,0.20068784058094025,-0.03097502328455448,-0.9201518297195435,0.14820431172847748,0.26791757345199585,-0.951974630355835,-0.2729908227920532,0.05898672342300415,-0.12817978858947754,0.709855811200356,-0.14959849427511962,-0.040410198271673636,0.6870895965181507
1681247989211337700,3.876337646484375,0.5860146284103394,0.08640912920236588,-1.108792781829834,0.14428077638149261,0.26461485028266907,-0.9534999132156372,-0.28536367416381836,0.07455751299858093,-0.1798924207687378,0.7154811705304711,-0.1472720821370009,-0.0395092922132825,0.6817893884993889
1681247989226369500,3.89136962890625,0.834786593914032,0.30476701259613037,-1.2460912466049194,0.14244358241558075,0.2567037045955658,-0.9559357166290283,-0.2255583107471466,0.1972147524356842,-0.41715699434280396,0.7224123628236574,-0.14399460518117443,-0.036023719939361536,0.6753431695337664
1681247989241402600,3.906402587890625,0.8427577614784241,0.2936597764492035,-1.211971640586853,0.14245228469371796,0.2470550239086151,-0.9584733247756958,-0.1508752405643463,0.2782593071460724,-0.5001448392868042,0.7296209498174542,-0.1406634520309665,-0.031258884408463514,0.6684982875288561
1681247989256434700,3.9214345703125,0.6505060791969299,0.0629970133304596,-1.2881704568862915,0.14050638675689697,0.23878611624240875,-0.9608533382415771,0.0021937042474746704,0.21087513864040375,-0.48831963539123535,0.7366476875791853,-0.13711726293560883,-0.02778813347773125,0.6616472328772671
1681247989271466800,3.936466796875,0.4200679063796997,-0.14414632320404053,-1.399010419845581,0.1351921260356903,0.2339911311864853,-0.9627934694290161,0.03381410241127014,0.1322350651025772,-0.4573267698287964,0.7438332809510085,-0.13374133518253106,-0.02676799652968888,0.6543002775231299
1681247989286499800,3.951499755859375,0.32005077600479126,-0.34534549713134766,-1.5202457904815674,0.12645451724529266,0.23151402175426483,-0.9645779132843018,0.09760542213916779,0.06452172994613647,-0.38199496269226074,0.7512805769989189,-0.13014267539436006,-0.027819647594193312,0.6464260820215609
1681247989301532000,3.966531982421875,0.221128448843956,-0.5795334577560425,-1.6018930673599243,0.11427129060029984,0.23031747341156006,-0.9663829207420349,0.1429307460784912,0.06677113473415375,-0.3327198624610901,0.7590232663732391,-0.1259796229055028,-0.030621509621868513,0.6380244935623269
1681247989316564000,3.98156396484375,0.04161780700087547,-0.8328402638435364,-1.6618002653121948,0.09830862283706665,0.2309499830007553,-0.9679863452911377,0.1764867901802063,0.029227614402770996,-0.15954667329788208,0.7667310762063959,-0.1214184223141136,-0.0355584645586917,0.6293780492937703
1681247989331596800,3.9965966796875,-0.06488844752311707,-0.9757785201072693,-1.7150135040283203,0.07901721447706223,0.23352204263210297,-0.969135582447052,0.17488890886306763,-0.015809670090675354,-0.0766255259513855,0.7743874505991405,-0.11673066502134348,-0.042499033178665505,0.6203967481723334
1681247989346628600,4.011628662109375,-0.017536379396915436,-0.9384836554527283,-1.7288975715637207,0.058846332132816315,0.23606152832508087,-0.9699546694755554,0.09636595100164413,-0.030098408460617065,0.03477400541305542,0.7819906270183747,-0.11196197995177574,-0.049871574709911715,0.6111205837749505
1681247989361660700,4.02666064453125,0.15346486866474152,-0.8384971022605896,-1.718855619430542,0.03969990462064743,0.23639489710330963,-0.9708456993103027,0.06692838668823242,-0.003347426652908325,0.061864376068115234,0.7895532166933359,-0.1068238189969622,-0.05626560677060098,0.6016883182674033
1681247989376693800,4.04169384765625,0.36941877007484436,-0.7165778875350952,-1.7248575687408447,0.022228484973311424,0.2333810180425644,-0.9721312522888184,0.032107945531606674,0.050997018814086914,0.08245229721069336,0.7971329146921929,-0.10100663004456548,-0.06109032134829662,0.5921526928375527
1681247989391725800,4.056725830078125,0.5689640641212463,-0.6020528674125671,-1.7174267768859863,0.006656859070062637,0.22684143483638763,-0.9739089608192444,0.03303112834692001,0.08068417012691498,0.07975918054580688,0.8047845874907412,-0.09445010668771626,-0.06422381554823685,0.5824743695710748
1681247989406758000,4.0717578125,0.6951388120651245,-0.5110838413238525,-1.6760612726211548,-0.007210567127913237,0.21743237972259521,-0.9760487675666809,0.042580317705869675,0.1147209107875824,0.07259112596511841,0.8123141789118896,-0.08729172555102781,-0.06599829517734024,0.5728614839398259
1681247989421790700,4.086790771484375,0.7641007900238037,-0.3987290859222412,-1.625236988067627,-0.019155437126755714,0.20635591447353363,-0.9782894849777222,0.053685955703258514,0.12155541777610779,0.07133758068084717,0.8195985921782676,-0.08003738933776426,-0.06670289837365063,0.5633852264827781
1681247989436822500,4.101822509765625,0.7960048317909241,-0.3202377259731293,-1.548876166343689,-0.029291776940226555,0.19420041143894196,-0.9805244207382202,0.050730254501104355,0.10146909952163696,0.06650769710540771,0.8265435538786986,-0.07285084599578825,-0.06656222032854953,0.5541553431510511
1681247989451854600,4.1168544921875,0.7703076601028442,-0.22516393661499023,-1.4824254512786865,-0.03758964687585831,0.1818273365497589,-0.9826117157936096,0.061133839190006256,0.08846680819988251,0.06290346384048462,0.8330681899350362,-0.06606366304724696,-0.06580060518514348,0.5452553660651103
1681247989466887700,4.1318876953125,0.719818115234375,-0.1585843861103058,-1.408647894859314,-0.04425439611077309,0.16986633837223053,-0.984472930431366,0.08241650462150574,0.07053583860397339,0.06293362379074097,0.8392080977740037,-0.059867365854089784,-0.06464847507471216,0.5366250201496429
1681247989481919700,4.146919677734375,0.6677844524383545,-0.11757436394691467,-1.345140814781189,-0.04973546788096428,0.15857349336147308,-0.9860936999320984,0.09874658286571503,0.07023198902606964,0.07618165016174316,0.8449455197839447,-0.054232127643634734,-0.06334046230054594,0.5283123935971
1681247989496952800,4.161952880859375,0.5863447785377502,-0.10143294185400009,-1.267283320426941,-0.05439995974302292,0.14811137318611145,-0.9874733686447144,0.12176739424467087,0.07236281037330627,0.10092246532440186,0.8502960734070363,-0.049124221179645024,-0.062049352791609114,0.5203205310472976
1681247989511985000,4.17698486328125,0.4849434792995453,-0.14082349836826324,-1.190828800201416,-0.05885595455765724,0.13903434574604034,-0.9885370135307312,0.1452510952949524,0.07956300675868988,0.1228448748588562,0.8551957689306227,-0.04461742140450347,-0.06116190119967856,0.5127463767750049
1681247989527016700,4.1920166015625,0.38275131583213806,-0.19726866483688354,-1.1300679445266724,-0.06374476104974747,0.13152676820755005,-0.9892609715461731,0.1784754991531372,0.06978236138820648,0.17210710048675537,0.8597028735884692,-0.04064335773832062,-0.06097228975316337,0.5055111579443445
1681247989542049500,4.207049560546875,0.2968217134475708,-0.22805505990982056,-1.064764380455017,-0.06907503306865692,0.12530827522277832,-0.9897103309631348,0.18742209672927856,0.06704394519329071,0.19492578506469727,0.8638549334005156,-0.03709423180647186,-0.0613910974345656,0.498608133805153
1681247989557081300,4.222081298828125,0.1939602643251419,-0.2666240334510803,-0.9650945067405701,-0.07458554208278656,0.12058714032173157,-0.989896833896637,0.1918797343969345,0.05157770961523056,0.22434812784194946,0.8675880274507796,-0.03412768635289076,-0.062344884761641635,0.4921782636882332
1681247989572113400,4.237113525390625,0.09071984142065048,-0.31009188294410706,-0.8507221341133118,-0.08047657459974289,0.11742666363716125,-0.9898154139518738,0.19539040327072144,0.041356220841407776,0.24451512098312378,0.8708295248029886,-0.0317197901342042,-0.06392308222179502,0.4863783266040103
1681247989587146500,4.252146484375,-0.019205061718821526,-0.3159785568714142,-0.7598172426223755,-0.08656623959541321,0.11578831076622009,-0.9894945025444031,0.17824092507362366,-0.003773614764213562,0.2537767291069031,0.8736082455334523,-0.029905931076353354,-0.06601807944568455,0.481202850577126
1681247989602178600,4.267178466796875,-0.12125223129987717,-0.3166632354259491,-0.6467325091362,-0.09252045303583145,0.11592691391706467,-0.9889392852783203,0.1711946576833725,-0.015524163842201233,0.2403125762939453,0.8759760785802693,-0.028887300044487304,-0.0685264804001601,0.4765876552772542
1681247989617210600,4.282210693359375,-0.19350580871105194,-0.2960836589336395,-0.488296777009964,-0.09811681509017944,0.11747217923402786,-0.988217294216156,0.1610286831855774,-0.002054773271083832,0.229397714138031,0.8778178672155833,-0.02853262612745681,-0.07125484099813766,0.47280491124724383
1681247989632243700,4.29724365234375,-0.23104195296764374,-0.25373780727386475,-0.2681489586830139,-0.10288800299167633,0.12008117884397507,-0.9874181151390076,0.15675142407417297,0.007131263613700867,0.22487545013427734,0.8789796808871969,-0.02876557030892054,-0.07391531828887901,0.47021698909257803
1681247989647275500,4.312275634765625,-0.2814457416534424,-0.17505283653736115,-0.035356465727090836,-0.1063673198223114,0.12359457463026047,-0.9866155982017517,0.14663514494895935,-0.020994551479816437,0.2122320532798767,0.8793288153963024,-0.029587755974621068,-0.07626765728889599,0.4691362137516173
1681247989662307600,4.3273076171875,-0.3939604163169861,-0.0989074632525444,0.15924285352230072,-0.10822878032922745,0.1286150962114334,-0.985771119594574,0.1424541175365448,-0.06216314435005188,0.19512170553207397,0.8789511528145416,-0.031345229969471894,-0.07830656834459326,0.4693938487824147
1681247989677340400,4.34234033203125,-0.5531792640686035,-0.099758081138134,0.3314204812049866,-0.10909402370452881,0.1360497772693634,-0.9846770763397217,0.15538907051086426,-0.12507876753807068,0.18542170524597168,0.8779022145121387,-0.03430279116153717,-0.08052811364914715,0.4707720959672239
1681247989692372500,4.35737255859375,-0.6265786290168762,-0.18181726336479187,0.4900846779346466,-0.11030660569667816,0.14561328291893005,-0.9831730127334595,0.1715400218963623,-0.14242428541183472,0.18890732526779175,0.8761946248409286,-0.03801692046170102,-0.08347570076673588,0.47314870709327694
1681247989707405600,4.372405517578125,-0.5913143754005432,-0.1940630078315735,0.6456260681152344,-0.11183763295412064,0.15568237006664276,-0.9814557433128357,0.1911526918411255,-0.11944282054901123,0.1739453673362732,0.8738669070849554,-0.041762844795330725,-0.08676404920482639,0.4765339963449971
1681247989722437600,4.387437744140625,-0.3672298789024353,-0.14808033406734467,0.8438246250152588,-0.11270212382078171,0.16408926248550415,-0.9799861907958984,0.18354856967926025,-0.08044065535068512,0.15790367126464844,0.8709190305257407,-0.044789815621368606,-0.08944703568060783,0.4811375841843026
1681247989737469700,4.4024697265625,-0.1402670443058014,-0.04187241196632385,1.0592544078826904,-0.11172227561473846,0.16937047243118286,-0.9791995882987976,0.1730167120695114,0.022783398628234863,0.08622473478317261,0.8673183774223479,-0.046719691751948435,-0.09065036815301443,0.48719479300988794
1681247989752502800,4.417502685546875,0.04279753565788269,0.04413783550262451,1.3064591884613037,-0.10862981528043747,0.1719861775636673,-0.9790915846824646,0.16334770619869232,0.06537948548793793,0.0566214919090271,0.8629218435255632,-0.04782562720290051,-0.09037101268544383,0.49488557693820967
1681247989767534600,4.43253466796875,0.11048204451799393,0.09461512416601181,1.4382736682891846,-0.10398104786872864,0.17293108999729156,-0.9794298410415649,0.1689070761203766,0.06823401153087616,-0.009736418724060059,0.8578233638473046,-0.048475843573552835,-0.089079610645805,0.5038395445537586
1681247989782566700,4.447566650390625,0.11994697153568268,0.08988002687692642,1.5646177530288696,-0.09864673763513565,0.17353495955467224,-0.9798747301101685,0.162474125623703,0.05940565466880798,-0.028349757194519043,0.8522025428771661,-0.049109795696569376,-0.08746927393635968,0.5135058890381646
1681247989797599500,4.462599609375,0.1362944096326828,0.10440117865800858,1.6901788711547852,-0.09308021515607834,0.173970565199852,-0.980341911315918,0.14657741785049438,0.03911834955215454,-0.07039350271224976,0.8459505376710202,-0.049688262965385505,-0.08579106187274173,0.5239645151393144
1681247989812631600,4.477631591796875,0.1968899518251419,0.24627496302127838,1.814133882522583,-0.08601801097393036,0.17406661808490753,-0.9809697866439819,0.11517743021249771,0.03645883500576019,-0.10864508152008057,0.8391575686468938,-0.05050236783154714,-0.08345428608076896,0.5350697933299278
1681247989827663600,4.49266357421875,0.45625895261764526,0.4474242925643921,1.9513061046600342,-0.0760292187333107,0.17175813019275665,-0.9822009801864624,0.04664066433906555,0.06879663467407227,-0.1995159387588501,0.8318112333879804,-0.051096540452196235,-0.07930112213471714,0.5469833055569513
1681247989842696700,4.50769677734375,0.7295827865600586,0.7082372903823853,2.0136547088623047,-0.06250684708356857,0.16491898894309998,-0.9843244552612305,0.026312872767448425,0.10058389604091644,-0.28569507598876953,0.8241267039773651,-0.05087124173626985,-0.07245613059588618,0.5594439889246026
1681247989857728500,4.522728515625,0.7769492268562317,0.8966812491416931,2.1558494567871094,-0.04546841233968735,0.1550731658935547,-0.9868561029434204,0.0527467280626297,0.18530459702014923,-0.4419616460800171,0.8159973705786032,-0.050590355852479944,-0.06334485918938132,0.5723429389940895
1681247989872761600,4.53776171875,0.46363791823387146,0.8937647938728333,2.3303208351135254,-0.026848554611206055,0.14671087265014648,-0.9888150095939636,0.07358609884977341,0.18281789124011993,-0.4580844044685364,0.8068667611841872,-0.051610322095028804,-0.05411914443997071,0.5859808772423702
1681247989887793700,4.552793701171875,-0.07502129673957825,0.7055461406707764,2.3800790309906006,-0.009626463055610657,0.14433924853801727,-0.9894814491271973,0.11732286959886551,0.03634004294872284,-0.36568212509155273,0.7967025658031235,-0.05489847915786221,-0.04738605255963728,0.6000049287821523
1681247989902825500,4.567825439453125,-0.6062743067741394,0.39851269125938416,2.237230062484741,0.0037683763075619936,0.14958567917346954,-0.9887415766716003,0.12399333715438843,-0.06329725682735443,-0.26960498094558716,0.7861450524764244,-0.060293310541850054,-0.04465336130863395,0.6134711617371263
1681247989917858600,4.582858642578125,-0.9380233287811279,0.04350639879703522,1.9480711221694946,0.011951702646911144,0.16106431186199188,-0.9868715405464172,0.13254889845848083,-0.20232409238815308,-0.035192668437957764,0.7760658990448416,-0.06667336193117494,-0.04603139872340766,0.6254259429724972
1681247989932890600,4.597890625,-0.980089008808136,-0.21891190111637115,1.646989107131958,0.01493504736572504,0.17520682513713837,-0.9844183921813965,0.11725170910358429,-0.22484371066093445,0.050321102142333984,0.7670449711394551,-0.0725061892715233,-0.05033557842991133,0.6354930028363214
1681247989947922400,4.61292236328125,-0.7358744740486145,-0.28795650601387024,1.4513697624206543,0.015238071791827679,0.18779662251472473,-0.9820897579193115,0.0504814013838768,-0.11064821481704712,0.10353446006774902,0.7589936337679701,-0.0768646031504094,-0.05519934743734784,0.644184544555587
1681247989962955500,4.62795556640625,-0.3781619966030121,-0.25560253858566284,1.2095816135406494,0.015053143724799156,0.19574718177318573,-0.9805388450622559,0.006186959333717823,-0.014579594135284424,0.08126211166381836,0.7520604429980751,-0.079283152211956,-0.0586920106588485,0.6516707503421539
1681247989977987600,4.642987548828125,-0.05039270222187042,-0.21190832555294037,1.044469952583313,0.014931254088878632,0.19854822754859924,-0.9799773693084717,-0.05315465107560158,0.11773593723773956,0.04780268669128418,0.7463431943336784,-0.07980384435042576,-0.06035441740738588,0.6579975720765632
1681247989993019600,4.65801953125,0.18552666902542114,-0.18052136898040771,1.0078932046890259,0.015063262544572353,0.19718347489833832,-0.980250895023346,-0.056704625487327576,0.13971532881259918,0.04079777002334595,0.7412267871269402,-0.07885743496772202,-0.060465400173632514,0.6638588451504722
1681247990008052500,4.673052490234375,0.3155054450035095,-0.13111653923988342,0.9989452362060547,0.01570812612771988,0.1931704878807068,-0.9810394644737244,-0.046271614730358124,0.1322842240333557,0.036001622676849365,0.7362666697273438,-0.07710291501602112,-0.05945931336183299,0.6696500896626164
1681247990023084500,4.68808447265625,0.401978462934494,-0.07108914852142334,0.9841393828392029,0.01702585257589817,0.18756482005119324,-0.9821046590805054,-0.051297225058078766,0.12223437428474426,0.03253495693206787,0.7314096634079895,-0.07501372570073826,-0.057624747755804284,0.6753460594903228
1681247990038117600,4.70311767578125,0.3862384557723999,-0.019688546657562256,0.9478487372398376,0.01905023120343685,0.18137510120868683,-0.9832294583320618,-0.052192457020282745,0.10314027965068817,0.005263149738311768,0.7267036622544919,-0.07299998611265615,-0.05528357278697392,0.6808205422859462
1681247990053149400,4.7181494140625,0.32305848598480225,0.005091368220746517,0.9788852334022522,0.02149900794029236,0.17584039270877838,-0.9841839075088501,-0.0461420863866806,0.10276983678340912,-0.008262991905212402,0.7219636004011379,-0.07141616048983317,-0.052988488981315605,0.6861929226875789
1681247990068181500,4.733181396484375,0.21550725400447845,0.02595483884215355,1.034997582435608,0.02436518855392933,0.1714285910129547,-0.9848952293395996,-0.016491785645484924,0.09743127226829529,-0.0017838478088378906,0.7168888408705255,-0.07040666088873263,-0.050944043590084746,0.6917500404282798
1681247990083214600,4.748214599609375,0.01597135327756405,0.03276614099740982,1.0651426315307617,0.027543378993868828,0.16919861733913422,-0.9851970076560974,-0.021211113780736923,0.08083188533782959,0.015775680541992188,0.7114751817275963,-0.07031545036094723,-0.04957034974598285,0.6974251417318249
1681247990098246700,4.76324658203125,-0.23448845744132996,-0.0024757375940680504,1.0791295766830444,0.030545298010110855,0.17036086320877075,-0.9849082231521606,-0.0372440367937088,0.016635596752166748,0.09274208545684814,0.7057689837590985,-0.07139457120810357,-0.04948447966681018,0.7030963187851036
1681247990113278700,4.77827880859375,-0.4020698070526123,-0.027758723124861717,1.065616488456726,0.033026110380887985,0.17468684911727905,-0.9840700030326843,-0.05075695365667343,-0.011875569820404053,0.14004534482955933,0.6998885837559364,-0.07341747864549836,-0.0507431685809982,0.7086544065317957
1681247990128311600,4.7933115234375,-0.4177528917789459,-0.023937618359923363,1.0180939435958862,0.03537775203585625,0.18036110699176788,-0.982964038848877,-0.0949481949210167,-0.021990135312080383,0.21631669998168945,0.6940520978525689,-0.07586579603179301,-0.052558199099852966,0.7139845188086118
1681247990143343400,4.80834326171875,-0.3790132701396942,0.0004513426683843136,0.9430888891220093,0.037950921803712845,0.18574386835098267,-0.9818650484085083,-0.11990600824356079,-0.013136431574821472,0.2293168306350708,0.6885454525270991,-0.07829823287822248,-0.05419288316293942,0.7189143606280277
1681247990158376400,4.82337646484375,-0.3163060247898102,0.03569827973842621,0.87467360496521,0.040781691670417786,0.19030919671058655,-0.9808768033981323,-0.15209469199180603,0.031599387526512146,0.21854770183563232,0.6834127094230169,-0.08055189340721608,-0.05543464316761112,0.7234539458459989
1681247990173408500,4.838408447265625,-0.262128084897995,0.07880846410989761,0.8140504956245422,0.044011473655700684,0.19400830566883087,-0.9800121188163757,-0.16449499130249023,0.05059009790420532,0.19705313444137573,0.678663969447675,-0.08267109309173512,-0.05620877312533147,0.7276135192911123
1681247990188440600,4.853440673828125,-0.21702024340629578,0.13642142713069916,0.7767358422279358,0.047892846167087555,0.19695791602134705,-0.9792414903640747,-0.1914934366941452,0.08633677661418915,0.1720210313796997,0.6742034449039948,-0.08479136145770293,-0.056477326679641435,0.73148526308763
1681247990203473700,4.8684736328125,-0.19748899340629578,0.20503750443458557,0.7188267707824707,0.05265514925122261,0.1993892788887024,-0.9785046577453613,-0.20901209115982056,0.0861026793718338,0.16392946243286133,0.6699973742405908,-0.0870841914578129,-0.056249584183197976,0.7350892008270612
1681247990218505700,4.883505615234375,-0.19372743368148804,0.2666934132575989,0.6186623573303223,0.0581652857363224,0.2017056792974472,-0.9777175784111023,-0.23550306260585785,0.06761196255683899,0.1481124758720398,0.6662579928148024,-0.08966213475331729,-0.05569489177283734,0.7382136268571751
1681247990233537800,4.898537841796875,-0.16181227564811707,0.3081265985965729,0.5032427906990051,0.06405149400234222,0.20382314920425415,-0.9769101738929749,-0.24407480657100677,0.05804821848869324,0.14265114068984985,0.6631308550579876,-0.09237021220015741,-0.054887550563367395,0.7407515041926824
1681247990248570600,4.913570556640625,-0.149843230843544,0.33836546540260315,0.3706059455871582,0.07014846801757812,0.20561271905899048,-0.9761160612106323,-0.23651516437530518,0.06413216888904572,0.1166953444480896,0.6607140168719879,-0.09510893337205366,-0.05381681325325605,0.7426406050522995
1681247990263602400,4.9286025390625,-0.18623490631580353,0.3500804305076599,0.24035820364952087,0.07616320997476578,0.20763514935970306,-0.9752367734909058,-0.23607544600963593,0.07004429399967194,0.09893983602523804,0.6590307467938739,-0.09795843821407199,-0.05278015049520751,0.7438393957693802
1681247990278635500,4.943635498046875,-0.28165435791015625,0.31279218196868896,0.11381996423006058,0.08158360421657562,0.21075500547885895,-0.9741285443305969,-0.22561143338680267,0.06083621084690094,0.07263928651809692,0.6579877509445747,-0.10100871982353465,-0.05227770302538603,0.7443900794979542
1681247990293667600,4.95866748046875,-0.4585177004337311,0.22544105350971222,-0.047269586473703384,0.08569585531949997,0.21604715287685394,-0.9726149439811707,-0.22461199760437012,0.043413326144218445,0.061283767223358154,0.6576055523071123,-0.104354026055234,-0.05294109356119213,0.7442193594657298
1681247990308699600,4.97369970703125,-0.6447302103042603,0.1064630001783371,-0.2339683473110199,0.08762317150831223,0.224311962723732,-0.9705700874328613,-0.22731751203536987,0.010597124695777893,0.05775880813598633,0.6580070976141028,-0.10794762806890772,-0.055337676205770917,0.7431767795940569
1681247990323732700,4.988732666015625,-0.7499735951423645,0.02681104466319084,-0.4321450889110565,0.0873623937368393,0.23507077991962433,-0.9680442214012146,-0.23970627784729004,-0.005883753299713135,0.0542563796043396,0.6592979972423577,-0.11165040640876261,-0.0592628956685985,0.7411805094165288
1681247990338764500,5.0037646484375,-0.7329171299934387,0.021354492753744125,-0.6515786647796631,0.08569880574941635,0.24668453633785248,-0.965299129486084,-0.283834308385849,0.023350268602371216,0.03468090295791626,0.661675942066732,-0.11524046990017676,-0.0637970027850007,0.7381290976710129
1681247990353797600,5.018797607421875,-0.5727341771125793,0.006194183137267828,-0.9057302474975586,0.08299152553081512,0.25731542706489563,-0.9627570509910583,-0.30090242624282837,0.04607510566711426,0.01353830099105835,0.665386869834819,-0.11826396628914107,-0.06808154196480971,0.7339203061662499
1681247990368829400,5.033829345703125,-0.2791653871536255,0.026105307042598724,-1.2095643281936646,0.07899324595928192,0.2648557722568512,-0.9610470533370972,-0.31284958124160767,0.10010397434234619,-0.07421600818634033,0.6708003831846143,-0.11993752873566187,-0.07135438531881917,0.7283889541068304
1681247990383861500,5.048861572265625,-0.012856991961598396,0.18475301563739777,-1.4553743600845337,0.07494345307350159,0.26835882663726807,-0.9603993892669678,-0.30629733204841614,0.14420831203460693,-0.17169588804244995,0.6780662958782988,-0.12039875526874043,-0.07283153718917104,0.7214056063399422
1681247990398894600,5.06389453125,0.11419406533241272,0.3226613402366638,-1.5215198993682861,0.0726398453116417,0.2691183090209961,-0.9603638648986816,-0.26009422540664673,0.272767037153244,-0.3660673499107361,0.6863338412730784,-0.12065914626935584,-0.0725219105845948,0.713532021292892
1681247990413919000,5.0789189453125,0.1336364597082138,0.29928144812583923,-1.6397762298583984,0.07077936828136444,0.26892009377479553,-0.960558295249939,-0.21502071619033813,0.30032429099082947,-0.41174083948135376,0.9900904035194447,-0.13580582904258023,0.03574389219880761,2.686526457872584e-17
1681247990428951000,5.093950927734375,0.11672486364841461,0.3175853490829468,-1.7765936851501465,0.06824752688407898,0.268944650888443,-0.9607346057891846,-0.14313766360282898,0.2328406572341919,-0.44340962171554565,0.9900481254414454,-0.1353439365083487,0.03625881481976476,-0.0131088780300179
1681247990443984100,5.108984130859375,0.137475848197937,0.32827234268188477,-1.8766814470291138,0.0655861496925354,0.2689555287361145,-0.9609169363975525,-0.1206551268696785,0.1917988657951355,-0.46120214462280273,0.989811156213559,-0.13485543967890642,0.03681761360062411,-0.027061649040374506
1681247990459016000,5.124015869140625,0.11729025095701218,0.2327684760093689,-2.013188362121582,0.06188702583312988,0.2688561677932739,-0.9611900448799133,-0.024701356887817383,0.17020028829574585,-0.4746314287185669,0.9893658297277927,-0.1343103066577571,0.03695544594001553,-0.04183552601060365
1681247990474048800,5.139048828125,0.0031979812774807215,0.0414230078458786,-2.195887565612793,0.0554269477725029,0.2697097957134247,-0.9613451361656189,0.0347372330725193,0.15613248944282532,-0.44823122024536133,0.9886108887955236,-0.13431800030956945,0.035862339990483084,-0.05762760977523413
1681247990489080800,5.154080810546875,-0.1838451474905014,-0.21417467296123505,-2.3465781211853027,0.04491681605577469,0.27270427346229553,-0.9610488414764404,0.12161760777235031,0.09605491161346436,-0.32668614387512207,0.9874121429190642,-0.13560487386267792,0.032968195617196314,-0.07444267494044236
1681247990504113000,5.16911279296875,-0.3936220407485962,-0.43098822236061096,-2.4491500854492188,0.03011009655892849,0.27825844287872314,-0.960034191608429,0.14968422055244446,0.05633631348609924,-0.23010557889938354,0.9856873107010838,-0.13852309982121674,0.02818264757001465,-0.09185637599984747
1681247990519146000,5.18414599609375,-0.438579797744751,-0.49930015206336975,-2.539825677871704,0.012505247257649899,0.2852874994277954,-0.9583603739738464,0.11797265708446503,-0.012704461812973022,-0.03742814064025879,0.9834349378671275,-0.14256300857371676,0.022261797668795012,-0.10970872409455286
1681247990534177800,5.199177734375,-0.26650896668434143,-0.42634472250938416,-2.6737172603607178,-0.005614844616502523,0.29071590304374695,-0.956792950630188,0.07205160707235336,-0.028951317071914673,0.01903355121612549,0.98077362887209,-0.1460794877080582,0.016257699433325973,-0.12837220051479947
1681247990549211000,5.2142109375,0.08475425094366074,-0.24799920618534088,-2.796154499053955,-0.02266942337155342,0.29152047634124756,-0.956295907497406,-0.012578383088111877,0.013548523187637329,0.03928852081298828,0.9778542719674219,-0.14743326448586597,0.010745714314978425,-0.14815146327461323
1681247990564243000,5.229242919921875,0.4678291976451874,-0.023428423330187798,-2.804992437362671,-0.03690667450428009,0.2862514853477478,-0.9574434757232666,-0.017857126891613007,0.06445655226707458,0.014496088027954102,0.9748257383103374,-0.14573547655610308,0.006280269073080222,-0.16863090926209967
1681247990579275000,5.24427490234375,0.7967326045036316,0.18133457005023956,-2.760293960571289,-0.04759983718395233,0.2751811444759369,-0.960213303565979,-0.006401021033525467,0.146922767162323,-0.029990553855895996,0.9717730966512564,-0.14101291213440562,0.0029507113027739057,-0.1891127551483438
1681247990594307800,5.259307861328125,0.9686681032180786,0.30533960461616516,-2.7187647819519043,-0.05502164736390114,0.2600790858268738,-0.9640184044837952,0.0029281340539455414,0.1628640592098236,-0.043855130672454834,0.968598693940471,-0.13412849878820332,0.000586854431128462,-0.20934588718977998
1681247990609340000,5.27433984375,0.9664068222045898,0.330082505941391,-2.7103426456451416,-0.06071718409657478,0.2435402125120163,-0.9679884314537048,0.046694349497556686,0.1374717801809311,-0.034010469913482666,0.9650758317018452,-0.1265063935142792,-0.0013869219015737355,-0.22939637327473053
1681247990624371700,5.289371826171875,0.9256316423416138,0.36209768056869507,-2.65368390083313,-0.06522540748119354,0.22721396386623383,-0.9716581106185913,0.07413652539253235,0.11609356105327606,-0.010962128639221191,0.9611256835631178,-0.11900180883576061,-0.0030855599365415785,-0.24913144694475226
1681247990639404800,5.30440478515625,0.9032250642776489,0.4016845226287842,-2.5720019340515137,-0.06827188283205032,0.21121624112129211,-0.9750521183013916,0.09306741505861282,0.09165549278259277,0.029632866382598877,0.9568437579921276,-0.1116006912841769,-0.0043845625463701295,-0.26828329354426467
1681247990654436900,5.319436767578125,0.9263084530830383,0.4033606946468353,-2.472062110900879,-0.07004740089178085,0.1952173262834549,-0.9782553315162659,0.10019874572753906,0.10373291373252869,0.054183125495910645,0.9523400432982735,-0.10412879192138341,-0.005432702029426648,-0.2866634619559589
1681247990669470000,5.334469970703125,0.9478837847709656,0.3814255893230438,-2.4028544425964355,-0.07112270593643188,0.1787579506635666,-0.9813190698623657,0.11450343579053879,0.1087787002325058,0.071025550365448,0.9476577243343614,-0.09642298011357896,-0.006562427344621794,-0.30430938415131303
1681247990684501800,5.349501708984375,0.933646023273468,0.3469288647174835,-2.306750535964966,-0.0717983990907669,0.1622663140296936,-0.984131395816803,0.12257962673902512,0.12203548848628998,0.06248527765274048,0.9427786340692127,-0.08872904674023016,-0.007839054502056443,-0.3213007233935621
1681247990699533800,5.364533935546875,0.8738354444503784,0.2989424169063568,-2.1469674110412598,-0.07224787771701813,0.1464155912399292,-0.9865813255310059,0.15565240383148193,0.1318437159061432,0.04856252670288086,0.9378616287863715,-0.08138594960144213,-0.009255417083145165,-0.3372036592350646
1681247990714567000,5.37956689453125,0.7159690260887146,0.21097663044929504,-1.9668822288513184,-0.07276269048452377,0.1322866678237915,-0.9885371923446655,0.16567343473434448,0.12844030559062958,0.0610775351524353,0.9330273988160155,-0.0749402150861977,-0.010740386934032193,-0.3517506756844367
1681247990729598700,5.3945986328125,0.5210269689559937,0.09743248671293259,-1.8028417825698853,-0.07408181577920914,0.12096885591745377,-0.989888072013855,0.17016640305519104,0.07004070281982422,0.12047284841537476,0.9283122271200622,-0.07002012260947021,-0.012374973033113775,-0.3649389266478356
1681247990744631800,5.4096318359375,0.2982397973537445,-0.03337053954601288,-1.6404379606246948,-0.07663466781377792,0.1129259541630745,-0.9906436800956726,0.17496228218078613,0.03914317488670349,0.1518985629081726,0.9237189205055624,-0.06691133775464489,-0.0141790224775735,-0.37691525888089694
1681247990759663900,5.424663818359375,0.11666371673345566,-0.17115530371665955,-1.4461535215377808,-0.08074565976858139,0.1081218421459198,-0.9908530712127686,0.1779593825340271,0.006181783974170685,0.21071696281433105,0.9193702688251701,-0.0656482046703493,-0.016241252867187323,-0.3875369251737499
1681247990774696000,5.439696044921875,0.06738623976707458,-0.2964719533920288,-1.2510346174240112,-0.08654152601957321,0.10516754537820816,-0.9906817674636841,0.17992529273033142,0.007976412773132324,0.22372925281524658,0.9154152013946589,-0.06560634832580667,-0.018839503639596755,-0.39668105893949235
1681247990789728800,5.454728759765625,0.056780725717544556,-0.3377307057380676,-1.0535238981246948,-0.09307750314474106,0.10273522138595581,-0.9903444051742554,0.17713814973831177,0.05630716681480408,0.21274131536483765,0.911914149357576,-0.06598429514445427,-0.02176849183893486,-0.40445619190767845
1681247990804760800,5.4697607421875,0.0737423449754715,-0.3693522810935974,-0.7890076637268066,-0.09976988285779953,0.10035999119281769,-0.9899362921714783,0.17842891812324524,0.0928620994091034,0.21913856267929077,0.9090671867206452,-0.0664323579913044,-0.024871677727019727,-0.41056669625936065
1681247990819794000,5.4847939453125,0.03253882750868797,-0.3653886914253235,-0.5304841995239258,-0.1062723696231842,0.09851919114589691,-0.989444375038147,0.18027746677398682,0.10164564102888107,0.23421061038970947,0.9069757266237718,-0.06707588950717866,-0.027904182335224566,-0.4148699447353619
1681247990834825700,5.49982568359375,-0.04967380687594414,-0.3721986711025238,-0.26771780848503113,-0.1123056709766388,0.09794557094573975,-0.9888347387313843,0.1766214370727539,0.09158388525247574,0.2572826147079468,0.9056499868569462,-0.06817047763421034,-0.030584759640041693,-0.41739106029701833
1681247990849857800,5.51485791015625,-0.10346806794404984,-0.40615344047546387,-0.04958094283938408,-0.11832848936319351,0.09890151768922806,-0.9880368709564209,0.17126119136810303,0.050360001623630524,0.3007199764251709,0.9050253904493324,-0.06991888011017353,-0.03305925431382354,-0.41826727716160117
1681247990864891000,5.529890869140625,-0.15680831670761108,-0.39946436882019043,0.10221284627914429,-0.12428510934114456,0.10089728236198425,-0.9871033430099487,0.17350992560386658,0.03725583106279373,0.31249701976776123,0.9049403081888214,-0.07208679681885334,-0.03538130733485378,-0.4178931937932405
1681247990879923000,5.5449228515625,-0.19571682810783386,-0.3935638964176178,0.28006595373153687,-0.12982872128486633,0.1039125919342041,-0.9860764145851135,0.16272665560245514,0.04502849280834198,0.301918089389801,0.9053229777032795,-0.07458993064232691,-0.03739171067104601,-0.4164474831296412
1681247990894955800,5.559955810546875,-0.22074133157730103,-0.35961684584617615,0.4620884656906128,-0.13488978147506714,0.10776838660240173,-0.9849826097488403,0.16661278903484344,0.05189962685108185,0.28495514392852783,0.9062608290329671,-0.07731849265542501,-0.039122258620891005,-0.4137422061597688
1681247990909987800,5.57498779296875,-0.20497673749923706,-0.24226941168308258,0.6449599862098694,-0.1385290026664734,0.11210421472787857,-0.9839930534362793,0.147989422082901,0.08004975318908691,0.2285914421081543,0.9077500119310404,-0.07990970641505396,-0.04022318499979482,-0.40986138275539863
1681247990925019600,5.59001953125,-0.20611661672592163,-0.06081574410200119,0.8337727785110474,-0.13954825699329376,0.11666832864284515,-0.9833182692527771,0.13014882802963257,0.08610575646162033,0.1986503005027771,0.90984968540333,-0.0820012330222967,-0.04020785315781661,-0.40476254052264526
1681247990940052700,5.605052734375,-0.2126932442188263,0.09499809145927429,0.9845287203788757,-0.13762260973453522,0.12167007476091385,-0.982983410358429,0.10666252672672272,0.06785937398672104,0.14028632640838623,0.9124808614526896,-0.0836497106945561,-0.03887175709188285,-0.3985856122730777
1681247990955084800,5.620084716796875,-0.17979244887828827,0.21048127114772797,1.0903761386871338,-0.13343824446201324,0.12673166394233704,-0.9829208254814148,0.10601818561553955,0.052055612206459045,0.1055099368095398,0.9154945288192246,-0.08486122503895362,-0.03658099188040039,-0.39157374209750245
1681247990970118000,5.635117919921875,-0.18391235172748566,0.35257476568222046,1.190779685974121,-0.12703709304332733,0.1315290778875351,-0.9831386804580688,0.13263703882694244,0.05916003882884979,-0.013321280479431152,0.9187715300163591,-0.08553250828401453,-0.03338933152099692,-0.3839637030727325
1681247990985150000,5.65014990234375,-0.2648448646068573,0.44176748394966125,1.3447072505950928,-0.11854510009288788,0.13713696599006653,-0.9834330081939697,0.14758256077766418,0.07772207260131836,-0.0733296275138855,0.9223416850787716,-0.08621473443081838,-0.029163476261460132,-0.3755026331611562
1681247991000182000,5.66518212890625,-0.3790105879306793,0.5935250520706177,1.4944453239440918,-0.10804034769535065,0.1442551165819168,-0.9836248159408569,0.16439104080200195,0.06027373671531677,-0.17358648777008057,0.9261866811516752,-0.08729223855517414,-0.02382575018319228,-0.36604722795735267
1681247991015214800,5.68021484375,-0.5043750405311584,0.7896682024002075,1.6849178075790405,-0.09419757127761841,0.15322528779506683,-0.9836914539337158,0.15009048581123352,0.04246872663497925,-0.22990107536315918,0.9303044336213878,-0.08874025574999407,-0.016716818876424844,-0.3554987977679083
1681247991030246700,5.69524658203125,-0.6417302489280701,0.8562301993370056,1.8182673454284668,-0.07762831449508667,0.16394475102424622,-0.9834103584289551,0.16506116092205048,0.012782558798789978,-0.29552024602890015,0.9346247704234414,-0.09070919248967457,-0.008164274592347517,-0.343775782609909
1681247991045279700,5.71027978515625,-0.7966497540473938,0.7724764347076416,1.8256455659866333,-0.06077154353260994,0.17651836574077606,-0.982419490814209,0.16941410303115845,-0.026402369141578674,-0.30465930700302124,0.9387907388399174,-0.09375342319553412,0.0007370953281282798,-0.33148388862724026
1681247991060311800,5.725311767578125,-0.9226803183555603,0.6596103310585022,1.7805649042129517,-0.04524083808064461,0.1906607747077942,-0.9806129336357117,0.18733066320419312,-0.0908835232257843,-0.30211716890335083,0.9425526060592766,-0.09802498921642175,0.009199563363012364,-0.3192195314692651
1681247991075344000,5.74034375,-0.9657602906227112,0.5177232623100281,1.7636280059814453,-0.03120574913918972,0.20569628477096558,-0.9781182408332825,0.18856962025165558,-0.10059371590614319,-0.30793827772140503,0.9459495857264152,-0.10320816426230794,0.016999075639798786,-0.30698291395236943
1681247991090377000,5.755376953125,-0.9741194248199463,0.30255579948425293,1.6964607238769531,-0.01946229860186577,0.22058792412281036,-0.9751728773117065,0.19019286334514618,-0.08441846072673798,-0.24476724863052368,0.9490395403138325,-0.1088938952473802,0.02357265919586923,-0.2948056403508577
1681247991105409000,5.770408935546875,-0.9716851115226746,0.016138959676027298,1.5340832471847534,-0.011629250831902027,0.23527106642723083,-0.9718602299690247,0.17289936542510986,-0.10134463012218475,-0.18873852491378784,0.9516997031341898,-0.11522151058593788,0.028176115962909778,-0.2831921452389631
1681247991120441900,5.78544189453125,-0.8411931395530701,-0.1431923657655716,1.4459291696548462,-0.007318430580198765,0.24891704320907593,-0.9684971570968628,0.1392001211643219,-0.12300148606300354,-0.07659256458282471,0.9539929916914591,-0.12164505627174386,0.030885336656311362,-0.2722972141260626
1681247991135474000,5.800473876953125,-0.5033941864967346,-0.17939938604831696,1.3772811889648438,-0.0043152375146746635,0.2590092718601227,-0.9658651947975159,0.10822757333517075,-0.10405623912811279,-0.05116361379623413,0.9562327617071732,-0.12656157855301609,0.032397090794693655,-0.2618233649180569
1681247991150505700,5.815505615234375,-0.09592173248529434,-0.13859708607196808,1.2886083126068115,-0.0014002658426761627,0.26334142684936523,-0.9647016525268555,0.06402231752872467,-0.019933193922042847,-0.048436105251312256,0.958558892172063,-0.12866136907830378,0.03309705519012197,-0.25202288536079565
1681247991165538800,5.830538818359375,0.19650235772132874,-0.10432886332273483,1.2844526767730713,0.0020019966177642345,0.26243856549263,-0.9649466276168823,0.050961241126060486,0.011334657669067383,-0.061390042304992676,0.9610338289436322,-0.12810859233656754,0.03338977499972296,-0.24266682244670784
1681247991180571000,5.84557080078125,0.33216026425361633,-0.09502564370632172,1.3121780157089233,0.005601796321570873,0.2583889067173004,-0.9660247564315796,0.04423339664936066,0.018466591835021973,-0.05812990665435791,0.963638633885593,-0.1259835923134469,0.03340310741620129,-0.233265507681538
1681247991195604000,5.86060400390625,0.34966176748275757,-0.06421499699354172,1.375345230102539,0.009635847993195057,0.2532026171684265,-0.9673652648925781,0.039970457553863525,-0.0013563036918640137,-0.0486716628074646,0.966288160553621,-0.12326778576984841,0.03350249727182026,-0.22353887776025078
1681247991210635800,5.8756357421875,0.30034321546554565,-0.08275725692510605,1.4145203828811646,0.01382686011493206,0.2481679469347,-0.9686183333396912,0.025876492261886597,-0.02526754140853882,-0.03144264221191406,0.9689027818268815,-0.1206430449146556,0.03370591862980936,-0.21339256126745923
1681247991225667800,5.890667724609375,0.23732301592826843,-0.06676577776670456,1.4703460931777954,0.018028665333986282,0.24386925995349884,-0.9696404933929443,0.026145517826080322,-0.02753010392189026,-0.014169871807098389,0.9714176250491449,-0.11841802568472742,0.034013377624467225,-0.2028986880418324
1681247991240701000,5.905700927734375,0.16410963237285614,-0.07568337023258209,1.5311580896377563,0.022531569004058838,0.2404920905828476,-0.9703895449638367,0.023092197254300117,-0.020551860332489014,0.02719801664352417,0.9738418492064447,-0.11666597488224201,0.03455829736841869,-0.19190284071126754
1681247991255732700,5.920732666015625,0.08920349180698395,-0.09861239045858383,1.555715560913086,0.026812154799699783,0.23803021013736725,-0.9708876013755798,0.017529873177409172,-0.01751016080379486,0.06674331426620483,0.9761423486398699,-0.11543583822635804,0.03508231513882905,-0.18052674464456672
1681247991270765800,5.935765869140625,0.006152012851089239,-0.12291426956653595,1.566175103187561,0.030771462246775627,0.23670576512813568,-0.9710939526557922,-0.0040533337742090225,-0.04177471995353699,0.1422518491744995,0.9782611936713975,-0.11484006364259966,0.035563715858225965,-0.16897301623130093
1681247991285798000,5.9507978515625,-0.0686262995004654,-0.14570799469947815,1.5796582698822021,0.03438357636332512,0.23643971979618073,-0.9710376262664795,-0.023641400039196014,-0.046391457319259644,0.171339750289917,0.9801950558752152,-0.11483762108676644,0.03596552689482538,-0.15727810364625747
1681247991300830000,5.965829833984375,-0.10914751887321472,-0.15831966698169708,1.5771702527999878,0.03778482601046562,0.23691345751285553,-0.9707956910133362,-0.05437114089727402,-0.026509970426559448,0.21124374866485596,0.9819550684566556,-0.11525380858562528,0.03631391645287394,-0.1454721623458572
1681247991315862800,5.98086279296875,-0.11870241165161133,-0.1504976898431778,1.5676507949829102,0.04113246500492096,0.23769554495811462,-0.9704684019088745,-0.07357265800237656,-0.015863224864006042,0.2204989194869995,0.9835446309963557,-0.11585319151177574,0.036658304775850144,-0.13369374202620773
1681247991330894800,5.995894775390625,-0.07402043044567108,-0.12949466705322266,1.5628867149353027,0.04461036995053291,0.23808714747428894,-0.9702187776565552,-0.12343727797269821,0.0033527016639709473,0.22070705890655518,0.9850061577082653,-0.11626984122305643,0.03703984013207648,-0.12195154035904451
1681247991345928000,6.010927978515625,-0.05001261457800865,-0.06425787508487701,1.5523589849472046,0.04875990375876427,0.2379004955291748,-0.9700648784637451,-0.14614149928092957,0.010604172945022583,0.20346331596374512,0.9863385789938575,-0.11637773187586439,0.03773322913423528,-0.11031137797025525
1681247991360959700,6.025959716796875,-0.049167171120643616,-0.01111023873090744,1.5431489944458008,0.05381308123469353,0.23742592334747314,-0.9699139595031738,-0.18345175683498383,0.03222744166851044,0.16605043411254883,0.9875215666736723,-0.11632357824535167,0.03888249863112474,-0.09878276507695154
1681247991375991800,6.04099169921875,-0.05623413622379303,0.017788786441087723,1.5175551176071167,0.05938350036740303,0.2369195520877838,-0.9697126746177673,-0.19448481500148773,0.04288090765476227,0.1485457420349121,0.9885436054365792,-0.1162684824135887,0.04031487835149374,-0.08739483639661814
1681247991391025000,6.05602490234375,-0.06074099987745285,0.049886539578437805,1.4888780117034912,0.06523213535547256,0.23635171353816986,-0.9694754481315613,-0.20825275778770447,0.06676416099071503,0.11821812391281128,0.9894069953603658,-0.11621128111213529,0.0419191912874535,-0.0762324863249216
1681247991406057000,6.071056884765625,-0.07595403492450714,0.06355201452970505,1.4533777236938477,0.07134696841239929,0.23585030436515808,-0.9691667556762695,-0.2183959186077118,0.082127645611763,0.1041155457496643,0.9901093106412121,-0.11622027271228356,0.04369736359068086,-0.06532150652155364
1681247991421089800,6.08608984375,-0.11959072947502136,0.08356007933616638,1.4054499864578247,0.07751793414354324,0.23560109734535217,-0.9687533378601074,-0.22891564667224884,0.08596266806125641,0.0870242714881897,0.990648459959099,-0.1163972915888469,0.0455520265881138,-0.054701239035844035
1681247991436121900,6.101121826171875,-0.18896245956420898,0.09090986847877502,1.3450723886489868,0.08364439010620117,0.2361501008272171,-0.9681099057197571,-0.23243284225463867,0.08523054420948029,0.07173234224319458,0.9909977883432519,-0.11701784997479216,0.04745401204368002,-0.04447719640549285
1681247991451155000,6.116155029296875,-0.3000149428844452,0.0682988315820694,1.2496392726898193,0.08943721652030945,0.23796701431274414,-0.9671466946601868,-0.22612544894218445,0.07157281041145325,0.07430917024612427,0.9911424390955972,-0.11831775207170109,0.04927044491299234,-0.03478278576610509
1681247991466186800,6.131186767578125,-0.4357757270336151,0.020989108830690384,1.1027143001556396,0.09435830265283585,0.24166403710842133,-0.9657613635063171,-0.22854408621788025,0.05702678859233856,0.08224695920944214,0.9910652865234607,-0.12059555191924255,0.05075465234882249,-0.025888360467415595
1681247991481218800,6.14621875,-0.5497892498970032,-0.03819352388381958,0.9075958728790283,0.09790272265672684,0.2474254071712494,-0.9639479517936707,-0.25041431188583374,0.034099280834198,0.09264063835144043,0.9907792143432805,-0.12391601024710738,0.05168009421204208,-0.018175223235430783
1681247991496252000,6.161251953125,-0.5253957509994507,-0.054822564125061035,0.7206145524978638,0.10023919492959976,0.2541695535182953,-0.9619511365890503,-0.27289238572120667,0.03554913401603699,0.08862960338592529,0.9903711975057561,-0.12769663721018548,0.05213456446852508,-0.011848180602152767
