seconds_elapsed,rotationRateX,rotationRateY,rotationRateZ,gravityX,gravityY,gravityZ,accelerationX,accelerationY,accelerationZ,quaternionW,quaternionX,quaternionY,quaternionZ
12.0,0.7126431829276432,0.5988746406107719,-2.070979435078218,0.28266502392969467,0.26260637014286764,-0.9225712750176085,0.02370277509552687,0.085153237516916,-0.43334723708283773,0.9788391637069821,-0.12548660332913988,0.15154142331093162,-0.055863525097032976
12.01,0.6482888716173425,0.4907628750917689,-2.1195878656383935,0.2820387684687684,0.2623155326823977,-0.9228455934633192,0.04066853647040639,0.08618140129498877,-0.434223629630204,0.9781947779122954,-0.12362419099402613,0.15261784179534432,-0.0669850548773788
12.02,0.5985883833226585,0.3759694697912124,-2.160921594288306,0.2805610391554482,0.2625401191221617,-0.9232309696657891,0.05307663045033983,0.09164970776292271,-0.4173005493259334,0.977478714908574,-0.12203552343643441,0.15326895504532556,-0.07818099108278041
12.03,0.5413380312367929,0.24967049892870877,-2.198024466801498,0.277730574053185,0.26336855180080554,-0.9238505297804867,0.0709395762671774,0.09990572494217491,-0.35956572232380724,0.9766686175137811,-0.12079437683642671,0.1532414988731829,-0.08945336621705194
12.04,0.49926061203689015,0.13305510957765676,-2.235445160816368,0.2734552333522895,0.26465950288758927,-0.9247501776283543,0.07387482081588069,0.0931854878497765,-0.30161592630234957,0.9757773516609479,-0.11986768243056632,0.15249825624327434,-0.10079841343932118
12.049999999999999,0.4535532260928598,0.04027959429381485,-2.268435974426979,0.26836911883482073,0.26627466791633425,-0.9257771551149236,0.06152165863653187,0.07332991875143245,-0.22933532353394437,0.9748152915639977,-0.11916329253525244,0.15136301122857346,-0.11218298737689482
12.059999999999999,0.3778191984208116,0.014782410534726544,-2.2864093237469145,0.2623205571531823,0.2684116665904614,-0.9268920937060727,0.016382624366839252,0.027861616788631846,-0.10994998299394931,0.9737157265318238,-0.1188198987958017,0.14978287159984227,-0.12361183034457304
12.069999999999999,0.3288272405198937,0.014257548498529726,-2.29962218108063,0.2561955985131215,0.2710941142291909,-0.927817517064104,-0.01812996101397225,-0.00032750644732520984,-0.03599975912051707,0.9724198006446616,-0.11881814460046063,0.14823003128937795,-0.13503323387806415
12.079999999999998,0.30839367405726315,0.03187222119837639,-2.313255328439288,0.25007562967814817,0.2739343698655817,-0.9286600725026687,-0.05213125242799528,-0.022896237349749302,0.020891758559769776,0.9709966874491972,-0.11893076387447223,0.14671353522125496,-0.1464799449622179
12.089999999999998,0.35179159912126007,0.07985201809180428,-2.3343968423595296,0.24407013865121832,0.2766204956299058,-0.929460049968807,-0.09792320204730362,-0.048217708865475606,0.07720420882286617,0.9693877683221804,-0.11900009440943526,0.14528685488377152,-0.15802290692670332
12.099999999999998,0.4620986912497348,0.14903354071438238,-2.3450525705571676,0.23866316777568797,0.2783308020438028,-0.9303522221419153,-0.11769176956042532,-0.048463480517213574,0.09426933121858132,0.9676178413975774,-0.1185485891257444,0.14411534143655289,-0.16973994821148788
12.109999999999998,0.6173610066583289,0.22684478828296892,-2.347912792665738,0.23372415120692827,0.2790567238013036,-0.931393817777647,-0.12787839176361174,-0.03383517698203587,0.09483619218401174,0.9657578739252257,-0.11757297816846136,0.14310212667620892,-0.18156856563563428
12.119999999999997,0.8411771308001332,0.3063925410092717,-2.3373591107827805,0.22963262695615497,0.2776127590387541,-0.9328412319741276,-0.13952959827885766,-0.0005403287583988503,0.0903254824132611,0.963797498380072,-0.1154438409558294,0.14230356867456823,-0.19355637478456736
12.129999999999997,1.0949835804281043,0.38681908935357306,-2.305025454879904,0.22655579948453072,0.27357747259335896,-0.9347763521053547,-0.1434818563705097,0.02303537819771296,0.08497208164406454,0.9617824863227823,-0.1119340372722616,0.14167972319752448,-0.20561628174390176
12.139999999999997,1.3665353144930725,0.4639996194729431,-2.2647316846055343,0.22418953766795913,0.2676073528107064,-0.9370692558552707,-0.14511633938914134,0.04782132891800922,0.08070180391849428,0.9597380872738047,-0.10739927261459244,0.14113754095362258,-0.21770651290300647
12.149999999999997,1.6597276036712723,0.5278843451638044,-2.2269465060254072,0.22296296654040948,0.258282105542595,-0.9399700711967793,-0.14947231032914324,0.0913421231524699,0.08167410815177913,0.9576651433819504,-0.10109880183347449,0.1406411106158432,-0.2298031391825816
12.159999999999997,1.8898503400921849,0.5912758543603334,-2.167653013802557,0.22283231909837167,0.24619696208383499,-0.943200940018698,-0.14922772051893332,0.12613035036475417,0.08333645582961838,0.955535328538089,-0.09334993403049156,0.1401642049535955,-0.24180473210211195
12.169999999999996,2.080661231363537,0.6402692515992979,-2.1041980804668463,0.2233801017154896,0.23243954904052616,-0.9465740197894038,-0.14421513435592295,0.15484253208812995,0.08872281198127496,0.9533539507953875,-0.08473290528482057,0.139671703324719,-0.25370362796787566
12.179999999999996,2.2195789520473093,0.6346452143627177,-2.0586144840521965,0.22481163734059115,0.2165959842971449,-0.9499743035111838,-0.1281056696619012,0.1739344320597067,0.10734966708522138,0.9510637813605317,-0.07505741211046633,0.1390884417503923,-0.2653571186129849
12.189999999999996,2.2917291787016034,0.6174886415414307,-2.006638793794332,0.22657346445953555,0.19961760606023216,-0.9532251041495972,-0.11349080174472373,0.1722007933436934,0.11170942948883916,0.9486482171148038,-0.06486099651669686,0.13827144390987514,-0.2767737089454743
12.199999999999996,2.3215103532535073,0.5914769346823343,-1.9482566749650587,0.22852720511610808,0.1820918217170057,-0.9563118210295158,-0.09817381097656847,0.16284755149188546,0.1107171129586732,0.9461476313796349,-0.05443375559174969,0.13730310682210747,-0.2879735971387269
12.209999999999996,2.2945175700235763,0.5495048189668376,-1.8750285242325684,0.23069099860185532,0.16429269494986312,-0.9589942314403628,-0.0775184201060432,0.15819293559367423,0.11241488774560625,0.9435186004245124,-0.04396294690276345,0.13612394218821844,-0.2987062761541308
12.219999999999995,2.2292587957445154,0.49891244567428933,-1.810021002172322,0.23283266306806163,0.14689204759913063,-0.9612699165888003,-0.07082832726274023,0.1587270633251573,0.10939280577831816,0.9407991616428862,-0.033794926154323945,0.1347783486777728,-0.30898329154043236
12.229999999999995,2.1424333145051877,0.4428300587155528,-1.7463599227901663,0.2349024404087706,0.12997767101010235,-0.9632557000429997,-0.06954299603965462,0.15999570068851054,0.10129305506944773,0.9451737244150974,-0.029358278574740333,0.1318918172807264,-0.2774091929178957
12.239999999999995,2.035149106404116,0.37950305358134845,-1.6733784762423005,0.23671244549541948,0.1143683689357271,-0.9647708466447349,-0.06543314109717405,0.15490011446069837,0.0805813287836735,0.9793160177705024,-0.048288538340680365,0.12287736213455357,-0.07201747638717992
12.249999999999995,1.9254581282229457,0.3039619907857018,-1.5912324219644909,0.2381878349333813,0.09932270361830567,-0.9660638312619723,-0.059085293539262736,0.16315389825422805,0.06832008836911578,0.9914390030069643,-0.04937028447998578,0.12037231782353293,-0.005896271133964459
12.259999999999994,1.8106545226903938,0.2226118953869828,-1.5024818233144588,0.2393773570546656,0.08479505890296435,-0.9671985594340429,-0.049946935179840814,0.17922957700033257,0.059621143667503235,0.9916476691588554,-0.0409370205053254,0.12129727975751692,-0.014854626493491074
12.269999999999994,1.6735595555995664,0.14585760159531952,-1.4040502996466684,0.2399519525293005,0.0715165791819548,-0.9681094028988029,-0.03155968173209496,0.19889296690918623,0.04507219274854497,0.9917122045372858,-0.0332203078808403,0.12172620053430235,-0.023101526170258544
12.279999999999994,1.5481612467295773,0.07080899332252028,-1.2967077156887008,0.24004011178103402,0.05920036921148469,-0.9689163821958107,-0.024034262130373546,0.21169499018829938,0.04342486680413182,0.9917070095713143,-0.02607097800231014,0.12180423818256832,-0.030751970208058862
12.289999999999994,1.4285088651615225,-0.0010485237789267668,-1.183659249628449,0.23976501549860538,0.04760245771821306,-0.9696523315046479,-0.024288511405475922,0.21861753922469918,0.049473961142718834,0.9916549271979779,-0.019349602966249137,0.12162419495386477,-0.037933809938086455
12.299999999999994,1.3042208659837595,-0.05907267417440819,-1.065951904964857,0.23891631258043294,0.03713743892212116,-0.97030608276084,-0.035306383117805186,0.21279012416358992,0.05878655599156953,0.9915525889460316,-0.013323497582933158,0.12105473111143197,-0.04426932383991265
12.309999999999993,1.175101374463255,-0.11348366908332556,-0.9430257348898505,0.23771072491447906,0.027569447162064886,-0.9709206846579799,-0.04173581680067069,0.21394699117841426,0.06962906553269929,0.9914382416548526,-0.007847302888273682,0.12026180884946369,-0.04994899944338347
12.319999999999993,1.0415856609260772,-0.16621094606098927,-0.8162287916171577,0.23621484291710246,0.01871619308467191,-0.9715148330720287,-0.045887978774740254,0.21761336832664413,0.08156660228642075,0.9913208512279984,-0.0028091875495708037,0.11929433152005137,-0.055109048760940534
12.329999999999993,0.8974135063326956,-0.2214195154552172,-0.683641054365646,0.23415619631906923,0.011180264243453869,-0.9721214672702511,-0.05228503730904442,0.21162833253590027,0.09494304694736148,0.991228342414186,0.001421888046281592,0.11802145587548936,-0.05932509821674999
12.339999999999993,0.757573453007325,-0.2702290902317201,-0.5500468716152721,0.2316762514553877,0.004647972668759496,-0.9727696350151662,-0.05565217615947287,0.2100614371402507,0.10265791724496205,0.9911772814950985,0.005039748346078647,0.11654419596805701,-0.06282533922058041
12.349999999999993,0.6221102772803364,-0.31325533464821265,-0.416002703784679,0.22888532812572346,-0.0011155668098956502,-0.9734499386263916,-0.058458382786643726,0.2110791154445978,0.10738253435369825,0.991160569197084,0.008187039535178676,0.11491927296503045,-0.06576382612776784
12.359999999999992,0.49927267133739195,-0.34233334545819777,-0.2829339304708971,0.22565725974493817,-0.005645177837528061,-0.97418353015603,-0.06967408216874786,0.21201554293076796,0.11442956477899197,0.9912127491380006,0.010574431060673137,0.11310435458757857,-0.06772938619957247
12.369999999999992,0.397501471699204,-0.3726292437866445,-0.15690037444740917,0.2221370225672791,-0.009493003490254327,-0.9749618901926606,-0.07521966719348025,0.21566169029785462,0.12140772083375821,0.9913182966203151,0.012530621409429569,0.11116763596532066,-0.06905330670298246
12.379999999999992,0.30797956052242903,-0.402584788464297,-0.03532235345905885,0.21839307285038492,-0.012821037286464262,-0.9757746320266122,-0.07726653991743415,0.22199348317924097,0.12787220537648722,0.9914661093072835,0.014157097870518786,0.10913881278150443,-0.06987240474603637
12.389999999999992,0.21495047994585934,-0.4246605940688839,0.08475566533853651,0.2143036460117184,-0.015359352979585943,-0.9766410628151754,-0.07878010751305585,0.23600174243905905,0.13088036806487838,0.9916872911508908,0.015277030379136622,0.10697444046003622,-0.0698337895798978
12.399999999999991,0.12434584363108524,-0.44497046625992875,0.19817862267189001,0.2100170884751661,-0.0172847681493377,-0.9775385759707456,-0.0775105072205871,0.24621627293683807,0.1348839920762649,0.9919558759522207,0.016023289621843476,0.10474251875064176,-0.06922595097774957
12.409999999999991,0.03385630731577988,-0.4625914366323634,0.3067645641801142,0.205581405026327,-0.018707345853333526,-0.9784593846214232,-0.07480884363459642,0.25233148125580585,0.13987093003454731,0.9922613060671748,0.016466172486134027,0.10246128608942251,-0.06816614577306285
12.419999999999991,-0.06747557743001104,-0.4677974901303837,0.4098606796579265,0.2009375093547633,-0.019177003079102965,-0.9794113249000467,-0.0744178717031358,0.24485350248246102,0.14770472171390098,0.9926244904488898,0.016352980204109413,0.10012265589360227,-0.06633857675316894
12.42999999999999,-0.1722537329362412,-0.4700153481907632,0.5116664490552687,0.19625915690505774,-0.01885987775991952,-0.9803640921604692,-0.0736394235783822,0.24036172750841656,0.15242308061280455,0.9930168942446443,0.01580268256807688,0.09780053269121917,-0.06399597867973927
12.43999999999999,-0.2801000940205946,-0.46967568265862625,0.6130948460983476,0.19155753959471358,-0.017895588240045817,-0.9813160924122053,-0.0718781910835565,0.23767364010329864,0.15374729700667558,0.9934315787444549,0.014894471201027496,0.09549327506200647,-0.06123518768499446
12.44999999999999,-0.3951817651538515,-0.46391948080318623,0.7182420032537592,0.18684534084554605,-0.015723649270793057,-0.9822573030134737,-0.06398892084317524,0.23413140245086533,0.1433606744316036,0.9938765011451237,0.013328879085768604,0.09322208507384243,-0.05772921048651659
12.45999999999999,-0.5251025478618074,-0.46177715071323744,0.8339085195218927,0.18218862439361175,-0.012548803433202648,-0.9831733599351127,-0.05528454353438774,0.2285440970204428,0.13321204519087024,0.9943324202798948,0.011226690140138117,0.0910023245227919,-0.05365538257136093
12.46999999999999,-0.6677792539512968,-0.46209910656015923,0.9576523312319057,0.1775693570687919,-0.008515734920602125,-0.984067447592444,-0.044513177804063594,0.2194553003575039,0.12275714483429474,0.9947956900970234,0.008666016877148311,0.0888188089577443,-0.049101482789094486
12.47999999999999,-0.8374429517867539,-0.4632582709581404,1.0919071927278952,0.17295951362902334,-0.0026934872948806456,-0.9849126931103946,-0.020058690863216405,0.191078155732868,0.10817329920691982,0.9952601863232138,0.005154313371503867,0.08665770413841949,-0.04358685095156599
12.48999999999999,-1.0033608651459505,-0.47032083724166296,1.2340294646227838,0.168366867019745,0.004474441600595362,-0.9856904452397861,-0.0022384558140867514,0.16852436000819793,0.10179453701882059,0.9957029927662814,0.0009329617768972444,0.08449511939029346,-0.03736598322257419
12.49999999999999,-1.1627520125200463,-0.481869900730154,1.3807585447810264,0.16378701142669558,0.012724977373885484,-0.9864055818283304,0.01172600723866273,0.15074630260549857,0.10088607570135917,0.9961227514753789,-0.0038591361284948792,0.0823247900101481,-0.030558530087158427
12.50999999999999,-1.283643810816144,-0.4983186433797651,1.5208200530558882,0.1592187522265925,0.022668536701175294,-0.9869558221085105,0.031591388339116795,0.14116816850157374,0.09942647384550346,0.9964613845663857,-0.009542429602210977,0.080089569330007,-0.02268545169719392
12.519999999999989,-1.377024290754228,-0.5060428654697414,1.6455784947494378,0.1547323475128985,0.03337042300064919,-0.9873528987481444,0.04459023912504805,0.1417188719327514,0.09598424050656493,0.9967104738567366,-0.015619195597061129,0.07781387736493868,-0.014209665126571404
12.529999999999989,-1.4408477015807117,-0.5069832845919774,1.7572363093859915,0.15033870572894775,0.0446135917313207,-0.9876182342913508,0.051763598590159235,0.15139087955873215,0.08906059752858134,0.9968801406699752,-0.02197618895052508,0.07551260013219141,-0.005250143353821474
12.539999999999988,-1.3952456270872498,-0.5001690171994263,1.8427875937472862,0.14632081403174343,0.0560275500839514,-0.9876158154870427,0.047772313740344054,0.18302751154899677,0.06018855973115611,0.9968682654046842,-0.028415270541526642,0.073236575085833,0.004402180416188524
12.549999999999988,-1.2941016239793608,-0.46937675396927353,1.9124869845881445,0.14272492759707384,0.06655396334892401,-0.9874926575241624,0.04274841959214857,0.1981249630259504,0.027542942823977602,0.9967375291334538,-0.03439704086329945,0.07107036577189806,0.014331457958265672
12.559999999999988,-1.1539278239695796,-0.414100544234185,1.9721211603423907,0.13956402229356818,0.076262765569915,-0.9872684071198368,0.037001263387162746,0.20405728920905386,-0.015030782854181145,0.99650484314102,-0.03996000226778113,0.06903940599459156,0.024484567079919407
12.569999999999988,-1.0188863759733984,-0.2746277971798944,2.0453770676176455,0.13793103199162532,0.08385857936512514,-0.9868714059930705,0.0313762546636063,0.23932934442187004,-0.1396157001738965,0.9960745910171602,-0.044462178651787476,0.0676557064800907,0.034942748818363414
12.579999999999988,-0.9411977408421575,-0.12301781753630535,2.1511219646908413,0.13787809203851706,0.09060766753021517,-0.986285384521286,0.034115768549910976,0.26711491242482144,-0.22666522073257783,0.9954789620243202,-0.04859238711450479,0.0669934137227591,0.045798479471740705
12.589999999999987,-0.9182628418108868,0.03288134004036072,2.2771999150190725,0.13915283052854968,0.0967533129879965,-0.9855301199807235,0.046379998626818575,0.2864756193520141,-0.28414876464587774,0.9947363834912784,-0.05246970138401769,0.06693272484275126,0.05700193743752264
12.599999999999987,-1.0549201710400382,0.13213150786497624,2.3613129841790603,0.14258456244805084,0.10308167958693515,-0.9843877888076672,0.10099100419165508,0.269174153488419,-0.31485046630178887,0.9936690791402539,-0.05657843279154593,0.0678001505991526,0.06891755782819983
12.609999999999987,-1.3366517507824858,0.13374376081533304,2.4150406022001416,0.14643397090363833,0.11152341688597127,-0.9828810471752449,0.1429539866724704,0.2314937344709531,-0.31417432451802807,0.9923555428183666,-0.061819481177802615,0.0686851060614785,0.08115831747010327
12.619999999999987,-1.7374865541672095,0.05108261238661805,2.441161644844122,0.15046413785037852,0.12201996909048841,-0.9810415334858017,0.17791767538562023,0.17563137600230716,-0.28489672722178844,0.9908238467830907,-0.06814340527934773,0.06947517367800668,0.0936612496794647
12.629999999999987,-2.2794325861226983,-0.18279667647063658,2.401354311727345,0.1526839558516118,0.13894367369785834,-0.9783882637699296,0.246846540016324,0.08010810496362819,-0.18626280445096016,0.9888338092290289,-0.07766391952502898,0.06878838945793361,0.10641535917288006
12.639999999999986,-2.738750212231211,-0.4058190600341575,2.325232197354056,0.15326381993724447,0.15999475809497546,-0.9749830865205243,0.2823557417353601,0.009323186158559222,-0.11815292506758457,0.9865255145435271,-0.08915243813451168,0.06682873731229436,0.11904625796406403
12.649999999999986,-3.120186802379519,-0.6097577216486199,2.2173117623209673,0.15249849493897888,0.1844739127236853,-0.9708960587070546,0.28714348042408616,-0.040056230314710985,-0.07458059331174834,0.9839375317967246,-0.10227192084398645,0.06380492783213106,0.13153544677127793
12.659999999999986,-3.2850795771619152,-0.6508622865359169,2.051117083945856,0.15048024898771015,0.21275234235548918,-0.9652462824143427,0.21616250589983893,-0.053627235143856186,-0.04673517667214617,0.9808234695795793,-0.1171483375614645,0.05950385537663863,0.14331337449588558
12.669999999999986,-3.261790758281457,-0.6505058363320791,1.8268127783291221,0.14859111886506537,0.2411075006249852,-0.9588190680952331,0.15036661416473265,-0.042087010064338085,-0.033685067824447426,0.9775479824587389,-0.13201241252027854,0.05510154499923065,0.15411094469468276
12.679999999999986,-3.0893816379374837,-0.61675598358079,1.5539252715129206,0.1468029680875979,0.2693981603388941,-0.9517425193062674,0.08735406457253544,-0.00861477974959543,-0.03205997910579907,0.9741504401370119,-0.14679733287628938,0.05062572831868855,0.1640012677672106
12.689999999999985,-2.9110975649066435,-0.5725069573678423,1.2358867387277286,0.14499602018044722,0.2955495961196976,-0.9440730343666619,0.0018487816985076067,0.06039212795314887,-0.025783057224455744,0.9708480568921984,-0.16039612520468882,0.046261564443727546,0.17163246580334793
12.699999999999985,-2.7199520173252343,-0.48759011725566187,0.9254159894420086,0.14329344653175072,0.32052497704345023,-0.9361580092380725,-0.0539389219542282,0.08596693405164293,-0.018271967774248887,0.9676750911220507,-0.17337035569084383,0.04211708281654218,0.17794488749086257
12.709999999999985,-2.5149510508027064,-0.35783415665625695,0.6145920724502248,0.14175417632088155,0.3443958742851282,-0.9280416909707627,-0.0898399420186629,0.07319757388039395,-0.009342795827868728,0.9646336446419029,-0.18576596098489137,0.03822520698175183,0.18303498683695546
12.719999999999985,-2.243333007878753,0.0026197562517525363,0.17709885581388185,0.14174737635381954,0.3653433016819387,-0.9198864488408665,-0.2083084626357471,0.00013807354213447864,0.007705375820777053,0.9621084793247754,-0.19676360697344503,0.035782155139169054,0.18516268937738667
12.729999999999984,-1.9549130245254873,0.38667598807816733,-0.3564030892075676,0.14314139316221478,0.3846871446294373,-0.9117671195189062,-0.3089267269161869,-0.08189501171209329,-0.0036496448483798426,0.9600690519407741,-0.20703312942583538,0.03471213898944667,0.18478748609908813
12.739999999999984,-1.654334977878679,0.7817654837389646,-0.9653833770899164,0.1457175116305669,0.40256964080756386,-0.9037068968645998,-0.3913352961478167,-0.17352289537301416,-0.04199346482615544,0.9584787610786535,-0.21662720485359227,0.03485703891565905,0.18212260971081853
12.749999999999984,-1.3954433822635992,0.9813693078355764,-1.4721773656201171,0.14863348046938105,0.41761391719179913,-0.8963077012697974,-0.398148950735717,-0.31313073197978164,-0.15563504775346942,0.9578950323230204,-0.22466285604711483,0.03660923286472347,0.1748290483683141
12.759999999999984,-1.2336778107605681,1.0413312967457438,-1.7558586467683945,0.15074546777381104,0.4318011496509879,-0.8892154639005728,-0.3628681293431974,-0.366009972594631,-0.2221341367075055,0.9575606594979915,-0.23213490573401777,0.03844929177665976,0.16624187007480878
12.769999999999984,-1.1487129181325233,0.9836958153190855,-1.8433550458298034,0.1521255949031901,0.445190583495536,-0.8824137796292889,-0.288971751639382,-0.3382735452977706,-0.24665301042607388,0.9574409108435212,-0.23908729001597126,0.04035337989525318,0.15655289665234093
12.779999999999983,-0.894617937417941,0.9757086204601735,-1.7865907149832734,0.15231426614380117,0.4568344755986625,-0.8763670616405554,-0.14468213444553435,-0.13706723487221728,-0.2264715513949122,0.9573573930538393,-0.24502592790071634,0.041957579572298606,0.1469897465420864
12.789999999999983,-0.4779792400782365,1.0391509232478118,-1.7949907154517015,0.15285341691343177,0.46544417404544314,-0.8717644012208081,-0.07593843231071508,-0.0035390219467436174,-0.21632546984422202,0.9575957382937795,-0.24933228377182617,0.04408501669564579,0.13726676003374438
12.799999999999983,0.0836093811808144,1.1631052307115093,-1.861706295991532,0.15371786282249145,0.47116372152804836,-0.8685478516701939,-0.07516475647295609,0.0712337351289325,-0.2136023715397041,0.958146726354586,-0.25207943874078936,0.0467050163624548,0.12737155191317873
12.809999999999983,0.7191630626252667,1.213911905500576,-1.9648616280979663,0.15516466099934226,0.4693882092193417,-0.8692501658684366,-0.12870588477275635,0.16817377294478103,-0.16483558800676865,0.9596937284481242,-0.25064834186950424,0.05042401117101179,0.116419170589101
12.819999999999983,1.272766047896722,1.2402678226206396,-2.025013194534994,0.15656240908426072,0.46377745233461987,-0.8719775404520992,-0.14681473183040677,0.22816612429150676,-0.11540132071201667,0.9617071394728754,-0.24704216030916917,0.05437447537350169,0.10504295429892314
12.829999999999982,1.7455077530429735,1.2467219018527096,-2.046913371420293,0.15793932240218997,0.45461323756729594,-0.8765696580783328,-0.1334854844464483,0.252548529279764,-0.0651771430538741,0.9641465896596129,-0.2414222709248783,0.05854563170283935,0.09327817727985328
12.839999999999982,1.9168050820338256,1.3442491267124246,-2.0897915897053894,0.1603170190196916,0.4412325097392555,-0.882894031119244,-0.14080658066116933,0.17730335930853286,-0.0068709438582184035,0.9668373463758285,-0.2334782205965852,0.06323822833402981,0.08122458413903504
12.849999999999982,1.9947469891584313,1.4342601655024685,-2.1752251794884874,0.16335874900820124,0.4273635681247848,-0.889125024575398,-0.16971296320217155,0.11319126304706845,0.01955504289934272,0.9694125671055737,-0.22523045628316848,0.06824381061003425,0.06863755681449132
12.859999999999982,1.9842376092233476,1.5153990628161522,-2.2975647521633946,0.16702397848448433,0.41306393190825436,-0.8952519087191078,-0.21772083848281304,0.05933896975158314,0.01655408340378565,0.9718721591061937,-0.21671146079776157,0.07353895829602368,0.05555173820823007
12.869999999999981,1.8449382352029189,1.4804046083702715,-2.2723824740312404,0.1712639149627977,0.4000161617272855,-0.9003054622386214,-0.2139618595512242,0.003421662553647453,0.016603251741964347,0.9738001156103314,-0.20877192561648752,0.07884432332390096,0.04212995799764789
12.879999999999981,1.7122871176028316,1.4355230803488848,-2.2473544698420542,0.1754922826165839,0.38786521466489504,-0.9048099464079663,-0.1959950550413575,-0.024736011676449097,0.027503527486936408,0.9754396075664966,-0.20127342156851394,0.08394261783047434,0.02888994004356318
12.889999999999981,1.586919918824117,1.3822310373375695,-2.222690571920987,0.1797138466750672,0.3765770820255867,-0.9087852961435657,-0.1647818535919811,-0.02634994459828412,0.04870941016922707,0.976800703505983,-0.1941988644663271,0.08884371086714066,0.015824145611998897
12.89999999999998,1.5603955829709952,1.4275232450885822,-2.220101621004565,0.18435876768724235,0.3664790949202527,-0.9119421017140659,-0.15757055349927793,-0.007674481419849166,0.07072659548678818,0.9776907268621052,-0.18767311069173093,0.09367449738848826,0.0029340502533474807
12.90999999999998,1.5710157992439138,1.4753206967803176,-2.2302580031039465,0.18956097122303378,0.3563476269360534,-0.9148827284659158,-0.16865602963244974,0.01584688906106663,0.08565241201881675,0.9783937670882394,-0.18106289755003202,0.09868472577648228,-0.01003795556144743
12.91999999999998,1.6179251699336066,1.5254871790722564,-2.252851045939003,0.1953085966619889,0.346181203884548,-0.9176122796115295,-0.19756476723592098,0.0441057091062972,0.09376358139211413,0.9789136432496142,-0.17436860351633554,0.10387036900927095,-0.02309076466150849
12.92999999999998,1.6976543526727639,1.5539442927995177,-2.282086221602881,0.2018450584318747,0.3353011445389862,-0.9201888613350757,-0.2267482062617498,0.07760232230443491,0.13016345367924606,0.9791199474118812,-0.16712240640585344,0.10924665114028144,-0.03645332796584587
12.93999999999998,1.7618414360979986,1.5688806738546148,-2.3034584859725333,0.20866793735205205,0.3240988716856993,-0.9226715102650411,-0.2441512731196503,0.09738990656156196,0.15438174028215726,0.9791581714199349,-0.15961548626544697,0.11463935738622363,-0.04992412967392687
12.94999999999998,1.8104924901561932,1.5703016027422902,-2.3169709098978446,0.21577712156267156,0.3125745111647581,-0.9250602630867573,-0.24977856861880965,0.1034738159212859,0.16642319870345737,0.979028380917263,-0.15184794492015988,0.12004848133268059,-0.06350312751338223
12.95999999999998,1.8734688822760297,1.558152362682764,-2.318671938504505,0.22316994296075124,0.30048939843048045,-0.9272526559115079,-0.2514903013145487,0.11166615663618346,0.17893687768391092,0.9785614939083874,-0.14362115402721592,0.1252939107719646,-0.07713493893262736
12.96999999999998,1.9400266825282921,1.5586333372363743,-2.3276867937765235,0.2307912960876586,0.28804870116254777,-0.9293271424078302,-0.2575655023264129,0.11956773181212882,0.18436553527670693,0.9779177218483981,-0.1351196648759598,0.13048936764922148,-0.09080941443584828
12.979999999999979,2.0102115510388354,1.5721181505007364,-2.3442449453921386,0.23864618593598952,0.2752450279895031,-0.9312813062872337,-0.26813068777415866,0.12716398232347983,0.18252326901854557,0.9770935808077268,-0.12633785386653112,0.13563409479913047,-0.10452748885190521
12.989999999999979,2.029282761461062,1.597916805075818,-2.362964921320034,0.2472155405310162,0.2621012303532733,-0.932770663292293,-0.29292057735973853,0.12897888935566706,0.1637908409900451,0.9758402838092328,-0.11716324306341641,0.1408224705801012,-0.1184152507298653
12.999999999999979,2.011436430901676,1.6029105515062285,-2.3662368727180585,0.2560840731607214,0.24921881837794227,-0.9339112933544256,-0.309968917825704,0.13397785362608694,0.15409144988270412,0.9743511599358831,-0.10802065676338864,0.14601868625031594,-0.13228365132348086
13.009999999999978,1.955233848212583,1.585868012455782,-2.353217889806054,0.265260372010576,0.23661515922897652,-0.9346894219579889,-0.3187188796012866,0.1423891882984066,0.15407780963404813,0.9726180687125963,-0.0989158143201455,0.1512227118998855,-0.14612992624374208
13.019999999999978,1.8294303538189365,1.5310720357129473,-2.3090962471771306,0.27442984286090194,0.22547924665893185,-0.9347413006973033,-0.3052821776507123,0.12975966678470097,0.16593080937641913,0.9704731106629055,-0.09044317316003499,0.1562053718608634,-0.15955601493082563
13.029999999999978,1.6800012202628514,1.4676610994325143,-2.267968110231302,0.2833933390588439,0.21544870365620591,-0.9344483470866423,-0.2998020066124054,0.1196005136002273,0.17945099041910392,0.9681516990330704,-0.08250453243705479,0.1610323892804936,-0.17269183209527272
13.039999999999978,1.5062696095200006,1.3956077740762136,-2.2306270058480804,0.2921343228666539,0.20658690850371192,-0.9337955474911616,-0.3033152207386032,0.11248455984903465,0.19456280738048906,0.9656468646131365,-0.07513187268374279,0.1656951007099499,-0.18552135066894987
13.049999999999978,1.30036429183004,1.3284225763329338,-2.192634715433857,0.30019531263259874,0.20052307178372372,-0.9325345335421046,-0.3166350721949635,0.09364324781190224,0.22146602246313082,0.9628502358217432,-0.06916493099510118,0.17006195914637454,-0.19775224043349018
13.059999999999977,1.0968981471981971,1.2672928617122998,-2.151034388131509,0.3079825996455063,0.19594607279184448,-0.9309770681343023,-0.33175743056290335,0.08136132259167515,0.24050641602948258,0.9599284178910117,-0.06394767788772358,0.17436695129312454,-0.20965738208735551
13.069999999999977,0.896963224402024,1.2127554337316442,-2.1054484658575867,0.3154837224100643,0.1929465951414414,-0.9291063622051665,-0.3486276460854822,0.07665640538727433,0.2505222403642043,0.9568752176790584,-0.05952596738336147,0.17861090771179117,-0.2212165392483726
13.079999999999977,0.702106404750214,1.1623540462831095,-2.0505926102969743,0.3224205846467874,0.1925130611464504,-0.9267988323603955,-0.37523122175547996,0.06806538452670365,0.2467476346093075,0.9536568394851372,-0.05642249170736095,0.1827657526180394,-0.23210261164142398
13.089999999999977,0.5247509902369594,1.103452800240874,-1.998127022349117,0.3290116465351775,0.19337543566668808,-0.9243011431511944,-0.3957706360910981,0.06426131599271039,0.2397623086528826,0.950382755693461,-0.05400251391997388,0.18687902057128158,-0.2426273815143827
13.099999999999977,0.36715060772619307,1.0347316473121906,-1.9486998463904843,0.3352282276757019,0.19562578240886586,-0.9216018452255951,-0.4090724182970416,0.06604080424046299,0.22959208238323103,0.9470508835486754,-0.05231579047834511,0.1909479897377674,-0.2527637360745396
13.109999999999976,0.3435796662411923,0.9406819754046791,-1.939923906851363,0.3402743814273084,0.19907293271213392,-0.9189997147049438,-0.4181103782852317,0.07627489531022641,0.17771226066823897,0.9436843970954556,-0.05133321481011488,0.19457085430331375,-0.26249678155217243
13.119999999999976,0.34005415839219105,0.8580310418609282,-1.9212108501918883,0.34471745566080925,0.2025899845840528,-0.9165761573099691,-0.4222326621690856,0.09640970586642786,0.12505432097305147,0.9403049428942759,-0.050432517989130524,0.19789850396473607,-0.27214895089700797
13.129999999999976,0.3541675531734705,0.7897972047308237,-1.8891270820624106,0.34850621315850516,0.20613703409993198,-0.9143571188345707,-0.4207936952396463,0.12775125017477845,0.07328882393761472,0.9369118273427322,-0.04959710125307828,0.20090037806951858,-0.2817240155093945
13.139999999999976,0.5559529615029863,0.6736169439385553,-1.8289042102319415,0.3511265022221518,0.2081737479985552,-0.9128895134151953,-0.3963011212437526,0.22615016059439266,0.0013264187250289217,0.9336610076718388,-0.04818612191363884,0.203051515208814,-0.29098390682832503
13.149999999999975,0.8021545798958672,0.5973152035182101,-1.784009443867554,0.3532157337092417,0.20843032439803524,-0.9120267324930127,-0.37461459824548327,0.294520570094954,-0.06723621697481141,0.930491357920078,-0.04596344292099566,0.20461870965056647,-0.3002554620443277
13.159999999999975,1.0917507632923016,0.5713932346210203,-1.758991394036062,0.3547293897232298,0.20663058529581932,-0.9118500408209321,-0.35751125280914076,0.32332208586841266,-0.13065397477335267,0.9274115974382859,-0.04279716648624647,0.2055301097375235,-0.3095576397024782
13.169999999999975,1.3499785687576435,0.6537598355104761,-1.6826635588160705,0.35703591673738955,0.20101835893611697,-0.9121931139286555,-0.3392022532792981,0.432797785463532,-0.2673993701210766,0.924309471366185,-0.037623400506799784,0.20609015443485956,-0.3189005253483755
13.179999999999975,1.565905385917212,0.7029976488205129,-1.5965056381913356,0.3599496539515985,0.19369824504883676,-0.9126176783025034,-0.31441608783251696,0.52108957256658,-0.3658594773775735,0.9212098820337478,-0.03155004361739156,0.2065723535018465,-0.3280828758480334
13.189999999999975,1.7317203061110855,0.7046315572274353,-1.501471793540501,0.36356117080731315,0.1845150485849206,-0.913109884834172,-0.28173042597451775,0.5782224040982501,-0.4125658488630599,0.9181148232010025,-0.02449530937621662,0.2069808047334811,-0.33706499827562986
13.199999999999974,1.8016321501601873,0.5877815577889535,-1.4920937736472344,0.3666624163978502,0.17342836227971467,-0.914007503677815,-0.1753122775777211,0.6040853871101035,-0.47880997113474255,0.9150785948885981,-0.016671776949136366,0.20660482855394088,-0.34581743281289506
13.209999999999974,1.755199344463584,0.4275774329206797,-1.503322974151502,0.3688208271026391,0.16273972057205005,-0.9151165839525112,-0.08678395900904874,0.6200649802625583,-0.5332632391528257,0.9120489516210092,-0.009235057663141269,0.2057504428409866,-0.35452146485185415
13.219999999999974,1.5687672589733235,0.221307410019233,-1.5342846443707474,0.3698250251715592,0.152694637324359,-0.9164630745128034,-0.026308274344765806,0.6258571100331635,-0.5713706269294203,0.9090232936875197,-0.002344013014548915,0.20434914849055288,-0.3631812508392463
13.229999999999974,1.2723061079233289,-0.08709240847737348,-1.5718998899760277,0.36759995934558076,0.14583928161894227,-0.9184619864588224,0.09341920380500852,0.5732216171628791,-0.5656305008300255,0.9061311274012632,0.002313713549232491,0.20186484173824706,-0.37163831833256267
13.239999999999974,0.924380019453374,-0.4268220324372873,-1.6345703015235817,0.36301719005371197,0.14151252719794344,-0.9209572683578807,0.1866248565704881,0.5186595953406975,-0.5485141459401613,0.9033471040628841,0.00524939142591333,0.1987115371693093,-0.3800096665786696
13.249999999999973,0.5190355315441383,-0.7985099969927621,-1.7291926356107226,0.3556495956632436,0.14019577517985812,-0.9240411812384063,0.24035791802604517,0.466576909602242,-0.5203697387111893,0.9006920615895017,0.006140373938171077,0.1947822477260701,-0.38828703778167944
13.259999999999973,0.2043847617813095,-1.0845437804631133,-1.8661403733196835,0.3435389787728644,0.1438563276456697,-0.9280013255713153,0.2583521568689583,0.3925230525892206,-0.39857885584145447,0.8980420640215614,0.00367943987451725,0.18965073079464295,-0.39683516574530164
13.269999999999973,-0.04279130706480958,-1.2586625521505364,-1.9922951462553433,0.32992665887868383,0.14944056608216405,-0.932027702317903,0.25619077034532706,0.3409343934694076,-0.30594519172850837,0.8952645797174822,-1.4589411632360758e-05,0.18428326198929057,-0.4055544379641108
13.279999999999973,-0.20888151863944165,-1.291978453815754,-2.0999414327041994,0.3147752185790445,0.15710347364824576,-0.9360569583389177,0.23065060643710886,0.3214263577632789,-0.26129544138188554,0.8923167013356805,-0.005025327516121204,0.1787184960671294,-0.41447540994959775
13.289999999999973,-0.19023725296686547,-1.2383143898438402,-2.239156655129833,0.2992849217956338,0.1657872199566656,-0.9395567506096173,0.1302248422179229,0.35445710705993083,-0.2197551819891344,0.8887798291997743,-0.010568473540592791,0.17343133063734859,-0.42401957764028086
13.299999999999972,-0.08493317403282043,-1.1604157371979518,-2.3759760401502144,0.2839502194168877,0.17380954688929331,-0.9428847785268847,0.06295531161171301,0.3878915219889363,-0.19404360276090354,0.8848712225504244,-0.01575357554206275,0.16818802796157567,-0.43403384110754273
13.309999999999972,0.11859115849350871,-1.0589484922467578,-2.506031218928997,0.26886589015073076,0.18081387972521518,-0.9460361568480915,0.04933434318728713,0.41607857495949724,-0.18965387708529388,0.8805188337083664,-0.020389839932670052,0.16297411643743986,-0.44462274070204943
13.319999999999972,0.3582878587802263,-0.9749309510442202,-2.6070505477974564,0.25456291384733337,0.18474946901726802,-0.9491807065077821,0.06863129242763301,0.4587615772984681,-0.19608146803717535,0.8755089026232988,-0.023459732572020574,0.15760426766207455,-0.45605860731735015
13.329999999999972,0.5976884928335318,-0.9127987026201235,-2.6966365354212827,0.24055995484777892,0.18686122068921307,-0.9524305472943049,0.09364444962630472,0.48349656283928694,-0.1941894256193021,0.8701945102252192,-0.02567601893767738,0.15201711721015632,-0.4678618701286105
13.339999999999971,0.8321849386694088,-0.8792662901023598,-2.7737528569803587,0.22688179543217768,0.18678989158091017,-0.9558292464797495,0.12260885525143236,0.48120288991754506,-0.1792600727594763,0.8645337096423491,-0.02688670705483598,0.14614384628308694,-0.4800765083119329
13.349999999999971,1.014672657049999,-0.8606487089484302,-2.838050059955136,0.21332351518956683,0.18365186911648676,-0.9595063334260747,0.15671446545377607,0.46054516892717456,-0.13939826305778247,0.8583780018003782,-0.026856815463298853,0.13965096360058696,-0.49277979815229617
13.359999999999971,1.1643396669203847,-0.8450693583332024,-2.898205943658859,0.1998818942187999,0.1791873912344258,-0.9632433670748441,0.18377444618569672,0.4458589333566019,-0.10303928103376903,0.8519575942567792,-0.026326387734180185,0.13290055812948579,-0.5056610905976525
13.36999999999997,1.273824345817357,-0.8318089576332895,-2.9541593110151125,0.18659211099442294,0.17323273120569915,-0.9670283596392013,0.1999471170119644,0.44234266598562216,-0.07519630568559187,0.8452235798239016,-0.025245203438020305,0.1258642040838925,-0.5187316616779889
13.37999999999997,1.3593265041258837,-0.8278349904722249,-2.9996988668063196,0.17351882228249269,0.16556558299836283,-0.9707452725493975,0.21161777610451196,0.4275270325556924,-0.032065436084901554,0.8379964722755238,-0.023626386748163797,0.11848152706293973,-0.531987215619109
13.38999999999997,1.4203276385916055,-0.827400471845378,-3.0348378085118437,0.16058598216007797,0.15715482943673698,-0.9743711040541344,0.22641465620462445,0.41580848363641504,0.0011589583871106628,0.8305188405520334,-0.021813321082127857,0.11095321881975954,-0.5452694564627136
13.39999999999997,1.4486807474027836,-0.8307862389948667,-3.0561536662958697,0.1478281298858303,0.14790475911814865,-0.9778723243687146,0.24654121158712394,0.4104226252028032,0.01733722961932563,0.8227455327181631,-0.01979490073189598,0.10326221880232879,-0.5585628066539664
13.40999999999997,1.4668084230591427,-0.8576304262051277,-3.0536660888651466,0.13522020199751214,0.13780625649496608,-0.981109994191246,0.27141087763928146,0.39923024029017573,0.04039066401820273,0.8146183521758462,-0.017714701270537914,0.09536653274098668,-0.5716838068856265
13.41999999999997,1.474399483529183,-0.8963166995036859,-3.042593988970368,0.12255376039915636,0.1273184350818673,-0.9841965427757945,0.2953153644455282,0.39250145600380776,0.05889086712482002,0.8063419140535012,-0.015687088476686158,0.08731639821700123,-0.584643806354461
13.42999999999997,1.4676664046910712,-0.9490592429247972,-3.022492694204246,0.10977248617145946,0.1163816825320499,-0.9870976011493939,0.31693818625277215,0.39357138038484774,0.06927324757085809,0.7978982460305337,-0.013750222449624393,0.07906565089629707,-0.5973876802004605
13.43999999999997,1.4644604676316704,-0.9915465375686001,-2.9916250385616294,0.09682622195316816,0.10488799339071331,-0.9896742858813691,0.32783208901761063,0.38667983771211173,0.08813074133468847,0.7892534595146549,-0.012005809714786342,0.07054982100715831,-0.6097478881187084
13.449999999999969,1.445504581085029,-1.0304983667556273,-2.9526016451630515,0.08385361881781533,0.09318698292027938,-0.9920423713501216,0.3368991576156681,0.3817451344601512,0.10280187152392299,0.7805293093424214,-0.010393232363380167,0.06194419699030042,-0.6218531500117077
13.459999999999969,1.4012068483493711,-1.0658389633082397,-2.902823635018425,0.07087077137396938,0.08126585199168945,-0.9941446008791689,0.34512131838375243,0.38137374110536937,0.1093196633215338,0.7717186243818349,-0.008951037149910605,0.05324772303619532,-0.6336310851102364
13.469999999999969,1.3327372407702502,-1.0920426118968403,-2.8351778452446026,0.05799396489964551,0.0695391190700356,-0.99580836252037,0.3496569820162699,0.36695361461433484,0.13557834126230697,0.7628661000235714,-0.007910432338829078,0.04463471602624432,-0.6448476629038075
13.479999999999968,1.2525710221462534,-1.11365811760243,-2.748839725303545,0.04520951591366996,0.0580714671568859,-0.9972270547552715,0.35632394864447275,0.35643095981316003,0.15952952576438215,0.7540626757161143,-0.0071319614329213455,0.03613488388286383,-0.6556861780212002
13.489999999999968,1.1585581460053014,-1.12977089923867,-2.6360859405469315,0.03255191780903746,0.046980941311184965,-0.9983415899565026,0.36718483802928775,0.35508666176065773,0.1756876691577804,0.7453469711115756,-0.006692746773367549,0.027800092376046637,-0.6660317173755739
13.499999999999968,1.0458154185063233,-1.1229672714055667,-2.471866802591637,0.02027002201815507,0.036783675106825536,-0.999048621142909,0.38738667042003166,0.36642450749931904,0.19774224736128942,0.7370160159605418,-0.006766559776750723,0.019905551305226483,-0.6754603294838218
13.509999999999968,0.9258617912977162,-1.1198003331677289,-2.2797258874620585,0.008228214363191134,0.02721394472759531,-0.9995503960714661,0.4103610515787291,0.3821151442365936,0.21767429428429916,0.7290404738994741,-0.007140164268328795,0.012317133522538111,-0.6842692801961175
13.519999999999968,0.7982031799486333,-1.1278361050053223,-2.052988633671737,-0.003501004230262209,0.018481314543397426,-0.9998044457026846,0.43581425121943657,0.4021457106063623,0.2327587835705488,0.7215664274731945,-0.007894165161080395,0.00513605038424896,-0.6922595199996797
13.529999999999967,0.5998123007413176,-1.1720953091039141,-1.803689659911758,-0.015336719578123631,0.011623722263082416,-0.9997642478640295,0.48390035191420144,0.41827111750174467,0.26769072700453544,0.7150386726730983,-0.00954964361985404,-0.0014121681668735802,-0.6989677008044709
13.539999999999967,0.35206848420123127,-1.2292000344902672,-1.550073782106848,-0.02746303033332655,0.006390962966780134,-0.9995672702605395,0.5263422439686195,0.42644698846330736,0.30108822095024584,0.7091001118500583,-0.011965140599637183,-0.00747590106191422,-0.7049387500610205
13.549999999999967,0.03779850190377537,-1.2992239145471884,-1.2946800244433125,-0.04005755562473112,0.0034603860997325427,-0.9991761234671486,0.553593934706085,0.42205914616049905,0.3269763894294327,0.7039306264331832,-0.015451459543855895,-0.012871386019848906,-0.7099718480023391
13.559999999999967,-0.330342077821883,-1.3638427051957747,-1.058629113655975,-0.05359291946852612,0.00506503740085814,-0.9984967422563594,0.566071183775434,0.38297107591892443,0.4004379314437381,0.6997750562200068,-0.020928393985967485,-0.01693980003158879,-0.7138255255791757
13.569999999999967,-0.6962643804918855,-1.4168306524231724,-0.8424733174276292,-0.06753521120710275,0.00937109442661789,-0.9976168568759742,0.5699530331147367,0.34084690361356673,0.4649492069328416,0.6961286678836739,-0.027513229174895543,-0.02015806254098437,-0.7170821782055579
13.579999999999966,-1.0438294227008909,-1.4509201788569686,-0.6559309040761476,-0.0819366994697332,0.017185199392222066,-0.9964635961316299,0.5627653643700149,0.30273486143195516,0.5010162105772188,0.6931007562438348,-0.03550168367924487,-0.02224539291052495,-0.719611126167794
13.589999999999966,-1.336750708724563,-1.427145056944914,-0.47369535047688044,-0.09638144693260306,0.029124194477759095,-0.9948152184072117,0.5146077198810688,0.26086263367198875,0.5342763658261602,0.6907576695301784,-0.044937794761205525,-0.022829695302921886,-0.7212886907085406
13.599999999999966,-1.5914255700716908,-1.3730167487823977,-0.29606759726233545,-0.11045866362659819,0.04307670369958938,-0.9928533138441892,0.4721516652375362,0.22808996164890666,0.5529153994026472,0.6888053892973897,-0.05493578234928542,-0.022555388542093845,-0.7224768504598807
13.609999999999966,-1.7932244332143614,-1.2811606228161263,-0.12547523755076048,-0.12386171670708811,0.05944826726248828,-0.9904717374309968,0.4519275746256836,0.21279429932714405,0.5460576472066831,0.6873564538680861,-0.06552216191937937,-0.02117477238840126,-0.7230328573835626
13.619999999999965,-1.9623415156426158,-1.166081585770827,0.016559253067259375,-0.13575526050230152,0.07833359984506288,-0.9874954152548009,0.41186060241002775,0.1959643357537401,0.5269821790311674,0.6864326656582448,-0.07643475340607525,-0.018391654598811587,-0.7228813206108172
13.629999999999965,-2.105541153062147,-1.0430053995921498,0.15254912560518935,-0.14664667447622495,0.09840825130933875,-0.9841654788784836,0.37897908536733305,0.17567830475166085,0.5105143801168249,0.6857785185371662,-0.08740537092255134,-0.014858925472584278,-0.7223503301149263
13.639999999999965,-2.21110379262772,-0.912481259506377,0.28639845505606576,-0.1561607444302954,0.11988852756194031,-0.9803692160638267,0.36569575377856894,0.14947816970611105,0.502749379989947,0.6854572474690975,-0.09838002957145886,-0.010382583683532728,-0.721340920304824
13.649999999999965,-2.261087699332844,-0.7720960667594603,0.4108864999769489,-0.16365370023518103,0.14246569751525706,-0.9760089322297943,0.33259348157604984,0.10979484146512639,0.4880722694037807,0.6855779237654482,-0.10904650400418528,-0.004894629828975727,-0.7197121491596425
13.659999999999965,-2.2746798613476447,-0.619621232394376,0.523844927701476,-0.1698333345115677,0.16532283231117503,-0.971388904453068,0.30182303322370596,0.07295580989778375,0.47109074436942794,0.6859214755797955,-0.11936852995049187,0.0010973496679461381,-0.7177769564574021
13.669999999999964,-2.238005835769081,-0.4474940826087951,0.618046632463202,-0.17420421494828117,0.18833687768267385,-0.9664675528239569,0.2823003078253092,0.04616587154452992,0.45209103301640274,0.6865380057456177,-0.12913998662351217,0.007702485030150533,-0.7154704912859918
13.679999999999964,-2.1223248097355074,-0.2565193211983108,0.7257308170068539,-0.17588229773337355,0.2103175374222337,-0.9615369640188788,0.2431153551467793,0.023166123200511025,0.4125537762616857,0.6875625822120314,-0.13764814300560735,0.014763952654185087,-0.7127559750076348
13.689999999999964,-1.9892913653997855,-0.06000198794921516,0.8393344175651497,-0.17586172779934395,0.23149753376997634,-0.9567203356636157,0.2089839233297121,0.0009438236180166048,0.37366046324728036,0.6888698213693788,-0.14530750611035337,0.022057345692602582,-0.7097979008362492
13.699999999999964,-1.8515485530266433,0.14039111513267527,0.9595447809431614,-0.17350862056223437,0.25149051980707826,-0.952130690160164,0.1920652555623782,-0.021160438603489755,0.34365469823763334,0.6905800708660005,-0.1517707968810135,0.029636293263318198,-0.7065135291125849
13.709999999999964,-1.7380660191576103,0.3498948892929421,1.0971332239705187,-0.16806470939948165,0.2701514030594379,-0.9479206844207043,0.17092028644093862,-0.06369016475788421,0.2966485574280818,0.6928482765446478,-0.15674963288988336,0.03768293755364667,-0.7027875306833583
13.719999999999963,-1.632765587478852,0.5628670585925991,1.2360268710840556,-0.1606968469677684,0.28808592027954044,-0.9439421297116924,0.1516895921608904,-0.10737310300242055,0.2558849497141198,0.6954511706557062,-0.16085065638239548,0.04606643395262777,-0.6987901692062273
13.729999999999963,-1.5342634834546438,0.779191568609473,1.3705876861643993,-0.15068217838711132,0.30508741962835995,-0.9402788506060666,0.13802061571373092,-0.14519406281152009,0.23454898379164985,0.6985063657810415,-0.16377384237033796,0.054942799678997636,-0.6944217699092656
13.739999999999963,-1.376825641532396,0.9672850026754629,1.4845729156398701,-0.13757239091485363,0.32065449761580644,-0.9370233695985054,0.12050032509138082,-0.18760530796528374,0.20054523691518814,0.7020519605762161,-0.1652345626939894,0.06430434920033498,-0.6896476697007262
13.749999999999963,-1.114223395245777,1.1349665134405895,1.5714859354498627,-0.12290383190809885,0.3344529678230033,-0.9342833200202525,0.10418718765394942,-0.2201509858542918,0.16419055446368858,0.7058816106152256,-0.16558514345068925,0.07355017665615243,-0.6847307474109718
13.759999999999962,-0.658341463081063,1.2723928909915119,1.610979689357954,-0.10633087031320168,0.3451925819156265,-0.9324391504715811,0.09205014198208233,-0.23019018903918237,0.12842213486223109,0.7100901299611223,-0.16425871316801222,0.08234552662931797,-0.6796921263939084
13.769999999999962,-0.12960384147279475,1.4659953469908897,1.611601719885331,-0.08769768622758134,0.34953745016419474,-0.9326969398244119,0.0971718041155005,-0.16511285466128456,-0.013661588620977022,0.7146653926860183,-0.15990851624256613,0.08966238979326643,-0.6749648021899619
13.779999999999962,0.40685715930840183,1.6828716770981649,1.6166429243642282,-0.06755081006746033,0.34994858902372905,-0.9342213728185677,0.10208536038342463,-0.0849298851763827,-0.1472606553454577,0.7194421456491976,-0.15359888061966795,0.09619706277466261,-0.6704455651639044
13.789999999999962,0.9259351123488851,1.9234591543351744,1.6492601150363269,-0.045119646684805184,0.34490814301260597,-0.9374812203471723,0.09851423078235806,-0.007362599715613025,-0.21315760893738925,0.7244798781372166,-0.14449850491204816,0.1017441218180125,-0.6662272708510659
13.799999999999962,1.2119230526025757,2.1024112453117474,1.6345036510622617,-0.020281844562258563,0.3347224912409613,-0.9418618047038778,0.10285069125479386,0.015492062095756008,-0.2792546384272968,0.7296337626554581,-0.13271364294893878,0.10657299061207759,-0.6622246330146848
13.809999999999961,1.3579973128915162,2.265634598996777,1.5668174165112827,0.005553684528982137,0.3228156797958547,-0.9462675188609125,0.09891527195930182,0.007601908028737562,-0.32045610515676853,0.7345655275354661,-0.11997575638465587,0.1113339513173317,-0.6584342023697975
13.819999999999961,1.3119455336194137,2.425031372640219,1.4059826275836564,0.032385861978211514,0.30968791193562983,-0.9501666077303683,0.07274290606895673,-0.040754220750691704,-0.3065685476900832,0.7389484216129033,-0.10647931970202043,0.11630514324260038,-0.6550043219836631
13.829999999999961,1.1062143173935925,2.5734189696660508,1.1630105357813494,0.060237887312845975,0.29789897550187805,-0.9524223524557034,0.0014356188415784454,-0.21945943053606878,-0.30918574850681535,0.7421302804420494,-0.09312790574049712,0.12244690597671058,-0.6522616478103814
13.83999999999996,0.8515904946408909,2.6890111580893126,0.8514434133711203,0.08825880155715896,0.28767026614310137,-0.9534947711105152,-0.06836727622735263,-0.39766096361089603,-0.32830009808875,0.7443261447598275,-0.08023673561749872,0.12937828112255848,-0.6501733350368336
13.84999999999996,0.5717862103212528,2.7358658880453812,0.4279962676534057,0.11611405295138383,0.2802719578448052,-0.9527593079358875,-0.11039315989976098,-0.504389009916182,-0.3760747517913879,0.7449248267831902,-0.06831532594710898,0.13747610063954618,-0.6492042789397645
13.85999999999996,0.4209753072419856,2.7147331090350995,0.26287536287295266,0.14291249478303478,0.27530006727679046,-0.9504604014743947,-0.06524148289751958,-0.5284907006591555,-0.4759502453243225,0.7440997660137793,-0.057445330935915695,0.1461597620367545,-0.6492648226512708
13.86999999999996,0.3469055774062708,2.6424327001613395,0.2435605339385603,0.1690945833533187,0.27112352887455293,-0.9474480627050639,0.006429305372207799,-0.4820679404727796,-0.5635315264724249,0.7429994455786207,-0.047052308378106755,0.1549203235377311,-0.6493653864457796
13.87999999999996,0.3782537174171319,2.489392968961082,0.41685610563921316,0.1944420564879364,0.2674076308430949,-0.9436669560886113,0.08981985400143427,-0.31793505723266946,-0.5920202829183396,0.7420784207816845,-0.037169681383510206,0.16352170469148608,-0.6489627747350674
13.88999999999996,0.5809997036497181,2.284697715913612,0.49175736920618685,0.2178703002007354,0.2615343036126217,-0.9401095640245951,0.20929824823733303,-0.08959265356834589,-0.5799620774670713,0.7416798201598023,-0.027204285978576888,0.17065545105767654,-0.6480471519926944
13.89999999999996,0.823007226517923,2.0315159591577583,0.5535767541546621,0.23971352953792946,0.25402647414068835,-0.9369307645958309,0.3048052170223334,0.09652041778727743,-0.5605693614575716,0.7415732982178278,-0.01719081571962615,0.17662753460665573,-0.6469419465227293
13.90999999999996,1.0533575601266927,1.6930337438849299,0.6450027412772559,0.258911991174826,0.2439023762686683,-0.9345299222248283,0.3197441838883301,0.1403048328483722,-0.548667610075021,0.7418489967193703,-0.0071124272764515346,0.18069927950294337,-0.6456970067302779
13.919999999999959,1.1712077419940568,1.4259842779326122,0.6101047210355748,0.2744362581244179,0.2315008361846011,-0.9332078913115134,0.32739402454925576,0.14853464367692426,-0.4687832547647601,0.7424956428548469,0.0025708924875401384,0.18258369660448429,-0.6444400355163655
13.929999999999959,1.1590940236089917,1.1921833243427098,0.5427245679701869,0.28810301967220897,0.21898754280027857,-0.9321752436574295,0.3089042469877833,0.1351041669576894,-0.38541686076850107,0.7431676643786931,0.011687789729825494,0.18372129427220565,-0.6432643303900061
13.939999999999959,0.8973754401334291,0.993719865568218,0.4786246293209564,0.29958390543101543,0.2077177168020982,-0.9311445369393091,0.2299559424408738,0.09130992578685135,-0.33880319305503226,0.7436550793055745,0.01965315060316329,0.18445484720083466,-0.6422997830483268
13.949999999999958,0.6466920116224011,0.7552121899249327,0.4989829942376708,0.3083174085888173,0.19929400210729692,-0.9301360410179229,0.14487096464226773,-0.02867515215123305,-0.24317485169916125,0.7444017515606429,0.02553682888644729,0.18510473982622178,-0.6410402222134721
13.959999999999958,0.38006417884484145,0.5482534863183708,0.5125428778668418,0.3155821528930674,0.19277250387983152,-0.9291025540848732,0.07982602145256042,-0.1316788377625126,-0.1568056063613232,0.7452978897712245,0.03015436711467743,0.18583952428862147,-0.6395942690307944
13.969999999999958,0.06436382402775259,0.45146151776147914,0.4479447735552008,0.321027599786185,0.18911822511634224,-0.927988624817078,0.0709092545646397,-0.13617505594588544,-0.12950948233877485,0.7463937525739334,0.03299784223440222,0.18685345657578617,-0.6378789426659381
13.979999999999958,-0.06177582282573296,0.43379991060825207,0.42606667011656013,0.32591615136670227,0.18795333747471302,-0.9265193390269344,0.0004667256037889228,-0.07770773809165513,-0.08252883391955029,0.7473497049582898,0.03471113163389627,0.1885006431842758,-0.6361807763608475
13.989999999999958,-0.07749304529795041,0.4508028739042547,0.44057921250433674,0.33078607535824617,0.18725116893522645,-0.9249361130323026,-0.07117557406994421,-0.018555051497125354,-0.04461854592019503,0.7483062733667715,0.03622886405088197,0.19030823263143884,-0.6344320858333787
13.999999999999957,0.05525277943147043,0.49930379297525107,0.5192270679524619,0.336035128532728,0.1858659806485843,-0.9233227033185392,-0.09864346605887792,-0.0060553786039321995,-0.046049251614470176,0.749372211964782,0.03809539719771634,0.1920559148551028,-0.6325354692998275
14.009999999999957,0.19356117958272345,0.5613019286472938,0.6038683024387747,0.34209545791563595,0.18260390262557732,-0.9217344756147461,-0.1287436329121146,0.03869748160119147,-0.06690338488573397,0.7506308275974488,0.04089539582152329,0.1935300713475823,-0.6304100817951354
14.019999999999957,0.3364497820442638,0.6172747846235105,0.6925863292355435,0.34862509736864533,0.17809328294654958,-0.9201696979384927,-0.1521964251883638,0.08780757481916873,-0.08807716171863751,0.7520216951718202,0.04429342113936068,0.19479976672135327,-0.6281284491367598
14.029999999999957,0.48736738602063556,0.6454994629883136,0.7875903972547411,0.3557781896976151,0.17169169372291387,-0.9186487504151469,-0.15515747529240403,0.12229482201517453,-0.09409461851675044,0.7536179275313042,0.0485687207518331,0.1957318618940369,-0.625605134225248
14.039999999999957,0.6084023450074231,0.6468774290565823,0.8703855610342388,0.36313286296333375,0.16342089951108843,-0.9172522957487438,-0.14220337348570514,0.1624859181464965,-0.0890368716982211,0.7554498188573984,0.05357390910446312,0.19618403923340072,-0.6228282749433802
14.049999999999956,0.693693009793499,0.6307464853866226,0.9482185928478657,0.37046535318571444,0.15423226227524522,-0.9159245660640971,-0.1286705949085829,0.197865143296758,-0.07916116268235014,0.7574345884640575,0.058888024274191084,0.196366920668666,-0.6198791282637867
14.059999999999956,0.7035718732222435,0.5884862289031714,1.0227197252321465,0.37755613662435566,0.14408283195652913,-0.9146824721364682,-0.12758031818812016,0.21448025594837541,-0.06536062567209966,0.7596463999471578,0.06443631252694773,0.196207245302615,-0.6166634602362987
14.069999999999956,0.6633642147975761,0.5226491168131275,1.098467310231908,0.38401742937350253,0.1337788886930942,-0.9135373193267363,-0.11752885113994306,0.21110927887402317,-0.036074518650294624,0.7621785079366148,0.06974897639128695,0.19583365303458922,-0.6130584712123239
14.079999999999956,0.5883234233248268,0.4502646247335994,1.1651103086930612,0.39000624222575014,0.12364225271211668,-0.9124528878566696,-0.10955621791570241,0.20345147274105427,-0.006582987384074585,0.7649053404348357,0.07478610682315028,0.1953823126305843,-0.6092107532110792
14.089999999999955,0.45812210791932206,0.3809577700023248,1.2037231062214828,0.3951994889967104,0.11414565323517012,-0.9114554698197227,-0.11622126689053004,0.20212792921879988,0.008812205216412976,0.7679022685568457,0.07923447118461215,0.19490480903849622,-0.6050169203735373
14.099999999999955,0.2779455052148938,0.30939949386450344,1.2223189370903094,0.3995939023883318,0.10615870350536763,-0.9105016456305568,-0.13678783994118784,0.19492435408374464,0.03187239283715655,0.7710954991404371,0.08276216645796768,0.19466308450135855,-0.6005370382419816
14.109999999999955,0.07883597179329051,0.23790379180321902,1.2305679000361955,0.40344553296810787,0.09935657485555908,-0.9095878148957169,-0.15912273027447404,0.18651926798029544,0.05434721120106112,0.7744060752750944,0.08560247534864947,0.19462113747994925,-0.5958842276531409
14.119999999999955,-0.12720263514565922,0.16889030018276507,1.227606586705867,0.4064534166817378,0.09463446388150394,-0.9087516891633426,-0.17270768182255974,0.18043085947835888,0.06723485601373944,0.7778750452235446,0.08728166255860464,0.1949490116523743,-0.5909947043912823
14.129999999999955,-0.2888234454103612,0.10878031997773314,1.2248161370977975,0.40877843098866,0.09171098334273407,-0.9080107597776252,-0.19474153385226542,0.17743483134077762,0.07992282792502656,0.7814517986277607,0.08796985847510225,0.19559023338658765,-0.5859319702254803
14.139999999999954,-0.4213266385900329,0.05730217208778633,1.217972787279577,0.41070252625135106,0.08979150217535452,-0.9073368335517188,-0.2168098612093298,0.1788018122500007,0.08972776861401488,0.7850780085699396,0.08809879084005004,0.1963920081673434,-0.580782742974336
14.149999999999954,-0.5101970815098464,0.023409188785939533,1.1981270978265464,0.41210358597813,0.08908524757097751,-0.9067709614919219,-0.22977277635505636,0.19059283574193528,0.09063381420061414,0.7887430595370757,0.08754001391295783,0.19735974134241394,-0.5755489141471163
14.159999999999954,-0.5682302055084771,0.0060469166015525745,1.1718723701203853,0.4132769987116774,0.08916736383809337,-0.906228677414063,-0.25186635790691153,0.21141763231263805,0.08612449249582073,0.7923465528897478,0.08658426029013466,0.19846260983439437,-0.5703320614874922
14.169999999999954,-0.6051975611655018,-0.0021546384024760555,1.1426301684369187,0.4143455455203087,0.08964384170576795,-0.9056937506832369,-0.27340485730874253,0.2322751440795756,0.0799905666713394,0.7958926303393407,0.08543685804300064,0.19963145152320397,-0.5651464693571582
14.179999999999954,-0.6091698077639407,0.00034252056717911684,1.1110895518367767,0.4153365452718658,0.09049114798029492,-0.9051553573801805,-0.28244546740597715,0.24267503072910848,0.07486397437849898,0.7993224746843628,0.08412544180854861,0.20085853118086983,-0.5600435037742386
14.189999999999953,-0.6059163964632307,0.011158875327309001,1.0751633195882713,0.4164115413504257,0.09147587699820432,-0.9045618103773121,-0.28810685351422344,0.26296224135950214,0.06690175949539218,0.8026021609882118,0.08280593624232556,0.202139359029136,-0.5550595448846953
14.199999999999953,-0.5979953805948315,0.022088715653824222,1.0340817869767258,0.41752472128092327,0.09252652116718336,-0.9039419796243423,-0.2918232061374196,0.2824940901482377,0.059068613546493766,0.8057694841423502,0.08149189303987707,0.20343822728926902,-0.5501797074196237
14.209999999999953,-0.5832650209685933,0.022969955950850218,0.9809703164198402,0.4186623920088549,0.09362894575283026,-0.903301948143406,-0.29316389781711344,0.2870559550733229,0.05523100207530256,0.8087430532212477,0.08020657088928565,0.2047310275630509,-0.5455046700840402
14.219999999999953,-0.5658327954163569,0.02729251160157497,0.9124363967686506,0.41980108774678115,0.09487805399514096,-0.9026423539142137,-0.2894124827337438,0.2881708705450052,0.044480338930852736,0.8114904217827791,0.07892016406314435,0.2060304066136249,-0.5411007645722341
14.229999999999952,-0.5500809600286118,0.031443023630556205,0.8327493221513816,0.4209167664897404,0.09624355628218594,-0.901978426458344,-0.2834259139607203,0.28763164769537003,0.03337484064951802,0.8140651985982312,0.07762818386949119,0.20732511458695274,-0.5369185081619822
14.239999999999952,-0.5438953848263045,0.030356993178605855,0.734438102304575,0.42194981706600604,0.09782260836706312,-0.9013255185095939,-0.2763991834826439,0.28589017653047494,0.030316173495947216,0.8163350148731858,0.07631798894677552,0.20859448406720063,-0.5331539420660155
14.249999999999952,-0.5678127568559185,0.032418838164386926,0.6319182860377094,0.42290817957702265,0.10003346910392741,-0.9006318714151171,-0.26866446243718584,0.28298523183428126,0.029707778333599482,0.8182986240702822,0.0748160003644038,0.2099621638879592,-0.5298071092921182
14.259999999999952,-0.6034103481769261,0.03535342011845599,0.5227190825879224,0.4238094996385257,0.1027499942599732,-0.8999021399178398,-0.26173903545713323,0.2788564122549062,0.03072891564950829,0.8200443311844204,0.07315318170500397,0.2114136618164948,-0.5267598531551425
14.269999999999952,-0.6383880962173292,0.03694452531719687,0.39509995550778954,0.4246094436129073,0.10640889684080589,-0.8990988850647816,-0.25880351525948864,0.2719188129364763,0.03418896229713211,0.8214329497068636,0.07117741431929761,0.21303063012947188,-0.5242082174826033
14.279999999999951,-0.669294488922794,0.04745331142075907,0.252302919173043,0.4253335876426786,0.11100557051429845,-0.898195057883769,-0.2584698933169128,0.26001629205197824,0.03209207233901679,0.8224251971575314,0.06891755996965969,0.21482020585584197,-0.5222183631863077
14.289999999999951,-0.6964649699904751,0.06303871521809143,0.10025716547161126,0.42602281219361987,0.11625580729805048,-0.8972056683242273,-0.2591937871386395,0.24806321409132534,0.02747068955082788,0.823122636233008,0.06647287491952684,0.21673791089187866,-0.5206453528727378
14.299999999999951,-0.715699073585656,0.08416262177166083,-0.06353469398731862,0.42669634800966655,0.12254495021076839,-0.89604586950638,-0.25991807654398,0.24361134119823386,0.02183442415726436,0.8233101676595244,0.0637636415459222,0.21887670917519908,-0.5197912603280987
14.30999999999995,-0.7034248920798657,0.0991510878764329,-0.24242115084359586,0.42729347803210205,0.1296194646194323,-0.8947552997647418,-0.25858490457972677,0.23684366133835683,0.017554865902635178,0.8229845881449935,0.06089642751035224,0.2211472187051139,-0.5196862635319033
14.31999999999995,-0.6744831702956233,0.1148835110263623,-0.43028058847031253,0.42782241310716884,0.13716355830729435,-0.8933847775809779,-0.2567043544284931,0.22931410512669084,0.013295944293662567,0.8222768162908146,0.057962738247611376,0.22348200189444725,-0.5201463298225768
14.32999999999995,-0.6318422804382379,0.143771086201451,-0.6286217208228623,0.4282079629955164,0.14526378343607452,-0.8919146604727767,-0.2560748819863494,0.222614600901661,0.006862367989359423,0.8209066653229954,0.055028161146767514,0.22585263317231163,-0.5216015558388717
14.33999999999995,-0.5640082046977355,0.17235849903349287,-0.8278225535871293,0.42849652356332063,0.15371481591079386,-0.8903479199588695,-0.25627664183604687,0.2194970251814183,0.004158371118890452,0.818933184931485,0.05217763328695165,0.22824514595126993,-0.5239421957747287
14.34999999999995,-0.48174161132110427,0.20547358659067969,-1.029890169174721,0.4287213033977382,0.16234382432692282,-0.8887194789516012,-0.2565965637578004,0.21617383167703627,0.002638191881595554,0.8165099041029602,0.04943067326552889,0.23063804453864084,-0.5269386024577649
14.35999999999995,-0.38486359797355807,0.2578343461445788,-1.242267375262323,0.4288558731551479,0.17108128325023808,-0.8870087698316255,-0.2559191354754719,0.20559919224785916,-0.0006559124246366824,0.8133062621571286,0.046961458287360626,0.2329934296912228,-0.5310623070308771
14.36999999999995,-0.27295659969274416,0.3209587191218081,-1.450355070429885,0.42904949840793394,0.17975960858198076,-0.8851886484223905,-0.26027069564471916,0.19542758572939622,-0.0099490856570765,0.8093774077639313,0.044859244536260626,0.23534675972503832,-0.5361670299329957
14.37999999999995,-0.1540251336838531,0.3883050767286946,-1.652909718075769,0.42929870677536214,0.18835189549961265,-0.8832937806406794,-0.2645948346494892,0.18599625541075532,-0.0220164655438138,0.804928001247763,0.04304339714662543,0.23769437323204606,-0.5419586185670668
14.389999999999949,-0.0337092653510655,0.4531568358892805,-1.8398635091842006,0.42967394784316565,0.1966870427888698,-0.8812870894231598,-0.25913369731696706,0.17898064706346442,-0.03450833743530971,0.7996291628466178,0.041756261957640324,0.2400213000037744,-0.5488246927465664
14.399999999999949,0.09079249284544114,0.5062009992754094,-2.0163141768926285,0.4300090452674497,0.20468572072866115,-0.8792947323987532,-0.23697108752461143,0.16710018439852592,-0.04976784957289003,0.7936484705139717,0.04091271167765146,0.2422312035666391,-0.5565165421933495
14.409999999999949,0.2140341582688637,0.5545898336424254,-2.185127747899064,0.4303005518302423,0.2124447493804,-0.87732245552087,-0.21009655800355156,0.15367521207585938,-0.065280275103494,0.787178329608061,0.040380559805783915,0.24435071247448045,-0.564781934224512
14.419999999999948,0.3229464464434834,0.6064593681531298,-2.341307014679135,0.4304789708266856,0.21982156208568465,-0.8754108743929753,-0.19657239807314086,0.1433650324743815,-0.0762050684990536,0.7799165308242144,0.04033185910683803,0.24630558789373924,-0.5739196221144766
14.429999999999948,0.4278982837502962,0.6614317691305224,-2.480674348735923,0.4306348268423605,0.22690253664305557,-0.873521545512773,-0.17679859073598864,0.13096055560240422,-0.08885067891266854,0.7720146976542539,0.040675206365181474,0.24815874914852298,-0.5836609336124936
14.439999999999948,0.5267604294348557,0.7171979440820863,-2.606553635783179,0.4307815056689616,0.23376140042137108,-0.8716492024796731,-0.15564746137028804,0.11781487481768499,-0.10183879004671277,0.7636616384135609,0.04129966096047554,0.24993763940963237,-0.593801281272355
14.449999999999948,0.6058038907798776,0.7697824629845382,-2.70645558621841,0.43093530284389586,0.24023481827466392,-0.8698071651117255,-0.1419464089170701,0.1058502852473526,-0.11260272880481215,0.7546125167323896,0.04237264993514806,0.2515938590185365,-0.6044733437420261
14.459999999999948,0.6874349626581272,0.8184085878162513,-2.780942362896074,0.4311487180508621,0.24642426319343363,-0.867965140347756,-0.11977723771857571,0.09264128546293503,-0.13738536878263885,0.7450608561389656,0.043776886985868645,0.2531764315853032,-0.6154223274493177
14.469999999999947,0.7708932116383189,0.8604630020922697,-2.8349030360596195,0.4313971360491247,0.2523436654492896,-0.8661479518859136,-0.09572759102729302,0.07998801455944872,-0.1673762026620868,0.7351755252328969,0.04543031239335373,0.2546777637221286,-0.626529004025993
14.479999999999947,0.8571290202706259,0.8796749613859648,-2.848881569700971,0.43167461723726,0.2576159666185248,-0.8644530110683672,-0.08276941580226825,0.07306123403619401,-0.18932051011598186,0.7248550672135091,0.04751455893244533,0.25595610144580083,-0.637746589688018
14.489999999999947,1.021599527966333,0.9179985674348169,-2.859021006413432,0.43202438235418217,0.26165225135343056,-0.8630675546056585,-0.03898275850279685,0.08042211532633363,-0.2500240295332121,0.7142783910835486,0.050195482478018354,0.2567907325801105,-0.6490033191432142
14.499999999999947,1.2234520558593867,0.9722278591589697,-2.864627588317237,0.4325484603868891,0.2646564392183435,-0.8618921855883521,0.014437792609878927,0.09712961032861256,-0.32907546159119805,0.7034801982428331,0.053408237187345116,0.25728824542157436,-0.6603071271041406
14.509999999999946,1.4152907776472923,1.0589658181446102,-2.8568006244839257,0.43378456701858203,0.26554052517005355,-0.8609982271188389,0.03761259640924802,0.12501079006483184,-0.40227839691197775,0.6922034595865509,0.05781781357710514,0.2571969592022258,-0.6717523482746548
14.519999999999946,1.5787208518332483,1.106908518216839,-2.8052417529889673,0.4356288851949184,0.26479357815469645,-0.8602950812021191,0.08547356061195449,0.17955003997278815,-0.49181753220650487,0.6807658317135268,0.06305473692157855,0.2566287834334806,-0.683053090142082
14.529999999999946,1.7130492938380601,1.1202269731843346,-2.7334161599106,0.43782377179874554,0.26294514750946624,-0.8597480813546702,0.14304165787919165,0.23696167259952902,-0.5780228470928438,0.6692535964937998,0.06880541054351269,0.2557013226404912,-0.6942058697361209
14.539999999999946,1.7693462480149411,1.0547106383838654,-2.6743852875234415,0.4402129565153733,0.2597013655278416,-0.8595121526351838,0.18399672255426885,0.23520106939981866,-0.6003673983781468,0.6577881820766046,0.07502017150059329,0.25416418022978005,-0.7049620248067657
14.549999999999946,1.8164162578243588,0.9096858838696048,-2.652260530574811,0.4416401652446616,0.25595337921075856,-0.8599023723505456,0.24078319212999347,0.2253069772408452,-0.610247514782213,0.646383384121422,0.08094387180880086,0.25194188142944146,-0.7155464331409478
14.559999999999945,1.8359886130682148,0.7195068310677163,-2.6533776901878863,0.4421810442405944,0.2519895709881001,-0.8607980555009198,0.2993115767852639,0.21262668232353316,-0.6129659689327951,0.6350270541322879,0.08651927983890326,0.24921648904173974,-0.7260113825661887
14.569999999999945,1.7268835948270744,0.5131950367761078,-2.674985747349538,0.4405896554628012,0.24832525102047617,-0.8626745809882638,0.3197531547755117,0.20873874554691024,-0.6126831320326107,0.6237630278258219,0.09099308119897032,0.2457027051911506,-0.73631659679934
14.579999999999945,1.6055954393266256,0.3069296752880867,-2.7399398054493473,0.4373326986235568,0.2459712136663731,-0.8649991388555113,0.3284807120845016,0.1924904677100983,-0.5910513704564361,0.6124269411784066,0.09426502433207125,0.2420810978200835,-0.7465278952798152
14.589999999999945,1.4693685775059586,0.09050291027902418,-2.8100111570069357,0.4326585688238268,0.24459027130194788,-0.8677372184253762,0.3306131687821768,0.1690353900045539,-0.5603369348880984,0.6010831224315337,0.09655466358790576,0.23833858593951976,-0.7566533711840676
14.599999999999945,1.2835220086869343,-0.1870744724256163,-2.7682873378275468,0.4249533685690357,0.24474275510468257,-0.8714845807391044,0.3316694328667553,0.1429571306617839,-0.5452914566088027,0.5899298099717405,0.0968991168290837,0.2342247998130599,-0.7665724401839908
14.609999999999944,1.192843834567072,-0.4161646113663299,-2.797659401701567,0.4152599764611359,0.24558767820391278,-0.8758812093327917,0.3258587132447485,0.12340075350063376,-0.5031410676817643,0.5789148667665299,0.09603815541029859,0.2298332841593787,-0.7763250066537833
14.619999999999944,1.1627045855034728,-0.6078963811407542,-2.86555440425995,0.40409615511582064,0.2468178694529098,-0.8807653847829575,0.31461527744786,0.11051552958929717,-0.4486831211251194,0.5679309793605734,0.09433657125408053,0.22519201731380434,-0.7859996845165816
14.629999999999944,1.176400758784347,-0.7360238173130373,-2.9237324506426385,0.3907134447256984,0.24801724020990967,-0.8864208017262311,0.293465225856837,0.11661452497275049,-0.41300188075561384,0.5566499437426706,0.09161203610191165,0.2199598417008041,-0.7957752320679137
14.639999999999944,1.228812143275385,-0.8443553671852423,-2.9558873404018886,0.3762915233187822,0.24854930264683237,-0.8924583899051755,0.25402489909290804,0.1291386068750156,-0.34813013501245754,0.545190081768656,0.08852899570157566,0.21426114012724284,-0.805525260703348
14.649999999999944,1.3103483176379467,-0.9335426157383484,-2.9710504724512625,0.3611252814974165,0.24840631468418123,-0.8987922020250927,0.21014177430200495,0.14414972357754358,-0.2713368818338411,0.5335953157652564,0.08522814541185952,0.2081568852234952,-0.8152487682000613
14.659999999999943,1.4367132465665462,-0.9713091731603709,-2.9734062702801913,0.34500678998964435,0.24633086559961312,-0.9056269975507869,0.2075217561331936,0.150874286861192,-0.228019813809729,0.5217909646397153,0.08185993532654626,0.20114653915476347,-0.8248936426124354
14.669999999999943,1.5856955514361428,-0.9650254785770531,-2.9438291162553316,0.3290065249698397,0.24240802154499563,-0.9125856468113601,0.18664460948193812,0.1574043173386623,-0.17049882136350733,0.5098654611754346,0.07885596323429148,0.19351877046824167,-0.8343873621284308
14.679999999999943,1.7484651781869713,-0.933302280280391,-2.8898076508766106,0.3131845948935951,0.23695349721425446,-0.9196243517993326,0.15841117778320474,0.16406540481592094,-0.10892666614883516,0.49787844461488884,0.07617809558508222,0.18539181786485076,-0.8437365501631098
14.689999999999943,1.9134483473889772,-0.9073139189653056,-2.7972687146282222,0.2981297057399668,0.22843516192856864,-0.9267075663884851,0.15521479963084836,0.17248223127439907,-0.07871974072178992,0.4859673005214196,0.07427572948018521,0.17633135173226505,-0.85269849647762
14.699999999999942,2.0419832318879587,-0.8720961875680611,-2.6745899159436,0.2838046967798192,0.2179150648345102,-0.9336812588337078,0.16273863228145743,0.18164197951104433,-0.046086928845267966,0.4743099480172146,0.07288476455345773,0.16670976602764456,-0.861255113072843
14.709999999999942,2.1469336195499316,-0.8330158891531391,-2.5310063179202555,0.27009054315025655,0.20583801105740543,-0.9405399103026447,0.17662324470430424,0.19205699971982143,-0.014203117161818093,0.46288828282299677,0.07189494943385506,0.15666100530083027,-0.8694689140272257
14.719999999999942,2.2423837614108084,-0.8074814047756048,-2.3689629247296002,0.25761450913917333,0.1912603929753463,-0.9470359859710903,0.18894705265409548,0.2085227225664014,0.0007791946377575382,0.4520731931286941,0.07156956773533546,0.14598132684609497,-0.8769680325945156
14.729999999999942,2.2752666083091158,-0.7691013652343055,-2.182945595950366,0.2460071268093923,0.17549567516489817,-0.9531251638350571,0.19656548494976323,0.2319491819311565,0.021482966492008808,0.44184732269548727,0.07156289470621545,0.13509198980514173,-0.8838873794671007
14.739999999999942,2.263060307608015,-0.7250093464281949,-1.9809725543196806,0.23512251093691108,0.15890118769189526,-0.9588558810723197,0.2010071779818194,0.2588195859367362,0.04556291166003459,0.4321278292083348,0.07179618659873802,0.12409424596661628,-0.8903242448077843
14.749999999999941,2.2049482487146284,-0.7000806421046314,-1.7720631848265511,0.22565559350431874,0.1416430811652343,-0.9637620485329542,0.20372375840510595,0.27811803971621285,0.06781693769044889,0.42349992230863936,0.07234627269787357,0.11328687490533651,-0.8958142441848106
14.759999999999941,2.091400907232231,-0.707369141924612,-1.5754505228231688,0.21661074405612543,0.1246834928416018,-0.9681580679716635,0.20999950057708341,0.2851434505571928,0.10355058581366568,0.4156385029216336,0.07275397476718203,0.10281309223067357,-0.9007124854204626
14.769999999999941,1.9374049347550635,-0.7350142153197107,-1.3883656302487664,0.2078606871649214,0.108087491186935,-0.9721448079750328,0.21879931985701254,0.2846232345067417,0.14585024463883278,0.4084026371368231,0.07300744529482714,0.0926549146841979,-0.9051365468511892
14.77999999999994,1.7439500540487076,-0.7584253648163685,-1.2148222302481637,0.19929749716711914,0.0929607866987193,-0.9754490088431672,0.2295041721907897,0.28751913341368185,0.16955606302028325,0.40228382965570947,0.07272554251626875,0.08335668570252565,-0.9087738252721382
14.78999999999994,1.5290766108270575,-0.7882145926110098,-1.0587316489308023,0.1907411770018717,0.07930429548739835,-0.9783649666043832,0.2283685214129403,0.2789272880477138,0.20040408903008217,0.39685639842585285,0.07199365368653175,0.07482638215021287,-0.9119592008759391
14.79999999999994,1.2976459748820786,-0.8238493112193979,-0.9167257386274154,0.18215321645444058,0.06692082764920741,-0.9809778333968516,0.2199769810067808,0.26375385627639636,0.2341340644526349,0.3919875975417247,0.07086980077587053,0.06694864293420044,-0.9147850654210546
14.80999999999994,1.0447706298435377,-0.8743483895940874,-0.7976895799322706,0.1732297588541533,0.057274170949211306,-0.9831744884323972,0.21730907184079595,0.25837842892721635,0.25056110145518,0.3880350209942959,0.06888669167510962,0.06038583751853395,-0.9170641825740512
14.81999999999994,0.7930740311212273,-0.9254850001345228,-0.6919289275973312,0.1639374612595936,0.04959363510482928,-0.9851863698446544,0.20549295353342645,0.24091054573755205,0.2764954498336165,0.38459050372872605,0.06628030311152747,0.05472704101614544,-0.9190627439463116
14.82999999999994,0.5408693059545063,-0.9767870286308304,-0.5959863524956927,0.15433435523154426,0.043577446673541645,-0.9870497457009975,0.18863339381272404,0.21645169185407312,0.3079922918910087,0.3815614944265007,0.06315240743467383,0.04983212722802339,-0.9208337057951355
14.83999999999994,0.2755310425247893,-1.0253876421964168,-0.507519970517811,0.14414329614067936,0.04077103286213692,-0.9886905400855996,0.18384248990543373,0.20470244905716958,0.33015717111661463,0.3792162191711478,0.05906804766524786,0.04639931896221547,-0.9222455846623773
14.84999999999994,0.04459752359784358,-1.062262579698816,-0.4286840311959287,0.13361077735367125,0.03989162086861305,-0.9901985738881102,0.17083293058457558,0.1889262347528828,0.36210356747485073,0.3772557352676417,0.0544330987919128,0.043842477037139796,-0.9234582525519316
14.859999999999939,-0.15652990443806508,-1.0893423793569859,-0.35780626668163706,0.12281691450736715,0.04057526840021519,-0.9915915818036235,0.15335412979975047,0.17166707693781919,0.39835860855536426,0.3756086315282696,0.049359955475081596,0.04199916228323126,-0.9245071831559529
14.869999999999939,-0.29622946972301967,-1.0994259918214593,-0.29994749593712355,0.11178727446759201,0.04354586407558539,-0.9927474384824702,0.14995014734377732,0.16897053729168163,0.4069038278001869,0.37443188374704206,0.04372456178084653,0.041227969216786536,-0.9252963731282415
14.879999999999939,-0.3805474463971166,-1.1018850068375392,-0.24815770521797229,0.10072271525794126,0.04720186790988383,-0.9937561788417492,0.14271692701359687,0.17756919482990655,0.4160571947556733,0.37346641034688727,0.03793747543208775,0.04079222796503871,-0.925959113563513
14.889999999999938,-0.41750945323551203,-1.097904237001152,-0.2013170988108229,0.08964247220998627,0.05134307744427411,-0.9946420967302966,0.1339525420066187,0.1938452130221473,0.42478835758232586,0.3726750915474605,0.03204645471173804,0.04059806389621463,-0.926517284224137
14.899999999999938,-0.36644173697231536,-1.0827497157110582,-0.16127887885865477,0.07867450171541632,0.055379766239220724,-0.9953293778661064,0.13973374839237815,0.2046278428181281,0.4233339416007993,0.3721426261976773,0.026219401065050985,0.0404013712487587,-0.9269165431064359
14.909999999999938,-0.3290962450072927,-1.0571140504246328,-0.11026663738681185,0.06795400700114983,0.058962007808435114,-0.9959120086617413,0.14725627940906666,0.22421193360890518,0.4205266180221766,0.3717867169852402,0.020585770912312035,0.04005023150103049,-0.9272165373352157
14.919999999999938,-0.3006256474015123,-1.0248254230838465,-0.051113960624095116,0.05744873521077212,0.06217211856202153,-0.9964050640064579,0.15611853081498708,0.24855626778072426,0.4180794782166289,0.3715904344673114,0.01511573151166371,0.03957484500209494,-0.927428186759665
14.929999999999938,-0.2554545565824382,-1.006928583825901,0.008249808823888115,0.04735990113494877,0.06491786546612133,-0.9967407008646488,0.1656389406762412,0.25006352112121694,0.433346375694663,0.3717703485627861,0.00991101897552044,0.03897057838906859,-0.9274465612786437
14.939999999999937,-0.21069716082195933,-0.9788552070858929,0.056565030013768,0.03748507133228445,0.06717687685132791,-0.9970105706687004,0.17357856237556882,0.23902433640651907,0.4475964629670566,0.3721269067834514,0.004889923695245217,0.03817951035030848,-0.92737623388001
14.949999999999937,-0.17025503708634293,-0.9416729378508691,0.09637325620589152,0.027824280369810328,0.06906058705694888,-0.9972204962281973,0.180194578695505,0.21956993885452186,0.46037538485831064,0.3726329925300448,3.2733889587160405e-05,0.03725308583019152,-0.9272296226385194
14.959999999999937,-0.18741810676683346,-0.8847269348482881,0.13462904673840492,0.01890287305323178,0.07086824751188373,-0.9972871896166287,0.18505570196633014,0.21628027359220706,0.46310156632573896,0.3733585337297226,-0.004474306306133441,0.03642242764538006,-0.9269555546332344
14.969999999999937,-0.2063835612239417,-0.8313334553050399,0.1704997013247553,0.010422135876045274,0.07281822515812857,-0.9972720992744241,0.19017755576566692,0.2076599078855855,0.464919163520572,0.37421269653010414,-0.008807888023228735,0.035733435770696736,-0.9266068243123924
14.979999999999936,-0.23089440677278453,-0.7789967285595032,0.20562539688169088,0.0023486035454583546,0.07492794346409927,-0.9971837081522512,0.19582197555453462,0.19517785925373807,0.4649579912288221,0.37518190101842797,-0.012986485662578798,0.03518850454291047,-0.9261911980738008
14.989999999999936,-0.3221131037502867,-0.6990183597733629,0.25873791803676693,-0.0047035911877000205,0.07782250137602725,-0.9969423867763194,0.20660969729739595,0.18749207478463903,0.44775454482649724,0.37638777181796107,-0.016848504487140196,0.03518388939683059,-0.9256363145036391
14.999999999999936,-0.40778576762372687,-0.6133444583393146,0.3152899147508813,-0.011004894772315095,0.08146040474034208,-0.9966024539409368,0.21469645270447404,0.17975070497067955,0.43670309022434944,0.3778087480383526,-0.020513660540029965,0.03565255298808442,-0.9249649468894244
15.009999999999936,-0.49036287845028403,-0.5225776945563146,0.3740995326981424,-0.016624423941444786,0.085772843619535,-0.9961740962005525,0.22037437051367847,0.17140206018543597,0.43056352621567834,0.3794177663242581,-0.02400018637745904,0.03655090137589256,-0.9241909401458267
15.019999999999936,-0.5975486859492021,-0.42212388506960025,0.42381897260923274,-0.020777981265160877,0.0915294399406904,-0.9955734890889457,0.2215740184874101,0.15277414953084037,0.4241261615396334,0.38131405649839156,-0.027104422297864233,0.038372681069157345,-0.9232465657973622
15.029999999999935,-0.6821725128673302,-0.31057680296361273,0.4706212194815848,-0.02399086959921643,0.097976945367813,-0.9948848140854446,0.21561755373676292,0.13765517510012765,0.4188429330647199,0.38336060822556334,-0.029922902148826078,0.04068031158052052,-0.9222114382540233
15.039999999999935,-0.7488633786017808,-0.18826130575976777,0.515052777974752,-0.02632828640079951,0.1050460669118479,-0.994116534829746,0.2040967145523277,0.12594454993632132,0.4138849966709603,0.3855410872636448,-0.032471433406537686,0.04343089879820536,-0.9210949038181674
15.049999999999935,-0.8286627859709325,-0.03137515031360655,0.5600858386678649,-0.02652571262845767,0.1132369908284772,-0.9931975081502552,0.1993302822268243,0.12521464599695353,0.39581069956756204,0.3879389660848918,-0.034285831319812596,0.04709296315144292,-0.9198361554124277
15.059999999999935,-0.8897668570490068,0.13946593264345697,0.6046917223088804,-0.025264502804702892,0.12189811004502041,-0.9921975649938849,0.19144885057203853,0.12731088707732421,0.369565908665051,0.39045758825582716,-0.03554670581892926,0.05124876511507362,-0.9184971339411513
15.069999999999935,-0.9345834996772506,0.32331810693980734,0.6492848143129839,-0.02264955300627265,0.13098073906259583,-0.9911225056575148,0.18119534870500792,0.13147892006542197,0.336678469375426,0.3930860310431533,-0.036291230138691906,0.055856747948215345,-0.9170844955463852
15.079999999999934,-0.9669393986977932,0.5375503059077755,0.7024682231265914,-0.017013286527662486,0.14067001435681958,-0.9898793793911921,0.1773050328152474,0.1278903153734047,0.3100885889553611,0.3959092627205296,-0.035824205602707944,0.06133800670262951,-0.9155274019050637
15.089999999999934,-0.9779728725001285,0.7766734391929753,0.7614770305664466,-0.009379576025313183,0.15039516816835558,-0.9885329934338322,0.17619681750830288,0.12957264252130765,0.27168403272518604,0.3988696006167161,-0.03448887619642846,0.06724133332048936,-0.9138724920130185
15.099999999999934,-0.9676469083539126,1.037431852632023,0.8253255734086252,0.00012164743793914687,0.1601235759405616,-0.9870905423880453,0.17728539091634077,0.1354724075371723,0.22377873872686077,0.4019570587659067,-0.032335814730372225,0.07352646969271748,-0.912126621606299
15.109999999999934,-0.8712972672891333,1.3000849913864485,0.8829357980375045,0.013697247276280073,0.16902048760428037,-0.9854517299550413,0.17197261319453425,0.13089977191249746,0.1979300710048427,0.40529230618168166,-0.028235099704190452,0.08029015095446126,-0.9101959479430328
15.119999999999933,-0.6749131038087939,1.5400059762384453,0.925135894494029,0.029239017117316808,0.17636191984040217,-0.9838026992241808,0.18056646198108559,0.13176614949203982,0.1410939218779944,0.4087070871271394,-0.022960195071170628,0.08678011646437594,-0.9082132738005092
15.129999999999933,-0.3905874941776703,1.7619580920250606,0.9529750862274233,0.0466289772138655,0.1821956065018831,-0.9821473079869968,0.2013285991113583,0.13797187714114315,0.05657406344479085,0.4121885163215417,-0.016570713337965882,0.09299309239920793,-0.9061862890232135
15.139999999999933,-0.1458600964738349,2.068617781342032,0.9563449263003256,0.06773794020574342,0.18337388279833275,-0.9805944860620551,0.21443769610857266,0.16298246283312212,-0.03229523350126208,0.4155155921081087,-0.007552839683908663,0.09794830339033526,-0.904232618267132
15.149999999999933,-0.0025768768432920842,2.3793422688111927,1.0185773838734722,0.09138736216696225,0.18331538130731553,-0.9786187085638928,0.24769210435938782,0.21773068858720782,-0.1586022470270274,0.4188634874226212,0.002853791913657171,0.10295416718252086,-0.9021387188114337
15.159999999999933,0.044393814502743205,2.6909840364074404,1.134519474564076,0.11743131930050894,0.1821236834268937,-0.9762247506337564,0.2988004849479952,0.2977330447144686,-0.3167292040158861,0.42224165980716144,0.01456089728534189,0.10802520446441365,-0.8999019469649915
15.169999999999932,-0.09462434108204354,2.861447723572453,1.2484771967197505,0.14725327805458152,0.18073676681077086,-0.9722156419718676,0.32256589154186155,0.281741377772878,-0.3553533849532332,0.42618902554580307,0.027903126492910817,0.11405217710936316,-0.8969161306904943
15.179999999999932,-0.2870301155462535,2.98896266217836,1.3190150122260074,0.17795994755311445,0.18045064467031843,-0.9670787381028899,0.3631312293526377,0.22439953316433417,-0.3597703858043468,0.430256764396565,0.041357759220684666,0.12093935543175548,-0.8935336113302288
15.189999999999932,-0.5301173491502451,3.0747525647537293,1.3478742278172307,0.20949898471328426,0.18123995340937268,-0.9608542634296268,0.4186142298321974,0.12908005504821146,-0.33216148213374097,0.4344351294815958,0.054908845654272544,0.12865796596932483,-0.8897710380482737
15.199999999999932,-0.8226476174333424,3.048460155851983,1.3016618470823536,0.24128865146876619,0.18535711791277312,-0.9523002816873406,0.4114794356596942,0.09228932172629623,-0.30680352816500295,0.43844848522008883,0.06778642115369413,0.13829800741210668,-0.8853786928535032
15.209999999999932,-1.0793712279154488,2.958406017224612,1.2587325442455919,0.2721682485653873,0.19107355670262907,-0.9428032435537633,0.4150293762601293,0.04636477834268603,-0.2847417523661217,0.44232573308089496,0.07986873302837418,0.14863744072980506,-0.8807556203107878
15.219999999999931,-1.3004140052549245,2.8066030879622237,1.2183064465468596,0.3021514903582436,0.1983375887748218,-0.9323935159115986,0.42881035760457836,-0.007952460722171885,-0.2663775286919948,0.44606967906594786,0.09117427095875469,0.15965083025204785,-0.8759098250000642
15.229999999999931,-1.3325697540876498,2.591084823904159,1.0780984779871727,0.32893672035596055,0.2070180022536842,-0.9211320810506562,0.43553101473637923,-0.0023921009919140035,-0.3283392893116676,0.4494503932319455,0.1006767058493048,0.17085160939183008,-0.8709432933613079
15.239999999999931,-1.3484397234008814,2.3778272950877444,0.9176137170716472,0.35383413590287166,0.21603269996559293,-0.9098104966620606,0.4360441573466643,0.03511796441927473,-0.43128942804857767,0.45230397314065285,0.10931042688131995,0.1818174072183679,-0.8662062858969972
15.24999999999993,-1.3482299859021933,2.1667997760054285,0.7371135704702395,0.37686781649767837,0.2253773863680459,-0.8984295520407094,0.43042853406399756,0.10416682708751696,-0.5746994042222086,0.4546371527744544,0.11708652116992709,0.19255120383338034,-0.8616958766733062
15.25999999999993,-1.244936885074549,1.8832811269223615,0.6262451558916,0.3958151605953194,0.23414841467237277,-0.8878225427021472,0.39377948800455176,0.10382034730859024,-0.5723549389602759,0.45624979655012754,0.12324738302121194,0.20207441260005599,-0.8577518708572858
15.26999999999993,-1.153263624388394,1.6098783063852489,0.5072170723494362,0.41263649676911324,0.24256321022440885,-0.8779018833950757,0.3557614307790997,0.0781109244377909,-0.544284592182258,0.45763071340177514,0.12856254224600716,0.21089780403417582,-0.8541188293192538
15.27999999999993,-1.073364411602136,1.3467255623033139,0.37992103227310237,0.427303610610574,0.2506170454329366,-0.8686766827215539,0.31635619413914784,0.02670196498044143,-0.4901469538107915,0.45877682806424025,0.13302077546217303,0.2190120908081317,-0.8508008788891553
15.28999999999993,-0.9395112822622549,1.1338331331726046,0.2483031353697945,0.43821909307663187,0.2577542039203825,-0.861052602444396,0.2784965416789168,0.006346037860035583,-0.4387304482834371,0.45926024398808946,0.1361374291231369,0.22563958682254007,-0.8482941724461481
15.29999999999993,-0.8463530895832393,0.9355530181965406,0.17727426773226215,0.44769456382204215,0.2644818108136945,-0.8541360224941408,0.2273617066504372,-0.013016576859870798,-0.38314349184570634,0.4596086720719406,0.13872686210760674,0.23166829093450694,-0.846064949465498
15.30999999999993,-0.7958806534840847,0.7521285051930516,0.16928375761357117,0.45569791144720445,0.2707897154027292,-0.8479443592957487,0.16241098205597265,-0.03155649379257923,-0.32320108000755565,0.4598212083664247,0.14077710116278078,0.2370843545406665,-0.8441187995475712
15.31999999999993,-0.7718376590264241,0.5637616863584756,0.22220156625444967,0.46143030693366427,0.27634660609675255,-0.8430124886031314,0.147063959970821,-0.03999698372174061,-0.303611960673106,0.46051390773472434,0.14182548025391856,0.24159559049112386,-0.8422773460918844
15.329999999999929,-0.8135881135091331,0.37113791256348466,0.2977750068471733,0.4660875075860787,0.281867909484855,-0.8386206301497143,0.13119406982753423,-0.0718086146177035,-0.26834051462434916,0.46161172059230726,0.142261261886871,0.2458526178937829,-0.8403700044406245
15.339999999999929,-0.9251913591523786,0.17403984850176363,0.3966756321478971,0.46962895627311296,0.28736175754238236,-0.8347874823660579,0.11407074006012072,-0.1287065327731685,-0.21576516747684663,0.4631351918976386,0.14205724468745248,0.24985100528904075,-0.8383908706901826
15.349999999999929,-1.0869381599263641,-0.0016858769099176163,0.5370577720200471,0.47139418790361454,0.29364645777990944,-0.8315841114922975,0.1018993311450959,-0.16374020176474435,-0.1775023751894634,0.46592225176182617,0.14042498643416246,0.2539268138113737,-0.8358834355062095
15.359999999999928,-1.2262378716266318,-0.16954943307081669,0.6622486946434626,0.4724930189005367,0.3004249706258806,-0.8285317487658179,0.0800180547442667,-0.2014098209521747,-0.1140205648626001,0.4693258851360436,0.13814236313428183,0.2581417769348968,-0.833058292297912
15.369999999999928,-1.3398562047620233,-0.3292654769687343,0.7698953128810518,0.4729004948852071,0.30772722258801416,-0.8256311018351921,0.04739220027587069,-0.24244292818461097,-0.022600741449565448,0.4733774478259088,0.1351783770456352,0.2625074934938168,-0.829896611129041
15.379999999999928,-1.44610089033752,-0.49548526869439874,0.8838294474164646,0.4718131317187565,0.31538907621441914,-0.8233398002709771,0.018684369628061515,-0.25132782406418824,0.025756913539161628,0.4784490418619164,0.13103894318007767,0.2667223123397759,-0.8262784881702194
15.389999999999928,-1.4946944246173872,-0.6437643943055704,1.0072277262841804,0.4701632672834134,0.32295848522833487,-0.8213485739338146,-0.012708307146293485,-0.2482576445865532,0.08308372452725354,0.4840582409853358,0.12644894860137454,0.27077050599206626,-0.8223957442077469
15.399999999999928,-1.4786879893383997,-0.7716763415519454,1.1410784950486,0.4679258105071408,0.33041315868205123,-0.8196764539168828,-0.04723734758462001,-0.2327104574469089,0.151787714065249,0.49024129133936517,0.12138763782543711,0.27463588030569835,-0.8182291682036487
15.409999999999927,-1.481812225504954,-0.843661983586021,1.2416555766260364,0.4652564400023668,0.3367890535344258,-0.8185867937119965,-0.07427158743035592,-0.23014890107384584,0.15251177895913198,0.49717533685123455,0.11608293835539767,0.27786934656608725,-0.8136793063968949
15.419999999999927,-1.456355067471304,-0.9128979057147519,1.3534233753712006,0.4625131547290525,0.3427758271035184,-0.8176595452160201,-0.10717379899234065,-0.20910229077584697,0.16998548700867835,0.5045151250387561,0.11066768777601035,0.2808990818487258,-0.8088585946377218
15.429999999999927,-1.3971747867791067,-0.9811266277515943,1.4793936094302296,0.45970130073757376,0.34835534305994353,-0.8168971584110513,-0.147137764786142,-0.16622147279742405,0.20942059577791658,0.5122940458917937,0.10513428985228869,0.2837181890399515,-0.8037401725049814
15.439999999999927,-1.2010658761968764,-1.0031858432719687,1.5021848661143247,0.4568035017268682,0.35165485594449947,-0.8171044213435076,-0.15962182960677967,-0.17112636860201513,0.2265384807278309,0.5203493420533024,0.10005417346707968,0.28534594175757627,-0.79858683768942
15.449999999999926,-1.0352105127627234,-1.01026495398041,1.5493083018530367,0.4539815407316432,0.35389616223693376,-0.8177124281603216,-0.1887956688243518,-0.16741449581877357,0.23494817344048172,0.5284399800921508,0.09528652500362889,0.28645204216649595,-0.7934502538093948
15.459999999999926,-0.9117508884478457,-1.0018201267879607,1.6301961450574738,0.4512535096212084,0.35499375425505214,-0.8187484646249991,-0.2390517835409141,-0.15120597692666807,0.23411656881705492,0.5365592086397769,0.09086714709582794,0.2869975727441203,-0.7883351812634355
15.469999999999926,-0.76021614227306,-0.9593228149806838,1.7361573907139825,0.4493300346956052,0.35381545817528476,-0.8203128040890003,-0.25106717207298396,-0.13376716907189923,0.25011054346216577,0.5450214103912299,0.08734359894989874,0.2867198874253844,-0.7829784981566403
15.479999999999926,-0.6359504382982505,-0.9097796072723806,1.8367603557714105,0.4479412144725191,0.35161076662340524,-0.822016663366542,-0.2641396803506888,-0.12750097871785426,0.26492183129543756,0.553616085858239,0.08431503520118529,0.28614568092277626,-0.7774741595349914
15.489999999999926,-0.5464620391134308,-0.8536420529551177,1.9293973974306309,0.4471558083643708,0.34829002352490795,-0.8238595535652257,-0.28071141815550443,-0.13488891494347283,0.2773211251709975,0.5623519562876873,0.08183637260908293,0.2852586469214139,-0.7718043002887478
15.499999999999925,-0.509634314368544,-0.8334955552927904,2.0222659250380772,0.4471713927478702,0.3435710876130088,-0.8258222892451919,-0.2843234065069805,-0.1333150953330483,0.29982065940710995,0.5714282503470987,0.08002076481367874,0.28404763551265727,-0.7657138424535123
15.509999999999925,-0.5042997168018325,-0.8086047740213986,2.0892748368067253,0.44740674367186994,0.33859714732977625,-0.8277467579245661,-0.2887962241694715,-0.13148709332574712,0.3250043872803243,0.580615113417676,0.07834333517533473,0.2828199028855142,-0.7594067074458741
15.519999999999925,-0.5346622488189221,-0.7753328030779721,2.1239994555705284,0.4478615535181371,0.3334006147610301,-0.8296152806013192,-0.2952294184512328,-0.12995473186262638,0.3528468699186483,0.5899166694211508,0.0767929880778846,0.2815934590157385,-0.7528579567926054
15.529999999999925,-0.5858815240996647,-0.7278769879162644,2.153195124054385,0.44882082242528637,0.3285921860175452,-0.8310074479482127,-0.30875272803487414,-0.12353498261428787,0.36563021076920826,0.5991991583075044,0.07532029118652417,0.28075190402423195,-0.7459174214064875
15.539999999999925,-0.5873005245206591,-0.6850212461764137,2.1638723872104415,0.4499646810592243,0.32369252803707865,-0.8323108868839604,-0.32601907666491786,-0.11779556045043682,0.37349931127537905,0.6084189855008387,0.07397181582672978,0.2799495750396568,-0.7388630817062817
15.549999999999924,-0.523253655610704,-0.6491874956333911,2.15126252551514,0.4513049249118412,0.31864511410069396,-0.8335385285254885,-0.3475173168033715,-0.11331652996372187,0.37626972215482024,0.6175600433511859,0.07277632450326565,0.2791668927153799,-0.7316940897001107
15.559999999999924,-0.42577365326288563,-0.5774919858326537,2.114325635896728,0.45298799985805727,0.31296178090987364,-0.8347676351906679,-0.35204758292655636,-0.09456246807665705,0.34604956837110523,0.6262900674393356,0.07208594589179364,0.27824288735700314,-0.724622552363941
15.569999999999924,-0.23449435553166795,-0.5057652977357385,2.064600879121404,0.45490515618316796,0.3062366748393993,-0.8362098239255024,-0.34845570280849103,-0.05016747068459059,0.3034681090952752,0.6347118987083473,0.07197904805280882,0.2769703178024438,-0.7177713617099606
15.579999999999924,0.077139881964497,-0.43727585317499573,2.0002750284058193,0.45709895249356164,0.2981990460584419,-0.8379322295918643,-0.3357286708606644,0.026658221433753834,0.24763874862278754,0.6427658166703678,0.07259365817249779,0.2752520632322011,-0.7112011712049006
15.589999999999923,0.4026985513740222,-0.3392924064213935,1.9294755008900661,0.4596443676472643,0.28663562935110287,-0.8405265980052723,-0.3215520869856851,0.08350665140633382,0.18722051408926882,0.6500200696483459,0.0749687460543251,0.2722274865493997,-0.7054731839100506
15.599999999999923,0.7043731822929604,-0.23580041841462868,1.8853505809647435,0.4625426871878933,0.2732557922847303,-0.8433660710288465,-0.29918444541500877,0.1636275242090339,0.11904766992356963,0.6569232434645981,0.07830146925432718,0.2686422747645284,-0.7000740649891746
15.609999999999923,0.9723314648751841,-0.12793278604937006,1.8779375081115153,0.46588123837039447,0.2577884775897441,-0.846446029412931,-0.26590099091338393,0.2772677987091384,0.0408750907518258,0.6634352377181949,0.0827449583490544,0.2644354430330191,-0.69503169477683
15.619999999999923,1.1114971776342668,-0.024700778775297513,1.856843356682012,0.47002816731381203,0.2397827391377854,-0.8493443917020559,-0.2507015230173813,0.3069324313264349,0.01694200476141048,0.6694978274276361,0.08864263663164342,0.25968937107929835,-0.6902268228317187
15.629999999999923,1.1731214322670624,0.06067578348430211,1.7883222024314536,0.474369339697509,0.22150146923256525,-0.8519074547372918,-0.23773978794980682,0.3021196404849344,0.01316696239384852,0.6752250981876845,0.09486313105727957,0.254987394992066,-0.685567455285741
15.639999999999922,1.1422648327187466,0.1218216505195504,1.6556008165453358,0.47888519783545064,0.2031356710443796,-0.8540265913973609,-0.22576155304191978,0.2593201732130595,0.03099864472992287,0.6805398307907699,0.1013609486628386,0.2504098581773781,-0.6810821155389496
15.649999999999922,0.9497953373982648,0.1656530462734574,1.4748306500796686,0.48313412353183083,0.18704919388205335,-0.855247365483939,-0.22492802276251755,0.22990754648424966,0.039633563143217664,0.6849912831456694,0.10726429222682864,0.24666790733012464,-0.677046247926833
15.659999999999922,0.69749723417902,0.2021699914683326,1.289899465195846,0.4872273895458731,0.17315399899117612,-0.8559001746725755,-0.21658691893323903,0.20035105103642895,0.029632278412012505,0.6890085101777785,0.11245802074260049,0.24370722333362527,-0.6732056243040427
15.669999999999922,0.3811744157115947,0.2305382193069232,1.1053543554343657,0.4911338933179408,0.16208228053047713,-0.8558615933878595,-0.19608056958782033,0.16882965568784503,-0.005721184206343939,0.6925203467239022,0.11671852272427827,0.24175019051599506,-0.6695841834413325
15.679999999999922,0.024585397046466617,0.22943241827890815,0.9218542758224938,0.4946601445221512,0.1561641418586195,-0.8549275703721746,-0.17843406992434319,0.1627844114340959,-0.05354054739542889,0.6954206503624359,0.11911722905894653,0.24154638274590395,-0.6662157140018535
15.689999999999921,-0.304140998628321,0.2032749538947302,0.7420351632920785,0.4978152811081739,0.15301544488711452,-0.8536755309067562,-0.147239575791563,0.1595070788090453,-0.12172826861404135,0.6980364301661,0.12043113632231969,0.24219288727465382,-0.6630055922643544
15.699999999999921,-0.5861873383048314,0.1447568088997206,0.5674517376506587,0.5004827787379812,0.15316688289173208,-0.8520889657751827,-0.09579361634190567,0.15655404267540807,-0.2179093734714622,0.7003251728585838,0.12042941591305055,0.24382763855686912,-0.6599902621535376
15.709999999999921,-0.7481099628489973,0.060269868074369584,0.38504524815098823,0.5018625809794848,0.1569822052168014,-0.8505756229750397,-0.06821187948068093,0.15232852704708533,-0.2502641486625859,0.7020879551590873,0.11875826007445733,0.2461780277602224,-0.6575374921896286
15.71999999999992,-0.8449403628708111,-0.022432066416625075,0.19392305991034814,0.5025184285402398,0.16219494083396208,-0.8492040526274358,-0.04528990793115531,0.15745441690687612,-0.27444167067504943,0.703502220344549,0.11642517163025767,0.2486686385884516,-0.6555037531501802
15.72999999999992,-0.8633530728291322,-0.09823586361878782,-0.009039404036579268,0.5022942764307848,0.16891512258424865,-0.8480338461787831,-0.02550500481879237,0.17685245639710973,-0.29667495876928296,0.7044776051606656,0.11336730731560926,0.2512540530858392,-0.6540090181187569
15.73999999999992,-0.8081163966694641,-0.130430699302788,-0.2218154447420236,0.5009100893247649,0.17673960319141832,-0.8472403410610765,-0.026946595557248234,0.18778596543285053,-0.2968362465865231,0.7045824039214275,0.10981918879984495,0.2535933567877442,-0.6535929423179884
15.74999999999992,-0.7168246167535723,-0.12373329592490019,-0.42538871803479167,0.49926513109592185,0.18478484688262273,-0.8464974215689359,-0.040751174482435135,0.20180537611923732,-0.29920584201433337,0.7041375557443508,0.10631022385831164,0.25581748823502004,-0.6537874118929561
15.75999999999992,-0.5830006923157547,-0.06473815484318554,-0.6129811346845878,0.4974249267358135,0.19297348665228234,-0.8457652098489299,-0.06986101153792224,0.22211025423377792,-0.308941886707653,0.702999152314497,0.10294958428107691,0.2579077009059418,-0.6547322872679795
15.76999999999992,-0.40189690183497373,0.011159135891871466,-0.7691723719378031,0.4958889783300064,0.2004354419852365,-0.8449191761462196,-0.07933480578415628,0.2272200679759429,-0.33575881259281226,0.700865816541502,0.10036921895883433,0.25973314620009263,-0.6566897548202276
15.77999999999992,-0.21235360549829288,0.08950496599185753,-0.9156761488980171,0.49457116640892207,0.20727705699859067,-0.8440492744799875,-0.07429394325524527,0.22895189938691773,-0.38054124929955757,0.6982151829480887,0.09831157261273774,0.26135907509927975,-0.6591746525042398
15.78999999999992,-0.018720516505663976,0.168409888843258,-1.0529796849072801,0.49353988034156676,0.2132765459016466,-0.8431638875258003,-0.050067870345003644,0.22831207656042463,-0.45049332158958744,0.6949389350065872,0.09693044155692676,0.2627202728432866,-0.6622977785643704
15.799999999999919,0.17086218611852264,0.24642518584222273,-1.1919701044790219,0.49293356854311726,0.21798945343191076,-0.8423094480796193,-0.03356522122211762,0.21592469624842558,-0.4838897763782186,0.690759269032042,0.09655502361029124,0.2636701376658148,-0.6663232372434912
15.809999999999919,0.3396203645459819,0.30827380303094254,-1.327559533114442,0.4924590352236167,0.22212532060847434,-0.8415099534231667,-0.009677058090185502,0.20622210511382882,-0.5199144230592734,0.6860934314674872,0.09663969538878583,0.26439657216230306,-0.6708262094405013
15.819999999999919,0.4752526925316663,0.34391878631244005,-1.4572316672157286,0.4921078582985525,0.22559696215086053,-0.8407934835017549,0.027938048954680765,0.20344073350942588,-0.5681268732311298,0.6808289620997335,0.09725831675333241,0.2648470608435777,-0.6759139116232102
15.829999999999918,0.5730278355185336,0.34104225783724046,-1.5628875391446757,0.4915256389259869,0.22853517747722998,-0.840338857601269,0.054534543043594445,0.20269647607795813,-0.5874851328000501,0.6748978525887197,0.09825213512334269,0.2649084526777758,-0.6816477736255462
15.839999999999918,0.6371368462085082,0.3027758835642518,-1.6610841602955735,0.49053654805812114,0.23140112857513656,-0.8401326274734346,0.09182076657896454,0.1915648204280307,-0.5929350977016892,0.66867609091195,0.09923367412390705,0.26473753424210184,-0.6876795938883357
15.849999999999918,0.6536736957801317,0.21420068737940812,-1.7524324065752022,0.4889190222427385,0.23427178337163307,-0.8402815227222369,0.14965481376356377,0.16251460398866682,-0.5818535638530226,0.6621238948470684,0.10010596528862548,0.2642685546634229,-0.6940589514376646
15.859999999999918,0.6219040700378212,0.056260727709011554,-1.8433586472739099,0.4855390142309819,0.23781020807164466,-0.8412389422289996,0.17810554651048466,0.14704456568979618,-0.5598687989025185,0.6553159242495051,0.10016516451856043,0.2633380417968005,-0.7008061117883028
15.869999999999918,0.5910911204215258,-0.12138350397990474,-1.9342308757974147,0.48086218259285796,0.2417645233836652,-0.8427890100498213,0.20110859326627498,0.1345435725404313,-0.5179876139634265,0.648404980996899,0.09961448894524483,0.2620694460568301,-0.7077592858714975
15.879999999999917,0.5743704693823972,-0.31516773112993657,-2.0251185795476965,0.4744012705013737,0.24626458244815466,-0.8451536118447727,0.22227789553511215,0.12366887257344682,-0.44457809822372507,0.6413822062080291,0.09822072700921064,0.260336267949081,-0.7149732628755362
15.889999999999917,0.546708431791832,-0.49517263693643465,-2.092269230061867,0.46551960801782344,0.25125864100264994,-0.848582246735827,0.2227589116525618,0.11471093220186353,-0.3990427413709013,0.6342151429357111,0.09573348039892435,0.2579469617592219,-0.7224971045553886
15.899999999999917,0.5245727944587034,-0.6513913984457447,-2.1565792937079378,0.4553794630344223,0.256447375302721,-0.8525182991867203,0.20418913525599122,0.09789381600333451,-0.34005985634346586,0.6269735076114661,0.09268168128242006,0.2552276483551068,-0.7301480947276049
15.909999999999917,0.5153077338653923,-0.769266009825377,-2.2224986898099073,0.44368449430421525,0.2618431424174956,-0.8570566044289207,0.157612618342443,0.06659509968757336,-0.2494084550898355,0.6196399772611775,0.08893450416419463,0.25210659823803755,-0.7379378844894673
15.919999999999916,0.5152219249164255,-0.8088719756634971,-2.290703594828267,0.43077232478497685,0.2672621412119824,-0.8619056267971118,0.12908493626824707,0.03794245451895886,-0.20156059077405275,0.611977099312967,0.08471537522303361,0.24870399849447786,-0.7459010351966235
15.929999999999916,0.5329936658349556,-0.8126664526457028,-2.3484578625764483,0.41752962004457644,0.272540802791025,-0.8667738840321124,0.0946268620531127,0.010985665838954503,-0.15535561571892711,0.6040900699580295,0.08042164086074083,0.24521995037005323,-0.7539283691159117
15.939999999999916,0.5805698242291915,-0.7749050050969808,-2.3864399981834326,0.4040539100047364,0.2775562224076005,-0.8715827109200541,0.04385165857285353,-0.013680605920587258,-0.09912575756829634,0.5958940825016692,0.07613532164742205,0.24167289249225815,-0.7620201153121123
15.949999999999916,0.6652412323467722,-0.7240485092574263,-2.3951068840752066,0.39088916434089993,0.2814774042959013,-0.8762766855467506,0.03212750885882972,-0.02137449037358543,-0.07937724009745568,0.5873582331892389,0.07230740570800093,0.23794461870793554,-0.7701111980401032
15.959999999999916,0.7763971046491923,-0.6716485450146366,-2.384993098016074,0.37798493076710143,0.2844121849702887,-0.8810016875247343,0.029082637401103624,-0.018050215572469174,-0.06376528982627527,0.5786948536468967,0.06885744430185956,0.23398044995975298,-0.7781749800089841
15.969999999999915,0.9250626236030077,-0.6206683791268445,-2.3492732477139997,0.36546744037951934,0.2858551657358106,-0.8858228443467085,0.029460263560277925,0.00037109344823089627,-0.04389110737660154,0.5699040310415047,0.06596618356145875,0.2296329831481176,-0.7861877038612499
15.979999999999915,1.080940857229191,-0.5851180983271654,-2.3002050466990367,0.35357493424699643,0.2850173909094041,-0.8908744889917849,0.03852696311696813,0.013164658930141092,-0.027984776101005762,0.5610801003907099,0.06388250034779099,0.22464458152606454,-0.7940709101892066
15.989999999999915,1.2398086126757604,-0.5537210796407419,-2.243041369279605,0.3420215399489834,0.2827222499211797,-0.8961143771564888,0.047634692422894566,0.026429588764079935,-0.004439448119996211,0.5522805847994217,0.06226789443992747,0.2192041312928362,-0.8018663851207029
15.999999999999915,1.4018814310121428,-0.5248464301406397,-2.1749920518821204,0.3309006420665734,0.278423828598098,-0.9016359003878124,0.05372107954606767,0.04261392157721476,0.03528832764888415,0.5435400791122048,0.06127185675685952,0.21311856443762645,-0.8095384888619631
16.009999999999913,1.5340277849043764,-0.4868934820793428,-2.0957601734270463,0.32057008684669086,0.2718026992647846,-0.9073335271826679,0.05464638450819127,0.05698922351606377,0.057627177796290605,0.5349684355847015,0.06103192354599686,0.20635361039636496,-0.8169483219095725
16.019999999999914,1.641408900232767,-0.4484187278508152,-2.0118867582816846,0.3107468210199277,0.26399375551300075,-0.91305249370799,0.05207210627319773,0.06880136555214258,0.08393199475705712,0.5265227809474564,0.061186505593301646,0.1992687728451465,-0.8241688738816528
16.029999999999916,1.7110499580058947,-0.41240711339266084,-1.9230898440770714,0.301628222598362,0.2547169390902556,-0.9187460024791637,0.044524308696320174,0.07621057121744951,0.1248360563410201,0.5182627133441746,0.06183454039744186,0.19180940951775635,-0.8311139154376972
16.039999999999914,1.7261490727451827,-0.39011847916497144,-1.8242714085530158,0.29336383247986214,0.2443126721847621,-0.9241931225723276,0.04829529379399426,0.07412531026064195,0.1467413942872051,0.5103341491699657,0.06286567944540668,0.18416762199010167,-0.8376144520358486
16.049999999999912,1.7183301506962985,-0.37870818815089285,-1.7242526587991744,0.2855091920322655,0.23350029703141242,-0.9294532694082404,0.05638005104907906,0.06522087406920749,0.16634352201646063,0.5026443173065976,0.06400876724586306,0.1765026539767333,-0.8438254944956107
16.059999999999913,1.6862541762748546,-0.3838779228811518,-1.6259470324034988,0.27813860341447066,0.22232101554034234,-0.9344328262241164,0.06859231600797319,0.04629460315022772,0.1891366810831522,0.4953057093770678,0.06522175718865307,0.16886614283042356,-0.8496283352642514
16.069999999999915,1.6046577519953977,-0.41264119670116994,-1.5366875552995316,0.2709672946240883,0.2113125397412804,-0.939050773315157,0.07888957517216418,0.04309183537127375,0.2015913470225781,0.488416636606935,0.06621233802752374,0.16142935535982567,-0.8549465285206004
16.079999999999913,1.5034110906019558,-0.44853491100899556,-1.4502366766257824,0.26382192319665426,0.2006303302025496,-0.9434410525923285,0.08561794780513178,0.0427441833195106,0.21681261611737201,0.4818068132512842,0.0669835306883479,0.1541896595035139,-0.8599766523777829
16.08999999999991,1.3829154645159252,-0.48888886717824326,-1.3656535433332027,0.2566418471714491,0.19056013406345634,-0.9475130895238226,0.08567270261270694,0.04136511351083443,0.24251442763636333,0.47558464280812746,0.06739147289453044,0.14727633346018673,-0.8646162673807395
16.099999999999913,1.2466569032795458,-0.5312448945511923,-1.2899459080779236,0.24930591899650717,0.18158749470110197,-0.9512056127874933,0.08519351015373794,0.03957702793936847,0.26334524430737316,0.4698136961859576,0.06726393731073095,0.1408925967722391,-0.8688212277800893
16.109999999999914,1.105529597413756,-0.5772054461841681,-1.2179380061426155,0.24181353853484489,0.17336114959731683,-0.954686719520346,0.08130349785135349,0.034846324305826425,0.29068602917362596,0.46430978561463865,0.06677984019814481,0.13485252561620753,-0.8727799439765349
16.119999999999912,0.9614334192900466,-0.6300385083162144,-1.1496863186680013,0.23405620063708418,0.16622745569316139,-0.9578914542823228,0.0702524620527864,0.023912620727239986,0.3345424479210818,0.459168557427013,0.06577906336312425,0.1293039300274142,-0.876413192648847
16.12999999999991,0.8038050354370183,-0.6734294380776216,-1.0846282586791236,0.22594279173268256,0.1605461366997371,-0.9607895497857539,0.06616427476311282,0.01888307039140067,0.3580735242036736,0.4544401231783335,0.06414562810718008,0.12440303521392455,-0.879693746769078
16.13999999999991,0.6427033943503102,-0.7098694423139759,-1.020521001561071,0.2176492310061459,0.15580639673242805,-0.9634936902910577,0.060611976975687244,0.013720735126198483,0.37949162050774504,0.44996360593278134,0.06214119885821867,0.11993279009231042,-0.8827629339348009
16.149999999999913,0.4808552768602855,-0.735636678434342,-0.9568838963984653,0.20913700051798098,0.15242220379549856,-0.9659224878557771,0.04815351545669354,0.005188372374035164,0.4067482674894329,0.44583716132138795,0.05963409903594941,0.11609115419590821,-0.8855417006170313
16.15999999999991,0.32787480225249793,-0.7444004652659358,-0.8919557298700307,0.2005563470897114,0.1506176236977108,-0.9680116323409512,0.04538238180038936,0.00046200274152448763,0.4201316473352362,0.4420759489818536,0.05665658843939747,0.11302289552647617,-0.8880111031952639
16.16999999999991,0.1945222330850516,-0.7457543018530053,-0.8190386272354201,0.19202461378504818,0.149642376144278,-0.9699006611115412,0.04303577534009783,-0.0026809295109529604,0.4314987107938252,0.43857895638876565,0.05346526944266839,0.11038722349866659,-0.8902773439066567
16.17999999999991,0.10158854979963565,-0.7394897969576623,-0.7283731578636645,0.183644269734323,0.14970075458104198,-0.9715170568298294,0.036250444381051974,-0.004292418228698096,0.44596633275866254,0.4354884958849217,0.05004282082942137,0.10831898953172488,-0.892246961468483
16.189999999999912,0.05088748253472272,-0.7215533737725748,-0.6355570900104737,0.1755351138197912,0.15028862129537782,-0.9729147291473755,0.03902125585064982,0.0002797489842356615,0.4470639672165332,0.4328865001653608,0.04655543146298813,0.10661548131013418,-0.8939024989081368
16.19999999999991,0.016897569674318526,-0.6933313031875359,-0.5333273115718071,0.1677086398854147,0.15102097315847765,-0.9741903021481407,0.04458215357296174,0.013029952547991122,0.44247666811004144,0.43060520576746747,0.043120563017118634,0.10507609614712697,-0.8953616904273122
16.20999999999991,-0.0026163459180255227,-0.6475947854978891,-0.4099419854686011,0.16039331292635298,0.1517797492312307,-0.9753061277390137,0.05105498086255638,0.04156614821563361,0.43236579974912054,0.4287951808186129,0.039849949690154006,0.10370895033104562,-0.8965413778472625
16.21999999999991,-0.016527462244167034,-0.593193182572265,-0.2580373421251754,0.15392916817947908,0.15236098795773476,-0.9762527388642216,0.05904083474763559,0.055828540678376185,0.4321298471077573,0.4277137044090195,0.03691657235643059,0.10249620294059292,-0.8973219022468845
16.22999999999991,-0.03477898271545921,-0.5291043778314415,-0.09245729505721373,0.14808082632458155,0.15288208649825294,-0.9770826717601052,0.06951534532963109,0.06252175900221905,0.43533232412176753,0.4271396069452813,0.034216733779508145,0.10141846503164104,-0.8978268364723397
16.23999999999991,-0.06732610592627762,-0.4467705373111626,0.0883693573590775,0.14319847972667174,0.15336976703194205,-0.9777346967775643,0.08513716133492462,0.0598009205396016,0.4406232272006822,0.4273438490510306,0.03187392932911807,0.10057330217866542,-0.8979112250938747
16.249999999999908,-0.1318556509656509,-0.36109669844148445,0.2772098207434113,0.1396986679662306,0.1541872577276563,-0.9781127585214733,0.0958189612313976,0.05521108609464487,0.4393314016170534,0.4285098667582482,0.02997999875388938,0.1002148996914341,-0.8974598832694128
16.25999999999991,-0.20855743253958908,-0.281664275988901,0.466321375571402,0.13700839834269038,0.15530158167436947,-0.9783191442445096,0.1079782791097185,0.05224704235890104,0.4304649996634973,0.4302819531911294,0.028320409641008223,0.10018812943616556,-0.8966682186493561
16.26999999999991,-0.2940269827939634,-0.2204019243472108,0.6505700874878677,0.13541701947786833,0.15694153409908584,-0.9782791751437966,0.1273134108834067,0.05470805646634461,0.4069155861814958,0.43292748698676314,0.026945207735608843,0.1006666674324855,-0.8953830913481469
16.27999999999991,-0.36222312249049016,-0.17259431774013714,0.8163909373875698,0.1347743997298824,0.1592162521999859,-0.9779992382104697,0.14531109182636098,0.058637933879838094,0.38463048094861696,0.4364626823056319,0.02575078411177701,0.10166514858996742,-0.893582508751226
16.289999999999907,-0.4232083775474327,-0.1323279731088581,0.9638838309086525,0.13464474251406508,0.1618189476552358,-0.9775899862031121,0.16595207352599667,0.06645198964584476,0.35928888059573333,0.44048877662014646,0.024651083017207222,0.10293749328860673,-0.8914904418632564
16.29999999999991,-0.4781121226178455,-0.10184884306790279,1.076980696645853,0.1351558735342709,0.1648104237095498,-0.9770197828268736,0.19452368393260483,0.08336672782495451,0.32498674608419215,0.44514169384718705,0.02366555848992486,0.10454197415865546,-0.8890166633123416
